"trial_type","trial_index","time_elapsed","internal_node_id","subject_id","task_condition","age","gender","task_version","interactions","blur_events","focus_events","fullscreenenter_events","fullscreenexit_events","success","timeout","failed_images","failed_audio","failed_video","rt","stimulus","response","button_pressed","task_part","approach_reward","points","key_press","option_selected","stim_cat","task_block","block_condition","block_number","correct","cat_type","mean_cat_reward"
"pavlovia","0","4","0.0-0.0","4036","2","16","Female","approach_avoid_spark_v1","""event"",""trial"",""time""
""fullscreenenter"",""1"",""1544""
","
","
","""event"",""trial"",""time""
""fullscreenenter"",""1"",""1544""
","
","","","","","","","","","","","","","","","","","","","","",""
"fullscreen","1","2541","0.0-1.0","4036","2","16","Female","approach_avoid_spark_v1","""event"",""trial"",""time""
""fullscreenenter"",""1"",""1544""
","
","
","""event"",""trial"",""time""
""fullscreenenter"",""1"",""1544""
","
","true","","","","","","","","","","","","","","","","","","","",""
"preload","2","18255","0.0-2.0","4036","2","16","Female","approach_avoid_spark_v1","""event"",""trial"",""time""
""fullscreenenter"",""1"",""1544""
","
","
","""event"",""trial"",""time""
""fullscreenenter"",""1"",""1544""
","
","true","false","[]","[]","[]","","","","","","","","","","","","","","","",""
"audio-keyboard-response","3","120113","0.0-3.0","4036","2","16","Female","approach_avoid_spark_v1","""event"",""trial"",""time""
""fullscreenenter"",""1"",""1544""
","
","
","""event"",""trial"",""time""
""fullscreenenter"",""1"",""1544""
","
","","","","","","101669.33333333333","audio/beep_loop.wav"," ","","","","","","","","","","","","",""
"audio-button-response","4","123760","0.0-4.0","4036","2","16","Female","approach_avoid_spark_v1","""event"",""trial"",""time""
""fullscreenenter"",""1"",""1544""
","
","
","""event"",""trial"",""time""
""fullscreenenter"",""1"",""1544""
","
","","","","","","3408","audio/shark.wav","4","","","","","","","","","","","","",""
"audio-button-response","5","126552","0.0-5.0","4036","2","16","Female","approach_avoid_spark_v1","""event"",""trial"",""time""
""fullscreenenter"",""1"",""1544""
","
","
","""event"",""trial"",""time""
""fullscreenenter"",""1"",""1544""
","
","","","","","","1792","audio/turtle.wav","1","","","","","","","","","","","","",""
"preload","6","136971","0.0-6.0","4036","2","16","Female","approach_avoid_spark_v1","""event"",""trial"",""time""
""fullscreenenter"",""1"",""1544""
","
","
","""event"",""trial"",""time""
""fullscreenenter"",""1"",""1544""
","
","true","false","[]","[]","[]","","","","","","","","","","","","","","","",""
"html-keyboard-response","7","147035","0.0-7.0","4036","2","16","Female","approach_avoid_spark_v1","""event"",""trial"",""time""
""fullscreenenter"",""1"",""1544""
","
","
","""event"",""trial"",""time""
""fullscreenenter"",""1"",""1544""
","
","","","","","","10061.300000011921","Welcome to the experiment. Press any key to begin and to advance the instructions."," ","","","","","","","","","","","","",""
"learning-instructions","8","156696","0.0-8.0-0.0-0.0","4036","2","16","Female","approach_avoid_spark_v1","""event"",""trial"",""time""
""fullscreenenter"",""1"",""1544""
","
","
","""event"",""trial"",""time""
""fullscreenenter"",""1"",""1544""
","
","","","","","","2706.5","<p> Welcome! Today you are going to play 6 different rounds of a decision-making game. </p><p> Use the mouse to click next to continue. </p>","","0","instructions","","","","","","","","","","",""
"learning-instructions","9","161552","0.0-8.0-0.0-0.1","4036","2","16","Female","approach_avoid_spark_v1","""event"",""trial"",""time""
""fullscreenenter"",""1"",""1544""
","
","
","""event"",""trial"",""time""
""fullscreenenter"",""1"",""1544""
","
","","","","","","2102.899999976158","<p> You will start with a practice round to learn the rules. </p>","","0","instructions","","","","","","","","","","",""
"learning-instructions","10","166560","0.0-8.0-0.0-0.2","4036","2","16","Female","approach_avoid_spark_v1","""event"",""trial"",""time""
""fullscreenenter"",""1"",""1544""
","
","
","""event"",""trial"",""time""
""fullscreenenter"",""1"",""1544""
","
","","","","","","1550.199999988079","<p> Your goal in this round is to give out sports equipment to kids. </p></div>","","0","instructions","","","","","","","","","","",""
"learning-instructions","11","175544","0.0-8.0-0.0-0.3","4036","2","16","Female","approach_avoid_spark_v1","""event"",""trial"",""time""
""fullscreenenter"",""1"",""1544""
","
","
","""event"",""trial"",""time""
""fullscreenenter"",""1"",""1544""
","
","","","","","","1424.2999999523163","<p> The kids only like some of the equipment.  </p><p> On each turn, you will see a piece of sports equipment.   </p><p> You need to decide whether to give it to the kids or not.  </p>","","0","instructions","","","","","","","","","","",""
"learning-instructions","12","182344","0.0-8.0-0.0-0.4","4036","2","16","Female","approach_avoid_spark_v1","""event"",""trial"",""time""
""fullscreenenter"",""1"",""1544""
","
","
","""event"",""trial"",""time""
""fullscreenenter"",""1"",""1544""
","
","","","","","","2023.800000011921","<p> You can give them the equipment by pressing 1 and choose not to give it to them by pressing 0. </p><br><div class=""choice-instructions-grid""> <div class=""choice-option""><img src=""images/approach.png"" class=""choice-option-img"" stage=""instructions"" position=""0"" ><div class=""choice-option-text""> Press ""1."" </div></div><div class=""choice-option""><img src=""images/avoid.png"" class=""choice-option-img"" stage=""instructions"" position=""1"" ><div class=""choice-option-text""> Press ""0."" </div></div>","","0","instructions","","","","","","","","","","",""
"learning-instructions","13","212592","0.0-8.0-0.0-0.5","4036","2","16","Female","approach_avoid_spark_v1","""event"",""trial"",""time""
""fullscreenenter"",""1"",""1544""
","
","
","""event"",""trial"",""time""
""fullscreenenter"",""1"",""1544""
","
","","","","","","22852","<p> If you give them a piece of equipment they like, they will be happy! </p><p> But if you give them a piece of equipment they do not like, they will be sad. </p>","","0","instructions","","","","","","","","","","",""
"learning-instructions","14","225128","0.0-8.0-0.0-0.6","4036","2","16","Female","approach_avoid_spark_v1","""event"",""trial"",""time""
""fullscreenenter"",""1"",""1544""
","
","
","""event"",""trial"",""time""
""fullscreenenter"",""1"",""1544""
","
","","","","","","1997.699999988079","<p> You will earn points based on how you make kids feel. </p><p> If you make them happy, you will WIN anywhere from 1 - 9 points, </p><p> but if you make them sad, you will LOSE anywhere from 1 - 9 points. </p>","","0","instructions","","","","","","","","","","",""
"learning-instructions","15","237576","0.0-8.0-0.0-0.7","4036","2","16","Female","approach_avoid_spark_v1","""event"",""trial"",""time""
""fullscreenenter"",""1"",""1544""
","
","
","""event"",""trial"",""time""
""fullscreenenter"",""1"",""1544""
","
","","","","","","2885.900000035763","<p> You will see how many points you won or lost in the center of the screen. </p><p> Here is what you would see if you won 6 points: </p><p style=""color:green;font-size:50px;font-weight:bolder"">6</p><p style=""color:green"">The text is GREEN because you WON points.</p>","","0","instructions","","","","","","","","","","",""
"learning-instructions","16","244639","0.0-8.0-0.0-0.8","4036","2","16","Female","approach_avoid_spark_v1","""event"",""trial"",""time""
""fullscreenenter"",""1"",""1544""
","
","
","""event"",""trial"",""time""
""fullscreenenter"",""1"",""1544""
","
","","","","","","1540","<p> And here is what you would see if you lost 4 points: </p><p style=""color:red;font-size:50px;font-weight:bolder"">-4</p><p style=""color:red"">The text is RED because you LOST points. </p>","","0","instructions","","","","","","","","","","",""
"learning-instructions","17","260975","0.0-8.0-0.0-0.9","4036","2","16","Female","approach_avoid_spark_v1","""event"",""trial"",""time""
""fullscreenenter"",""1"",""1544""
","
","
","""event"",""trial"",""time""
""fullscreenenter"",""1"",""1544""
","
","","","","","","1626.5","<p> Some of the equipment will make the kids VERY happy or sad. </p><p> These pieces of equipment will make you win or lose LOTS of points. </p><p> Other pieces of equipment will only make the kids a little happy or sad. </p><p> These pieces of equipment will make you win or lose small amounts of points. </p>","","0","instructions","","","","","","","","","","",""
"learning-instructions","18","273288","0.0-8.0-0.0-0.10","4036","2","16","Female","approach_avoid_spark_v1","""event"",""trial"",""time""
""fullscreenenter"",""1"",""1544""
","
","
","""event"",""trial"",""time""
""fullscreenenter"",""1"",""1544""
","
","","","","","","1668.300000011921","<p> If you choose not to give them the equipment, you will not win or lose any points. </p><p>  However, in the center of the screen, you will see the number of points you WOULD HAVE won or lost if you had given them the equipment. </p>","","0","instructions","","","","","","","","","","",""
"learning-instructions","19","301656","0.0-8.0-0.0-0.11","4036","2","16","Female","approach_avoid_spark_v1","""event"",""trial"",""time""
""fullscreenenter"",""1"",""1544""
","
","
","""event"",""trial"",""time""
""fullscreenenter"",""1"",""1544""
","
","","","","","","6836.5","<p> Here is what you might see if you did not give the equipment to the kids but it would have made them happy: </p><p style=""color:grey; font-size:50px; display: inline-block; border-spacing: 15px; border-width:3px; border-style:solid; border-color:red"">  &nbsp; 7 &nbsp; </p><p> Remember, in this case, you would not win or lose ANY points because you did not give them the equipment.  </p><p style=""color:grey"">The text is GREY because you earned ZERO points. </p><p style=""color:red"">However, choosing to give the kids the equipment would have made you win points. The box around the text is RED because you chose the worse option. </p>","","0","instructions","","","","","","","","","","",""
"learning-instructions","20","338375","0.0-8.0-0.0-0.12","4036","2","16","Female","approach_avoid_spark_v1","""event"",""trial"",""time""
""fullscreenenter"",""1"",""1544""
","
","
","""event"",""trial"",""time""
""fullscreenenter"",""1"",""1544""
","
","","","","","","15626.100000023842","<p> Here is what you might see if you did not give the equipment to the kids but it would have made them sad: </p><p style=""color:grey;font-size:50px; display: inline-block; border-spacing: 15px; border-width:3px; border-style:solid; border-color:green"">  &nbsp; -8 &nbsp; </p><p> Remember, in this case, you would not win or lose ANY points because you did not give them the equipment.  </p><p style=""color:grey"">The text is GREY because you earned ZERO points. </p><p  style=""color:green""> Choosing to give the kids the equipment would have made you lose points. The box around the text is GREEN because you chose the better option.</p>","","0","instructions","","","","","","","","","","",""
"learning-instructions","21","351351","0.0-8.0-0.0-0.13","4036","2","16","Female","approach_avoid_spark_v1","""event"",""trial"",""time""
""fullscreenenter"",""1"",""1544""
","
","
","""event"",""trial"",""time""
""fullscreenenter"",""1"",""1544""
","
","","","","","","2701.800000011921","<p> You will have 3 seconds to make each choice. Try to respond before time runs out! </p><p> You will lose 5 points each time you do not make a response. </p>","","0","instructions","","","","","","","","","","",""
"learning-instructions","22","359568","0.0-8.0-0.0-0.14","4036","2","16","Female","approach_avoid_spark_v1","""event"",""trial"",""time""
""fullscreenenter"",""1"",""1544""
","
","
","""event"",""trial"",""time""
""fullscreenenter"",""1"",""1544""
","
","","","","","","2798","<p> This is just a practice round, but in the real game, your bonus payment will depend on your total number of points.","","0","instructions","","","","","","","","","","",""
"learning-instructions","23","368047","0.0-8.0-0.0-0.15","4036","2","16","Female","approach_avoid_spark_v1","""event"",""trial"",""time""
""fullscreenenter"",""1"",""1544""
","
","
","""event"",""trial"",""time""
""fullscreenenter"",""1"",""1544""
","
","","","","","","2718","<p> Remember, you can give them the equipment by pressing 1 and choose not to give it to them by pressing 0. </p><br><div class=""choice-instructions-grid""> <div class=""choice-option""><img src=""images/approach.png"" class=""choice-option-img"" stage=""instructions"" position=""0"" ><div class=""choice-option-text""> Press ""1."" </div></div><div class=""choice-option""><img src=""images/avoid.png"" class=""choice-option-img"" stage=""instructions"" position=""1"" ><div class=""choice-option-text""> Press ""0."" </div></div>","","0","instructions","","","","","","","","","","",""
"html-button-response","24","370103","0.0-8.0-1.0","4036","2","16","Female","approach_avoid_spark_v1","""event"",""trial"",""time""
""fullscreenenter"",""1"",""1544""
","
","
","""event"",""trial"",""time""
""fullscreenenter"",""1"",""1544""
","
","","","","","","1949.800000011921","<p> Ready to practice? </p>","0","","","","","","","","","","","","",""
"html-keyboard-response","25","370721","0.0-8.0-2.0-0.0","4036","2","16","Female","approach_avoid_spark_v1","""event"",""trial"",""time""
""fullscreenenter"",""1"",""1544""
","
","
","""event"",""trial"",""time""
""fullscreenenter"",""1"",""1544""
","
","","","","","","null","<div style=""font-size:60px;"">+</div>","null","","fixation","","","","","","","","","","",""
"aa-learning-trial","26","373740","0.0-8.0-2.0-1.0","4036","2","16","Female","approach_avoid_spark_v1","""event"",""trial"",""time""
""fullscreenenter"",""1"",""1544""
","
","
","""event"",""trial"",""time""
""fullscreenenter"",""1"",""1544""
","
","","","","","","1612","images/racket2.png","","","learning","-3","-3","1","1","practice","practice","practice","-1","","",""
"html-keyboard-response","27","374257","0.0-8.0-2.0-0.1","4036","2","16","Female","approach_avoid_spark_v1","""event"",""trial"",""time""
""fullscreenenter"",""1"",""1544""
","
","
","""event"",""trial"",""time""
""fullscreenenter"",""1"",""1544""
","
","","","","","","null","<div style=""font-size:60px;"">+</div>","null","","fixation","","","","","","","","","","",""
"aa-learning-trial","28","377268","0.0-8.0-2.0-1.1","4036","2","16","Female","approach_avoid_spark_v1","""event"",""trial"",""time""
""fullscreenenter"",""1"",""1544""
","
","
","""event"",""trial"",""time""
""fullscreenenter"",""1"",""1544""
","
","","","","","","1587","images/ball2.png","","","learning","7","7","1","1","practice","practice","practice","-1","","",""
"html-keyboard-response","29","377797","0.0-8.0-2.0-0.2","4036","2","16","Female","approach_avoid_spark_v1","""event"",""trial"",""time""
""fullscreenenter"",""1"",""1544""
","
","
","""event"",""trial"",""time""
""fullscreenenter"",""1"",""1544""
","
","","","","","","null","<div style=""font-size:60px;"">+</div>","null","","fixation","","","","","","","","","","",""
"aa-learning-trial","30","380807","0.0-8.0-2.0-1.2","4036","2","16","Female","approach_avoid_spark_v1","""event"",""trial"",""time""
""fullscreenenter"",""1"",""1544""
","
","
","""event"",""trial"",""time""
""fullscreenenter"",""1"",""1544""
","
","","","","","","984.6999999880791","images/ball1.png","","","learning","-5","-5","1","1","practice","practice","practice","-1","","",""
"html-keyboard-response","31","381327","0.0-8.0-2.0-0.3","4036","2","16","Female","approach_avoid_spark_v1","""event"",""trial"",""time""
""fullscreenenter"",""1"",""1544""
","
","
","""event"",""trial"",""time""
""fullscreenenter"",""1"",""1544""
","
","","","","","","null","<div style=""font-size:60px;"">+</div>","null","","fixation","","","","","","","","","","",""
"aa-learning-trial","32","384358","0.0-8.0-2.0-1.3","4036","2","16","Female","approach_avoid_spark_v1","""event"",""trial"",""time""
""fullscreenenter"",""1"",""1544""
","
","
","""event"",""trial"",""time""
""fullscreenenter"",""1"",""1544""
","
","","","","","","1108.7999999523163","images/racket1.png","","","learning","4","4","1","1","practice","practice","practice","-1","","",""
"html-keyboard-response","33","384877","0.0-8.0-2.0-0.4","4036","2","16","Female","approach_avoid_spark_v1","""event"",""trial"",""time""
""fullscreenenter"",""1"",""1544""
","
","
","""event"",""trial"",""time""
""fullscreenenter"",""1"",""1544""
","
","","","","","","null","<div style=""font-size:60px;"">+</div>","null","","fixation","","","","","","","","","","",""
"aa-learning-trial","34","387898","0.0-8.0-2.0-1.4","4036","2","16","Female","approach_avoid_spark_v1","""event"",""trial"",""time""
""fullscreenenter"",""1"",""1544""
","
","
","""event"",""trial"",""time""
""fullscreenenter"",""1"",""1544""
","
","","","","","","1183.2999999523163","images/racket2.png","","","learning","4","4","1","1","practice","practice","practice","-1","","",""
"html-keyboard-response","35","388418","0.0-8.0-2.0-0.5","4036","2","16","Female","approach_avoid_spark_v1","""event"",""trial"",""time""
""fullscreenenter"",""1"",""1544""
","
","
","""event"",""trial"",""time""
""fullscreenenter"",""1"",""1544""
","
","","","","","","null","<div style=""font-size:60px;"">+</div>","null","","fixation","","","","","","","","","","",""
"aa-learning-trial","36","391438","0.0-8.0-2.0-1.5","4036","2","16","Female","approach_avoid_spark_v1","""event"",""trial"",""time""
""fullscreenenter"",""1"",""1544""
","
","
","""event"",""trial"",""time""
""fullscreenenter"",""1"",""1544""
","
","","","","","","1635.8999999761581","images/ball1.png","","","learning","-2","0","0","0","practice","practice","practice","-1","","",""
"html-keyboard-response","37","391957","0.0-8.0-2.0-0.6","4036","2","16","Female","approach_avoid_spark_v1","""event"",""trial"",""time""
""fullscreenenter"",""1"",""1544""
","
","
","""event"",""trial"",""time""
""fullscreenenter"",""1"",""1544""
","
","","","","","","null","<div style=""font-size:60px;"">+</div>","null","","fixation","","","","","","","","","","",""
"aa-learning-trial","38","394967","0.0-8.0-2.0-1.6","4036","2","16","Female","approach_avoid_spark_v1","""event"",""trial"",""time""
""fullscreenenter"",""1"",""1544""
","
","
","""event"",""trial"",""time""
""fullscreenenter"",""1"",""1544""
","
","","","","","","983.6999999880791","images/racket2.png","","","learning","1","1","1","1","practice","practice","practice","-1","","",""
"html-keyboard-response","39","395473","0.0-8.0-2.0-0.7","4036","2","16","Female","approach_avoid_spark_v1","""event"",""trial"",""time""
""fullscreenenter"",""1"",""1544""
","
","
","""event"",""trial"",""time""
""fullscreenenter"",""1"",""1544""
","
","","","","","","null","<div style=""font-size:60px;"">+</div>","null","","fixation","","","","","","","","","","",""
"aa-learning-trial","40","398483","0.0-8.0-2.0-1.7","4036","2","16","Female","approach_avoid_spark_v1","""event"",""trial"",""time""
""fullscreenenter"",""1"",""1544""
","
","
","""event"",""trial"",""time""
""fullscreenenter"",""1"",""1544""
","
","","","","","","930.7999999523163","images/ball1.png","","","learning","7","7","1","1","practice","practice","practice","-1","","",""
"html-keyboard-response","41","398985","0.0-8.0-2.0-0.8","4036","2","16","Female","approach_avoid_spark_v1","""event"",""trial"",""time""
""fullscreenenter"",""1"",""1544""
","
","
","""event"",""trial"",""time""
""fullscreenenter"",""1"",""1544""
","
","","","","","","null","<div style=""font-size:60px;"">+</div>","null","","fixation","","","","","","","","","","",""
"aa-learning-trial","42","401994","0.0-8.0-2.0-1.8","4036","2","16","Female","approach_avoid_spark_v1","""event"",""trial"",""time""
""fullscreenenter"",""1"",""1544""
","
","
","""event"",""trial"",""time""
""fullscreenenter"",""1"",""1544""
","
","","","","","","650.6999999880791","images/ball1.png","","","learning","9","9","1","1","practice","practice","practice","-1","","",""
"html-keyboard-response","43","402498","0.0-8.0-2.0-0.9","4036","2","16","Female","approach_avoid_spark_v1","""event"",""trial"",""time""
""fullscreenenter"",""1"",""1544""
","
","
","""event"",""trial"",""time""
""fullscreenenter"",""1"",""1544""
","
","","","","","","null","<div style=""font-size:60px;"">+</div>","null","","fixation","","","","","","","","","","",""
"aa-learning-trial","44","405522","0.0-8.0-2.0-1.9","4036","2","16","Female","approach_avoid_spark_v1","""event"",""trial"",""time""
""fullscreenenter"",""1"",""1544""
","
","
","""event"",""trial"",""time""
""fullscreenenter"",""1"",""1544""
","
","","","","","","827.1000000238419","images/racket2.png","","","learning","-6","-6","1","1","practice","practice","practice","-1","","",""
"html-keyboard-response","45","406036","0.0-8.0-2.0-0.10","4036","2","16","Female","approach_avoid_spark_v1","""event"",""trial"",""time""
""fullscreenenter"",""1"",""1544""
","
","
","""event"",""trial"",""time""
""fullscreenenter"",""1"",""1544""
","
","","","","","","null","<div style=""font-size:60px;"">+</div>","null","","fixation","","","","","","","","","","",""
"aa-learning-trial","46","409042","0.0-8.0-2.0-1.10","4036","2","16","Female","approach_avoid_spark_v1","""event"",""trial"",""time""
""fullscreenenter"",""1"",""1544""
","
","
","""event"",""trial"",""time""
""fullscreenenter"",""1"",""1544""
","
","","","","","","1344.699999988079","images/racket3.png","","","learning","7","7","1","1","practice","practice","practice","-1","","",""
"html-keyboard-response","47","409561","0.0-8.0-2.0-0.11","4036","2","16","Female","approach_avoid_spark_v1","""event"",""trial"",""time""
""fullscreenenter"",""1"",""1544""
","
","
","""event"",""trial"",""time""
""fullscreenenter"",""1"",""1544""
","
","","","","","","null","<div style=""font-size:60px;"">+</div>","null","","fixation","","","","","","","","","","",""
"aa-learning-trial","48","412570","0.0-8.0-2.0-1.11","4036","2","16","Female","approach_avoid_spark_v1","""event"",""trial"",""time""
""fullscreenenter"",""1"",""1544""
","
","
","""event"",""trial"",""time""
""fullscreenenter"",""1"",""1544""
","
","","","","","","1371.8999999761581","images/ball4.png","","","learning","-8","-8","1","1","practice","practice","practice","-1","","",""
"html-button-response","49","429640","0.0-8.0-3.0","4036","2","16","Female","approach_avoid_spark_v1","""event"",""trial"",""time""
""fullscreenenter"",""1"",""1544""
","
","
","""event"",""trial"",""time""
""fullscreenenter"",""1"",""1544""
","
","","","","","","17065.899999976158","<p> You earned 17 points in the practice round! </p>","0","","break","","","","","","","","","","",""
"learning-instructions","50","437224","0.0-8.0-4.0-0.0","4036","2","16","Female","approach_avoid_spark_v1","""event"",""trial"",""time""
""fullscreenenter"",""1"",""1544""
","
","
","""event"",""trial"",""time""
""fullscreenenter"",""1"",""1544""
","
","","","","","","1423.8999999761581","<p> It's almost time to start the real game. </p><p> Before you start, we're going to ask you a few questions about how the game works. </p>","","0","instructions","","","","","","","","","","",""
"preload","51","453363","0.0-8.0-5.0","4036","2","16","Female","approach_avoid_spark_v1","""event"",""trial"",""time""
""fullscreenenter"",""1"",""1544""
","
","
","""event"",""trial"",""time""
""fullscreenenter"",""1"",""1544""
","
","true","false","[]","[]","[]","","","","","","","","","","","","","","","",""
"comp-q","52","460656","0.0-8.0-6.0-0.0","4036","2","16","Female","approach_avoid_spark_v1","""event"",""trial"",""time""
""fullscreenenter"",""1"",""1544""
","
","
","""event"",""trial"",""time""
""fullscreenenter"",""1"",""1544""
","
","","","","","","2297","<p> <b> True or False? </b> </p><p> If you see a number in GREY, that means you earned that many points. </p>","","1","comp_question","","","","","","","","","true","",""
"comp-q","53","470424","0.0-8.0-6.0-1.0","4036","2","16","Female","approach_avoid_spark_v1","""event"",""trial"",""time""
""fullscreenenter"",""1"",""1544""
","
","
","""event"",""trial"",""time""
""fullscreenenter"",""1"",""1544""
","
","","","","","","1394.3999999761581","<p><b> That's right! </b> If you see a grey number, it means you earned ZERO points. <br> The grey numbers show the points you WOULD HAVE earned if you had made the other choice. </p>","","0","comp_answer","","","","","","","","","","",""
"comp-q","54","476048","0.0-8.0-7.0-0.0","4036","2","16","Female","approach_avoid_spark_v1","""event"",""trial"",""time""
""fullscreenenter"",""1"",""1544""
","
","
","""event"",""trial"",""time""
""fullscreenenter"",""1"",""1544""
","
","","","","","","918.0999999642372","<p> <b> True or False? </b> </p><p> You will have as much time as you want to make each choice. </p>","","1","comp_question","","","","","","","","","true","",""
"comp-q","55","481991","0.0-8.0-7.0-1.0","4036","2","16","Female","approach_avoid_spark_v1","""event"",""trial"",""time""
""fullscreenenter"",""1"",""1544""
","
","
","""event"",""trial"",""time""
""fullscreenenter"",""1"",""1544""
","
","","","","","","1881.9000000357628","<p> <b> That's right! </b> You will only have 3 seconds to make each choice. </p>","","0","comp_answer","","","","","","","","","","",""
"comp-q","56","488087","0.0-8.0-8.0-0.0","4036","2","16","Female","approach_avoid_spark_v1","""event"",""trial"",""time""
""fullscreenenter"",""1"",""1544""
","
","
","""event"",""trial"",""time""
""fullscreenenter"",""1"",""1544""
","
","","","","","","1418.1000000238419","<p> <b> True or False? </b> </p><p> You should use the '1' and '0' keys to make your choices. </p>","","0","comp_question","","","","","","","","","true","",""
"comp-q","57","494343","0.0-8.0-8.0-1.0","4036","2","16","Female","approach_avoid_spark_v1","""event"",""trial"",""time""
""fullscreenenter"",""1"",""1544""
","
","
","""event"",""trial"",""time""
""fullscreenenter"",""1"",""1544""
","
","","","","","","1634.3999999761581","<p> <b> That's right! </b> You should use the '1' and '0' keys to make each choice. </p>","","0","comp_answer","","","","","","","","","","",""
"learning-instructions","58","534583","0.0-8.0-9.0-0.0","4036","2","16","Female","approach_avoid_spark_v1","""event"",""trial"",""time""
""fullscreenenter"",""1"",""1544""
","
","
","""event"",""trial"",""time""
""fullscreenenter"",""1"",""1544""
","
","","","","","","33944.19999998808","<p> It's now time to start the real game. </p>Do your best, because the points you earn in the next rounds will influence your bonus payment. </p>","","0","instructions","","","","","","","","","","",""
"preload","59","534723","0.0-9.0-0.0","4036","2","16","Female","approach_avoid_spark_v1","""event"",""trial"",""time""
""fullscreenenter"",""1"",""1544""
","
","
","""event"",""trial"",""time""
""fullscreenenter"",""1"",""1544""
","
","true","false","[]","[]","[]","","","","","","","","","","","","","","","",""
"learning-instructions","60","544839","0.0-9.0-1.0-0.0","4036","2","16","Female","approach_avoid_spark_v1","""event"",""trial"",""time""
""fullscreenenter"",""1"",""1544""
","
","
","""event"",""trial"",""time""
""fullscreenenter"",""1"",""1544""
","
","","","","","","5380.800000011921","<p> Your goal in this round is to decorate your friend's new house with furniture. </p></div>","","0","instructions","","","","","","","","","","",""
"learning-instructions","61","557879","0.0-9.0-1.0-0.1","4036","2","16","Female","approach_avoid_spark_v1","""event"",""trial"",""time""
""fullscreenenter"",""1"",""1544""
","
","
","""event"",""trial"",""time""
""fullscreenenter"",""1"",""1544""
","
","","","","","","3200.800000011921","<p> Your friend likes some pieces of furniture but not others.  </p><p> On each turn, you will see a piece of furniture.   </p><p> You need to decide whether to put it in your friend's house or not.  </p>","","0","instructions","","","","","","","","","","",""
"learning-instructions","62","567007","0.0-9.0-1.0-0.2","4036","2","16","Female","approach_avoid_spark_v1","""event"",""trial"",""time""
""fullscreenenter"",""1"",""1544""
","
","
","""event"",""trial"",""time""
""fullscreenenter"",""1"",""1544""
","
","","","","","","3379.300000011921","<p> You can put the furniture in her house by pressing 1 and deliver it elsewhere by pressing 0. </p><br><div class=""choice-instructions-grid""> <div class=""choice-option""><img src=""images/approach.png"" class=""choice-option-img"" stage=""instructions"" position=""0"" ><div class=""choice-option-text""> Press ""1."" </div></div><div class=""choice-option""><img src=""images/avoid.png"" class=""choice-option-img"" stage=""instructions"" position=""1"" ><div class=""choice-option-text""> Press ""0."" </div></div>","","0","instructions","","","","","","","","","","",""
"learning-instructions","63","580983","0.0-9.0-1.0-0.3","4036","2","16","Female","approach_avoid_spark_v1","""event"",""trial"",""time""
""fullscreenenter"",""1"",""1544""
","
","
","""event"",""trial"",""time""
""fullscreenenter"",""1"",""1544""
","
","","","","","","5104.600000023842","<p> If you decorate your friend's house with furniture she likes, she will be happy! </p><p> But if you give her furniture that she does not like, she will be annoyed. </p>","","0","instructions","","","","","","","","","","",""
"learning-instructions","64","598063","0.0-9.0-1.0-0.4","4036","2","16","Female","approach_avoid_spark_v1","""event"",""trial"",""time""
""fullscreenenter"",""1"",""1544""
","
","
","""event"",""trial"",""time""
""fullscreenenter"",""1"",""1544""
","
","","","","","","4744.699999988079","<p> You will earn points based on how you made your friend feel. </p><p> If you made her happy, you will WIN anywhere from 1 - 9 points, </p><p> but if you made her annoyed you will LOSE anywhere from 1 - 9 points. </p>","","0","instructions","","","","","","","","","","",""
"learning-instructions","65","611327","0.0-9.0-1.0-0.5","4036","2","16","Female","approach_avoid_spark_v1","""event"",""trial"",""time""
""fullscreenenter"",""1"",""1544""
","
","
","""event"",""trial"",""time""
""fullscreenenter"",""1"",""1544""
","
","","","","","","4618.300000011921","<p> You will see how many points you won or lost in the center of the screen. </p><p> Here is what you would see if you won 5 points: </p><p style=""color:green;font-size:50px;font-weight:bolder"">5</p>","","0","instructions","","","","","","","","","","",""
"learning-instructions","66","618863","0.0-9.0-1.0-0.6","4036","2","16","Female","approach_avoid_spark_v1","""event"",""trial"",""time""
""fullscreenenter"",""1"",""1544""
","
","
","""event"",""trial"",""time""
""fullscreenenter"",""1"",""1544""
","
","","","","","","3944.5","<p> And here is what you would see if you lost 3 points: </p><p style=""color:red;font-size:50px;font-weight:bolder"">-3</p>","","0","instructions","","","","","","","","","","",""
"learning-instructions","67","642615","0.0-9.0-1.0-0.7","4036","2","16","Female","approach_avoid_spark_v1","""event"",""trial"",""time""
""fullscreenenter"",""1"",""1544""
","
","
","""event"",""trial"",""time""
""fullscreenenter"",""1"",""1544""
","
","","","","","","6207.400000035763","<p> Some pieces of furniture will make her feel very happy or very annoyed. </p><p> These pieces of furniture will make you win or lose LOTS of points. </p><p> Other pieces of furniture will only make her feel a little happy or a little annoyed. </p><p> These pieces of furniture will make you win or lose small amounts of points. </p>","","0","instructions","","","","","","","","","","",""
"learning-instructions","68","661062","0.0-9.0-1.0-0.8","4036","2","16","Female","approach_avoid_spark_v1","""event"",""trial"",""time""
""fullscreenenter"",""1"",""1544""
","
","
","""event"",""trial"",""time""
""fullscreenenter"",""1"",""1544""
","
","","","","","","5484.800000011921","<p> If you choose to deliver a piece of furniture elsewhere, you will not win or lose any points. </p><p>  However, in the center of the screen, you will see the number of points you WOULD HAVE won or lost if you had given the furniture to your friend. </p>","","0","instructions","","","","","","","","","","",""
"learning-instructions","69","679534","0.0-9.0-1.0-0.9","4036","2","16","Female","approach_avoid_spark_v1","""event"",""trial"",""time""
""fullscreenenter"",""1"",""1544""
","
","
","""event"",""trial"",""time""
""fullscreenenter"",""1"",""1544""
","
","","","","","","6707.399999976158","<p> Here is what you might see if you did not give a piece of furniture to your friend that would have made her happy: </p><p style=""color:grey; font-size:50px; display: inline-block; border-spacing: 15px; border-width:3px; border-style:solid; border-color:red"">  &nbsp; 6 &nbsp; </p><p> Remember, in this case, you would not win or lose ANY points because you did not give her the furniture.  </p>","","0","instructions","","","","","","","","","","",""
"learning-instructions","70","692590","0.0-9.0-1.0-0.10","4036","2","16","Female","approach_avoid_spark_v1","""event"",""trial"",""time""
""fullscreenenter"",""1"",""1544""
","
","
","""event"",""trial"",""time""
""fullscreenenter"",""1"",""1544""
","
","","","","","","5453.199999988079","<p> Try to make the best choice for each piece of furniture because </p><p> at the end of the game, you will earn bonus money based on how many points you earned. </p>","","0","instructions","","","","","","","","","","",""
"learning-instructions","71","704471","0.0-9.0-1.0-0.11","4036","2","16","Female","approach_avoid_spark_v1","""event"",""trial"",""time""
""fullscreenenter"",""1"",""1544""
","
","
","""event"",""trial"",""time""
""fullscreenenter"",""1"",""1544""
","
","","","","","","3682.7999999523163","<p> You will have 3 seconds to make each choice. Try to respond before time runs out! </p><p> You will lose 5 points each time you do not make a response. </p>","","0","instructions","","","","","","","","","","",""
"html-keyboard-response","72","705090","0.0-9.0-2.0-0.0","4036","2","16","Female","approach_avoid_spark_v1","""event"",""trial"",""time""
""fullscreenenter"",""1"",""1544""
","
","
","""event"",""trial"",""time""
""fullscreenenter"",""1"",""1544""
","
","","","","","","null","<div style=""font-size:60px;"">+</div>","null","","fixation","","","","","","","","","","",""
"aa-learning-trial","73","708106","0.0-9.0-2.0-1.0","4036","2","16","Female","approach_avoid_spark_v1","""event"",""trial"",""time""
""fullscreenenter"",""1"",""1544""
","
","
","""event"",""trial"",""time""
""fullscreenenter"",""1"",""1544""
","
","","","","","","1470","images/sofa1.png","","","learning","-4","-4","1","1","sofa","furniture","2","0","","bad","[-4]"
"html-keyboard-response","74","708611","0.0-9.0-2.0-0.1","4036","2","16","Female","approach_avoid_spark_v1","""event"",""trial"",""time""
""fullscreenenter"",""1"",""1544""
","
","
","""event"",""trial"",""time""
""fullscreenenter"",""1"",""1544""
","
","","","","","","null","<div style=""font-size:60px;"">+</div>","null","","fixation","","","","","","","","","","",""
"aa-learning-trial","75","711637","0.0-9.0-2.0-1.1","4036","2","16","Female","approach_avoid_spark_v1","""event"",""trial"",""time""
""fullscreenenter"",""1"",""1544""
","
","
","""event"",""trial"",""time""
""fullscreenenter"",""1"",""1544""
","
","","","","","","1296.5999999642372","images/chair5.png","","","learning","-6","-6","1","1","chair","furniture","2","0","","neutral","0"
"html-keyboard-response","76","712155","0.0-9.0-2.0-0.2","4036","2","16","Female","approach_avoid_spark_v1","""event"",""trial"",""time""
""fullscreenenter"",""1"",""1544""
","
","
","""event"",""trial"",""time""
""fullscreenenter"",""1"",""1544""
","
","","","","","","null","<div style=""font-size:60px;"">+</div>","null","","fixation","","","","","","","","","","",""
"aa-learning-trial","77","715176","0.0-9.0-2.0-1.2","4036","2","16","Female","approach_avoid_spark_v1","""event"",""trial"",""time""
""fullscreenenter"",""1"",""1544""
","
","
","""event"",""trial"",""time""
""fullscreenenter"",""1"",""1544""
","
","","","","","","863.8999999761581","images/chair1.png","","","learning","-3","0","0","0","chair","furniture","2","0","","neutral","0"
"html-keyboard-response","78","715695","0.0-9.0-2.0-0.3","4036","2","16","Female","approach_avoid_spark_v1","""event"",""trial"",""time""
""fullscreenenter"",""1"",""1544""
","
","
","""event"",""trial"",""time""
""fullscreenenter"",""1"",""1544""
","
","","","","","","null","<div style=""font-size:60px;"">+</div>","null","","fixation","","","","","","","","","","",""
"aa-learning-trial","79","718726","0.0-9.0-2.0-1.3","4036","2","16","Female","approach_avoid_spark_v1","""event"",""trial"",""time""
""fullscreenenter"",""1"",""1544""
","
","
","""event"",""trial"",""time""
""fullscreenenter"",""1"",""1544""
","
","","","","","","1269.1000000238419","images/sofa1.png","","","learning","-4","0","0","0","sofa","furniture","2","0","","bad","[-4]"
"html-keyboard-response","80","719245","0.0-9.0-2.0-0.4","4036","2","16","Female","approach_avoid_spark_v1","""event"",""trial"",""time""
""fullscreenenter"",""1"",""1544""
","
","
","""event"",""trial"",""time""
""fullscreenenter"",""1"",""1544""
","
","","","","","","null","<div style=""font-size:60px;"">+</div>","null","","fixation","","","","","","","","","","",""
"aa-learning-trial","81","722266","0.0-9.0-2.0-1.4","4036","2","16","Female","approach_avoid_spark_v1","""event"",""trial"",""time""
""fullscreenenter"",""1"",""1544""
","
","
","""event"",""trial"",""time""
""fullscreenenter"",""1"",""1544""
","
","","","","","","790.1999999880791","images/bed7.png","","","learning","-2","-2","1","1","bed","furniture","2","0","","good","[5]"
"html-keyboard-response","82","722785","0.0-9.0-2.0-0.5","4036","2","16","Female","approach_avoid_spark_v1","""event"",""trial"",""time""
""fullscreenenter"",""1"",""1544""
","
","
","""event"",""trial"",""time""
""fullscreenenter"",""1"",""1544""
","
","","","","","","null","<div style=""font-size:60px;"">+</div>","null","","fixation","","","","","","","","","","",""
"aa-learning-trial","83","725806","0.0-9.0-2.0-1.5","4036","2","16","Female","approach_avoid_spark_v1","""event"",""trial"",""time""
""fullscreenenter"",""1"",""1544""
","
","
","""event"",""trial"",""time""
""fullscreenenter"",""1"",""1544""
","
","","","","","","834.6000000238419","images/chair1.png","","","learning","-3","0","0","0","chair","furniture","2","0","","neutral","0"
"html-keyboard-response","84","726325","0.0-9.0-2.0-0.6","4036","2","16","Female","approach_avoid_spark_v1","""event"",""trial"",""time""
""fullscreenenter"",""1"",""1544""
","
","
","""event"",""trial"",""time""
""fullscreenenter"",""1"",""1544""
","
","","","","","","null","<div style=""font-size:60px;"">+</div>","null","","fixation","","","","","","","","","","",""
"aa-learning-trial","85","729356","0.0-9.0-2.0-1.6","4036","2","16","Female","approach_avoid_spark_v1","""event"",""trial"",""time""
""fullscreenenter"",""1"",""1544""
","
","
","""event"",""trial"",""time""
""fullscreenenter"",""1"",""1544""
","
","","","","","","541.7999999523163","images/bed6.png","","","learning","-7","-7","1","1","bed","furniture","2","0","","good","[5]"
"html-keyboard-response","86","729875","0.0-9.0-2.0-0.7","4036","2","16","Female","approach_avoid_spark_v1","""event"",""trial"",""time""
""fullscreenenter"",""1"",""1544""
","
","
","""event"",""trial"",""time""
""fullscreenenter"",""1"",""1544""
","
","","","","","","null","<div style=""font-size:60px;"">+</div>","null","","fixation","","","","","","","","","","",""
"aa-learning-trial","87","732882","0.0-9.0-2.0-1.7","4036","2","16","Female","approach_avoid_spark_v1","""event"",""trial"",""time""
""fullscreenenter"",""1"",""1544""
","
","
","""event"",""trial"",""time""
""fullscreenenter"",""1"",""1544""
","
","","","","","","328.89999997615814","images/bed7.png","","","learning","-2","0","0","0","bed","furniture","2","0","","good","[5]"
"html-keyboard-response","88","733385","0.0-9.0-2.0-0.8","4036","2","16","Female","approach_avoid_spark_v1","""event"",""trial"",""time""
""fullscreenenter"",""1"",""1544""
","
","
","""event"",""trial"",""time""
""fullscreenenter"",""1"",""1544""
","
","","","","","","null","<div style=""font-size:60px;"">+</div>","null","","fixation","","","","","","","","","","",""
"aa-learning-trial","89","736398","0.0-9.0-2.0-1.8","4036","2","16","Female","approach_avoid_spark_v1","""event"",""trial"",""time""
""fullscreenenter"",""1"",""1544""
","
","
","""event"",""trial"",""time""
""fullscreenenter"",""1"",""1544""
","
","","","","","","842","images/sofa6.png","","","learning","-8","0","0","0","sofa","furniture","2","0","","bad","[-4]"
"html-keyboard-response","90","736905","0.0-9.0-2.0-0.9","4036","2","16","Female","approach_avoid_spark_v1","""event"",""trial"",""time""
""fullscreenenter"",""1"",""1544""
","
","
","""event"",""trial"",""time""
""fullscreenenter"",""1"",""1544""
","
","","","","","","null","<div style=""font-size:60px;"">+</div>","null","","fixation","","","","","","","","","","",""
"aa-learning-trial","91","739914","0.0-9.0-2.0-1.9","4036","2","16","Female","approach_avoid_spark_v1","""event"",""trial"",""time""
""fullscreenenter"",""1"",""1544""
","
","
","""event"",""trial"",""time""
""fullscreenenter"",""1"",""1544""
","
","","","","","","602.3999999761581","images/chair8.png","","","learning","9","9","1","1","chair","furniture","2","0","","neutral","0"
"html-keyboard-response","92","740416","0.0-9.0-2.0-0.10","4036","2","16","Female","approach_avoid_spark_v1","""event"",""trial"",""time""
""fullscreenenter"",""1"",""1544""
","
","
","""event"",""trial"",""time""
""fullscreenenter"",""1"",""1544""
","
","","","","","","null","<div style=""font-size:60px;"">+</div>","null","","fixation","","","","","","","","","","",""
"aa-learning-trial","93","743425","0.0-9.0-2.0-1.10","4036","2","16","Female","approach_avoid_spark_v1","""event"",""trial"",""time""
""fullscreenenter"",""1"",""1544""
","
","
","""event"",""trial"",""time""
""fullscreenenter"",""1"",""1544""
","
","","","","","","923.3000000119209","images/bed2.png","","","learning","7","7","1","1","bed","furniture","2","0","","good","[5]"
"html-keyboard-response","94","743929","0.0-9.0-2.0-0.11","4036","2","16","Female","approach_avoid_spark_v1","""event"",""trial"",""time""
""fullscreenenter"",""1"",""1544""
","
","
","""event"",""trial"",""time""
""fullscreenenter"",""1"",""1544""
","
","","","","","","null","<div style=""font-size:60px;"">+</div>","null","","fixation","","","","","","","","","","",""
"aa-learning-trial","95","746938","0.0-9.0-2.0-1.11","4036","2","16","Female","approach_avoid_spark_v1","""event"",""trial"",""time""
""fullscreenenter"",""1"",""1544""
","
","
","""event"",""trial"",""time""
""fullscreenenter"",""1"",""1544""
","
","","","","","","879.5","images/bed6.png","","","learning","-7","-7","1","1","bed","furniture","2","0","","good","[5]"
"html-keyboard-response","96","747441","0.0-9.0-2.0-0.12","4036","2","16","Female","approach_avoid_spark_v1","""event"",""trial"",""time""
""fullscreenenter"",""1"",""1544""
","
","
","""event"",""trial"",""time""
""fullscreenenter"",""1"",""1544""
","
","","","","","","null","<div style=""font-size:60px;"">+</div>","null","","fixation","","","","","","","","","","",""
"aa-learning-trial","97","750450","0.0-9.0-2.0-1.12","4036","2","16","Female","approach_avoid_spark_v1","""event"",""trial"",""time""
""fullscreenenter"",""1"",""1544""
","
","
","""event"",""trial"",""time""
""fullscreenenter"",""1"",""1544""
","
","","","","","","1297.5999999642372","images/sofa4.png","","","learning","6","0","0","0","sofa","furniture","2","0","","bad","[-4]"
"html-keyboard-response","98","750952","0.0-9.0-2.0-0.13","4036","2","16","Female","approach_avoid_spark_v1","""event"",""trial"",""time""
""fullscreenenter"",""1"",""1544""
","
","
","""event"",""trial"",""time""
""fullscreenenter"",""1"",""1544""
","
","","","","","","null","<div style=""font-size:60px;"">+</div>","null","","fixation","","","","","","","","","","",""
"aa-learning-trial","99","753962","0.0-9.0-2.0-1.13","4036","2","16","Female","approach_avoid_spark_v1","""event"",""trial"",""time""
""fullscreenenter"",""1"",""1544""
","
","
","""event"",""trial"",""time""
""fullscreenenter"",""1"",""1544""
","
","","","","","","1708","images/chair5.png","","","learning","-6","-6","1","1","chair","furniture","2","0","","neutral","0"
"html-keyboard-response","100","754465","0.0-9.0-2.0-0.14","4036","2","16","Female","approach_avoid_spark_v1","""event"",""trial"",""time""
""fullscreenenter"",""1"",""1544""
","
","
","""event"",""trial"",""time""
""fullscreenenter"",""1"",""1544""
","
","","","","","","null","<div style=""font-size:60px;"">+</div>","null","","fixation","","","","","","","","","","",""
"aa-learning-trial","101","757474","0.0-9.0-2.0-1.14","4036","2","16","Female","approach_avoid_spark_v1","""event"",""trial"",""time""
""fullscreenenter"",""1"",""1544""
","
","
","""event"",""trial"",""time""
""fullscreenenter"",""1"",""1544""
","
","","","","","","1217.699999988079","images/sofa4.png","","","learning","6","0","0","0","sofa","furniture","2","0","","bad","[-4]"
"html-keyboard-response","102","757978","0.0-9.0-2.0-0.15","4036","2","16","Female","approach_avoid_spark_v1","""event"",""trial"",""time""
""fullscreenenter"",""1"",""1544""
","
","
","""event"",""trial"",""time""
""fullscreenenter"",""1"",""1544""
","
","","","","","","null","<div style=""font-size:60px;"">+</div>","null","","fixation","","","","","","","","","","",""
"aa-learning-trial","103","760985","0.0-9.0-2.0-1.15","4036","2","16","Female","approach_avoid_spark_v1","""event"",""trial"",""time""
""fullscreenenter"",""1"",""1544""
","
","
","""event"",""trial"",""time""
""fullscreenenter"",""1"",""1544""
","
","","","","","","1505.199999988079","images/chair2.png","","","learning","1","1","1","1","chair","furniture","2","0","","neutral","0"
"html-keyboard-response","104","761488","0.0-9.0-2.0-0.16","4036","2","16","Female","approach_avoid_spark_v1","""event"",""trial"",""time""
""fullscreenenter"",""1"",""1544""
","
","
","""event"",""trial"",""time""
""fullscreenenter"",""1"",""1544""
","
","","","","","","null","<div style=""font-size:60px;"">+</div>","null","","fixation","","","","","","","","","","",""
"aa-learning-trial","105","764498","0.0-9.0-2.0-1.16","4036","2","16","Female","approach_avoid_spark_v1","""event"",""trial"",""time""
""fullscreenenter"",""1"",""1544""
","
","
","""event"",""trial"",""time""
""fullscreenenter"",""1"",""1544""
","
","","","","","","978.5999999642372","images/sofa1.png","","","learning","-4","-4","1","1","sofa","furniture","2","0","","bad","[-4]"
"html-keyboard-response","106","765001","0.0-9.0-2.0-0.17","4036","2","16","Female","approach_avoid_spark_v1","""event"",""trial"",""time""
""fullscreenenter"",""1"",""1544""
","
","
","""event"",""trial"",""time""
""fullscreenenter"",""1"",""1544""
","
","","","","","","null","<div style=""font-size:60px;"">+</div>","null","","fixation","","","","","","","","","","",""
"aa-learning-trial","107","768010","0.0-9.0-2.0-1.17","4036","2","16","Female","approach_avoid_spark_v1","""event"",""trial"",""time""
""fullscreenenter"",""1"",""1544""
","
","
","""event"",""trial"",""time""
""fullscreenenter"",""1"",""1544""
","
","","","","","","1338.8999999761581","images/chair8.png","","","learning","9","9","1","1","chair","furniture","2","0","","neutral","0"
"html-keyboard-response","108","768513","0.0-9.0-2.0-0.18","4036","2","16","Female","approach_avoid_spark_v1","""event"",""trial"",""time""
""fullscreenenter"",""1"",""1544""
","
","
","""event"",""trial"",""time""
""fullscreenenter"",""1"",""1544""
","
","","","","","","null","<div style=""font-size:60px;"">+</div>","null","","fixation","","","","","","","","","","",""
"aa-learning-trial","109","771522","0.0-9.0-2.0-1.18","4036","2","16","Female","approach_avoid_spark_v1","""event"",""trial"",""time""
""fullscreenenter"",""1"",""1544""
","
","
","""event"",""trial"",""time""
""fullscreenenter"",""1"",""1544""
","
","","","","","","1121.5","images/chair5.png","","","learning","-6","-6","1","1","chair","furniture","2","0","","neutral","0"
"html-keyboard-response","110","772025","0.0-9.0-2.0-0.19","4036","2","16","Female","approach_avoid_spark_v1","""event"",""trial"",""time""
""fullscreenenter"",""1"",""1544""
","
","
","""event"",""trial"",""time""
""fullscreenenter"",""1"",""1544""
","
","","","","","","null","<div style=""font-size:60px;"">+</div>","null","","fixation","","","","","","","","","","",""
"aa-learning-trial","111","775033","0.0-9.0-2.0-1.19","4036","2","16","Female","approach_avoid_spark_v1","""event"",""trial"",""time""
""fullscreenenter"",""1"",""1544""
","
","
","""event"",""trial"",""time""
""fullscreenenter"",""1"",""1544""
","
","","","","","","2593.699999988079","images/bed6.png","","","learning","-7","0","0","0","bed","furniture","2","0","","good","[5]"
"html-keyboard-response","112","775537","0.0-9.0-2.0-0.20","4036","2","16","Female","approach_avoid_spark_v1","""event"",""trial"",""time""
""fullscreenenter"",""1"",""1544""
","
","
","""event"",""trial"",""time""
""fullscreenenter"",""1"",""1544""
","
","","","","","","null","<div style=""font-size:60px;"">+</div>","null","","fixation","","","","","","","","","","",""
"aa-learning-trial","113","778546","0.0-9.0-2.0-1.20","4036","2","16","Female","approach_avoid_spark_v1","""event"",""trial"",""time""
""fullscreenenter"",""1"",""1544""
","
","
","""event"",""trial"",""time""
""fullscreenenter"",""1"",""1544""
","
","","","","","","1146","images/sofa5.png","","","learning","-1","0","0","0","sofa","furniture","2","0","","bad","[-4]"
"html-keyboard-response","114","779049","0.0-9.0-2.0-0.21","4036","2","16","Female","approach_avoid_spark_v1","""event"",""trial"",""time""
""fullscreenenter"",""1"",""1544""
","
","
","""event"",""trial"",""time""
""fullscreenenter"",""1"",""1544""
","
","","","","","","null","<div style=""font-size:60px;"">+</div>","null","","fixation","","","","","","","","","","",""
"aa-learning-trial","115","782065","0.0-9.0-2.0-1.21","4036","2","16","Female","approach_avoid_spark_v1","""event"",""trial"",""time""
""fullscreenenter"",""1"",""1544""
","
","
","""event"",""trial"",""time""
""fullscreenenter"",""1"",""1544""
","
","","","","","","954.6999999880791","images/bed6.png","","","learning","-7","0","0","0","bed","furniture","2","0","","good","[5]"
"html-keyboard-response","116","782578","0.0-9.0-2.0-0.22","4036","2","16","Female","approach_avoid_spark_v1","""event"",""trial"",""time""
""fullscreenenter"",""1"",""1544""
","
","
","""event"",""trial"",""time""
""fullscreenenter"",""1"",""1544""
","
","","","","","","null","<div style=""font-size:60px;"">+</div>","null","","fixation","","","","","","","","","","",""
"aa-learning-trial","117","785586","0.0-9.0-2.0-1.22","4036","2","16","Female","approach_avoid_spark_v1","""event"",""trial"",""time""
""fullscreenenter"",""1"",""1544""
","
","
","""event"",""trial"",""time""
""fullscreenenter"",""1"",""1544""
","
","","","","","","2121.800000011921","images/sofa1.png","","","learning","-4","-4","1","1","sofa","furniture","2","0","","bad","[-4]"
"html-keyboard-response","118","786091","0.0-9.0-2.0-0.23","4036","2","16","Female","approach_avoid_spark_v1","""event"",""trial"",""time""
""fullscreenenter"",""1"",""1544""
","
","
","""event"",""trial"",""time""
""fullscreenenter"",""1"",""1544""
","
","","","","","","null","<div style=""font-size:60px;"">+</div>","null","","fixation","","","","","","","","","","",""
"aa-learning-trial","119","789098","0.0-9.0-2.0-1.23","4036","2","16","Female","approach_avoid_spark_v1","""event"",""trial"",""time""
""fullscreenenter"",""1"",""1544""
","
","
","""event"",""trial"",""time""
""fullscreenenter"",""1"",""1544""
","
","","","","","","1137.300000011921","images/sofa4.png","","","learning","6","0","0","0","sofa","furniture","2","0","","bad","[-4]"
"html-keyboard-response","120","789602","0.0-9.0-2.0-0.24","4036","2","16","Female","approach_avoid_spark_v1","""event"",""trial"",""time""
""fullscreenenter"",""1"",""1544""
","
","
","""event"",""trial"",""time""
""fullscreenenter"",""1"",""1544""
","
","","","","","","null","<div style=""font-size:60px;"">+</div>","null","","fixation","","","","","","","","","","",""
"aa-learning-trial","121","792611","0.0-9.0-2.0-1.24","4036","2","16","Female","approach_avoid_spark_v1","""event"",""trial"",""time""
""fullscreenenter"",""1"",""1544""
","
","
","""event"",""trial"",""time""
""fullscreenenter"",""1"",""1544""
","
","","","","","","2041.3999999761581","images/bed7.png","","","learning","-2","-2","1","1","bed","furniture","2","0","","good","[5]"
"html-keyboard-response","122","793119","0.0-9.0-2.0-0.25","4036","2","16","Female","approach_avoid_spark_v1","""event"",""trial"",""time""
""fullscreenenter"",""1"",""1544""
","
","
","""event"",""trial"",""time""
""fullscreenenter"",""1"",""1544""
","
","","","","","","null","<div style=""font-size:60px;"">+</div>","null","","fixation","","","","","","","","","","",""
"aa-learning-trial","123","796131","0.0-9.0-2.0-1.25","4036","2","16","Female","approach_avoid_spark_v1","""event"",""trial"",""time""
""fullscreenenter"",""1"",""1544""
","
","
","""event"",""trial"",""time""
""fullscreenenter"",""1"",""1544""
","
","","","","","","1684.699999988079","images/bed2.png","","","learning","7","7","1","1","bed","furniture","2","0","","good","[5]"
"html-keyboard-response","124","796634","0.0-9.0-2.0-0.26","4036","2","16","Female","approach_avoid_spark_v1","""event"",""trial"",""time""
""fullscreenenter"",""1"",""1544""
","
","
","""event"",""trial"",""time""
""fullscreenenter"",""1"",""1544""
","
","","","","","","null","<div style=""font-size:60px;"">+</div>","null","","fixation","","","","","","","","","","",""
"aa-learning-trial","125","799644","0.0-9.0-2.0-1.26","4036","2","16","Female","approach_avoid_spark_v1","""event"",""trial"",""time""
""fullscreenenter"",""1"",""1544""
","
","
","""event"",""trial"",""time""
""fullscreenenter"",""1"",""1544""
","
","","","","","","1162.0999999642372","images/chair5.png","","","learning","-6","0","0","0","chair","furniture","2","0","","neutral","0"
"html-keyboard-response","126","800146","0.0-9.0-2.0-0.27","4036","2","16","Female","approach_avoid_spark_v1","""event"",""trial"",""time""
""fullscreenenter"",""1"",""1544""
","
","
","""event"",""trial"",""time""
""fullscreenenter"",""1"",""1544""
","
","","","","","","null","<div style=""font-size:60px;"">+</div>","null","","fixation","","","","","","","","","","",""
"aa-learning-trial","127","803155","0.0-9.0-2.0-1.27","4036","2","16","Female","approach_avoid_spark_v1","""event"",""trial"",""time""
""fullscreenenter"",""1"",""1544""
","
","
","""event"",""trial"",""time""
""fullscreenenter"",""1"",""1544""
","
","","","","","","1562.1000000238419","images/chair1.png","","","learning","-3","-3","1","1","chair","furniture","2","0","","neutral","0"
"html-keyboard-response","128","803658","0.0-9.0-2.0-0.28","4036","2","16","Female","approach_avoid_spark_v1","""event"",""trial"",""time""
""fullscreenenter"",""1"",""1544""
","
","
","""event"",""trial"",""time""
""fullscreenenter"",""1"",""1544""
","
","","","","","","null","<div style=""font-size:60px;"">+</div>","null","","fixation","","","","","","","","","","",""
"aa-learning-trial","129","806672","0.0-9.0-2.0-1.28","4036","2","16","Female","approach_avoid_spark_v1","""event"",""trial"",""time""
""fullscreenenter"",""1"",""1544""
","
","
","""event"",""trial"",""time""
""fullscreenenter"",""1"",""1544""
","
","","","","","","986","images/sofa4.png","","","learning","6","0","0","0","sofa","furniture","2","0","","bad","[-4]"
"html-keyboard-response","130","807178","0.0-9.0-2.0-0.29","4036","2","16","Female","approach_avoid_spark_v1","""event"",""trial"",""time""
""fullscreenenter"",""1"",""1544""
","
","
","""event"",""trial"",""time""
""fullscreenenter"",""1"",""1544""
","
","","","","","","null","<div style=""font-size:60px;"">+</div>","null","","fixation","","","","","","","","","","",""
"aa-learning-trial","131","810187","0.0-9.0-2.0-1.29","4036","2","16","Female","approach_avoid_spark_v1","""event"",""trial"",""time""
""fullscreenenter"",""1"",""1544""
","
","
","""event"",""trial"",""time""
""fullscreenenter"",""1"",""1544""
","
","","","","","","1667.300000011921","images/bed7.png","","","learning","-2","-2","1","1","bed","furniture","2","0","","good","[5]"
"html-keyboard-response","132","810690","0.0-9.0-2.0-0.30","4036","2","16","Female","approach_avoid_spark_v1","""event"",""trial"",""time""
""fullscreenenter"",""1"",""1544""
","
","
","""event"",""trial"",""time""
""fullscreenenter"",""1"",""1544""
","
","","","","","","null","<div style=""font-size:60px;"">+</div>","null","","fixation","","","","","","","","","","",""
"aa-learning-trial","133","813699","0.0-9.0-2.0-1.30","4036","2","16","Female","approach_avoid_spark_v1","""event"",""trial"",""time""
""fullscreenenter"",""1"",""1544""
","
","
","""event"",""trial"",""time""
""fullscreenenter"",""1"",""1544""
","
","","","","","","1114.0999999642372","images/sofa1.png","","","learning","-4","0","0","0","sofa","furniture","2","0","","bad","[-4]"
"html-keyboard-response","134","814208","0.0-9.0-2.0-0.31","4036","2","16","Female","approach_avoid_spark_v1","""event"",""trial"",""time""
""fullscreenenter"",""1"",""1544""
","
","
","""event"",""trial"",""time""
""fullscreenenter"",""1"",""1544""
","
","","","","","","null","<div style=""font-size:60px;"">+</div>","null","","fixation","","","","","","","","","","",""
"aa-learning-trial","135","817219","0.0-9.0-2.0-1.31","4036","2","16","Female","approach_avoid_spark_v1","""event"",""trial"",""time""
""fullscreenenter"",""1"",""1544""
","
","
","""event"",""trial"",""time""
""fullscreenenter"",""1"",""1544""
","
","","","","","","1244.199999988079","images/sofa3.png","","","learning","4","4","1","1","sofa","furniture","2","0","","bad","[-4]"
"html-keyboard-response","136","817722","0.0-9.0-2.0-0.32","4036","2","16","Female","approach_avoid_spark_v1","""event"",""trial"",""time""
""fullscreenenter"",""1"",""1544""
","
","
","""event"",""trial"",""time""
""fullscreenenter"",""1"",""1544""
","
","","","","","","null","<div style=""font-size:60px;"">+</div>","null","","fixation","","","","","","","","","","",""
"aa-learning-trial","137","820730","0.0-9.0-2.0-1.32","4036","2","16","Female","approach_avoid_spark_v1","""event"",""trial"",""time""
""fullscreenenter"",""1"",""1544""
","
","
","""event"",""trial"",""time""
""fullscreenenter"",""1"",""1544""
","
","","","","","","1338.800000011921","images/chair1.png","","","learning","-3","-3","1","1","chair","furniture","2","0","","neutral","0"
"html-keyboard-response","138","821235","0.0-9.0-2.0-0.33","4036","2","16","Female","approach_avoid_spark_v1","""event"",""trial"",""time""
""fullscreenenter"",""1"",""1544""
","
","
","""event"",""trial"",""time""
""fullscreenenter"",""1"",""1544""
","
","","","","","","null","<div style=""font-size:60px;"">+</div>","null","","fixation","","","","","","","","","","",""
"aa-learning-trial","139","824242","0.0-9.0-2.0-1.33","4036","2","16","Female","approach_avoid_spark_v1","""event"",""trial"",""time""
""fullscreenenter"",""1"",""1544""
","
","
","""event"",""trial"",""time""
""fullscreenenter"",""1"",""1544""
","
","","","","","","1361.699999988079","images/bed3.png","","","learning","-5","-5","1","1","bed","furniture","2","0","","good","[5]"
"html-keyboard-response","140","824746","0.0-9.0-2.0-0.34","4036","2","16","Female","approach_avoid_spark_v1","""event"",""trial"",""time""
""fullscreenenter"",""1"",""1544""
","
","
","""event"",""trial"",""time""
""fullscreenenter"",""1"",""1544""
","
","","","","","","null","<div style=""font-size:60px;"">+</div>","null","","fixation","","","","","","","","","","",""
"aa-learning-trial","141","827754","0.0-9.0-2.0-1.34","4036","2","16","Female","approach_avoid_spark_v1","""event"",""trial"",""time""
""fullscreenenter"",""1"",""1544""
","
","
","""event"",""trial"",""time""
""fullscreenenter"",""1"",""1544""
","
","","","","","","682.1999999880791","images/sofa6.png","","","learning","-8","0","0","0","sofa","furniture","2","0","","bad","[-4]"
"html-keyboard-response","142","828261","0.0-9.0-2.0-0.35","4036","2","16","Female","approach_avoid_spark_v1","""event"",""trial"",""time""
""fullscreenenter"",""1"",""1544""
","
","
","""event"",""trial"",""time""
""fullscreenenter"",""1"",""1544""
","
","","","","","","null","<div style=""font-size:60px;"">+</div>","null","","fixation","","","","","","","","","","",""
"aa-learning-trial","143","831280","0.0-9.0-2.0-1.35","4036","2","16","Female","approach_avoid_spark_v1","""event"",""trial"",""time""
""fullscreenenter"",""1"",""1544""
","
","
","""event"",""trial"",""time""
""fullscreenenter"",""1"",""1544""
","
","","","","","","750.8999999761581","images/bed7.png","","","learning","-2","-2","1","1","bed","furniture","2","0","","good","[5]"
"html-keyboard-response","144","831786","0.0-9.0-2.0-0.36","4036","2","16","Female","approach_avoid_spark_v1","""event"",""trial"",""time""
""fullscreenenter"",""1"",""1544""
","
","
","""event"",""trial"",""time""
""fullscreenenter"",""1"",""1544""
","
","","","","","","null","<div style=""font-size:60px;"">+</div>","null","","fixation","","","","","","","","","","",""
"aa-learning-trial","145","834796","0.0-9.0-2.0-1.36","4036","2","16","Female","approach_avoid_spark_v1","""event"",""trial"",""time""
""fullscreenenter"",""1"",""1544""
","
","
","""event"",""trial"",""time""
""fullscreenenter"",""1"",""1544""
","
","","","","","","1378.5","images/chair3.png","","","learning","5","0","0","0","chair","furniture","2","0","","neutral","0"
"html-keyboard-response","146","835298","0.0-9.0-2.0-0.37","4036","2","16","Female","approach_avoid_spark_v1","""event"",""trial"",""time""
""fullscreenenter"",""1"",""1544""
","
","
","""event"",""trial"",""time""
""fullscreenenter"",""1"",""1544""
","
","","","","","","null","<div style=""font-size:60px;"">+</div>","null","","fixation","","","","","","","","","","",""
"aa-learning-trial","147","838306","0.0-9.0-2.0-1.37","4036","2","16","Female","approach_avoid_spark_v1","""event"",""trial"",""time""
""fullscreenenter"",""1"",""1544""
","
","
","""event"",""trial"",""time""
""fullscreenenter"",""1"",""1544""
","
","","","","","","1042.800000011921","images/chair8.png","","","learning","9","9","1","1","chair","furniture","2","0","","neutral","0"
"html-keyboard-response","148","838817","0.0-9.0-2.0-0.38","4036","2","16","Female","approach_avoid_spark_v1","""event"",""trial"",""time""
""fullscreenenter"",""1"",""1544""
","
","
","""event"",""trial"",""time""
""fullscreenenter"",""1"",""1544""
","
","","","","","","null","<div style=""font-size:60px;"">+</div>","null","","fixation","","","","","","","","","","",""
"aa-learning-trial","149","841827","0.0-9.0-2.0-1.38","4036","2","16","Female","approach_avoid_spark_v1","""event"",""trial"",""time""
""fullscreenenter"",""1"",""1544""
","
","
","""event"",""trial"",""time""
""fullscreenenter"",""1"",""1544""
","
","","","","","","995.8000000119209","images/chair5.png","","","learning","-6","0","0","0","chair","furniture","2","0","","neutral","0"
"html-keyboard-response","150","842332","0.0-9.0-2.0-0.39","4036","2","16","Female","approach_avoid_spark_v1","""event"",""trial"",""time""
""fullscreenenter"",""1"",""1544""
","
","
","""event"",""trial"",""time""
""fullscreenenter"",""1"",""1544""
","
","","","","","","null","<div style=""font-size:60px;"">+</div>","null","","fixation","","","","","","","","","","",""
"aa-learning-trial","151","845340","0.0-9.0-2.0-1.39","4036","2","16","Female","approach_avoid_spark_v1","""event"",""trial"",""time""
""fullscreenenter"",""1"",""1544""
","
","
","""event"",""trial"",""time""
""fullscreenenter"",""1"",""1544""
","
","","","","","","985.5","images/sofa6.png","","","learning","-8","-8","1","1","sofa","furniture","2","0","","bad","[-4]"
"html-keyboard-response","152","845842","0.0-9.0-2.0-0.40","4036","2","16","Female","approach_avoid_spark_v1","""event"",""trial"",""time""
""fullscreenenter"",""1"",""1544""
","
","
","""event"",""trial"",""time""
""fullscreenenter"",""1"",""1544""
","
","","","","","","null","<div style=""font-size:60px;"">+</div>","null","","fixation","","","","","","","","","","",""
"aa-learning-trial","153","848857","0.0-9.0-2.0-1.40","4036","2","16","Female","approach_avoid_spark_v1","""event"",""trial"",""time""
""fullscreenenter"",""1"",""1544""
","
","
","""event"",""trial"",""time""
""fullscreenenter"",""1"",""1544""
","
","","","","","","1314.3999999761581","images/chair1.png","","","learning","-3","-3","1","1","chair","furniture","2","0","","neutral","0"
"html-keyboard-response","154","849362","0.0-9.0-2.0-0.41","4036","2","16","Female","approach_avoid_spark_v1","""event"",""trial"",""time""
""fullscreenenter"",""1"",""1544""
","
","
","""event"",""trial"",""time""
""fullscreenenter"",""1"",""1544""
","
","","","","","","null","<div style=""font-size:60px;"">+</div>","null","","fixation","","","","","","","","","","",""
"aa-learning-trial","155","852370","0.0-9.0-2.0-1.41","4036","2","16","Female","approach_avoid_spark_v1","""event"",""trial"",""time""
""fullscreenenter"",""1"",""1544""
","
","
","""event"",""trial"",""time""
""fullscreenenter"",""1"",""1544""
","
","","","","","","755.1999999880791","images/chair1.png","","","learning","-3","0","0","0","chair","furniture","2","0","","neutral","0"
"html-keyboard-response","156","852874","0.0-9.0-2.0-0.42","4036","2","16","Female","approach_avoid_spark_v1","""event"",""trial"",""time""
""fullscreenenter"",""1"",""1544""
","
","
","""event"",""trial"",""time""
""fullscreenenter"",""1"",""1544""
","
","","","","","","null","<div style=""font-size:60px;"">+</div>","null","","fixation","","","","","","","","","","",""
"aa-learning-trial","157","855883","0.0-9.0-2.0-1.42","4036","2","16","Female","approach_avoid_spark_v1","""event"",""trial"",""time""
""fullscreenenter"",""1"",""1544""
","
","
","""event"",""trial"",""time""
""fullscreenenter"",""1"",""1544""
","
","","","","","","842.6999999880791","images/chair5.png","","","learning","-6","0","0","0","chair","furniture","2","0","","neutral","0"
"html-keyboard-response","158","856387","0.0-9.0-2.0-0.43","4036","2","16","Female","approach_avoid_spark_v1","""event"",""trial"",""time""
""fullscreenenter"",""1"",""1544""
","
","
","""event"",""trial"",""time""
""fullscreenenter"",""1"",""1544""
","
","","","","","","null","<div style=""font-size:60px;"">+</div>","null","","fixation","","","","","","","","","","",""
"aa-learning-trial","159","859400","0.0-9.0-2.0-1.43","4036","2","16","Female","approach_avoid_spark_v1","""event"",""trial"",""time""
""fullscreenenter"",""1"",""1544""
","
","
","""event"",""trial"",""time""
""fullscreenenter"",""1"",""1544""
","
","","","","","","1881","images/bed6.png","","","learning","-7","0","0","0","bed","furniture","2","0","","good","[5]"
"html-keyboard-response","160","859907","0.0-9.0-2.0-0.44","4036","2","16","Female","approach_avoid_spark_v1","""event"",""trial"",""time""
""fullscreenenter"",""1"",""1544""
","
","
","""event"",""trial"",""time""
""fullscreenenter"",""1"",""1544""
","
","","","","","","null","<div style=""font-size:60px;"">+</div>","null","","fixation","","","","","","","","","","",""
"aa-learning-trial","161","862914","0.0-9.0-2.0-1.44","4036","2","16","Female","approach_avoid_spark_v1","""event"",""trial"",""time""
""fullscreenenter"",""1"",""1544""
","
","
","""event"",""trial"",""time""
""fullscreenenter"",""1"",""1544""
","
","","","","","","1307.0999999642372","images/bed2.png","","","learning","7","7","1","1","bed","furniture","2","0","","good","[5]"
"html-keyboard-response","162","863420","0.0-9.0-2.0-0.45","4036","2","16","Female","approach_avoid_spark_v1","""event"",""trial"",""time""
""fullscreenenter"",""1"",""1544""
","
","
","""event"",""trial"",""time""
""fullscreenenter"",""1"",""1544""
","
","","","","","","null","<div style=""font-size:60px;"">+</div>","null","","fixation","","","","","","","","","","",""
"aa-learning-trial","163","866427","0.0-9.0-2.0-1.45","4036","2","16","Female","approach_avoid_spark_v1","""event"",""trial"",""time""
""fullscreenenter"",""1"",""1544""
","
","
","""event"",""trial"",""time""
""fullscreenenter"",""1"",""1544""
","
","","","","","","1202","images/bed6.png","","","learning","-7","0","0","0","bed","furniture","2","0","","good","[5]"
"html-keyboard-response","164","866930","0.0-9.0-2.0-0.46","4036","2","16","Female","approach_avoid_spark_v1","""event"",""trial"",""time""
""fullscreenenter"",""1"",""1544""
","
","
","""event"",""trial"",""time""
""fullscreenenter"",""1"",""1544""
","
","","","","","","null","<div style=""font-size:60px;"">+</div>","null","","fixation","","","","","","","","","","",""
"aa-learning-trial","165","869940","0.0-9.0-2.0-1.46","4036","2","16","Female","approach_avoid_spark_v1","""event"",""trial"",""time""
""fullscreenenter"",""1"",""1544""
","
","
","""event"",""trial"",""time""
""fullscreenenter"",""1"",""1544""
","
","","","","","","1122.199999988079","images/sofa4.png","","","learning","6","0","0","0","sofa","furniture","2","0","","bad","[-4]"
"html-keyboard-response","166","870442","0.0-9.0-2.0-0.47","4036","2","16","Female","approach_avoid_spark_v1","""event"",""trial"",""time""
""fullscreenenter"",""1"",""1544""
","
","
","""event"",""trial"",""time""
""fullscreenenter"",""1"",""1544""
","
","","","","","","null","<div style=""font-size:60px;"">+</div>","null","","fixation","","","","","","","","","","",""
"aa-learning-trial","167","873450","0.0-9.0-2.0-1.47","4036","2","16","Female","approach_avoid_spark_v1","""event"",""trial"",""time""
""fullscreenenter"",""1"",""1544""
","
","
","""event"",""trial"",""time""
""fullscreenenter"",""1"",""1544""
","
","","","","","","1386.0999999642372","images/sofa1.png","","","learning","-4","0","0","0","sofa","furniture","2","0","","bad","[-4]"
"html-keyboard-response","168","873954","0.0-9.0-2.0-0.48","4036","2","16","Female","approach_avoid_spark_v1","""event"",""trial"",""time""
""fullscreenenter"",""1"",""1544""
","
","
","""event"",""trial"",""time""
""fullscreenenter"",""1"",""1544""
","
","","","","","","null","<div style=""font-size:60px;"">+</div>","null","","fixation","","","","","","","","","","",""
"aa-learning-trial","169","876962","0.0-9.0-2.0-1.48","4036","2","16","Female","approach_avoid_spark_v1","""event"",""trial"",""time""
""fullscreenenter"",""1"",""1544""
","
","
","""event"",""trial"",""time""
""fullscreenenter"",""1"",""1544""
","
","","","","","","1385.699999988079","images/bed7.png","","","learning","-2","0","0","0","bed","furniture","2","0","","good","[5]"
"html-keyboard-response","170","877466","0.0-9.0-2.0-0.49","4036","2","16","Female","approach_avoid_spark_v1","""event"",""trial"",""time""
""fullscreenenter"",""1"",""1544""
","
","
","""event"",""trial"",""time""
""fullscreenenter"",""1"",""1544""
","
","","","","","","null","<div style=""font-size:60px;"">+</div>","null","","fixation","","","","","","","","","","",""
"aa-learning-trial","171","880475","0.0-9.0-2.0-1.49","4036","2","16","Female","approach_avoid_spark_v1","""event"",""trial"",""time""
""fullscreenenter"",""1"",""1544""
","
","
","""event"",""trial"",""time""
""fullscreenenter"",""1"",""1544""
","
","","","","","","1259","images/sofa4.png","","","learning","6","6","1","1","sofa","furniture","2","0","","bad","[-4]"
"html-keyboard-response","172","880978","0.0-9.0-2.0-0.50","4036","2","16","Female","approach_avoid_spark_v1","""event"",""trial"",""time""
""fullscreenenter"",""1"",""1544""
","
","
","""event"",""trial"",""time""
""fullscreenenter"",""1"",""1544""
","
","","","","","","null","<div style=""font-size:60px;"">+</div>","null","","fixation","","","","","","","","","","",""
"aa-learning-trial","173","883987","0.0-9.0-2.0-1.50","4036","2","16","Female","approach_avoid_spark_v1","""event"",""trial"",""time""
""fullscreenenter"",""1"",""1544""
","
","
","""event"",""trial"",""time""
""fullscreenenter"",""1"",""1544""
","
","","","","","","1193.4000000357628","images/bed4.png","","","learning","3","0","0","0","bed","furniture","2","0","","good","[5]"
"html-button-response","174","894039","0.0-9.0-3.0","4036","2","16","Female","approach_avoid_spark_v1","""event"",""trial"",""time""
""fullscreenenter"",""1"",""1544""
","
","
","""event"",""trial"",""time""
""fullscreenenter"",""1"",""1544""
","
","","","","","","10049.699999988079","<p> You have completed the round! <p> In this round, you earned -15 points! </p>","0","","break","","","","","","","","","","",""
"html-button-response","175","898295","0.0-10.0","4036","2","16","Female","approach_avoid_spark_v1","""event"",""trial"",""time""
""fullscreenenter"",""1"",""1544""
","
","
","""event"",""trial"",""time""
""fullscreenenter"",""1"",""1544""
","
","","","","","","4255.199999988079","<p> Now it's time to play another round. </p>","0","","transition_screen","","","","","","","","","","",""
"preload","176","898445","0.0-11.0-0.0","4036","2","16","Female","approach_avoid_spark_v1","""event"",""trial"",""time""
""fullscreenenter"",""1"",""1544""
","
","
","""event"",""trial"",""time""
""fullscreenenter"",""1"",""1544""
","
","true","false","[]","[]","[]","","","","","","","","","","","","","","","",""
"learning-instructions","177","906375","0.0-11.0-1.0-0.0","4036","2","16","Female","approach_avoid_spark_v1","""event"",""trial"",""time""
""fullscreenenter"",""1"",""1544""
","
","
","""event"",""trial"",""time""
""fullscreenenter"",""1"",""1544""
","
","","","","","","2404.800000011921","<p> Your goal in this round is to take your friend for rides in different vehicles. </p></div>","","0","instructions","","","","","","","","","","",""
"learning-instructions","178","918023","0.0-11.0-1.0-0.1","4036","2","16","Female","approach_avoid_spark_v1","""event"",""trial"",""time""
""fullscreenenter"",""1"",""1544""
","
","
","""event"",""trial"",""time""
""fullscreenenter"",""1"",""1544""
","
","","","","","","1282.800000011921","<p> Your friend enjoys riding in some vehicles but not in others.  </p><p> On each turn, you will see a vehicle.   </p><p> You need to decide whether to take your friend for a ride or not.  </p>","","0","instructions","","","","","","","","","","",""
"learning-instructions","179","926039","0.0-11.0-1.0-0.2","4036","2","16","Female","approach_avoid_spark_v1","""event"",""trial"",""time""
""fullscreenenter"",""1"",""1544""
","
","
","""event"",""trial"",""time""
""fullscreenenter"",""1"",""1544""
","
","","","","","","1229.0999999642372","<p> You can take your friend for a ride in the vehicle by pressing 1 and skip the ride by pressing 0. </p><br><div class=""choice-instructions-grid""> <div class=""choice-option""><img src=""images/approach.png"" class=""choice-option-img"" stage=""instructions"" position=""0"" ><div class=""choice-option-text""> Press ""1."" </div></div><div class=""choice-option""><img src=""images/avoid.png"" class=""choice-option-img"" stage=""instructions"" position=""1"" ><div class=""choice-option-text""> Press ""0."" </div></div>","","0","instructions","","","","","","","","","","",""
"learning-instructions","180","936327","0.0-11.0-1.0-0.3","4036","2","16","Female","approach_avoid_spark_v1","""event"",""trial"",""time""
""fullscreenenter"",""1"",""1544""
","
","
","""event"",""trial"",""time""
""fullscreenenter"",""1"",""1544""
","
","","","","","","1307.3999999761581","<p> If you take them for a ride in a vehicle they like, they will be thrilled! </p><p> But if you take them for a ride in a vehicle they do not like, they will be upset. </p>","","0","instructions","","","","","","","","","","",""
"learning-instructions","181","949279","0.0-11.0-1.0-0.4","4036","2","16","Female","approach_avoid_spark_v1","""event"",""trial"",""time""
""fullscreenenter"",""1"",""1544""
","
","
","""event"",""trial"",""time""
""fullscreenenter"",""1"",""1544""
","
","","","","","","979.2000000476837","<p> You will earn points based on how you made your friend feel. </p><p> If you made him thrilled, you will WIN anywhere from 1 - 9 points, </p><p> but if you made him upset, you will LOSE anywhere from 1 - 9 points. </p>","","0","instructions","","","","","","","","","","",""
"learning-instructions","182","960047","0.0-11.0-1.0-0.5","4036","2","16","Female","approach_avoid_spark_v1","""event"",""trial"",""time""
""fullscreenenter"",""1"",""1544""
","
","
","""event"",""trial"",""time""
""fullscreenenter"",""1"",""1544""
","
","","","","","","4106.699999988079","<p> You will see how many points you won or lost in the center of the screen. </p><p> Here is what you would see if you won 5 points: </p><p style=""color:green;font-size:50px;font-weight:bolder"">5</p>","","0","instructions","","","","","","","","","","",""
"learning-instructions","183","964055","0.0-11.0-1.0-0.6","4036","2","16","Female","approach_avoid_spark_v1","""event"",""trial"",""time""
""fullscreenenter"",""1"",""1544""
","
","
","""event"",""trial"",""time""
""fullscreenenter"",""1"",""1544""
","
","","","","","","1155.6000000238419","<p> And here is what you would see if you lost 3 points: </p><p style=""color:red;font-size:50px;font-weight:bolder"">-3</p>","","0","instructions","","","","","","","","","","",""
"learning-instructions","184","982030","0.0-11.0-1.0-0.7","4036","2","16","Female","approach_avoid_spark_v1","""event"",""trial"",""time""
""fullscreenenter"",""1"",""1544""
","
","
","""event"",""trial"",""time""
""fullscreenenter"",""1"",""1544""
","
","","","","","","2520.5","<p> Some vehicles will make your friend REALLY thrilled or upset. </p><p> These vehicles will make you win or lose LOTS of points. </p><p> Other vehicles will only make him feel a little thrilled or upset. </p><p> These vehicles will make you win or lose small amounts of points. </p>","","0","instructions","","","","","","","","","","",""
"learning-instructions","185","1001590","0.0-11.0-1.0-0.8","4036","2","16","Female","approach_avoid_spark_v1","""event"",""trial"",""time""
""fullscreenenter"",""1"",""1544""
","
","
","""event"",""trial"",""time""
""fullscreenenter"",""1"",""1544""
","
","","","","","","7581.400000035763","<p> If you choose to skip the ride, you will not win or lose any points. </p><p>  However, in the center of the screen, you will see the number of points you WOULD HAVE won or lost if you had taken your friend for a ride. </p>","","0","instructions","","","","","","","","","","",""
"learning-instructions","186","1014366","0.0-11.0-1.0-0.9","4036","2","16","Female","approach_avoid_spark_v1","""event"",""trial"",""time""
""fullscreenenter"",""1"",""1544""
","
","
","""event"",""trial"",""time""
""fullscreenenter"",""1"",""1544""
","
","","","","","","1307.300000011921","<p> Here is what you might see if you did not take your friend for a ride but he would have enjoyed it: </p><p style=""color:grey; font-size:50px; display: inline-block; border-spacing: 15px; border-width:3px; border-style:solid; border-color:red"">  &nbsp; 6 &nbsp; </p><p> Remember, in this case, you would not win or lose ANY points because you skipped the ride.  </p>","","0","instructions","","","","","","","","","","",""
"learning-instructions","187","1023902","0.0-11.0-1.0-0.10","4036","2","16","Female","approach_avoid_spark_v1","""event"",""trial"",""time""
""fullscreenenter"",""1"",""1544""
","
","
","""event"",""trial"",""time""
""fullscreenenter"",""1"",""1544""
","
","","","","","","1843.6000000238419","<p> Try to make the best choice for each vehicle because </p><p> at the end of the game, you will earn bonus money based on how many points you earned. </p>","","0","instructions","","","","","","","","","","",""
"learning-instructions","188","1034694","0.0-11.0-1.0-0.11","4036","2","16","Female","approach_avoid_spark_v1","""event"",""trial"",""time""
""fullscreenenter"",""1"",""1544""
","
","
","""event"",""trial"",""time""
""fullscreenenter"",""1"",""1544""
","
","","","","","","2585.399999976158","<p> You will have 3 seconds to make each choice. Try to respond before time runs out! </p><p> You will lose 5 points each time you do not make a response. </p>","","0","instructions","","","","","","","","","","",""
"html-keyboard-response","189","1035323","0.0-11.0-2.0-0.0","4036","2","16","Female","approach_avoid_spark_v1","""event"",""trial"",""time""
""fullscreenenter"",""1"",""1544""
","
","
","""event"",""trial"",""time""
""fullscreenenter"",""1"",""1544""
","
","","","","","","null","<div style=""font-size:60px;"">+</div>","null","","fixation","","","","","","","","","","",""
"aa-learning-trial","190","1038358","0.0-11.0-2.0-1.0","4036","2","16","Female","approach_avoid_spark_v1","""event"",""trial"",""time""
""fullscreenenter"",""1"",""1544""
","
","
","""event"",""trial"",""time""
""fullscreenenter"",""1"",""1544""
","
","","","","","","1414","images/plane8.png","","","learning","-1","-1","1","1","plane","vehicles","1","1","","neutral","0"
"html-keyboard-response","191","1038867","0.0-11.0-2.0-0.1","4036","2","16","Female","approach_avoid_spark_v1","""event"",""trial"",""time""
""fullscreenenter"",""1"",""1544""
","
","
","""event"",""trial"",""time""
""fullscreenenter"",""1"",""1544""
","
","","","","","","null","<div style=""font-size:60px;"">+</div>","null","","fixation","","","","","","","","","","",""
"aa-learning-trial","192","1041889","0.0-11.0-2.0-1.1","4036","2","16","Female","approach_avoid_spark_v1","""event"",""trial"",""time""
""fullscreenenter"",""1"",""1544""
","
","
","""event"",""trial"",""time""
""fullscreenenter"",""1"",""1544""
","
","","","","","","1168.800000011921","images/truck3.png","","","learning","4","4","1","1","truck","vehicles","1","1","","good","[4]"
"html-keyboard-response","193","1042403","0.0-11.0-2.0-0.2","4036","2","16","Female","approach_avoid_spark_v1","""event"",""trial"",""time""
""fullscreenenter"",""1"",""1544""
","
","
","""event"",""trial"",""time""
""fullscreenenter"",""1"",""1544""
","
","","","","","","null","<div style=""font-size:60px;"">+</div>","null","","fixation","","","","","","","","","","",""
"aa-learning-trial","194","1045427","0.0-11.0-2.0-1.2","4036","2","16","Female","approach_avoid_spark_v1","""event"",""trial"",""time""
""fullscreenenter"",""1"",""1544""
","
","
","""event"",""trial"",""time""
""fullscreenenter"",""1"",""1544""
","
","","","","","","1152.9000000357628","images/plane2.png","","","learning","-1","-1","1","1","plane","vehicles","1","1","","neutral","0"
"html-keyboard-response","195","1045947","0.0-11.0-2.0-0.3","4036","2","16","Female","approach_avoid_spark_v1","""event"",""trial"",""time""
""fullscreenenter"",""1"",""1544""
","
","
","""event"",""trial"",""time""
""fullscreenenter"",""1"",""1544""
","
","","","","","","null","<div style=""font-size:60px;"">+</div>","null","","fixation","","","","","","","","","","",""
"aa-learning-trial","196","1048968","0.0-11.0-2.0-1.3","4036","2","16","Female","approach_avoid_spark_v1","""event"",""trial"",""time""
""fullscreenenter"",""1"",""1544""
","
","
","""event"",""trial"",""time""
""fullscreenenter"",""1"",""1544""
","
","","","","","","968.6999999880791","images/boat6.png","","","learning","-7","-7","1","1","boat","vehicles","1","1","","bad","[-6]"
"html-keyboard-response","197","1049487","0.0-11.0-2.0-0.4","4036","2","16","Female","approach_avoid_spark_v1","""event"",""trial"",""time""
""fullscreenenter"",""1"",""1544""
","
","
","""event"",""trial"",""time""
""fullscreenenter"",""1"",""1544""
","
","","","","","","null","<div style=""font-size:60px;"">+</div>","null","","fixation","","","","","","","","","","",""
"aa-learning-trial","198","1052509","0.0-11.0-2.0-1.4","4036","2","16","Female","approach_avoid_spark_v1","""event"",""trial"",""time""
""fullscreenenter"",""1"",""1544""
","
","
","""event"",""trial"",""time""
""fullscreenenter"",""1"",""1544""
","
","","","","","","1396.300000011921","images/plane4.png","","","learning","-1","0","0","0","plane","vehicles","1","1","","neutral","0"
"html-keyboard-response","199","1053037","0.0-11.0-2.0-0.5","4036","2","16","Female","approach_avoid_spark_v1","""event"",""trial"",""time""
""fullscreenenter"",""1"",""1544""
","
","
","""event"",""trial"",""time""
""fullscreenenter"",""1"",""1544""
","
","","","","","","null","<div style=""font-size:60px;"">+</div>","null","","fixation","","","","","","","","","","",""
"aa-learning-trial","200","1056058","0.0-11.0-2.0-1.5","4036","2","16","Female","approach_avoid_spark_v1","""event"",""trial"",""time""
""fullscreenenter"",""1"",""1544""
","
","
","""event"",""trial"",""time""
""fullscreenenter"",""1"",""1544""
","
","","","","","","1638.6000000238419","images/boat8.png","","","learning","-5","-5","1","1","boat","vehicles","1","1","","bad","[-6]"
"html-keyboard-response","201","1056577","0.0-11.0-2.0-0.6","4036","2","16","Female","approach_avoid_spark_v1","""event"",""trial"",""time""
""fullscreenenter"",""1"",""1544""
","
","
","""event"",""trial"",""time""
""fullscreenenter"",""1"",""1544""
","
","","","","","","null","<div style=""font-size:60px;"">+</div>","null","","fixation","","","","","","","","","","",""
"aa-learning-trial","202","1059588","0.0-11.0-2.0-1.6","4036","2","16","Female","approach_avoid_spark_v1","""event"",""trial"",""time""
""fullscreenenter"",""1"",""1544""
","
","
","""event"",""trial"",""time""
""fullscreenenter"",""1"",""1544""
","
","","","","","","794.8000000119209","images/boat6.png","","","learning","-5","0","0","0","boat","vehicles","1","1","","bad","[-6]"
"html-keyboard-response","203","1060107","0.0-11.0-2.0-0.7","4036","2","16","Female","approach_avoid_spark_v1","""event"",""trial"",""time""
""fullscreenenter"",""1"",""1544""
","
","
","""event"",""trial"",""time""
""fullscreenenter"",""1"",""1544""
","
","","","","","","null","<div style=""font-size:60px;"">+</div>","null","","fixation","","","","","","","","","","",""
"aa-learning-trial","204","1063114","0.0-11.0-2.0-1.7","4036","2","16","Female","approach_avoid_spark_v1","""event"",""trial"",""time""
""fullscreenenter"",""1"",""1544""
","
","
","""event"",""trial"",""time""
""fullscreenenter"",""1"",""1544""
","
","","","","","","1327.6000000238419","images/truck8.png","","","learning","3","3","1","1","truck","vehicles","1","1","","good","[4]"
"html-keyboard-response","205","1063618","0.0-11.0-2.0-0.8","4036","2","16","Female","approach_avoid_spark_v1","""event"",""trial"",""time""
""fullscreenenter"",""1"",""1544""
","
","
","""event"",""trial"",""time""
""fullscreenenter"",""1"",""1544""
","
","","","","","","null","<div style=""font-size:60px;"">+</div>","null","","fixation","","","","","","","","","","",""
"aa-learning-trial","206","1066626","0.0-11.0-2.0-1.8","4036","2","16","Female","approach_avoid_spark_v1","""event"",""trial"",""time""
""fullscreenenter"",""1"",""1544""
","
","
","""event"",""trial"",""time""
""fullscreenenter"",""1"",""1544""
","
","","","","","","960.6999999880791","images/boat8.png","","","learning","-7","0","0","0","boat","vehicles","1","1","","bad","[-6]"
"html-keyboard-response","207","1067129","0.0-11.0-2.0-0.9","4036","2","16","Female","approach_avoid_spark_v1","""event"",""trial"",""time""
""fullscreenenter"",""1"",""1544""
","
","
","""event"",""trial"",""time""
""fullscreenenter"",""1"",""1544""
","
","","","","","","null","<div style=""font-size:60px;"">+</div>","null","","fixation","","","","","","","","","","",""
"aa-learning-trial","208","1070138","0.0-11.0-2.0-1.9","4036","2","16","Female","approach_avoid_spark_v1","""event"",""trial"",""time""
""fullscreenenter"",""1"",""1544""
","
","
","""event"",""trial"",""time""
""fullscreenenter"",""1"",""1544""
","
","","","","","","875","images/plane4.png","","","learning","[1]","0","0","0","plane","vehicles","1","1","","neutral","0"
"html-keyboard-response","209","1070641","0.0-11.0-2.0-0.10","4036","2","16","Female","approach_avoid_spark_v1","""event"",""trial"",""time""
""fullscreenenter"",""1"",""1544""
","
","
","""event"",""trial"",""time""
""fullscreenenter"",""1"",""1544""
","
","","","","","","null","<div style=""font-size:60px;"">+</div>","null","","fixation","","","","","","","","","","",""
"aa-learning-trial","210","1073650","0.0-11.0-2.0-1.10","4036","2","16","Female","approach_avoid_spark_v1","""event"",""trial"",""time""
""fullscreenenter"",""1"",""1544""
","
","
","""event"",""trial"",""time""
""fullscreenenter"",""1"",""1544""
","
","","","","","","1658","images/boat5.png","","","learning","-6","-6","1","1","boat","vehicles","1","1","","bad","[-6]"
"html-keyboard-response","211","1074154","0.0-11.0-2.0-0.11","4036","2","16","Female","approach_avoid_spark_v1","""event"",""trial"",""time""
""fullscreenenter"",""1"",""1544""
","
","
","""event"",""trial"",""time""
""fullscreenenter"",""1"",""1544""
","
","","","","","","null","<div style=""font-size:60px;"">+</div>","null","","fixation","","","","","","","","","","",""
"aa-learning-trial","212","1077163","0.0-11.0-2.0-1.11","4036","2","16","Female","approach_avoid_spark_v1","""event"",""trial"",""time""
""fullscreenenter"",""1"",""1544""
","
","
","""event"",""trial"",""time""
""fullscreenenter"",""1"",""1544""
","
","","","","","","753.3000000119209","images/plane8.png","","","learning","[1]","0","0","0","plane","vehicles","1","1","","neutral","0"
"html-keyboard-response","213","1077666","0.0-11.0-2.0-0.12","4036","2","16","Female","approach_avoid_spark_v1","""event"",""trial"",""time""
""fullscreenenter"",""1"",""1544""
","
","
","""event"",""trial"",""time""
""fullscreenenter"",""1"",""1544""
","
","","","","","","null","<div style=""font-size:60px;"">+</div>","null","","fixation","","","","","","","","","","",""
"aa-learning-trial","214","1080675","0.0-11.0-2.0-1.12","4036","2","16","Female","approach_avoid_spark_v1","""event"",""trial"",""time""
""fullscreenenter"",""1"",""1544""
","
","
","""event"",""trial"",""time""
""fullscreenenter"",""1"",""1544""
","
","","","","","","977.8000000119209","images/truck3.png","","","learning","3","0","0","0","truck","vehicles","1","1","","good","[4]"
"html-keyboard-response","215","1081178","0.0-11.0-2.0-0.13","4036","2","16","Female","approach_avoid_spark_v1","""event"",""trial"",""time""
""fullscreenenter"",""1"",""1544""
","
","
","""event"",""trial"",""time""
""fullscreenenter"",""1"",""1544""
","
","","","","","","null","<div style=""font-size:60px;"">+</div>","null","","fixation","","","","","","","","","","",""
"aa-learning-trial","216","1084186","0.0-11.0-2.0-1.13","4036","2","16","Female","approach_avoid_spark_v1","""event"",""trial"",""time""
""fullscreenenter"",""1"",""1544""
","
","
","""event"",""trial"",""time""
""fullscreenenter"",""1"",""1544""
","
","","","","","","954.1999999880791","images/truck6.png","","","learning","3","3","1","1","truck","vehicles","1","1","","good","[4]"
"html-keyboard-response","217","1084691","0.0-11.0-2.0-0.14","4036","2","16","Female","approach_avoid_spark_v1","""event"",""trial"",""time""
""fullscreenenter"",""1"",""1544""
","
","
","""event"",""trial"",""time""
""fullscreenenter"",""1"",""1544""
","
","","","","","","null","<div style=""font-size:60px;"">+</div>","null","","fixation","","","","","","","","","","",""
"aa-learning-trial","218","1087713","0.0-11.0-2.0-1.14","4036","2","16","Female","approach_avoid_spark_v1","""event"",""trial"",""time""
""fullscreenenter"",""1"",""1544""
","
","
","""event"",""trial"",""time""
""fullscreenenter"",""1"",""1544""
","
","","","","","","831.5","images/truck8.png","","","learning","6","6","1","1","truck","vehicles","1","1","","good","[4]"
"html-keyboard-response","219","1088219","0.0-11.0-2.0-0.15","4036","2","16","Female","approach_avoid_spark_v1","""event"",""trial"",""time""
""fullscreenenter"",""1"",""1544""
","
","
","""event"",""trial"",""time""
""fullscreenenter"",""1"",""1544""
","
","","","","","","null","<div style=""font-size:60px;"">+</div>","null","","fixation","","","","","","","","","","",""
"aa-learning-trial","220","1091226","0.0-11.0-2.0-1.15","4036","2","16","Female","approach_avoid_spark_v1","""event"",""trial"",""time""
""fullscreenenter"",""1"",""1544""
","
","
","""event"",""trial"",""time""
""fullscreenenter"",""1"",""1544""
","
","","","","","","1144.4000000357628","images/plane7.png","","","learning","[-1]","0","0","0","plane","vehicles","1","1","","neutral","0"
"html-keyboard-response","221","1091731","0.0-11.0-2.0-0.16","4036","2","16","Female","approach_avoid_spark_v1","""event"",""trial"",""time""
""fullscreenenter"",""1"",""1544""
","
","
","""event"",""trial"",""time""
""fullscreenenter"",""1"",""1544""
","
","","","","","","null","<div style=""font-size:60px;"">+</div>","null","","fixation","","","","","","","","","","",""
"aa-learning-trial","222","1094740","0.0-11.0-2.0-1.16","4036","2","16","Female","approach_avoid_spark_v1","""event"",""trial"",""time""
""fullscreenenter"",""1"",""1544""
","
","
","""event"",""trial"",""time""
""fullscreenenter"",""1"",""1544""
","
","","","","","","1257.1000000238419","images/truck8.png","","","learning","3","3","1","1","truck","vehicles","1","1","","good","[4]"
"html-keyboard-response","223","1095242","0.0-11.0-2.0-0.17","4036","2","16","Female","approach_avoid_spark_v1","""event"",""trial"",""time""
""fullscreenenter"",""1"",""1544""
","
","
","""event"",""trial"",""time""
""fullscreenenter"",""1"",""1544""
","
","","","","","","null","<div style=""font-size:60px;"">+</div>","null","","fixation","","","","","","","","","","",""
"aa-learning-trial","224","1098253","0.0-11.0-2.0-1.17","4036","2","16","Female","approach_avoid_spark_v1","""event"",""trial"",""time""
""fullscreenenter"",""1"",""1544""
","
","
","""event"",""trial"",""time""
""fullscreenenter"",""1"",""1544""
","
","","","","","","889.6999999880791","images/truck1.png","","","learning","3","3","1","1","truck","vehicles","1","1","","good","[4]"
"html-keyboard-response","225","1098770","0.0-11.0-2.0-0.18","4036","2","16","Female","approach_avoid_spark_v1","""event"",""trial"",""time""
""fullscreenenter"",""1"",""1544""
","
","
","""event"",""trial"",""time""
""fullscreenenter"",""1"",""1544""
","
","","","","","","null","<div style=""font-size:60px;"">+</div>","null","","fixation","","","","","","","","","","",""
"aa-learning-trial","226","1101779","0.0-11.0-2.0-1.18","4036","2","16","Female","approach_avoid_spark_v1","""event"",""trial"",""time""
""fullscreenenter"",""1"",""1544""
","
","
","""event"",""trial"",""time""
""fullscreenenter"",""1"",""1544""
","
","","","","","","1194.699999988079","images/truck3.png","","","learning","4","0","0","0","truck","vehicles","1","1","","good","[4]"
"html-keyboard-response","227","1102282","0.0-11.0-2.0-0.19","4036","2","16","Female","approach_avoid_spark_v1","""event"",""trial"",""time""
""fullscreenenter"",""1"",""1544""
","
","
","""event"",""trial"",""time""
""fullscreenenter"",""1"",""1544""
","
","","","","","","null","<div style=""font-size:60px;"">+</div>","null","","fixation","","","","","","","","","","",""
"aa-learning-trial","228","1105304","0.0-11.0-2.0-1.19","4036","2","16","Female","approach_avoid_spark_v1","""event"",""trial"",""time""
""fullscreenenter"",""1"",""1544""
","
","
","""event"",""trial"",""time""
""fullscreenenter"",""1"",""1544""
","
","","","","","","1209.5","images/boat8.png","","","learning","-8","0","0","0","boat","vehicles","1","1","","bad","[-6]"
"html-keyboard-response","229","1105810","0.0-11.0-2.0-0.20","4036","2","16","Female","approach_avoid_spark_v1","""event"",""trial"",""time""
""fullscreenenter"",""1"",""1544""
","
","
","""event"",""trial"",""time""
""fullscreenenter"",""1"",""1544""
","
","","","","","","null","<div style=""font-size:60px;"">+</div>","null","","fixation","","","","","","","","","","",""
"aa-learning-trial","230","1108819","0.0-11.0-2.0-1.20","4036","2","16","Female","approach_avoid_spark_v1","""event"",""trial"",""time""
""fullscreenenter"",""1"",""1544""
","
","
","""event"",""trial"",""time""
""fullscreenenter"",""1"",""1544""
","
","","","","","","793.1999999880791","images/boat6.png","","","learning","-6","0","0","0","boat","vehicles","1","1","","bad","[-6]"
"html-keyboard-response","231","1109322","0.0-11.0-2.0-0.21","4036","2","16","Female","approach_avoid_spark_v1","""event"",""trial"",""time""
""fullscreenenter"",""1"",""1544""
","
","
","""event"",""trial"",""time""
""fullscreenenter"",""1"",""1544""
","
","","","","","","null","<div style=""font-size:60px;"">+</div>","null","","fixation","","","","","","","","","","",""
"aa-learning-trial","232","1112330","0.0-11.0-2.0-1.21","4036","2","16","Female","approach_avoid_spark_v1","""event"",""trial"",""time""
""fullscreenenter"",""1"",""1544""
","
","
","""event"",""trial"",""time""
""fullscreenenter"",""1"",""1544""
","
","","","","","","915.1000000238419","images/plane8.png","","","learning","[-1]","0","0","0","plane","vehicles","1","1","","neutral","0"
"html-keyboard-response","233","1112834","0.0-11.0-2.0-0.22","4036","2","16","Female","approach_avoid_spark_v1","""event"",""trial"",""time""
""fullscreenenter"",""1"",""1544""
","
","
","""event"",""trial"",""time""
""fullscreenenter"",""1"",""1544""
","
","","","","","","null","<div style=""font-size:60px;"">+</div>","null","","fixation","","","","","","","","","","",""
"aa-learning-trial","234","1115843","0.0-11.0-2.0-1.22","4036","2","16","Female","approach_avoid_spark_v1","""event"",""trial"",""time""
""fullscreenenter"",""1"",""1544""
","
","
","""event"",""trial"",""time""
""fullscreenenter"",""1"",""1544""
","
","","","","","","1001.6999999880791","images/truck6.png","","","learning","2","2","1","1","truck","vehicles","1","1","","good","[4]"
"html-keyboard-response","235","1116346","0.0-11.0-2.0-0.23","4036","2","16","Female","approach_avoid_spark_v1","""event"",""trial"",""time""
""fullscreenenter"",""1"",""1544""
","
","
","""event"",""trial"",""time""
""fullscreenenter"",""1"",""1544""
","
