"trial_type","trial_index","time_elapsed","internal_node_id","subject_id","task_condition","age","gender","task_version","interactions","blur_events","focus_events","fullscreenenter_events","fullscreenexit_events","success","timeout","failed_images","failed_audio","failed_video","rt","stimulus","response","button_pressed","task_part","approach_reward","points","key_press","option_selected","stim_cat","task_block","block_condition","block_number","correct","cat_type","mean_cat_reward"
"pavlovia","0","6","0.0-0.0","4072","2","22","Female","approach_avoid_spark_v1","""event"",""trial"",""time""
""fullscreenenter"",""1"",""1389""
","
","
","""event"",""trial"",""time""
""fullscreenenter"",""1"",""1389""
","
","","","","","","","","","","","","","","","","","","","","",""
"fullscreen","1","2182","0.0-1.0","4072","2","22","Female","approach_avoid_spark_v1","""event"",""trial"",""time""
""fullscreenenter"",""1"",""1389""
","
","
","""event"",""trial"",""time""
""fullscreenenter"",""1"",""1389""
","
","true","","","","","","","","","","","","","","","","","","","",""
"preload","2","12115","0.0-2.0","4072","2","22","Female","approach_avoid_spark_v1","""event"",""trial"",""time""
""fullscreenenter"",""1"",""1389""
","
","
","""event"",""trial"",""time""
""fullscreenenter"",""1"",""1389""
","
","true","false","[]","[]","[]","","","","","","","","","","","","","","","",""
"audio-keyboard-response","3","14767","0.0-3.0","4072","2","22","Female","approach_avoid_spark_v1","""event"",""trial"",""time""
""fullscreenenter"",""1"",""1389""
","
","
","""event"",""trial"",""time""
""fullscreenenter"",""1"",""1389""
","
","","","","","","2645.3333333333335","audio/beep_loop.wav"," ","","","","","","","","","","","","",""
"audio-button-response","4","16825","0.0-4.0","4072","2","22","Female","approach_avoid_spark_v1","""event"",""trial"",""time""
""fullscreenenter"",""1"",""1389""
","
","
","""event"",""trial"",""time""
""fullscreenenter"",""1"",""1389""
","
","","","","","","2059","audio/shark.wav","4","","","","","","","","","","","","",""
"audio-button-response","5","19409","0.0-5.0","4072","2","22","Female","approach_avoid_spark_v1","""event"",""trial"",""time""
""fullscreenenter"",""1"",""1389""
","
","
","""event"",""trial"",""time""
""fullscreenenter"",""1"",""1389""
","
","","","","","","1579","audio/turtle.wav","1","","","","","","","","","","","","",""
"preload","6","25497","0.0-6.0","4072","2","22","Female","approach_avoid_spark_v1","""event"",""trial"",""time""
""fullscreenenter"",""1"",""1389""
","
","
","""event"",""trial"",""time""
""fullscreenenter"",""1"",""1389""
","
","true","false","[]","[]","[]","","","","","","","","","","","","","","","",""
"html-keyboard-response","7","26661","0.0-7.0","4072","2","22","Female","approach_avoid_spark_v1","""event"",""trial"",""time""
""fullscreenenter"",""1"",""1389""
","
","
","""event"",""trial"",""time""
""fullscreenenter"",""1"",""1389""
","
","","","","","","1164","Welcome to the experiment. Press any key to begin and to advance the instructions."," ","","","","","","","","","","","","",""
"learning-instructions","8","34625","0.0-8.0-0.0-0.0","4072","2","22","Female","approach_avoid_spark_v1","""event"",""trial"",""time""
""fullscreenenter"",""1"",""1389""
","
","
","""event"",""trial"",""time""
""fullscreenenter"",""1"",""1389""
","
","","","","","","1000","<p> Welcome! Today you are going to play 6 different rounds of a decision-making game. </p><p> Use the mouse to click next to continue. </p>","","0","instructions","","","","","","","","","","",""
"learning-instructions","9","38642","0.0-8.0-0.0-0.1","4072","2","22","Female","approach_avoid_spark_v1","""event"",""trial"",""time""
""fullscreenenter"",""1"",""1389""
","
","
","""event"",""trial"",""time""
""fullscreenenter"",""1"",""1389""
","
","","","","","","1282","<p> You will start with a practice round to learn the rules. </p>","","0","instructions","","","","","","","","","","",""
"learning-instructions","10","43075","0.0-8.0-0.0-0.2","4072","2","22","Female","approach_avoid_spark_v1","""event"",""trial"",""time""
""fullscreenenter"",""1"",""1389""
","
","
","""event"",""trial"",""time""
""fullscreenenter"",""1"",""1389""
","
","","","","","","969","<p> Your goal in this round is to give out sports equipment to kids. </p></div>","","0","instructions","","","","","","","","","","",""
"learning-instructions","11","51342","0.0-8.0-0.0-0.3","4072","2","22","Female","approach_avoid_spark_v1","""event"",""trial"",""time""
""fullscreenenter"",""1"",""1389""
","
","
","""event"",""trial"",""time""
""fullscreenenter"",""1"",""1389""
","
","","","","","","704","<p> The kids only like some of the equipment.  </p><p> On each turn, you will see a piece of sports equipment.   </p><p> You need to decide whether to give it to the kids or not.  </p>","","0","instructions","","","","","","","","","","",""
"learning-instructions","12","56960","0.0-8.0-0.0-0.4","4072","2","22","Female","approach_avoid_spark_v1","""event"",""trial"",""time""
""fullscreenenter"",""1"",""1389""
","
","
","""event"",""trial"",""time""
""fullscreenenter"",""1"",""1389""
","
","","","","","","848","<p> You can give them the equipment by pressing 1 and choose not to give it to them by pressing 0. </p><br><div class=""choice-instructions-grid""> <div class=""choice-option""><img src=""images/approach.png"" class=""choice-option-img"" stage=""instructions"" position=""0"" ><div class=""choice-option-text""> Press ""1."" </div></div><div class=""choice-option""><img src=""images/avoid.png"" class=""choice-option-img"" stage=""instructions"" position=""1"" ><div class=""choice-option-text""> Press ""0."" </div></div>","","0","instructions","","","","","","","","","","",""
"learning-instructions","13","66541","0.0-8.0-0.0-0.5","4072","2","22","Female","approach_avoid_spark_v1","""event"",""trial"",""time""
""fullscreenenter"",""1"",""1389""
","
","
","""event"",""trial"",""time""
""fullscreenenter"",""1"",""1389""
","
","","","","","","2185","<p> If you give them a piece of equipment they like, they will be happy! </p><p> But if you give them a piece of equipment they do not like, they will be sad. </p>","","0","instructions","","","","","","","","","","",""
"learning-instructions","14","78076","0.0-8.0-0.0-0.6","4072","2","22","Female","approach_avoid_spark_v1","""event"",""trial"",""time""
""fullscreenenter"",""1"",""1389""
","
","
","""event"",""trial"",""time""
""fullscreenenter"",""1"",""1389""
","
","","","","","","1014","<p> You will earn points based on how you make kids feel. </p><p> If you make them happy, you will WIN anywhere from 1 - 9 points, </p><p> but if you make them sad, you will LOSE anywhere from 1 - 9 points. </p>","","0","instructions","","","","","","","","","","",""
"learning-instructions","15","89026","0.0-8.0-0.0-0.7","4072","2","22","Female","approach_avoid_spark_v1","""event"",""trial"",""time""
""fullscreenenter"",""1"",""1389""
","
","
","""event"",""trial"",""time""
""fullscreenenter"",""1"",""1389""
","
","","","","","","1385","<p> You will see how many points you won or lost in the center of the screen. </p><p> Here is what you would see if you won 6 points: </p><p style=""color:green;font-size:50px;font-weight:bolder"">6</p><p style=""color:green"">The text is GREEN because you WON points.</p>","","0","instructions","","","","","","","","","","",""
"learning-instructions","16","95475","0.0-8.0-0.0-0.8","4072","2","22","Female","approach_avoid_spark_v1","""event"",""trial"",""time""
""fullscreenenter"",""1"",""1389""
","
","
","""event"",""trial"",""time""
""fullscreenenter"",""1"",""1389""
","
","","","","","","922","<p> And here is what you would see if you lost 4 points: </p><p style=""color:red;font-size:50px;font-weight:bolder"">-4</p><p style=""color:red"">The text is RED because you LOST points. </p>","","0","instructions","","","","","","","","","","",""
"learning-instructions","17","112726","0.0-8.0-0.0-0.9","4072","2","22","Female","approach_avoid_spark_v1","""event"",""trial"",""time""
""fullscreenenter"",""1"",""1389""
","
","
","""event"",""trial"",""time""
""fullscreenenter"",""1"",""1389""
","
","","","","","","2525","<p> Some of the equipment will make the kids VERY happy or sad. </p><p> These pieces of equipment will make you win or lose LOTS of points. </p><p> Other pieces of equipment will only make the kids a little happy or sad. </p><p> These pieces of equipment will make you win or lose small amounts of points. </p>","","0","instructions","","","","","","","","","","",""
"learning-instructions","18","124896","0.0-8.0-0.0-0.10","4072","2","22","Female","approach_avoid_spark_v1","""event"",""trial"",""time""
""fullscreenenter"",""1"",""1389""
""fullscreenexit"",""19"",""141972""
","
","
","""event"",""trial"",""time""
""fullscreenenter"",""1"",""1389""
","""event"",""trial"",""time""
""fullscreenexit"",""19"",""141972""
","","","","","","1531","<p> If you choose not to give them the equipment, you will not win or lose any points. </p><p>  However, in the center of the screen, you will see the number of points you WOULD HAVE won or lost if you had given them the equipment. </p>","","0","instructions","","","","","","","","","","",""
"learning-instructions","19","148096","0.0-8.0-0.0-0.11","4072","2","22","Female","approach_avoid_spark_v1","""event"",""trial"",""time""
""fullscreenenter"",""1"",""1389""
""fullscreenexit"",""19"",""141972""
","
","
","""event"",""trial"",""time""
""fullscreenenter"",""1"",""1389""
","""event"",""trial"",""time""
""fullscreenexit"",""19"",""141972""
","","","","","","1658","<p> Here is what you might see if you did not give the equipment to the kids but it would have made them happy: </p><p style=""color:grey; font-size:50px; display: inline-block; border-spacing: 15px; border-width:3px; border-style:solid; border-color:red"">  &nbsp; 7 &nbsp; </p><p> Remember, in this case, you would not win or lose ANY points because you did not give them the equipment.  </p><p style=""color:grey"">The text is GREY because you earned ZERO points. </p><p style=""color:red"">However, choosing to give the kids the equipment would have made you win points. The box around the text is RED because you chose the worse option. </p>","","0","instructions","","","","","","","","","","",""
"learning-instructions","20","172126","0.0-8.0-0.0-0.12","4072","2","22","Female","approach_avoid_spark_v1","""event"",""trial"",""time""
""fullscreenenter"",""1"",""1389""
""fullscreenexit"",""19"",""141972""
","
","
","""event"",""trial"",""time""
""fullscreenenter"",""1"",""1389""
","""event"",""trial"",""time""
""fullscreenexit"",""19"",""141972""
","","","","","","2947","<p> Here is what you might see if you did not give the equipment to the kids but it would have made them sad: </p><p style=""color:grey;font-size:50px; display: inline-block; border-spacing: 15px; border-width:3px; border-style:solid; border-color:green"">  &nbsp; -8 &nbsp; </p><p> Remember, in this case, you would not win or lose ANY points because you did not give them the equipment.  </p><p style=""color:grey"">The text is GREY because you earned ZERO points. </p><p  style=""color:green""> Choosing to give the kids the equipment would have made you lose points. The box around the text is GREEN because you chose the better option.</p>","","0","instructions","","","","","","","","","","",""
"learning-instructions","21","182159","0.0-8.0-0.0-0.13","4072","2","22","Female","approach_avoid_spark_v1","""event"",""trial"",""time""
""fullscreenenter"",""1"",""1389""
""fullscreenexit"",""19"",""141972""
","
","
","""event"",""trial"",""time""
""fullscreenenter"",""1"",""1389""
","""event"",""trial"",""time""
""fullscreenexit"",""19"",""141972""
","","","","","","1173","<p> You will have 3 seconds to make each choice. Try to respond before time runs out! </p><p> You will lose 5 points each time you do not make a response. </p>","","0","instructions","","","","","","","","","","",""
"learning-instructions","22","188292","0.0-8.0-0.0-0.14","4072","2","22","Female","approach_avoid_spark_v1","""event"",""trial"",""time""
""fullscreenenter"",""1"",""1389""
""fullscreenexit"",""19"",""141972""
","
","
","""event"",""trial"",""time""
""fullscreenenter"",""1"",""1389""
","""event"",""trial"",""time""
""fullscreenexit"",""19"",""141972""
","","","","","","704","<p> This is just a practice round, but in the real game, your bonus payment will depend on your total number of points.","","0","instructions","","","","","","","","","","",""
"learning-instructions","23","194676","0.0-8.0-0.0-0.15","4072","2","22","Female","approach_avoid_spark_v1","""event"",""trial"",""time""
""fullscreenenter"",""1"",""1389""
""fullscreenexit"",""19"",""141972""
","
","
","""event"",""trial"",""time""
""fullscreenenter"",""1"",""1389""
","""event"",""trial"",""time""
""fullscreenexit"",""19"",""141972""
","","","","","","602","<p> Remember, you can give them the equipment by pressing 1 and choose not to give it to them by pressing 0. </p><br><div class=""choice-instructions-grid""> <div class=""choice-option""><img src=""images/approach.png"" class=""choice-option-img"" stage=""instructions"" position=""0"" ><div class=""choice-option-text""> Press ""1."" </div></div><div class=""choice-option""><img src=""images/avoid.png"" class=""choice-option-img"" stage=""instructions"" position=""1"" ><div class=""choice-option-text""> Press ""0."" </div></div>","","0","instructions","","","","","","","","","","",""
"html-button-response","24","195760","0.0-8.0-1.0","4072","2","22","Female","approach_avoid_spark_v1","""event"",""trial"",""time""
""fullscreenenter"",""1"",""1389""
""fullscreenexit"",""19"",""141972""
","
","
","""event"",""trial"",""time""
""fullscreenenter"",""1"",""1389""
","""event"",""trial"",""time""
""fullscreenexit"",""19"",""141972""
","","","","","","980","<p> Ready to practice? </p>","0","","","","","","","","","","","","",""
"html-keyboard-response","25","196374","0.0-8.0-2.0-0.0","4072","2","22","Female","approach_avoid_spark_v1","""event"",""trial"",""time""
""fullscreenenter"",""1"",""1389""
""fullscreenexit"",""19"",""141972""
","
","
","""event"",""trial"",""time""
""fullscreenenter"",""1"",""1389""
","""event"",""trial"",""time""
""fullscreenexit"",""19"",""141972""
","","","","","","null","<div style=""font-size:60px;"">+</div>","null","","fixation","","","","","","","","","","",""
"aa-learning-trial","26","199381","0.0-8.0-2.0-1.0","4072","2","22","Female","approach_avoid_spark_v1","""event"",""trial"",""time""
""fullscreenenter"",""1"",""1389""
""fullscreenexit"",""19"",""141972""
","
","
","""event"",""trial"",""time""
""fullscreenenter"",""1"",""1389""
","""event"",""trial"",""time""
""fullscreenexit"",""19"",""141972""
","","","","","","1199","images/ball3.png","","","learning","2","2","1","1","practice","practice","practice","-1","","",""
"html-keyboard-response","27","199885","0.0-8.0-2.0-0.1","4072","2","22","Female","approach_avoid_spark_v1","""event"",""trial"",""time""
""fullscreenenter"",""1"",""1389""
""fullscreenexit"",""19"",""141972""
","
","
","""event"",""trial"",""time""
""fullscreenenter"",""1"",""1389""
","""event"",""trial"",""time""
""fullscreenexit"",""19"",""141972""
","","","","","","null","<div style=""font-size:60px;"">+</div>","null","","fixation","","","","","","","","","","",""
"aa-learning-trial","28","202891","0.0-8.0-2.0-1.1","4072","2","22","Female","approach_avoid_spark_v1","""event"",""trial"",""time""
""fullscreenenter"",""1"",""1389""
""fullscreenexit"",""19"",""141972""
","
","
","""event"",""trial"",""time""
""fullscreenenter"",""1"",""1389""
","""event"",""trial"",""time""
""fullscreenexit"",""19"",""141972""
","","","","","","763","images/ball3.png","","","learning","-3","-3","1","1","practice","practice","practice","-1","","",""
"html-keyboard-response","29","203397","0.0-8.0-2.0-0.2","4072","2","22","Female","approach_avoid_spark_v1","""event"",""trial"",""time""
""fullscreenenter"",""1"",""1389""
""fullscreenexit"",""19"",""141972""
","
","
","""event"",""trial"",""time""
""fullscreenenter"",""1"",""1389""
","""event"",""trial"",""time""
""fullscreenexit"",""19"",""141972""
","","","","","","null","<div style=""font-size:60px;"">+</div>","null","","fixation","","","","","","","","","","",""
"aa-learning-trial","30","206404","0.0-8.0-2.0-1.2","4072","2","22","Female","approach_avoid_spark_v1","""event"",""trial"",""time""
""fullscreenenter"",""1"",""1389""
""fullscreenexit"",""19"",""141972""
","
","
","""event"",""trial"",""time""
""fullscreenenter"",""1"",""1389""
","""event"",""trial"",""time""
""fullscreenexit"",""19"",""141972""
","","","","","","1652","images/ball4.png","","","learning","-3","-3","1","1","practice","practice","practice","-1","","",""
"html-keyboard-response","31","206907","0.0-8.0-2.0-0.3","4072","2","22","Female","approach_avoid_spark_v1","""event"",""trial"",""time""
""fullscreenenter"",""1"",""1389""
""fullscreenexit"",""19"",""141972""
","
","
","""event"",""trial"",""time""
""fullscreenenter"",""1"",""1389""
","""event"",""trial"",""time""
""fullscreenexit"",""19"",""141972""
","","","","","","null","<div style=""font-size:60px;"">+</div>","null","","fixation","","","","","","","","","","",""
"aa-learning-trial","32","209915","0.0-8.0-2.0-1.3","4072","2","22","Female","approach_avoid_spark_v1","""event"",""trial"",""time""
""fullscreenenter"",""1"",""1389""
""fullscreenexit"",""19"",""141972""
","
","
","""event"",""trial"",""time""
""fullscreenenter"",""1"",""1389""
","""event"",""trial"",""time""
""fullscreenexit"",""19"",""141972""
","","","","","","934","images/ball2.png","","","learning","5","0","0","0","practice","practice","practice","-1","","",""
"html-keyboard-response","33","210420","0.0-8.0-2.0-0.4","4072","2","22","Female","approach_avoid_spark_v1","""event"",""trial"",""time""
""fullscreenenter"",""1"",""1389""
""fullscreenexit"",""19"",""141972""
","
","
","""event"",""trial"",""time""
""fullscreenenter"",""1"",""1389""
","""event"",""trial"",""time""
""fullscreenexit"",""19"",""141972""
","","","","","","null","<div style=""font-size:60px;"">+</div>","null","","fixation","","","","","","","","","","",""
"aa-learning-trial","34","213428","0.0-8.0-2.0-1.4","4072","2","22","Female","approach_avoid_spark_v1","""event"",""trial"",""time""
""fullscreenenter"",""1"",""1389""
""fullscreenexit"",""19"",""141972""
","
","
","""event"",""trial"",""time""
""fullscreenenter"",""1"",""1389""
","""event"",""trial"",""time""
""fullscreenexit"",""19"",""141972""
","","","","","","782","images/ball1.png","","","learning","1","1","1","1","practice","practice","practice","-1","","",""
"html-keyboard-response","35","213931","0.0-8.0-2.0-0.5","4072","2","22","Female","approach_avoid_spark_v1","""event"",""trial"",""time""
""fullscreenenter"",""1"",""1389""
""fullscreenexit"",""19"",""141972""
","
","
","""event"",""trial"",""time""
""fullscreenenter"",""1"",""1389""
","""event"",""trial"",""time""
""fullscreenexit"",""19"",""141972""
","","","","","","null","<div style=""font-size:60px;"">+</div>","null","","fixation","","","","","","","","","","",""
"aa-learning-trial","36","216937","0.0-8.0-2.0-1.5","4072","2","22","Female","approach_avoid_spark_v1","""event"",""trial"",""time""
""fullscreenenter"",""1"",""1389""
""fullscreenexit"",""19"",""141972""
","
","
","""event"",""trial"",""time""
""fullscreenenter"",""1"",""1389""
","""event"",""trial"",""time""
""fullscreenexit"",""19"",""141972""
","","","","","","885","images/racket4.png","","","learning","-8","-8","1","1","practice","practice","practice","-1","","",""
"html-keyboard-response","37","217443","0.0-8.0-2.0-0.6","4072","2","22","Female","approach_avoid_spark_v1","""event"",""trial"",""time""
""fullscreenenter"",""1"",""1389""
""fullscreenexit"",""19"",""141972""
","
","
","""event"",""trial"",""time""
""fullscreenenter"",""1"",""1389""
","""event"",""trial"",""time""
""fullscreenexit"",""19"",""141972""
","","","","","","null","<div style=""font-size:60px;"">+</div>","null","","fixation","","","","","","","","","","",""
"aa-learning-trial","38","220447","0.0-8.0-2.0-1.6","4072","2","22","Female","approach_avoid_spark_v1","""event"",""trial"",""time""
""fullscreenenter"",""1"",""1389""
""fullscreenexit"",""19"",""141972""
","
","
","""event"",""trial"",""time""
""fullscreenenter"",""1"",""1389""
","""event"",""trial"",""time""
""fullscreenexit"",""19"",""141972""
","","","","","","827","images/racket2.png","","","learning","4","4","1","1","practice","practice","practice","-1","","",""
"html-keyboard-response","39","220954","0.0-8.0-2.0-0.7","4072","2","22","Female","approach_avoid_spark_v1","""event"",""trial"",""time""
""fullscreenenter"",""1"",""1389""
""fullscreenexit"",""19"",""141972""
","
","
","""event"",""trial"",""time""
""fullscreenenter"",""1"",""1389""
","""event"",""trial"",""time""
""fullscreenexit"",""19"",""141972""
","","","","","","null","<div style=""font-size:60px;"">+</div>","null","","fixation","","","","","","","","","","",""
"aa-learning-trial","40","223956","0.0-8.0-2.0-1.7","4072","2","22","Female","approach_avoid_spark_v1","""event"",""trial"",""time""
""fullscreenenter"",""1"",""1389""
""fullscreenexit"",""19"",""141972""
","
","
","""event"",""trial"",""time""
""fullscreenenter"",""1"",""1389""
","""event"",""trial"",""time""
""fullscreenexit"",""19"",""141972""
","","","","","","1324","images/racket2.png","","","learning","-8","-8","1","1","practice","practice","practice","-1","","",""
"html-keyboard-response","41","224462","0.0-8.0-2.0-0.8","4072","2","22","Female","approach_avoid_spark_v1","""event"",""trial"",""time""
""fullscreenenter"",""1"",""1389""
""fullscreenexit"",""19"",""141972""
","
","
","""event"",""trial"",""time""
""fullscreenenter"",""1"",""1389""
","""event"",""trial"",""time""
""fullscreenexit"",""19"",""141972""
","","","","","","null","<div style=""font-size:60px;"">+</div>","null","","fixation","","","","","","","","","","",""
"aa-learning-trial","42","227465","0.0-8.0-2.0-1.8","4072","2","22","Female","approach_avoid_spark_v1","""event"",""trial"",""time""
""fullscreenenter"",""1"",""1389""
""fullscreenexit"",""19"",""141972""
","
","
","""event"",""trial"",""time""
""fullscreenenter"",""1"",""1389""
","""event"",""trial"",""time""
""fullscreenexit"",""19"",""141972""
","","","","","","539","images/ball4.png","","","learning","2","2","1","1","practice","practice","practice","-1","","",""
"html-keyboard-response","43","227972","0.0-8.0-2.0-0.9","4072","2","22","Female","approach_avoid_spark_v1","""event"",""trial"",""time""
""fullscreenenter"",""1"",""1389""
""fullscreenexit"",""19"",""141972""
","
","
","""event"",""trial"",""time""
""fullscreenenter"",""1"",""1389""
","""event"",""trial"",""time""
""fullscreenexit"",""19"",""141972""
","","","","","","null","<div style=""font-size:60px;"">+</div>","null","","fixation","","","","","","","","","","",""
"aa-learning-trial","44","230980","0.0-8.0-2.0-1.9","4072","2","22","Female","approach_avoid_spark_v1","""event"",""trial"",""time""
""fullscreenenter"",""1"",""1389""
""fullscreenexit"",""19"",""141972""
","
","
","""event"",""trial"",""time""
""fullscreenenter"",""1"",""1389""
","""event"",""trial"",""time""
""fullscreenexit"",""19"",""141972""
","","","","","","406","images/ball3.png","","","learning","5","5","1","1","practice","practice","practice","-1","","",""
"html-keyboard-response","45","231484","0.0-8.0-2.0-0.10","4072","2","22","Female","approach_avoid_spark_v1","""event"",""trial"",""time""
""fullscreenenter"",""1"",""1389""
""fullscreenexit"",""19"",""141972""
","
","
","""event"",""trial"",""time""
""fullscreenenter"",""1"",""1389""
","""event"",""trial"",""time""
""fullscreenexit"",""19"",""141972""
","","","","","","null","<div style=""font-size:60px;"">+</div>","null","","fixation","","","","","","","","","","",""
"aa-learning-trial","46","234491","0.0-8.0-2.0-1.10","4072","2","22","Female","approach_avoid_spark_v1","""event"",""trial"",""time""
""fullscreenenter"",""1"",""1389""
""fullscreenexit"",""19"",""141972""
","
","
","""event"",""trial"",""time""
""fullscreenenter"",""1"",""1389""
","""event"",""trial"",""time""
""fullscreenexit"",""19"",""141972""
","","","","","","490","images/ball3.png","","","learning","-4","0","0","0","practice","practice","practice","-1","","",""
"html-keyboard-response","47","234999","0.0-8.0-2.0-0.11","4072","2","22","Female","approach_avoid_spark_v1","""event"",""trial"",""time""
""fullscreenenter"",""1"",""1389""
""fullscreenexit"",""19"",""141972""
","
","
","""event"",""trial"",""time""
""fullscreenenter"",""1"",""1389""
","""event"",""trial"",""time""
""fullscreenexit"",""19"",""141972""
","","","","","","null","<div style=""font-size:60px;"">+</div>","null","","fixation","","","","","","","","","","",""
"aa-learning-trial","48","238005","0.0-8.0-2.0-1.11","4072","2","22","Female","approach_avoid_spark_v1","""event"",""trial"",""time""
""fullscreenenter"",""1"",""1389""
""fullscreenexit"",""19"",""141972""
","
","
","""event"",""trial"",""time""
""fullscreenenter"",""1"",""1389""
","""event"",""trial"",""time""
""fullscreenexit"",""19"",""141972""
","","","","","","872","images/racket4.png","","","learning","5","0","0","0","practice","practice","practice","-1","","",""
"html-button-response","49","240129","0.0-8.0-3.0","4072","2","22","Female","approach_avoid_spark_v1","""event"",""trial"",""time""
""fullscreenenter"",""1"",""1389""
""fullscreenexit"",""19"",""141972""
","
","
","""event"",""trial"",""time""
""fullscreenenter"",""1"",""1389""
","""event"",""trial"",""time""
""fullscreenexit"",""19"",""141972""
","","","","","","2120","<p> You earned -8 points in the practice round! </p>","0","","break","","","","","","","","","","",""
"learning-instructions","50","247958","0.0-8.0-4.0-0.0","4072","2","22","Female","approach_avoid_spark_v1","""event"",""trial"",""time""
""fullscreenenter"",""1"",""1389""
""fullscreenexit"",""19"",""141972""
","
","
","""event"",""trial"",""time""
""fullscreenenter"",""1"",""1389""
","""event"",""trial"",""time""
""fullscreenexit"",""19"",""141972""
","","","","","","1863","<p> It's almost time to start the real game. </p><p> Before you start, we're going to ask you a few questions about how the game works. </p>","","0","instructions","","","","","","","","","","",""
"preload","51","250836","0.0-8.0-5.0","4072","2","22","Female","approach_avoid_spark_v1","""event"",""trial"",""time""
""fullscreenenter"",""1"",""1389""
""fullscreenexit"",""19"",""141972""
","
","
","""event"",""trial"",""time""
""fullscreenenter"",""1"",""1389""
","""event"",""trial"",""time""
""fullscreenexit"",""19"",""141972""
","true","false","[]","[]","[]","","","","","","","","","","","","","","","",""
"comp-q","52","256576","0.0-8.0-6.0-0.0","4072","2","22","Female","approach_avoid_spark_v1","""event"",""trial"",""time""
""fullscreenenter"",""1"",""1389""
""fullscreenexit"",""19"",""141972""
","
","
","""event"",""trial"",""time""
""fullscreenenter"",""1"",""1389""
","""event"",""trial"",""time""
""fullscreenexit"",""19"",""141972""
","","","","","","731","<p> <b> True or False? </b> </p><p> If you see a number in GREY, that means you earned that many points. </p>","","1","comp_question","","","","","","","","","true","",""
"comp-q","53","266892","0.0-8.0-6.0-1.0","4072","2","22","Female","approach_avoid_spark_v1","""event"",""trial"",""time""
""fullscreenenter"",""1"",""1389""
""fullscreenexit"",""19"",""141972""
","
","
","""event"",""trial"",""time""
""fullscreenenter"",""1"",""1389""
","""event"",""trial"",""time""
""fullscreenexit"",""19"",""141972""
","","","","","","1950","<p><b> That's right! </b> If you see a grey number, it means you earned ZERO points. <br> The grey numbers show the points you WOULD HAVE earned if you had made the other choice. </p>","","0","comp_answer","","","","","","","","","","",""
"comp-q","54","276827","0.0-8.0-7.0-0.0","4072","2","22","Female","approach_avoid_spark_v1","""event"",""trial"",""time""
""fullscreenenter"",""1"",""1389""
""fullscreenexit"",""19"",""141972""
","
","
","""event"",""trial"",""time""
""fullscreenenter"",""1"",""1389""
","""event"",""trial"",""time""
""fullscreenexit"",""19"",""141972""
","","","","","","5228","<p> <b> True or False? </b> </p><p> You will have as much time as you want to make each choice. </p>","","1","comp_question","","","","","","","","","true","",""
"comp-q","55","284010","0.0-8.0-7.0-1.0","4072","2","22","Female","approach_avoid_spark_v1","""event"",""trial"",""time""
""fullscreenenter"",""1"",""1389""
""fullscreenexit"",""19"",""141972""
","
","
","""event"",""trial"",""time""
""fullscreenenter"",""1"",""1389""
","""event"",""trial"",""time""
""fullscreenexit"",""19"",""141972""
","","","","","","3141","<p> <b> That's right! </b> You will only have 3 seconds to make each choice. </p>","","0","comp_answer","","","","","","","","","","",""
"comp-q","56","289909","0.0-8.0-8.0-0.0","4072","2","22","Female","approach_avoid_spark_v1","""event"",""trial"",""time""
""fullscreenenter"",""1"",""1389""
""fullscreenexit"",""19"",""141972""
","
","
","""event"",""trial"",""time""
""fullscreenenter"",""1"",""1389""
","""event"",""trial"",""time""
""fullscreenexit"",""19"",""141972""
","","","","","","1233","<p> <b> True or False? </b> </p><p> You should use the '1' and '0' keys to make your choices. </p>","","0","comp_question","","","","","","","","","true","",""
"comp-q","57","298959","0.0-8.0-8.0-1.0","4072","2","22","Female","approach_avoid_spark_v1","""event"",""trial"",""time""
""fullscreenenter"",""1"",""1389""
""fullscreenexit"",""19"",""141972""
","
","
","""event"",""trial"",""time""
""fullscreenenter"",""1"",""1389""
","""event"",""trial"",""time""
""fullscreenexit"",""19"",""141972""
","","","","","","4427","<p> <b> That's right! </b> You should use the '1' and '0' keys to make each choice. </p>","","0","comp_answer","","","","","","","","","","",""
"learning-instructions","58","309010","0.0-8.0-9.0-0.0","4072","2","22","Female","approach_avoid_spark_v1","""event"",""trial"",""time""
""fullscreenenter"",""1"",""1389""
""fullscreenexit"",""19"",""141972""
","
","
","""event"",""trial"",""time""
""fullscreenenter"",""1"",""1389""
","""event"",""trial"",""time""
""fullscreenexit"",""19"",""141972""
","","","","","","3768","<p> It's now time to start the real game. </p>Do your best, because the points you earn in the next rounds will influence your bonus payment. </p>","","0","instructions","","","","","","","","","","",""
"preload","59","309130","0.0-9.0-0.0","4072","2","22","Female","approach_avoid_spark_v1","""event"",""trial"",""time""
""fullscreenenter"",""1"",""1389""
""fullscreenexit"",""19"",""141972""
","
","
","""event"",""trial"",""time""
""fullscreenenter"",""1"",""1389""
","""event"",""trial"",""time""
""fullscreenexit"",""19"",""141972""
","true","false","[]","[]","[]","","","","","","","","","","","","","","","",""
"learning-instructions","60","330776","0.0-9.0-1.0-0.0","4072","2","22","Female","approach_avoid_spark_v1","""event"",""trial"",""time""
""fullscreenenter"",""1"",""1389""
""fullscreenexit"",""19"",""141972""
","
","
","""event"",""trial"",""time""
""fullscreenenter"",""1"",""1389""
","""event"",""trial"",""time""
""fullscreenexit"",""19"",""141972""
","","","","","","17558","<p> Your goal in this round is to take care of lots of farm animals. </p></div>","","0","instructions","","","","","","","","","","",""
"learning-instructions","61","341526","0.0-9.0-1.0-0.1","4072","2","22","Female","approach_avoid_spark_v1","""event"",""trial"",""time""
""fullscreenenter"",""1"",""1389""
""fullscreenexit"",""19"",""141972""
","
","
","""event"",""trial"",""time""
""fullscreenenter"",""1"",""1389""
","""event"",""trial"",""time""
""fullscreenexit"",""19"",""141972""
","","","","","","989","<p> Some farm animals are hungry, while other farm animals are already full.  </p><p> On each turn, you will see a farm animal.   </p><p> You need to decide whether to feed it or not.  </p>","","0","instructions","","","","","","","","","","",""
"learning-instructions","62","348259","0.0-9.0-1.0-0.2","4072","2","22","Female","approach_avoid_spark_v1","""event"",""trial"",""time""
""fullscreenenter"",""1"",""1389""
""fullscreenexit"",""19"",""141972""
""blur"",""63"",""354485""
""focus"",""63"",""356539""
","""event"",""trial"",""time""
""blur"",""63"",""354485""
","""event"",""trial"",""time""
""focus"",""63"",""356539""
","""event"",""trial"",""time""
""fullscreenenter"",""1"",""1389""
","""event"",""trial"",""time""
""fullscreenexit"",""19"",""141972""
","","","","","","1054","<p> You can feed the farm animal by pressing 1 and leave the farm animal alone by pressing 0. </p><br><div class=""choice-instructions-grid""> <div class=""choice-option""><img src=""images/approach.png"" class=""choice-option-img"" stage=""instructions"" position=""0"" ><div class=""choice-option-text""> Press ""1."" </div></div><div class=""choice-option""><img src=""images/avoid.png"" class=""choice-option-img"" stage=""instructions"" position=""1"" ><div class=""choice-option-text""> Press ""0."" </div></div>","","0","instructions","","","","","","","","","","",""
"learning-instructions","63","358776","0.0-9.0-1.0-0.3","4072","2","22","Female","approach_avoid_spark_v1","""event"",""trial"",""time""
""fullscreenenter"",""1"",""1389""
""fullscreenexit"",""19"",""141972""
""blur"",""63"",""354485""
""focus"",""63"",""356539""
","""event"",""trial"",""time""
""blur"",""63"",""354485""
","""event"",""trial"",""time""
""focus"",""63"",""356539""
","""event"",""trial"",""time""
""fullscreenenter"",""1"",""1389""
","""event"",""trial"",""time""
""fullscreenexit"",""19"",""141972""
","","","","","","1076","<p> If you feed a hungry farm animal, you will make it feel satisfied! </p><p> But if you feed the farm animal and it was already full, you will make it feel sick. </p>","","0","instructions","","","","","","","","","","",""
"learning-instructions","64","371976","0.0-9.0-1.0-0.4","4072","2","22","Female","approach_avoid_spark_v1","""event"",""trial"",""time""
""fullscreenenter"",""1"",""1389""
""fullscreenexit"",""19"",""141972""
""blur"",""63"",""354485""
""focus"",""63"",""356539""
","""event"",""trial"",""time""
""blur"",""63"",""354485""
","""event"",""trial"",""time""
""focus"",""63"",""356539""
","""event"",""trial"",""time""
""fullscreenenter"",""1"",""1389""
","""event"",""trial"",""time""
""fullscreenexit"",""19"",""141972""
","","","","","","847","<p> You will earn points based on how you made the farm animal feel. </p><p> If you made it satisfied, you will WIN anywhere from 1 - 9 points, </p><p> but if you made it sick, you will LOSE anywhere from 1 - 9 points. </p>","","0","instructions","","","","","","","","","","",""
"learning-instructions","65","380392","0.0-9.0-1.0-0.5","4072","2","22","Female","approach_avoid_spark_v1","""event"",""trial"",""time""
""fullscreenenter"",""1"",""1389""
""fullscreenexit"",""19"",""141972""
""blur"",""63"",""354485""
""focus"",""63"",""356539""
","""event"",""trial"",""time""
""blur"",""63"",""354485""
","""event"",""trial"",""time""
""focus"",""63"",""356539""
","""event"",""trial"",""time""
""fullscreenenter"",""1"",""1389""
","""event"",""trial"",""time""
""fullscreenexit"",""19"",""141972""
","","","","","","1093","<p> You will see how many points you won or lost in the center of the screen. </p><p> Here is what you would see if you won 5 points: </p><p style=""color:green;font-size:50px;font-weight:bolder"">5</p>","","0","instructions","","","","","","","","","","",""
"learning-instructions","66","384112","0.0-9.0-1.0-0.6","4072","2","22","Female","approach_avoid_spark_v1","""event"",""trial"",""time""
""fullscreenenter"",""1"",""1389""
""fullscreenexit"",""19"",""141972""
""blur"",""63"",""354485""
""focus"",""63"",""356539""
","""event"",""trial"",""time""
""blur"",""63"",""354485""
","""event"",""trial"",""time""
""focus"",""63"",""356539""
","""event"",""trial"",""time""
""fullscreenenter"",""1"",""1389""
","""event"",""trial"",""time""
""fullscreenexit"",""19"",""141972""
","","","","","","430","<p> And here is what you would see if you lost 3 points: </p><p style=""color:red;font-size:50px;font-weight:bolder"">-3</p>","","0","instructions","","","","","","","","","","",""
"learning-instructions","67","399846","0.0-9.0-1.0-0.7","4072","2","22","Female","approach_avoid_spark_v1","""event"",""trial"",""time""
""fullscreenenter"",""1"",""1389""
""fullscreenexit"",""19"",""141972""
""blur"",""63"",""354485""
""focus"",""63"",""356539""
","""event"",""trial"",""time""
""blur"",""63"",""354485""
","""event"",""trial"",""time""
""focus"",""63"",""356539""
","""event"",""trial"",""time""
""fullscreenenter"",""1"",""1389""
","""event"",""trial"",""time""
""fullscreenexit"",""19"",""141972""
","","","","","","332","<p> Some farm animals will become very satisfied or very sick. </p><p> These farm animals will make you win or lose LOTS of points. </p><p> Other farm animals have less strong feelings. </p><p> These farm animals will make you win or lose small amounts of points. </p>","","0","instructions","","","","","","","","","","",""
"learning-instructions","68","412362","0.0-9.0-1.0-0.8","4072","2","22","Female","approach_avoid_spark_v1","""event"",""trial"",""time""
""fullscreenenter"",""1"",""1389""
""fullscreenexit"",""19"",""141972""
""blur"",""63"",""354485""
""focus"",""63"",""356539""
","""event"",""trial"",""time""
""blur"",""63"",""354485""
","""event"",""trial"",""time""
""focus"",""63"",""356539""
","""event"",""trial"",""time""
""fullscreenenter"",""1"",""1389""
","""event"",""trial"",""time""
""fullscreenexit"",""19"",""141972""
","","","","","","550","<p> If you choose to leave the farm animal alone, you will not win or lose any points. </p><p>  However, in the center of the screen, you will see the number of points you WOULD HAVE won or lost if you had fed the farm animal. </p>","","0","instructions","","","","","","","","","","",""
"learning-instructions","69","424179","0.0-9.0-1.0-0.9","4072","2","22","Female","approach_avoid_spark_v1","""event"",""trial"",""time""
""fullscreenenter"",""1"",""1389""
""fullscreenexit"",""19"",""141972""
""blur"",""63"",""354485""
""focus"",""63"",""356539""
","""event"",""trial"",""time""
""blur"",""63"",""354485""
","""event"",""trial"",""time""
""focus"",""63"",""356539""
","""event"",""trial"",""time""
""fullscreenenter"",""1"",""1389""
","""event"",""trial"",""time""
""fullscreenexit"",""19"",""141972""
","","","","","","591","<p> Here is what you might see if you did not feed the farm animal but the animal was hungry: </p><p style=""color:grey; font-size:50px; display: inline-block; border-spacing: 15px; border-width:3px; border-style:solid; border-color:red"">  &nbsp; 6 &nbsp; </p><p> Remember, in this case, you would not win or lose ANY points because you did not feed the farm animal.  </p>","","0","instructions","","","","","","","","","","",""
"learning-instructions","70","433330","0.0-9.0-1.0-0.10","4072","2","22","Female","approach_avoid_spark_v1","""event"",""trial"",""time""
""fullscreenenter"",""1"",""1389""
""fullscreenexit"",""19"",""141972""
""blur"",""63"",""354485""
""focus"",""63"",""356539""
","""event"",""trial"",""time""
""blur"",""63"",""354485""
","""event"",""trial"",""time""
""focus"",""63"",""356539""
","""event"",""trial"",""time""
""fullscreenenter"",""1"",""1389""
","""event"",""trial"",""time""
""fullscreenexit"",""19"",""141972""
","","","","","","1464","<p> Try to make the best choice for each farm animal because </p><p> at the end of the game, you will earn bonus money based on how many points you earned. </p>","","0","instructions","","","","","","","","","","",""
"learning-instructions","71","472145","0.0-9.0-1.0-0.11","4072","2","22","Female","approach_avoid_spark_v1","""event"",""trial"",""time""
""fullscreenenter"",""1"",""1389""
""fullscreenexit"",""19"",""141972""
""blur"",""63"",""354485""
""focus"",""63"",""356539""
","""event"",""trial"",""time""
""blur"",""63"",""354485""
","""event"",""trial"",""time""
""focus"",""63"",""356539""
","""event"",""trial"",""time""
""fullscreenenter"",""1"",""1389""
","""event"",""trial"",""time""
""fullscreenexit"",""19"",""141972""
","","","","","","30617","<p> You will have 3 seconds to make each choice. Try to respond before time runs out! </p><p> You will lose 5 points each time you do not make a response. </p>","","0","instructions","","","","","","","","","","",""
"html-keyboard-response","72","472758","0.0-9.0-2.0-0.0","4072","2","22","Female","approach_avoid_spark_v1","""event"",""trial"",""time""
""fullscreenenter"",""1"",""1389""
""fullscreenexit"",""19"",""141972""
""blur"",""63"",""354485""
""focus"",""63"",""356539""
","""event"",""trial"",""time""
""blur"",""63"",""354485""
","""event"",""trial"",""time""
""focus"",""63"",""356539""
","""event"",""trial"",""time""
""fullscreenenter"",""1"",""1389""
","""event"",""trial"",""time""
""fullscreenexit"",""19"",""141972""
","","","","","","null","<div style=""font-size:60px;"">+</div>","null","","fixation","","","","","","","","","","",""
"aa-learning-trial","73","475760","0.0-9.0-2.0-1.0","4072","2","22","Female","approach_avoid_spark_v1","""event"",""trial"",""time""
""fullscreenenter"",""1"",""1389""
""fullscreenexit"",""19"",""141972""
""blur"",""63"",""354485""
""focus"",""63"",""356539""
","""event"",""trial"",""time""
""blur"",""63"",""354485""
","""event"",""trial"",""time""
""focus"",""63"",""356539""
","""event"",""trial"",""time""
""fullscreenenter"",""1"",""1389""
","""event"",""trial"",""time""
""fullscreenexit"",""19"",""141972""
","","","","","","1045","images/goat6.png","","","learning","4","4","1","1","goat","animals","2","0","","bad","[-6]"
"html-keyboard-response","74","476266","0.0-9.0-2.0-0.1","4072","2","22","Female","approach_avoid_spark_v1","""event"",""trial"",""time""
""fullscreenenter"",""1"",""1389""
""fullscreenexit"",""19"",""141972""
""blur"",""63"",""354485""
""focus"",""63"",""356539""
","""event"",""trial"",""time""
""blur"",""63"",""354485""
","""event"",""trial"",""time""
""focus"",""63"",""356539""
","""event"",""trial"",""time""
""fullscreenenter"",""1"",""1389""
","""event"",""trial"",""time""
""fullscreenexit"",""19"",""141972""
","","","","","","null","<div style=""font-size:60px;"">+</div>","null","","fixation","","","","","","","","","","",""
"aa-learning-trial","75","479274","0.0-9.0-2.0-1.1","4072","2","22","Female","approach_avoid_spark_v1","""event"",""trial"",""time""
""fullscreenenter"",""1"",""1389""
""fullscreenexit"",""19"",""141972""
""blur"",""63"",""354485""
""focus"",""63"",""356539""
","""event"",""trial"",""time""
""blur"",""63"",""354485""
","""event"",""trial"",""time""
""focus"",""63"",""356539""
","""event"",""trial"",""time""
""fullscreenenter"",""1"",""1389""
","""event"",""trial"",""time""
""fullscreenexit"",""19"",""141972""
","","","","","","1345","images/sheep2.png","","","learning","3","3","1","1","sheep","animals","2","0","","neutral","0"
"html-keyboard-response","76","479780","0.0-9.0-2.0-0.2","4072","2","22","Female","approach_avoid_spark_v1","""event"",""trial"",""time""
""fullscreenenter"",""1"",""1389""
""fullscreenexit"",""19"",""141972""
""blur"",""63"",""354485""
""focus"",""63"",""356539""
","""event"",""trial"",""time""
""blur"",""63"",""354485""
","""event"",""trial"",""time""
""focus"",""63"",""356539""
","""event"",""trial"",""time""
""fullscreenenter"",""1"",""1389""
","""event"",""trial"",""time""
""fullscreenexit"",""19"",""141972""
","","","","","","null","<div style=""font-size:60px;"">+</div>","null","","fixation","","","","","","","","","","",""
"aa-learning-trial","77","482786","0.0-9.0-2.0-1.2","4072","2","22","Female","approach_avoid_spark_v1","""event"",""trial"",""time""
""fullscreenenter"",""1"",""1389""
""fullscreenexit"",""19"",""141972""
""blur"",""63"",""354485""
""focus"",""63"",""356539""
","""event"",""trial"",""time""
""blur"",""63"",""354485""
","""event"",""trial"",""time""
""focus"",""63"",""356539""
","""event"",""trial"",""time""
""fullscreenenter"",""1"",""1389""
","""event"",""trial"",""time""
""fullscreenexit"",""19"",""141972""
","","","","","","744","images/goat5.png","","","learning","-3","0","0","0","goat","animals","2","0","","bad","[-6]"
"html-keyboard-response","78","483293","0.0-9.0-2.0-0.3","4072","2","22","Female","approach_avoid_spark_v1","""event"",""trial"",""time""
""fullscreenenter"",""1"",""1389""
""fullscreenexit"",""19"",""141972""
""blur"",""63"",""354485""
""focus"",""63"",""356539""
","""event"",""trial"",""time""
""blur"",""63"",""354485""
","""event"",""trial"",""time""
""focus"",""63"",""356539""
","""event"",""trial"",""time""
""fullscreenenter"",""1"",""1389""
","""event"",""trial"",""time""
""fullscreenexit"",""19"",""141972""
","","","","","","null","<div style=""font-size:60px;"">+</div>","null","","fixation","","","","","","","","","","",""
"aa-learning-trial","79","486296","0.0-9.0-2.0-1.3","4072","2","22","Female","approach_avoid_spark_v1","""event"",""trial"",""time""
""fullscreenenter"",""1"",""1389""
""fullscreenexit"",""19"",""141972""
""blur"",""63"",""354485""
""focus"",""63"",""356539""
","""event"",""trial"",""time""
""blur"",""63"",""354485""
","""event"",""trial"",""time""
""focus"",""63"",""356539""
","""event"",""trial"",""time""
""fullscreenenter"",""1"",""1389""
","""event"",""trial"",""time""
""fullscreenexit"",""19"",""141972""
","","","","","","1281","images/cow2.png","","","learning","-4","-4","1","1","cow","animals","2","0","","good","[4]"
"html-keyboard-response","80","486798","0.0-9.0-2.0-0.4","4072","2","22","Female","approach_avoid_spark_v1","""event"",""trial"",""time""
""fullscreenenter"",""1"",""1389""
""fullscreenexit"",""19"",""141972""
""blur"",""63"",""354485""
""focus"",""63"",""356539""
","""event"",""trial"",""time""
""blur"",""63"",""354485""
","""event"",""trial"",""time""
""focus"",""63"",""356539""
","""event"",""trial"",""time""
""fullscreenenter"",""1"",""1389""
","""event"",""trial"",""time""
""fullscreenexit"",""19"",""141972""
","","","","","","null","<div style=""font-size:60px;"">+</div>","null","","fixation","","","","","","","","","","",""
"aa-learning-trial","81","489805","0.0-9.0-2.0-1.4","4072","2","22","Female","approach_avoid_spark_v1","""event"",""trial"",""time""
""fullscreenenter"",""1"",""1389""
""fullscreenexit"",""19"",""141972""
""blur"",""63"",""354485""
""focus"",""63"",""356539""
","""event"",""trial"",""time""
""blur"",""63"",""354485""
","""event"",""trial"",""time""
""focus"",""63"",""356539""
","""event"",""trial"",""time""
""fullscreenenter"",""1"",""1389""
","""event"",""trial"",""time""
""fullscreenexit"",""19"",""141972""
","","","","","","1003","images/cow8.png","","","learning","7","7","1","1","cow","animals","2","0","","good","[4]"
"html-keyboard-response","82","490307","0.0-9.0-2.0-0.5","4072","2","22","Female","approach_avoid_spark_v1","""event"",""trial"",""time""
""fullscreenenter"",""1"",""1389""
""fullscreenexit"",""19"",""141972""
""blur"",""63"",""354485""
""focus"",""63"",""356539""
","""event"",""trial"",""time""
""blur"",""63"",""354485""
","""event"",""trial"",""time""
""focus"",""63"",""356539""
","""event"",""trial"",""time""
""fullscreenenter"",""1"",""1389""
","""event"",""trial"",""time""
""fullscreenexit"",""19"",""141972""
","","","","","","null","<div style=""font-size:60px;"">+</div>","null","","fixation","","","","","","","","","","",""
"aa-learning-trial","83","493315","0.0-9.0-2.0-1.5","4072","2","22","Female","approach_avoid_spark_v1","""event"",""trial"",""time""
""fullscreenenter"",""1"",""1389""
""fullscreenexit"",""19"",""141972""
""blur"",""63"",""354485""
""focus"",""63"",""356539""
","""event"",""trial"",""time""
""blur"",""63"",""354485""
","""event"",""trial"",""time""
""focus"",""63"",""356539""
","""event"",""trial"",""time""
""fullscreenenter"",""1"",""1389""
","""event"",""trial"",""time""
""fullscreenexit"",""19"",""141972""
","","","","","","1022","images/cow4.png","","","learning","-7","0","0","0","cow","animals","2","0","","good","[4]"
"html-keyboard-response","84","493821","0.0-9.0-2.0-0.6","4072","2","22","Female","approach_avoid_spark_v1","""event"",""trial"",""time""
""fullscreenenter"",""1"",""1389""
""fullscreenexit"",""19"",""141972""
""blur"",""63"",""354485""
""focus"",""63"",""356539""
","""event"",""trial"",""time""
""blur"",""63"",""354485""
","""event"",""trial"",""time""
""focus"",""63"",""356539""
","""event"",""trial"",""time""
""fullscreenenter"",""1"",""1389""
","""event"",""trial"",""time""
""fullscreenexit"",""19"",""141972""
","","","","","","null","<div style=""font-size:60px;"">+</div>","null","","fixation","","","","","","","","","","",""
"aa-learning-trial","85","496828","0.0-9.0-2.0-1.6","4072","2","22","Female","approach_avoid_spark_v1","""event"",""trial"",""time""
""fullscreenenter"",""1"",""1389""
""fullscreenexit"",""19"",""141972""
""blur"",""63"",""354485""
""focus"",""63"",""356539""
","""event"",""trial"",""time""
""blur"",""63"",""354485""
","""event"",""trial"",""time""
""focus"",""63"",""356539""
","""event"",""trial"",""time""
""fullscreenenter"",""1"",""1389""
","""event"",""trial"",""time""
""fullscreenexit"",""19"",""141972""
","","","","","","839","images/sheep4.png","","","learning","1","1","1","1","sheep","animals","2","0","","neutral","0"
"html-keyboard-response","86","497329","0.0-9.0-2.0-0.7","4072","2","22","Female","approach_avoid_spark_v1","""event"",""trial"",""time""
""fullscreenenter"",""1"",""1389""
""fullscreenexit"",""19"",""141972""
""blur"",""63"",""354485""
""focus"",""63"",""356539""
","""event"",""trial"",""time""
""blur"",""63"",""354485""
","""event"",""trial"",""time""
""focus"",""63"",""356539""
","""event"",""trial"",""time""
""fullscreenenter"",""1"",""1389""
","""event"",""trial"",""time""
""fullscreenexit"",""19"",""141972""
","","","","","","null","<div style=""font-size:60px;"">+</div>","null","","fixation","","","","","","","","","","",""
"aa-learning-trial","87","500337","0.0-9.0-2.0-1.7","4072","2","22","Female","approach_avoid_spark_v1","""event"",""trial"",""time""
""fullscreenenter"",""1"",""1389""
""fullscreenexit"",""19"",""141972""
""blur"",""63"",""354485""
""focus"",""63"",""356539""
","""event"",""trial"",""time""
""blur"",""63"",""354485""
","""event"",""trial"",""time""
""focus"",""63"",""356539""
","""event"",""trial"",""time""
""fullscreenenter"",""1"",""1389""
","""event"",""trial"",""time""
""fullscreenexit"",""19"",""141972""
","","","","","","1011","images/cow2.png","","","learning","-4","0","0","0","cow","animals","2","0","","good","[4]"
"html-keyboard-response","88","500843","0.0-9.0-2.0-0.8","4072","2","22","Female","approach_avoid_spark_v1","""event"",""trial"",""time""
""fullscreenenter"",""1"",""1389""
""fullscreenexit"",""19"",""141972""
""blur"",""63"",""354485""
""focus"",""63"",""356539""
","""event"",""trial"",""time""
""blur"",""63"",""354485""
","""event"",""trial"",""time""
""focus"",""63"",""356539""
","""event"",""trial"",""time""
""fullscreenenter"",""1"",""1389""
","""event"",""trial"",""time""
""fullscreenexit"",""19"",""141972""
","","","","","","null","<div style=""font-size:60px;"">+</div>","null","","fixation","","","","","","","","","","",""
"aa-learning-trial","89","503846","0.0-9.0-2.0-1.8","4072","2","22","Female","approach_avoid_spark_v1","""event"",""trial"",""time""
""fullscreenenter"",""1"",""1389""
""fullscreenexit"",""19"",""141972""
""blur"",""63"",""354485""
""focus"",""63"",""356539""
","""event"",""trial"",""time""
""blur"",""63"",""354485""
","""event"",""trial"",""time""
""focus"",""63"",""356539""
","""event"",""trial"",""time""
""fullscreenenter"",""1"",""1389""
","""event"",""trial"",""time""
""fullscreenexit"",""19"",""141972""
","","","","","","1063","images/goat5.png","","","learning","-3","-3","1","1","goat","animals","2","0","","bad","[-6]"
"html-keyboard-response","90","504350","0.0-9.0-2.0-0.9","4072","2","22","Female","approach_avoid_spark_v1","""event"",""trial"",""time""
""fullscreenenter"",""1"",""1389""
""fullscreenexit"",""19"",""141972""
""blur"",""63"",""354485""
""focus"",""63"",""356539""
","""event"",""trial"",""time""
""blur"",""63"",""354485""
","""event"",""trial"",""time""
""focus"",""63"",""356539""
","""event"",""trial"",""time""
""fullscreenenter"",""1"",""1389""
","""event"",""trial"",""time""
""fullscreenexit"",""19"",""141972""
","","","","","","null","<div style=""font-size:60px;"">+</div>","null","","fixation","","","","","","","","","","",""
"aa-learning-trial","91","507353","0.0-9.0-2.0-1.9","4072","2","22","Female","approach_avoid_spark_v1","""event"",""trial"",""time""
""fullscreenenter"",""1"",""1389""
""fullscreenexit"",""19"",""141972""
""blur"",""63"",""354485""
""focus"",""63"",""356539""
","""event"",""trial"",""time""
""blur"",""63"",""354485""
","""event"",""trial"",""time""
""focus"",""63"",""356539""
","""event"",""trial"",""time""
""fullscreenenter"",""1"",""1389""
","""event"",""trial"",""time""
""fullscreenexit"",""19"",""141972""
","","","","","","1001","images/sheep5.png","","","learning","-9","-9","1","1","sheep","animals","2","0","","neutral","0"
"html-keyboard-response","92","507859","0.0-9.0-2.0-0.10","4072","2","22","Female","approach_avoid_spark_v1","""event"",""trial"",""time""
""fullscreenenter"",""1"",""1389""
""fullscreenexit"",""19"",""141972""
""blur"",""63"",""354485""
""focus"",""63"",""356539""
","""event"",""trial"",""time""
""blur"",""63"",""354485""
","""event"",""trial"",""time""
""focus"",""63"",""356539""
","""event"",""trial"",""time""
""fullscreenenter"",""1"",""1389""
","""event"",""trial"",""time""
""fullscreenexit"",""19"",""141972""
","","","","","","null","<div style=""font-size:60px;"">+</div>","null","","fixation","","","","","","","","","","",""
"aa-learning-trial","93","510863","0.0-9.0-2.0-1.10","4072","2","22","Female","approach_avoid_spark_v1","""event"",""trial"",""time""
""fullscreenenter"",""1"",""1389""
""fullscreenexit"",""19"",""141972""
""blur"",""63"",""354485""
""focus"",""63"",""356539""
","""event"",""trial"",""time""
""blur"",""63"",""354485""
","""event"",""trial"",""time""
""focus"",""63"",""356539""
","""event"",""trial"",""time""
""fullscreenenter"",""1"",""1389""
","""event"",""trial"",""time""
""fullscreenexit"",""19"",""141972""
","","","","","","1043","images/goat4.png","","","learning","-8","-8","1","1","goat","animals","2","0","","bad","[-6]"
"html-keyboard-response","94","511370","0.0-9.0-2.0-0.11","4072","2","22","Female","approach_avoid_spark_v1","""event"",""trial"",""time""
""fullscreenenter"",""1"",""1389""
""fullscreenexit"",""19"",""141972""
""blur"",""63"",""354485""
""focus"",""63"",""356539""
","""event"",""trial"",""time""
""blur"",""63"",""354485""
","""event"",""trial"",""time""
""focus"",""63"",""356539""
","""event"",""trial"",""time""
""fullscreenenter"",""1"",""1389""
","""event"",""trial"",""time""
""fullscreenexit"",""19"",""141972""
","","","","","","null","<div style=""font-size:60px;"">+</div>","null","","fixation","","","","","","","","","","",""
"aa-learning-trial","95","514377","0.0-9.0-2.0-1.11","4072","2","22","Female","approach_avoid_spark_v1","""event"",""trial"",""time""
""fullscreenenter"",""1"",""1389""
""fullscreenexit"",""19"",""141972""
""blur"",""63"",""354485""
""focus"",""63"",""356539""
","""event"",""trial"",""time""
""blur"",""63"",""354485""
","""event"",""trial"",""time""
""focus"",""63"",""356539""
","""event"",""trial"",""time""
""fullscreenenter"",""1"",""1389""
","""event"",""trial"",""time""
""fullscreenexit"",""19"",""141972""
","","","","","","384","images/goat6.png","","","learning","4","0","0","0","goat","animals","2","0","","bad","[-6]"
"html-keyboard-response","96","514883","0.0-9.0-2.0-0.12","4072","2","22","Female","approach_avoid_spark_v1","""event"",""trial"",""time""
""fullscreenenter"",""1"",""1389""
""fullscreenexit"",""19"",""141972""
""blur"",""63"",""354485""
""focus"",""63"",""356539""
","""event"",""trial"",""time""
""blur"",""63"",""354485""
","""event"",""trial"",""time""
""focus"",""63"",""356539""
","""event"",""trial"",""time""
""fullscreenenter"",""1"",""1389""
","""event"",""trial"",""time""
""fullscreenexit"",""19"",""141972""
","","","","","","null","<div style=""font-size:60px;"">+</div>","null","","fixation","","","","","","","","","","",""
"aa-learning-trial","97","517891","0.0-9.0-2.0-1.12","4072","2","22","Female","approach_avoid_spark_v1","""event"",""trial"",""time""
""fullscreenenter"",""1"",""1389""
""fullscreenexit"",""19"",""141972""
""blur"",""63"",""354485""
""focus"",""63"",""356539""
","""event"",""trial"",""time""
""blur"",""63"",""354485""
","""event"",""trial"",""time""
""focus"",""63"",""356539""
","""event"",""trial"",""time""
""fullscreenenter"",""1"",""1389""
","""event"",""trial"",""time""
""fullscreenexit"",""19"",""141972""
","","","","","","646","images/cow8.png","","","learning","7","7","1","1","cow","animals","2","0","","good","[4]"
"html-keyboard-response","98","518397","0.0-9.0-2.0-0.13","4072","2","22","Female","approach_avoid_spark_v1","""event"",""trial"",""time""
""fullscreenenter"",""1"",""1389""
""fullscreenexit"",""19"",""141972""
""blur"",""63"",""354485""
""focus"",""63"",""356539""
","""event"",""trial"",""time""
""blur"",""63"",""354485""
","""event"",""trial"",""time""
""focus"",""63"",""356539""
","""event"",""trial"",""time""
""fullscreenenter"",""1"",""1389""
","""event"",""trial"",""time""
""fullscreenexit"",""19"",""141972""
","","","","","","null","<div style=""font-size:60px;"">+</div>","null","","fixation","","","","","","","","","","",""
"aa-learning-trial","99","521401","0.0-9.0-2.0-1.13","4072","2","22","Female","approach_avoid_spark_v1","""event"",""trial"",""time""
""fullscreenenter"",""1"",""1389""
""fullscreenexit"",""19"",""141972""
""blur"",""63"",""354485""
""focus"",""63"",""356539""
","""event"",""trial"",""time""
""blur"",""63"",""354485""
","""event"",""trial"",""time""
""focus"",""63"",""356539""
","""event"",""trial"",""time""
""fullscreenenter"",""1"",""1389""
","""event"",""trial"",""time""
""fullscreenexit"",""19"",""141972""
","","","","","","940","images/sheep4.png","","","learning","1","1","1","1","sheep","animals","2","0","","neutral","0"
"html-keyboard-response","100","521907","0.0-9.0-2.0-0.14","4072","2","22","Female","approach_avoid_spark_v1","""event"",""trial"",""time""
""fullscreenenter"",""1"",""1389""
""fullscreenexit"",""19"",""141972""
""blur"",""63"",""354485""
""focus"",""63"",""356539""
","""event"",""trial"",""time""
""blur"",""63"",""354485""
","""event"",""trial"",""time""
""focus"",""63"",""356539""
","""event"",""trial"",""time""
""fullscreenenter"",""1"",""1389""
","""event"",""trial"",""time""
""fullscreenexit"",""19"",""141972""
","","","","","","null","<div style=""font-size:60px;"">+</div>","null","","fixation","","","","","","","","","","",""
"aa-learning-trial","101","524914","0.0-9.0-2.0-1.14","4072","2","22","Female","approach_avoid_spark_v1","""event"",""trial"",""time""
""fullscreenenter"",""1"",""1389""
""fullscreenexit"",""19"",""141972""
""blur"",""63"",""354485""
""focus"",""63"",""356539""
","""event"",""trial"",""time""
""blur"",""63"",""354485""
","""event"",""trial"",""time""
""focus"",""63"",""356539""
","""event"",""trial"",""time""
""fullscreenenter"",""1"",""1389""
","""event"",""trial"",""time""
""fullscreenexit"",""19"",""141972""
","","","","","","1295","images/sheep5.png","","","learning","-9","0","0","0","sheep","animals","2","0","","neutral","0"
"html-keyboard-response","102","525420","0.0-9.0-2.0-0.15","4072","2","22","Female","approach_avoid_spark_v1","""event"",""trial"",""time""
""fullscreenenter"",""1"",""1389""
""fullscreenexit"",""19"",""141972""
""blur"",""63"",""354485""
""focus"",""63"",""356539""
","""event"",""trial"",""time""
""blur"",""63"",""354485""
","""event"",""trial"",""time""
""focus"",""63"",""356539""
","""event"",""trial"",""time""
""fullscreenenter"",""1"",""1389""
","""event"",""trial"",""time""
""fullscreenexit"",""19"",""141972""
","","","","","","null","<div style=""font-size:60px;"">+</div>","null","","fixation","","","","","","","","","","",""
"aa-learning-trial","103","528428","0.0-9.0-2.0-1.15","4072","2","22","Female","approach_avoid_spark_v1","""event"",""trial"",""time""
""fullscreenenter"",""1"",""1389""
""fullscreenexit"",""19"",""141972""
""blur"",""63"",""354485""
""focus"",""63"",""356539""
","""event"",""trial"",""time""
""blur"",""63"",""354485""
","""event"",""trial"",""time""
""focus"",""63"",""356539""
","""event"",""trial"",""time""
""fullscreenenter"",""1"",""1389""
","""event"",""trial"",""time""
""fullscreenexit"",""19"",""141972""
","","","","","","766","images/sheep7.png","","","learning","-5","-5","1","1","sheep","animals","2","0","","neutral","0"
"html-keyboard-response","104","528929","0.0-9.0-2.0-0.16","4072","2","22","Female","approach_avoid_spark_v1","""event"",""trial"",""time""
""fullscreenenter"",""1"",""1389""
""fullscreenexit"",""19"",""141972""
""blur"",""63"",""354485""
""focus"",""63"",""356539""
","""event"",""trial"",""time""
""blur"",""63"",""354485""
","""event"",""trial"",""time""
""focus"",""63"",""356539""
","""event"",""trial"",""time""
""fullscreenenter"",""1"",""1389""
","""event"",""trial"",""time""
""fullscreenexit"",""19"",""141972""
","","","","","","null","<div style=""font-size:60px;"">+</div>","null","","fixation","","","","","","","","","","",""
"aa-learning-trial","105","531937","0.0-9.0-2.0-1.16","4072","2","22","Female","approach_avoid_spark_v1","""event"",""trial"",""time""
""fullscreenenter"",""1"",""1389""
""fullscreenexit"",""19"",""141972""
""blur"",""63"",""354485""
""focus"",""63"",""356539""
","""event"",""trial"",""time""
""blur"",""63"",""354485""
","""event"",""trial"",""time""
""focus"",""63"",""356539""
","""event"",""trial"",""time""
""fullscreenenter"",""1"",""1389""
","""event"",""trial"",""time""
""fullscreenexit"",""19"",""141972""
","","","","","","865","images/cow8.png","","","learning","7","0","0","0","cow","animals","2","0","","good","[4]"
"html-keyboard-response","106","532441","0.0-9.0-2.0-0.17","4072","2","22","Female","approach_avoid_spark_v1","""event"",""trial"",""time""
""fullscreenenter"",""1"",""1389""
""fullscreenexit"",""19"",""141972""
""blur"",""63"",""354485""
""focus"",""63"",""356539""
","""event"",""trial"",""time""
""blur"",""63"",""354485""
","""event"",""trial"",""time""
""focus"",""63"",""356539""
","""event"",""trial"",""time""
""fullscreenenter"",""1"",""1389""
","""event"",""trial"",""time""
""fullscreenexit"",""19"",""141972""
","","","","","","null","<div style=""font-size:60px;"">+</div>","null","","fixation","","","","","","","","","","",""
"aa-learning-trial","107","535449","0.0-9.0-2.0-1.17","4072","2","22","Female","approach_avoid_spark_v1","""event"",""trial"",""time""
""fullscreenenter"",""1"",""1389""
""fullscreenexit"",""19"",""141972""
""blur"",""63"",""354485""
""focus"",""63"",""356539""
","""event"",""trial"",""time""
""blur"",""63"",""354485""
","""event"",""trial"",""time""
""focus"",""63"",""356539""
","""event"",""trial"",""time""
""fullscreenenter"",""1"",""1389""
","""event"",""trial"",""time""
""fullscreenexit"",""19"",""141972""
","","","","","","1020","images/cow2.png","","","learning","-4","-4","1","1","cow","animals","2","0","","good","[4]"
"html-keyboard-response","108","535950","0.0-9.0-2.0-0.18","4072","2","22","Female","approach_avoid_spark_v1","""event"",""trial"",""time""
""fullscreenenter"",""1"",""1389""
""fullscreenexit"",""19"",""141972""
""blur"",""63"",""354485""
""focus"",""63"",""356539""
","""event"",""trial"",""time""
""blur"",""63"",""354485""
","""event"",""trial"",""time""
""focus"",""63"",""356539""
","""event"",""trial"",""time""
""fullscreenenter"",""1"",""1389""
","""event"",""trial"",""time""
""fullscreenexit"",""19"",""141972""
","","","","","","null","<div style=""font-size:60px;"">+</div>","null","","fixation","","","","","","","","","","",""
"aa-learning-trial","109","538957","0.0-9.0-2.0-1.18","4072","2","22","Female","approach_avoid_spark_v1","""event"",""trial"",""time""
""fullscreenenter"",""1"",""1389""
""fullscreenexit"",""19"",""141972""
""blur"",""63"",""354485""
""focus"",""63"",""356539""
","""event"",""trial"",""time""
""blur"",""63"",""354485""
","""event"",""trial"",""time""
""focus"",""63"",""356539""
","""event"",""trial"",""time""
""fullscreenenter"",""1"",""1389""
","""event"",""trial"",""time""
""fullscreenexit"",""19"",""141972""
","","","","","","458","images/sheep4.png","","","learning","1","0","0","0","sheep","animals","2","0","","neutral","0"
"html-keyboard-response","110","539460","0.0-9.0-2.0-0.19","4072","2","22","Female","approach_avoid_spark_v1","""event"",""trial"",""time""
""fullscreenenter"",""1"",""1389""
""fullscreenexit"",""19"",""141972""
""blur"",""63"",""354485""
""focus"",""63"",""356539""
","""event"",""trial"",""time""
""blur"",""63"",""354485""
","""event"",""trial"",""time""
""focus"",""63"",""356539""
","""event"",""trial"",""time""
""fullscreenenter"",""1"",""1389""
","""event"",""trial"",""time""
""fullscreenexit"",""19"",""141972""
","","","","","","null","<div style=""font-size:60px;"">+</div>","null","","fixation","","","","","","","","","","",""
"aa-learning-trial","111","542467","0.0-9.0-2.0-1.19","4072","2","22","Female","approach_avoid_spark_v1","""event"",""trial"",""time""
""fullscreenenter"",""1"",""1389""
""fullscreenexit"",""19"",""141972""
""blur"",""63"",""354485""
""focus"",""63"",""356539""
","""event"",""trial"",""time""
""blur"",""63"",""354485""
","""event"",""trial"",""time""
""focus"",""63"",""356539""
","""event"",""trial"",""time""
""fullscreenenter"",""1"",""1389""
","""event"",""trial"",""time""
""fullscreenexit"",""19"",""141972""
","","","","","","551","images/cow4.png","","","learning","-7","-7","1","1","cow","animals","2","0","","good","[4]"
"html-keyboard-response","112","542973","0.0-9.0-2.0-0.20","4072","2","22","Female","approach_avoid_spark_v1","""event"",""trial"",""time""
""fullscreenenter"",""1"",""1389""
""fullscreenexit"",""19"",""141972""
""blur"",""63"",""354485""
""focus"",""63"",""356539""
","""event"",""trial"",""time""
""blur"",""63"",""354485""
","""event"",""trial"",""time""
""focus"",""63"",""356539""
","""event"",""trial"",""time""
""fullscreenenter"",""1"",""1389""
","""event"",""trial"",""time""
""fullscreenexit"",""19"",""141972""
","","","","","","null","<div style=""font-size:60px;"">+</div>","null","","fixation","","","","","","","","","","",""
"aa-learning-trial","113","545982","0.0-9.0-2.0-1.20","4072","2","22","Female","approach_avoid_spark_v1","""event"",""trial"",""time""
""fullscreenenter"",""1"",""1389""
""fullscreenexit"",""19"",""141972""
""blur"",""63"",""354485""
""focus"",""63"",""356539""
","""event"",""trial"",""time""
""blur"",""63"",""354485""
","""event"",""trial"",""time""
""focus"",""63"",""356539""
","""event"",""trial"",""time""
""fullscreenenter"",""1"",""1389""
","""event"",""trial"",""time""
""fullscreenexit"",""19"",""141972""
","","","","","","272","images/sheep5.png","","","learning","-9","0","0","0","sheep","animals","2","0","","neutral","0"
"html-keyboard-response","114","546488","0.0-9.0-2.0-0.21","4072","2","22","Female","approach_avoid_spark_v1","""event"",""trial"",""time""
""fullscreenenter"",""1"",""1389""
""fullscreenexit"",""19"",""141972""
""blur"",""63"",""354485""
""focus"",""63"",""356539""
","""event"",""trial"",""time""
""blur"",""63"",""354485""
","""event"",""trial"",""time""
""focus"",""63"",""356539""
","""event"",""trial"",""time""
""fullscreenenter"",""1"",""1389""
","""event"",""trial"",""time""
""fullscreenexit"",""19"",""141972""
","","","","","","null","<div style=""font-size:60px;"">+</div>","null","","fixation","","","","","","","","","","",""
"aa-learning-trial","115","549496","0.0-9.0-2.0-1.21","4072","2","22","Female","approach_avoid_spark_v1","""event"",""trial"",""time""
""fullscreenenter"",""1"",""1389""
""fullscreenexit"",""19"",""141972""
""blur"",""63"",""354485""
""focus"",""63"",""356539""
","""event"",""trial"",""time""
""blur"",""63"",""354485""
","""event"",""trial"",""time""
""focus"",""63"",""356539""
","""event"",""trial"",""time""
""fullscreenenter"",""1"",""1389""
","""event"",""trial"",""time""
""fullscreenexit"",""19"",""141972""
","","","","","","1000","images/goat6.png","","","learning","4","4","1","1","goat","animals","2","0","","bad","[-6]"
"html-keyboard-response","116","549998","0.0-9.0-2.0-0.22","4072","2","22","Female","approach_avoid_spark_v1","""event"",""trial"",""time""
""fullscreenenter"",""1"",""1389""
""fullscreenexit"",""19"",""141972""
""blur"",""63"",""354485""
""focus"",""63"",""356539""
","""event"",""trial"",""time""
""blur"",""63"",""354485""
","""event"",""trial"",""time""
""focus"",""63"",""356539""
","""event"",""trial"",""time""
""fullscreenenter"",""1"",""1389""
","""event"",""trial"",""time""
""fullscreenexit"",""19"",""141972""
","","","","","","null","<div style=""font-size:60px;"">+</div>","null","","fixation","","","","","","","","","","",""
"aa-learning-trial","117","553002","0.0-9.0-2.0-1.22","4072","2","22","Female","approach_avoid_spark_v1","""event"",""trial"",""time""
""fullscreenenter"",""1"",""1389""
""fullscreenexit"",""19"",""141972""
""blur"",""63"",""354485""
""focus"",""63"",""356539""
","""event"",""trial"",""time""
""blur"",""63"",""354485""
","""event"",""trial"",""time""
""focus"",""63"",""356539""
","""event"",""trial"",""time""
""fullscreenenter"",""1"",""1389""
","""event"",""trial"",""time""
""fullscreenexit"",""19"",""141972""
","","","","","","807","images/cow2.png","","","learning","-4","-4","1","1","cow","animals","2","0","","good","[4]"
"html-keyboard-response","118","553507","0.0-9.0-2.0-0.23","4072","2","22","Female","approach_avoid_spark_v1","""event"",""trial"",""time""
""fullscreenenter"",""1"",""1389""
""fullscreenexit"",""19"",""141972""
""blur"",""63"",""354485""
""focus"",""63"",""356539""
","""event"",""trial"",""time""
""blur"",""63"",""354485""
","""event"",""trial"",""time""
""focus"",""63"",""356539""
","""event"",""trial"",""time""
""fullscreenenter"",""1"",""1389""
","""event"",""trial"",""time""
""fullscreenexit"",""19"",""141972""
","","","","","","null","<div style=""font-size:60px;"">+</div>","null","","fixation","","","","","","","","","","",""
"aa-learning-trial","119","556515","0.0-9.0-2.0-1.23","4072","2","22","Female","approach_avoid_spark_v1","""event"",""trial"",""time""
""fullscreenenter"",""1"",""1389""
""fullscreenexit"",""19"",""141972""
""blur"",""63"",""354485""
""focus"",""63"",""356539""
","""event"",""trial"",""time""
""blur"",""63"",""354485""
","""event"",""trial"",""time""
""focus"",""63"",""356539""
","""event"",""trial"",""time""
""fullscreenenter"",""1"",""1389""
","""event"",""trial"",""time""
""fullscreenexit"",""19"",""141972""
","","","","","","652","images/cow8.png","","","learning","7","0","0","0","cow","animals","2","0","","good","[4]"
"html-keyboard-response","120","557017","0.0-9.0-2.0-0.24","4072","2","22","Female","approach_avoid_spark_v1","""event"",""trial"",""time""
""fullscreenenter"",""1"",""1389""
""fullscreenexit"",""19"",""141972""
""blur"",""63"",""354485""
""focus"",""63"",""356539""
","""event"",""trial"",""time""
""blur"",""63"",""354485""
","""event"",""trial"",""time""
""focus"",""63"",""356539""
","""event"",""trial"",""time""
""fullscreenenter"",""1"",""1389""
","""event"",""trial"",""time""
""fullscreenexit"",""19"",""141972""
","","","","","","null","<div style=""font-size:60px;"">+</div>","null","","fixation","","","","","","","","","","",""
"aa-learning-trial","121","560024","0.0-9.0-2.0-1.24","4072","2","22","Female","approach_avoid_spark_v1","""event"",""trial"",""time""
""fullscreenenter"",""1"",""1389""
""fullscreenexit"",""19"",""141972""
""blur"",""63"",""354485""
""focus"",""63"",""356539""
","""event"",""trial"",""time""
""blur"",""63"",""354485""
","""event"",""trial"",""time""
""focus"",""63"",""356539""
","""event"",""trial"",""time""
""fullscreenenter"",""1"",""1389""
","""event"",""trial"",""time""
""fullscreenexit"",""19"",""141972""
","","","","","","447","images/goat7.png","","","learning","6","0","0","0","goat","animals","2","0","","bad","[-6]"
"html-keyboard-response","122","560527","0.0-9.0-2.0-0.25","4072","2","22","Female","approach_avoid_spark_v1","""event"",""trial"",""time""
""fullscreenenter"",""1"",""1389""
""fullscreenexit"",""19"",""141972""
""blur"",""63"",""354485""
""focus"",""63"",""356539""
","""event"",""trial"",""time""
""blur"",""63"",""354485""
","""event"",""trial"",""time""
""focus"",""63"",""356539""
","""event"",""trial"",""time""
""fullscreenenter"",""1"",""1389""
","""event"",""trial"",""time""
""fullscreenexit"",""19"",""141972""
","","","","","","null","<div style=""font-size:60px;"">+</div>","null","","fixation","","","","","","","","","","",""
"aa-learning-trial","123","563534","0.0-9.0-2.0-1.25","4072","2","22","Female","approach_avoid_spark_v1","""event"",""trial"",""time""
""fullscreenenter"",""1"",""1389""
""fullscreenexit"",""19"",""141972""
""blur"",""63"",""354485""
""focus"",""63"",""356539""
","""event"",""trial"",""time""
""blur"",""63"",""354485""
","""event"",""trial"",""time""
""focus"",""63"",""356539""
","""event"",""trial"",""time""
""fullscreenenter"",""1"",""1389""
","""event"",""trial"",""time""
""fullscreenexit"",""19"",""141972""
","","","","","","286","images/sheep4.png","","","learning","1","1","1","1","sheep","animals","2","0","","neutral","0"
"html-keyboard-response","124","564039","0.0-9.0-2.0-0.26","4072","2","22","Female","approach_avoid_spark_v1","""event"",""trial"",""time""
""fullscreenenter"",""1"",""1389""
""fullscreenexit"",""19"",""141972""
""blur"",""63"",""354485""
""focus"",""63"",""356539""
","""event"",""trial"",""time""
""blur"",""63"",""354485""
","""event"",""trial"",""time""
""focus"",""63"",""356539""
","""event"",""trial"",""time""
""fullscreenenter"",""1"",""1389""
","""event"",""trial"",""time""
""fullscreenexit"",""19"",""141972""
","","","","","","null","<div style=""font-size:60px;"">+</div>","null","","fixation","","","","","","","","","","",""
"aa-learning-trial","125","567046","0.0-9.0-2.0-1.26","4072","2","22","Female","approach_avoid_spark_v1","""event"",""trial"",""time""
""fullscreenenter"",""1"",""1389""
""fullscreenexit"",""19"",""141972""
""blur"",""63"",""354485""
""focus"",""63"",""356539""
","""event"",""trial"",""time""
""blur"",""63"",""354485""
","""event"",""trial"",""time""
""focus"",""63"",""356539""
","""event"",""trial"",""time""
""fullscreenenter"",""1"",""1389""
","""event"",""trial"",""time""
""fullscreenexit"",""19"",""141972""
","","","","","","561","images/sheep4.png","","","learning","1","1","1","1","sheep","animals","2","0","","neutral","0"
"html-keyboard-response","126","567548","0.0-9.0-2.0-0.27","4072","2","22","Female","approach_avoid_spark_v1","""event"",""trial"",""time""
""fullscreenenter"",""1"",""1389""
""fullscreenexit"",""19"",""141972""
""blur"",""63"",""354485""
""focus"",""63"",""356539""
","""event"",""trial"",""time""
""blur"",""63"",""354485""
","""event"",""trial"",""time""
""focus"",""63"",""356539""
","""event"",""trial"",""time""
""fullscreenenter"",""1"",""1389""
","""event"",""trial"",""time""
""fullscreenexit"",""19"",""141972""
","","","","","","null","<div style=""font-size:60px;"">+</div>","null","","fixation","","","","","","","","","","",""
"aa-learning-trial","127","570553","0.0-9.0-2.0-1.27","4072","2","22","Female","approach_avoid_spark_v1","""event"",""trial"",""time""
""fullscreenenter"",""1"",""1389""
""fullscreenexit"",""19"",""141972""
""blur"",""63"",""354485""
""focus"",""63"",""356539""
","""event"",""trial"",""time""
""blur"",""63"",""354485""
","""event"",""trial"",""time""
""focus"",""63"",""356539""
","""event"",""trial"",""time""
""fullscreenenter"",""1"",""1389""
","""event"",""trial"",""time""
""fullscreenexit"",""19"",""141972""
","","","","","","1100","images/cow8.png","","","learning","7","0","0","0","cow","animals","2","0","","good","[4]"
"html-keyboard-response","128","571059","0.0-9.0-2.0-0.28","4072","2","22","Female","approach_avoid_spark_v1","""event"",""trial"",""time""
""fullscreenenter"",""1"",""1389""
""fullscreenexit"",""19"",""141972""
""blur"",""63"",""354485""
""focus"",""63"",""356539""
","""event"",""trial"",""time""
""blur"",""63"",""354485""
","""event"",""trial"",""time""
""focus"",""63"",""356539""
","""event"",""trial"",""time""
""fullscreenenter"",""1"",""1389""
","""event"",""trial"",""time""
""fullscreenexit"",""19"",""141972""
","","","","","","null","<div style=""font-size:60px;"">+</div>","null","","fixation","","","","","","","","","","",""
"aa-learning-trial","129","574067","0.0-9.0-2.0-1.28","4072","2","22","Female","approach_avoid_spark_v1","""event"",""trial"",""time""
""fullscreenenter"",""1"",""1389""
""fullscreenexit"",""19"",""141972""
""blur"",""63"",""354485""
""focus"",""63"",""356539""
","""event"",""trial"",""time""
""blur"",""63"",""354485""
","""event"",""trial"",""time""
""focus"",""63"",""356539""
","""event"",""trial"",""time""
""fullscreenenter"",""1"",""1389""
","""event"",""trial"",""time""
""fullscreenexit"",""19"",""141972""
","","","","","","699","images/cow8.png","","","learning","7","7","1","1","cow","animals","2","0","","good","[4]"
"html-keyboard-response","130","574573","0.0-9.0-2.0-0.29","4072","2","22","Female","approach_avoid_spark_v1","""event"",""trial"",""time""
""fullscreenenter"",""1"",""1389""
""fullscreenexit"",""19"",""141972""
""blur"",""63"",""354485""
""focus"",""63"",""356539""
","""event"",""trial"",""time""
""blur"",""63"",""354485""
","""event"",""trial"",""time""
""focus"",""63"",""356539""
","""event"",""trial"",""time""
""fullscreenenter"",""1"",""1389""
","""event"",""trial"",""time""
""fullscreenexit"",""19"",""141972""
","","","","","","null","<div style=""font-size:60px;"">+</div>","null","","fixation","","","","","","","","","","",""
"aa-learning-trial","131","577581","0.0-9.0-2.0-1.29","4072","2","22","Female","approach_avoid_spark_v1","""event"",""trial"",""time""
""fullscreenenter"",""1"",""1389""
""fullscreenexit"",""19"",""141972""
""blur"",""63"",""354485""
""focus"",""63"",""356539""
","""event"",""trial"",""time""
""blur"",""63"",""354485""
","""event"",""trial"",""time""
""focus"",""63"",""356539""
","""event"",""trial"",""time""
""fullscreenenter"",""1"",""1389""
","""event"",""trial"",""time""
""fullscreenexit"",""19"",""141972""
","","","","","","1073","images/cow2.png","","","learning","-4","0","0","0","cow","animals","2","0","","good","[4]"
"html-keyboard-response","132","578083","0.0-9.0-2.0-0.30","4072","2","22","Female","approach_avoid_spark_v1","""event"",""trial"",""time""
""fullscreenenter"",""1"",""1389""
""fullscreenexit"",""19"",""141972""
""blur"",""63"",""354485""
""focus"",""63"",""356539""
","""event"",""trial"",""time""
""blur"",""63"",""354485""
","""event"",""trial"",""time""
""focus"",""63"",""356539""
","""event"",""trial"",""time""
""fullscreenenter"",""1"",""1389""
","""event"",""trial"",""time""
""fullscreenexit"",""19"",""141972""
","","","","","","null","<div style=""font-size:60px;"">+</div>","null","","fixation","","","","","","","","","","",""
"aa-learning-trial","133","581091","0.0-9.0-2.0-1.30","4072","2","22","Female","approach_avoid_spark_v1","""event"",""trial"",""time""
""fullscreenenter"",""1"",""1389""
""fullscreenexit"",""19"",""141972""
""blur"",""63"",""354485""
""focus"",""63"",""356539""
","""event"",""trial"",""time""
""blur"",""63"",""354485""
","""event"",""trial"",""time""
""focus"",""63"",""356539""
","""event"",""trial"",""time""
""fullscreenenter"",""1"",""1389""
","""event"",""trial"",""time""
""fullscreenexit"",""19"",""141972""
","","","","","","1110","images/goat6.png","","","learning","4","0","0","0","goat","animals","2","0","","bad","[-6]"
"html-keyboard-response","134","581593","0.0-9.0-2.0-0.31","4072","2","22","Female","approach_avoid_spark_v1","""event"",""trial"",""time""
""fullscreenenter"",""1"",""1389""
""fullscreenexit"",""19"",""141972""
""blur"",""63"",""354485""
""focus"",""63"",""356539""
","""event"",""trial"",""time""
""blur"",""63"",""354485""
","""event"",""trial"",""time""
""focus"",""63"",""356539""
","""event"",""trial"",""time""
""fullscreenenter"",""1"",""1389""
","""event"",""trial"",""time""
""fullscreenexit"",""19"",""141972""
","","","","","","null","<div style=""font-size:60px;"">+</div>","null","","fixation","","","","","","","","","","",""
"aa-learning-trial","135","584597","0.0-9.0-2.0-1.31","4072","2","22","Female","approach_avoid_spark_v1","""event"",""trial"",""time""
""fullscreenenter"",""1"",""1389""
""fullscreenexit"",""19"",""141972""
""blur"",""63"",""354485""
""focus"",""63"",""356539""
","""event"",""trial"",""time""
""blur"",""63"",""354485""
","""event"",""trial"",""time""
""focus"",""63"",""356539""
","""event"",""trial"",""time""
""fullscreenenter"",""1"",""1389""
","""event"",""trial"",""time""
""fullscreenexit"",""19"",""141972""
","","","","","","761","images/goat4.png","","","learning","-8","-8","1","1","goat","animals","2","0","","bad","[-6]"
"html-keyboard-response","136","585104","0.0-9.0-2.0-0.32","4072","2","22","Female","approach_avoid_spark_v1","""event"",""trial"",""time""
""fullscreenenter"",""1"",""1389""
""fullscreenexit"",""19"",""141972""
""blur"",""63"",""354485""
""focus"",""63"",""356539""
","""event"",""trial"",""time""
""blur"",""63"",""354485""
","""event"",""trial"",""time""
""focus"",""63"",""356539""
","""event"",""trial"",""time""
""fullscreenenter"",""1"",""1389""
","""event"",""trial"",""time""
""fullscreenexit"",""19"",""141972""
","","","","","","null","<div style=""font-size:60px;"">+</div>","null","","fixation","","","","","","","","","","",""
"aa-learning-trial","137","588110","0.0-9.0-2.0-1.32","4072","2","22","Female","approach_avoid_spark_v1","""event"",""trial"",""time""
""fullscreenenter"",""1"",""1389""
""fullscreenexit"",""19"",""141972""
""blur"",""63"",""354485""
""focus"",""63"",""356539""
","""event"",""trial"",""time""
""blur"",""63"",""354485""
","""event"",""trial"",""time""
""focus"",""63"",""356539""
","""event"",""trial"",""time""
""fullscreenenter"",""1"",""1389""
","""event"",""trial"",""time""
""fullscreenexit"",""19"",""141972""
","","","","","","839","images/cow2.png","","","learning","-4","0","0","0","cow","animals","2","0","","good","[4]"
"html-keyboard-response","138","588617","0.0-9.0-2.0-0.33","4072","2","22","Female","approach_avoid_spark_v1","""event"",""trial"",""time""
""fullscreenenter"",""1"",""1389""
""fullscreenexit"",""19"",""141972""
""blur"",""63"",""354485""
""focus"",""63"",""356539""
","""event"",""trial"",""time""
""blur"",""63"",""354485""
","""event"",""trial"",""time""
""focus"",""63"",""356539""
","""event"",""trial"",""time""
""fullscreenenter"",""1"",""1389""
","""event"",""trial"",""time""
""fullscreenexit"",""19"",""141972""
","","","","","","null","<div style=""font-size:60px;"">+</div>","null","","fixation","","","","","","","","","","",""
"aa-learning-trial","139","591624","0.0-9.0-2.0-1.33","4072","2","22","Female","approach_avoid_spark_v1","""event"",""trial"",""time""
""fullscreenenter"",""1"",""1389""
""fullscreenexit"",""19"",""141972""
""blur"",""63"",""354485""
""focus"",""63"",""356539""
","""event"",""trial"",""time""
""blur"",""63"",""354485""
","""event"",""trial"",""time""
""focus"",""63"",""356539""
","""event"",""trial"",""time""
""fullscreenenter"",""1"",""1389""
","""event"",""trial"",""time""
""fullscreenexit"",""19"",""141972""
","","","","","","1030","images/goat5.png","","","learning","-3","-3","1","1","goat","animals","2","0","","bad","[-6]"
"html-keyboard-response","140","592128","0.0-9.0-2.0-0.34","4072","2","22","Female","approach_avoid_spark_v1","""event"",""trial"",""time""
""fullscreenenter"",""1"",""1389""
""fullscreenexit"",""19"",""141972""
""blur"",""63"",""354485""
""focus"",""63"",""356539""
","""event"",""trial"",""time""
""blur"",""63"",""354485""
","""event"",""trial"",""time""
""focus"",""63"",""356539""
","""event"",""trial"",""time""
""fullscreenenter"",""1"",""1389""
","""event"",""trial"",""time""
""fullscreenexit"",""19"",""141972""
","","","","","","null","<div style=""font-size:60px;"">+</div>","null","","fixation","","","","","","","","","","",""
"aa-learning-trial","141","595135","0.0-9.0-2.0-1.34","4072","2","22","Female","approach_avoid_spark_v1","""event"",""trial"",""time""
""fullscreenenter"",""1"",""1389""
""fullscreenexit"",""19"",""141972""
""blur"",""63"",""354485""
""focus"",""63"",""356539""
","""event"",""trial"",""time""
""blur"",""63"",""354485""
","""event"",""trial"",""time""
""focus"",""63"",""356539""
","""event"",""trial"",""time""
""fullscreenenter"",""1"",""1389""
","""event"",""trial"",""time""
""fullscreenexit"",""19"",""141972""
","","","","","","1897","images/goat6.png","","","learning","4","4","1","1","goat","animals","2","0","","bad","[-6]"
"html-keyboard-response","142","595640","0.0-9.0-2.0-0.35","4072","2","22","Female","approach_avoid_spark_v1","""event"",""trial"",""time""
""fullscreenenter"",""1"",""1389""
""fullscreenexit"",""19"",""141972""
""blur"",""63"",""354485""
""focus"",""63"",""356539""
","""event"",""trial"",""time""
""blur"",""63"",""354485""
","""event"",""trial"",""time""
""focus"",""63"",""356539""
","""event"",""trial"",""time""
""fullscreenenter"",""1"",""1389""
","""event"",""trial"",""time""
""fullscreenexit"",""19"",""141972""
","","","","","","null","<div style=""font-size:60px;"">+</div>","null","","fixation","","","","","","","","","","",""
"aa-learning-trial","143","598647","0.0-9.0-2.0-1.35","4072","2","22","Female","approach_avoid_spark_v1","""event"",""trial"",""time""
""fullscreenenter"",""1"",""1389""
""fullscreenexit"",""19"",""141972""
""blur"",""63"",""354485""
""focus"",""63"",""356539""
","""event"",""trial"",""time""
""blur"",""63"",""354485""
","""event"",""trial"",""time""
""focus"",""63"",""356539""
","""event"",""trial"",""time""
""fullscreenenter"",""1"",""1389""
","""event"",""trial"",""time""
""fullscreenexit"",""19"",""141972""
","","","","","","993","images/sheep5.png","","","learning","-9","0","0","0","sheep","animals","2","0","","neutral","0"
"html-keyboard-response","144","599150","0.0-9.0-2.0-0.36","4072","2","22","Female","approach_avoid_spark_v1","""event"",""trial"",""time""
""fullscreenenter"",""1"",""1389""
""fullscreenexit"",""19"",""141972""
""blur"",""63"",""354485""
""focus"",""63"",""356539""
","""event"",""trial"",""time""
""blur"",""63"",""354485""
","""event"",""trial"",""time""
""focus"",""63"",""356539""
","""event"",""trial"",""time""
""fullscreenenter"",""1"",""1389""
","""event"",""trial"",""time""
""fullscreenexit"",""19"",""141972""
","","","","","","null","<div style=""font-size:60px;"">+</div>","null","","fixation","","","","","","","","","","",""
"aa-learning-trial","145","602156","0.0-9.0-2.0-1.36","4072","2","22","Female","approach_avoid_spark_v1","""event"",""trial"",""time""
""fullscreenenter"",""1"",""1389""
""fullscreenexit"",""19"",""141972""
""blur"",""63"",""354485""
""focus"",""63"",""356539""
","""event"",""trial"",""time""
""blur"",""63"",""354485""
","""event"",""trial"",""time""
""focus"",""63"",""356539""
","""event"",""trial"",""time""
""fullscreenenter"",""1"",""1389""
","""event"",""trial"",""time""
""fullscreenexit"",""19"",""141972""
","","","","","","805","images/goat8.png","","","learning","-2","-2","1","1","goat","animals","2","0","","bad","[-6]"
"html-keyboard-response","146","602661","0.0-9.0-2.0-0.37","4072","2","22","Female","approach_avoid_spark_v1","""event"",""trial"",""time""
""fullscreenenter"",""1"",""1389""
""fullscreenexit"",""19"",""141972""
""blur"",""63"",""354485""
""focus"",""63"",""356539""
","""event"",""trial"",""time""
""blur"",""63"",""354485""
","""event"",""trial"",""time""
""focus"",""63"",""356539""
","""event"",""trial"",""time""
""fullscreenenter"",""1"",""1389""
","""event"",""trial"",""time""
""fullscreenexit"",""19"",""141972""
","","","","","","null","<div style=""font-size:60px;"">+</div>","null","","fixation","","","","","","","","","","",""
"aa-learning-trial","147","605669","0.0-9.0-2.0-1.37","4072","2","22","Female","approach_avoid_spark_v1","""event"",""trial"",""time""
""fullscreenenter"",""1"",""1389""
""fullscreenexit"",""19"",""141972""
""blur"",""63"",""354485""
""focus"",""63"",""356539""
","""event"",""trial"",""time""
""blur"",""63"",""354485""
","""event"",""trial"",""time""
""focus"",""63"",""356539""
","""event"",""trial"",""time""
""fullscreenenter"",""1"",""1389""
","""event"",""trial"",""time""
""fullscreenexit"",""19"",""141972""
","","","","","","960","images/sheep2.png","","","learning","3","3","1","1","sheep","animals","2","0","","neutral","0"
"html-keyboard-response","148","606173","0.0-9.0-2.0-0.38","4072","2","22","Female","approach_avoid_spark_v1","""event"",""trial"",""time""
""fullscreenenter"",""1"",""1389""
""fullscreenexit"",""19"",""141972""
""blur"",""63"",""354485""
""focus"",""63"",""356539""
","""event"",""trial"",""time""
""blur"",""63"",""354485""
","""event"",""trial"",""time""
""focus"",""63"",""356539""
","""event"",""trial"",""time""
""fullscreenenter"",""1"",""1389""
","""event"",""trial"",""time""
""fullscreenexit"",""19"",""141972""
","","","","","","null","<div style=""font-size:60px;"">+</div>","null","","fixation","","","","","","","","","","",""
"aa-learning-trial","149","609181","0.0-9.0-2.0-1.38","4072","2","22","Female","approach_avoid_spark_v1","""event"",""trial"",""time""
""fullscreenenter"",""1"",""1389""
""fullscreenexit"",""19"",""141972""
""blur"",""63"",""354485""
""focus"",""63"",""356539""
","""event"",""trial"",""time""
""blur"",""63"",""354485""
","""event"",""trial"",""time""
""focus"",""63"",""356539""
","""event"",""trial"",""time""
""fullscreenenter"",""1"",""1389""
","""event"",""trial"",""time""
""fullscreenexit"",""19"",""141972""
","","","","","","892","images/goat5.png","","","learning","-3","0","0","0","goat","animals","2","0","","bad","[-6]"
"html-keyboard-response","150","609687","0.0-9.0-2.0-0.39","4072","2","22","Female","approach_avoid_spark_v1","""event"",""trial"",""time""
""fullscreenenter"",""1"",""1389""
""fullscreenexit"",""19"",""141972""
""blur"",""63"",""354485""
""focus"",""63"",""356539""
","""event"",""trial"",""time""
""blur"",""63"",""354485""
","""event"",""trial"",""time""
""focus"",""63"",""356539""
","""event"",""trial"",""time""
""fullscreenenter"",""1"",""1389""
","""event"",""trial"",""time""
""fullscreenexit"",""19"",""141972""
","","","","","","null","<div style=""font-size:60px;"">+</div>","null","","fixation","","","","","","","","","","",""
"aa-learning-trial","151","612694","0.0-9.0-2.0-1.39","4072","2","22","Female","approach_avoid_spark_v1","""event"",""trial"",""time""
""fullscreenenter"",""1"",""1389""
""fullscreenexit"",""19"",""141972""
""blur"",""63"",""354485""
""focus"",""63"",""356539""
","""event"",""trial"",""time""
""blur"",""63"",""354485""
","""event"",""trial"",""time""
""focus"",""63"",""356539""
","""event"",""trial"",""time""
""fullscreenenter"",""1"",""1389""
","""event"",""trial"",""time""
""fullscreenexit"",""19"",""141972""
","","","","","","1069","images/cow6.png","","","learning","-1","-1","1","1","cow","animals","2","0","","good","[4]"
"html-keyboard-response","152","613197","0.0-9.0-2.0-0.40","4072","2","22","Female","approach_avoid_spark_v1","""event"",""trial"",""time""
""fullscreenenter"",""1"",""1389""
""fullscreenexit"",""19"",""141972""
""blur"",""63"",""354485""
""focus"",""63"",""356539""
","""event"",""trial"",""time""
""blur"",""63"",""354485""
","""event"",""trial"",""time""
""focus"",""63"",""356539""
","""event"",""trial"",""time""
""fullscreenenter"",""1"",""1389""
","""event"",""trial"",""time""
""fullscreenexit"",""19"",""141972""
","","","","","","null","<div style=""font-size:60px;"">+</div>","null","","fixation","","","","","","","","","","",""
"aa-learning-trial","153","616204","0.0-9.0-2.0-1.40","4072","2","22","Female","approach_avoid_spark_v1","""event"",""trial"",""time""
""fullscreenenter"",""1"",""1389""
""fullscreenexit"",""19"",""141972""
""blur"",""63"",""354485""
""focus"",""63"",""356539""
","""event"",""trial"",""time""
""blur"",""63"",""354485""
","""event"",""trial"",""time""
""focus"",""63"",""356539""
","""event"",""trial"",""time""
""fullscreenenter"",""1"",""1389""
","""event"",""trial"",""time""
""fullscreenexit"",""19"",""141972""
","","","","","","1036","images/sheep5.png","","","learning","-9","0","0","0","sheep","animals","2","0","","neutral","0"
"html-keyboard-response","154","616707","0.0-9.0-2.0-0.41","4072","2","22","Female","approach_avoid_spark_v1","""event"",""trial"",""time""
""fullscreenenter"",""1"",""1389""
""fullscreenexit"",""19"",""141972""
""blur"",""63"",""354485""
""focus"",""63"",""356539""
","""event"",""trial"",""time""
""blur"",""63"",""354485""
","""event"",""trial"",""time""
""focus"",""63"",""356539""
","""event"",""trial"",""time""
""fullscreenenter"",""1"",""1389""
","""event"",""trial"",""time""
""fullscreenexit"",""19"",""141972""
","","","","","","null","<div style=""font-size:60px;"">+</div>","null","","fixation","","","","","","","","","","",""
"aa-learning-trial","155","619716","0.0-9.0-2.0-1.41","4072","2","22","Female","approach_avoid_spark_v1","""event"",""trial"",""time""
""fullscreenenter"",""1"",""1389""
""fullscreenexit"",""19"",""141972""
""blur"",""63"",""354485""
""focus"",""63"",""356539""
","""event"",""trial"",""time""
""blur"",""63"",""354485""
","""event"",""trial"",""time""
""focus"",""63"",""356539""
","""event"",""trial"",""time""
""fullscreenenter"",""1"",""1389""
","""event"",""trial"",""time""
""fullscreenexit"",""19"",""141972""
","","","","","","1106","images/sheep4.png","","","learning","1","1","1","1","sheep","animals","2","0","","neutral","0"
"html-keyboard-response","156","620223","0.0-9.0-2.0-0.42","4072","2","22","Female","approach_avoid_spark_v1","""event"",""trial"",""time""
""fullscreenenter"",""1"",""1389""
""fullscreenexit"",""19"",""141972""
""blur"",""63"",""354485""
""focus"",""63"",""356539""
","""event"",""trial"",""time""
""blur"",""63"",""354485""
","""event"",""trial"",""time""
""focus"",""63"",""356539""
","""event"",""trial"",""time""
""fullscreenenter"",""1"",""1389""
","""event"",""trial"",""time""
""fullscreenexit"",""19"",""141972""
","","","","","","null","<div style=""font-size:60px;"">+</div>","null","","fixation","","","","","","","","","","",""
"aa-learning-trial","157","623229","0.0-9.0-2.0-1.42","4072","2","22","Female","approach_avoid_spark_v1","""event"",""trial"",""time""
""fullscreenenter"",""1"",""1389""
""fullscreenexit"",""19"",""141972""
""blur"",""63"",""354485""
""focus"",""63"",""356539""
","""event"",""trial"",""time""
""blur"",""63"",""354485""
","""event"",""trial"",""time""
""focus"",""63"",""356539""
","""event"",""trial"",""time""
""fullscreenenter"",""1"",""1389""
","""event"",""trial"",""time""
""fullscreenexit"",""19"",""141972""
","","","","","","1203","images/cow5.png","","","learning","5","0","0","0","cow","animals","2","0","","good","[4]"
"html-keyboard-response","158","623736","0.0-9.0-2.0-0.43","4072","2","22","Female","approach_avoid_spark_v1","""event"",""trial"",""time""
""fullscreenenter"",""1"",""1389""
""fullscreenexit"",""19"",""141972""
""blur"",""63"",""354485""
""focus"",""63"",""356539""
","""event"",""trial"",""time""
""blur"",""63"",""354485""
","""event"",""trial"",""time""
""focus"",""63"",""356539""
","""event"",""trial"",""time""
""fullscreenenter"",""1"",""1389""
","""event"",""trial"",""time""
""fullscreenexit"",""19"",""141972""
","","","","","","null","<div style=""font-size:60px;"">+</div>","null","","fixation","","","","","","","","","","",""
"aa-learning-trial","159","626743","0.0-9.0-2.0-1.43","4072","2","22","Female","approach_avoid_spark_v1","""event"",""trial"",""time""
""fullscreenenter"",""1"",""1389""
""fullscreenexit"",""19"",""141972""
""blur"",""63"",""354485""
""focus"",""63"",""356539""
","""event"",""trial"",""time""
""blur"",""63"",""354485""
","""event"",""trial"",""time""
""focus"",""63"",""356539""
","""event"",""trial"",""time""
""fullscreenenter"",""1"",""1389""
","""event"",""trial"",""time""
""fullscreenexit"",""19"",""141972""
","","","","","","1959","images/goat5.png","","","learning","-3","-3","1","1","goat","animals","2","0","","bad","[-6]"
"html-keyboard-response","160","627245","0.0-9.0-2.0-0.44","4072","2","22","Female","approach_avoid_spark_v1","""event"",""trial"",""time""
""fullscreenenter"",""1"",""1389""
""fullscreenexit"",""19"",""141972""
""blur"",""63"",""354485""
""focus"",""63"",""356539""
","""event"",""trial"",""time""
""blur"",""63"",""354485""
","""event"",""trial"",""time""
""focus"",""63"",""356539""
","""event"",""trial"",""time""
""fullscreenenter"",""1"",""1389""
","""event"",""trial"",""time""
""fullscreenexit"",""19"",""141972""
","","","","","","null","<div style=""font-size:60px;"">+</div>","null","","fixation","","","","","","","","","","",""
"aa-learning-trial","161","630251","0.0-9.0-2.0-1.44","4072","2","22","Female","approach_avoid_spark_v1","""event"",""trial"",""time""
""fullscreenenter"",""1"",""1389""
""fullscreenexit"",""19"",""141972""
""blur"",""63"",""354485""
""focus"",""63"",""356539""
","""event"",""trial"",""time""
""blur"",""63"",""354485""
","""event"",""trial"",""time""
""focus"",""63"",""356539""
","""event"",""trial"",""time""
""fullscreenenter"",""1"",""1389""
","""event"",""trial"",""time""
""fullscreenexit"",""19"",""141972""
","","","","","","858","images/cow4.png","","","learning","-7","0","0","0","cow","animals","2","0","","good","[4]"
"html-keyboard-response","162","630754","0.0-9.0-2.0-0.45","4072","2","22","Female","approach_avoid_spark_v1","""event"",""trial"",""time""
