"trial_type","trial_index","time_elapsed","internal_node_id","subject_id","task_condition","age","gender","task_version","interactions","blur_events","focus_events","fullscreenenter_events","fullscreenexit_events","success","timeout","failed_images","failed_audio","failed_video","rt","stimulus","response","button_pressed","task_part","approach_reward","points","key_press","option_selected","stim_cat","task_block","block_condition","block_number","correct","cat_type","mean_cat_reward"
"pavlovia","0","8","0.0-0.0","5848","1","21","Female","approach_avoid_spark_v1","""event"",""trial"",""time""
""fullscreenenter"",""1"",""1655""
","
","
","""event"",""trial"",""time""
""fullscreenenter"",""1"",""1655""
","
","","","","","","","","","","","","","","","","","","","","",""
"fullscreen","1","2583","0.0-1.0","5848","1","21","Female","approach_avoid_spark_v1","""event"",""trial"",""time""
""fullscreenenter"",""1"",""1655""
","
","
","""event"",""trial"",""time""
""fullscreenenter"",""1"",""1655""
","
","true","","","","","","","","","","","","","","","","","","","",""
"preload","2","13942","0.0-2.0","5848","1","21","Female","approach_avoid_spark_v1","""event"",""trial"",""time""
""fullscreenenter"",""1"",""1655""
","
","
","""event"",""trial"",""time""
""fullscreenenter"",""1"",""1655""
","
","true","false","[]","[]","[]","","","","","","","","","","","","","","","",""
"audio-keyboard-response","3","16783","0.0-3.0","5848","1","21","Female","approach_avoid_spark_v1","""event"",""trial"",""time""
""fullscreenenter"",""1"",""1655""
","
","
","""event"",""trial"",""time""
""fullscreenenter"",""1"",""1655""
","
","","","","","","0","audio/beep_loop.wav"," ","","","","","","","","","","","","",""
"audio-button-response","4","20274","0.0-4.0","5848","1","21","Female","approach_avoid_spark_v1","""event"",""trial"",""time""
""fullscreenenter"",""1"",""1655""
","
","
","""event"",""trial"",""time""
""fullscreenenter"",""1"",""1655""
","
","","","","","","3181","audio/shark.wav","4","","","","","","","","","","","","",""
"audio-button-response","5","23647","0.0-5.0","5848","1","21","Female","approach_avoid_spark_v1","""event"",""trial"",""time""
""fullscreenenter"",""1"",""1655""
","
","
","""event"",""trial"",""time""
""fullscreenenter"",""1"",""1655""
","
","","","","","","2371","audio/turtle.wav","1","","","","","","","","","","","","",""
"preload","6","29501","0.0-6.0","5848","1","21","Female","approach_avoid_spark_v1","""event"",""trial"",""time""
""fullscreenenter"",""1"",""1655""
","
","
","""event"",""trial"",""time""
""fullscreenenter"",""1"",""1655""
","
","true","false","[]","[]","[]","","","","","","","","","","","","","","","",""
"html-keyboard-response","7","31316","0.0-7.0","5848","1","21","Female","approach_avoid_spark_v1","""event"",""trial"",""time""
""fullscreenenter"",""1"",""1655""
","
","
","""event"",""trial"",""time""
""fullscreenenter"",""1"",""1655""
","
","","","","","","1814","Welcome to the experiment. Press any key to begin and to advance the instructions."," ","","","","","","","","","","","","",""
"learning-instructions","8","39563","0.0-8.0-0.0-0.0","5848","1","21","Female","approach_avoid_spark_v1","""event"",""trial"",""time""
""fullscreenenter"",""1"",""1655""
","
","
","""event"",""trial"",""time""
""fullscreenenter"",""1"",""1655""
","
","","","","","","1290","<p> Welcome! Today you are going to play 6 different rounds of a decision-making game. </p><p> Use the mouse to click next to continue. </p>","","0","instructions","","","","","","","","","","",""
"learning-instructions","9","43772","0.0-8.0-0.0-0.1","5848","1","21","Female","approach_avoid_spark_v1","""event"",""trial"",""time""
""fullscreenenter"",""1"",""1655""
","
","
","""event"",""trial"",""time""
""fullscreenenter"",""1"",""1655""
","
","","","","","","1484","<p> You will start with a practice round to learn the rules. </p>","","0","instructions","","","","","","","","","","",""
"learning-instructions","10","47862","0.0-8.0-0.0-0.2","5848","1","21","Female","approach_avoid_spark_v1","""event"",""trial"",""time""
""fullscreenenter"",""1"",""1655""
","
","
","""event"",""trial"",""time""
""fullscreenenter"",""1"",""1655""
","
","","","","","","645","<p> Your goal in this round is to give out sports equipment to kids. </p></div>","","0","instructions","","","","","","","","","","",""
"learning-instructions","11","55860","0.0-8.0-0.0-0.3","5848","1","21","Female","approach_avoid_spark_v1","""event"",""trial"",""time""
""fullscreenenter"",""1"",""1655""
","
","
","""event"",""trial"",""time""
""fullscreenenter"",""1"",""1655""
","
","","","","","","455.0000000000073","<p> The kids only like some of the equipment.  </p><p> On each turn, you will see a piece of sports equipment.   </p><p> You need to decide whether to give it to the kids or not.  </p>","","0","instructions","","","","","","","","","","",""
"learning-instructions","12","61420","0.0-8.0-0.0-0.4","5848","1","21","Female","approach_avoid_spark_v1","""event"",""trial"",""time""
""fullscreenenter"",""1"",""1655""
","
","
","""event"",""trial"",""time""
""fullscreenenter"",""1"",""1655""
","
","","","","","","812","<p> You can give them the equipment by pressing 1 and choose not to give it to them by pressing 0. </p><br><div class=""choice-instructions-grid""> <div class=""choice-option""><img src=""images/approach.png"" class=""choice-option-img"" stage=""instructions"" position=""0"" ><div class=""choice-option-text""> Press ""1."" </div></div><div class=""choice-option""><img src=""images/avoid.png"" class=""choice-option-img"" stage=""instructions"" position=""1"" ><div class=""choice-option-text""> Press ""0."" </div></div>","","0","instructions","","","","","","","","","","",""
"learning-instructions","13","69280","0.0-8.0-0.0-0.5","5848","1","21","Female","approach_avoid_spark_v1","""event"",""trial"",""time""
""fullscreenenter"",""1"",""1655""
","
","
","""event"",""trial"",""time""
""fullscreenenter"",""1"",""1655""
","
","","","","","","478","<p> If you give them a piece of equipment they like, they will be happy! </p><p> But if you give them a piece of equipment they do not like, they will be sad. </p>","","0","instructions","","","","","","","","","","",""
"learning-instructions","14","80259","0.0-8.0-0.0-0.6","5848","1","21","Female","approach_avoid_spark_v1","""event"",""trial"",""time""
""fullscreenenter"",""1"",""1655""
","
","
","""event"",""trial"",""time""
""fullscreenenter"",""1"",""1655""
","
","","","","","","473","<p> You will earn points based on how you make kids feel. </p><p> If you make them happy, you will WIN anywhere from 1 - 9 points, </p><p> but if you make them sad, you will LOSE anywhere from 1 - 9 points. </p>","","0","instructions","","","","","","","","","","",""
"learning-instructions","15","90049","0.0-8.0-0.0-0.7","5848","1","21","Female","approach_avoid_spark_v1","""event"",""trial"",""time""
""fullscreenenter"",""1"",""1655""
","
","
","""event"",""trial"",""time""
""fullscreenenter"",""1"",""1655""
","
","","","","","","238","<p> You will see how many points you won or lost in the center of the screen. </p><p> Here is what you would see if you won 6 points: </p><p style=""color:green;font-size:50px;font-weight:bolder"">6</p><p style=""color:green"">The text is GREEN because you WON points.</p>","","0","instructions","","","","","","","","","","",""
"learning-instructions","16","95977","0.0-8.0-0.0-0.8","5848","1","21","Female","approach_avoid_spark_v1","""event"",""trial"",""time""
""fullscreenenter"",""1"",""1655""
","
","
","""event"",""trial"",""time""
""fullscreenenter"",""1"",""1655""
","
","","","","","","427","<p> And here is what you would see if you lost 4 points: </p><p style=""color:red;font-size:50px;font-weight:bolder"">-4</p><p style=""color:red"">The text is RED because you LOST points. </p>","","0","instructions","","","","","","","","","","",""
"learning-instructions","17","111082","0.0-8.0-0.0-0.9","5848","1","21","Female","approach_avoid_spark_v1","""event"",""trial"",""time""
""fullscreenenter"",""1"",""1655""
","
","
","""event"",""trial"",""time""
""fullscreenenter"",""1"",""1655""
","
","","","","","","400.00000000001455","<p> Some of the equipment will make the kids VERY happy or sad. </p><p> These pieces of equipment will make you win or lose LOTS of points. </p><p> Other pieces of equipment will only make the kids a little happy or sad. </p><p> These pieces of equipment will make you win or lose small amounts of points. </p>","","0","instructions","","","","","","","","","","",""
"learning-instructions","18","122297","0.0-8.0-0.0-0.10","5848","1","21","Female","approach_avoid_spark_v1","""event"",""trial"",""time""
""fullscreenenter"",""1"",""1655""
","
","
","""event"",""trial"",""time""
""fullscreenenter"",""1"",""1655""
","
","","","","","","594","<p> If you choose not to give them the equipment, you will not win or lose any points. </p><p>  However, in the center of the screen, you will see the number of points you WOULD HAVE won or lost if you had given them the equipment. </p>","","0","instructions","","","","","","","","","","",""
"learning-instructions","19","144611","0.0-8.0-0.0-0.11","5848","1","21","Female","approach_avoid_spark_v1","""event"",""trial"",""time""
""fullscreenenter"",""1"",""1655""
","
","
","""event"",""trial"",""time""
""fullscreenenter"",""1"",""1655""
","
","","","","","","794","<p> Here is what you might see if you did not give the equipment to the kids but it would have made them happy: </p><p style=""color:grey; font-size:50px; display: inline-block; border-spacing: 15px; border-width:3px; border-style:solid; border-color:red"">  &nbsp; 7 &nbsp; </p><p> Remember, in this case, you would not win or lose ANY points because you did not give them the equipment.  </p><p style=""color:grey"">The text is GREY because you earned ZERO points. </p><p style=""color:red"">However, choosing to give the kids the equipment would have made you win points. The box around the text is RED because you chose the worse option. </p>","","0","instructions","","","","","","","","","","",""
"learning-instructions","20","166199","0.0-8.0-0.0-0.12","5848","1","21","Female","approach_avoid_spark_v1","""event"",""trial"",""time""
""fullscreenenter"",""1"",""1655""
","
","
","""event"",""trial"",""time""
""fullscreenenter"",""1"",""1655""
","
","","","","","","518.9999999999709","<p> Here is what you might see if you did not give the equipment to the kids but it would have made them sad: </p><p style=""color:grey;font-size:50px; display: inline-block; border-spacing: 15px; border-width:3px; border-style:solid; border-color:green"">  &nbsp; -8 &nbsp; </p><p> Remember, in this case, you would not win or lose ANY points because you did not give them the equipment.  </p><p style=""color:grey"">The text is GREY because you earned ZERO points. </p><p  style=""color:green""> Choosing to give the kids the equipment would have made you lose points. The box around the text is GREEN because you chose the better option.</p>","","0","instructions","","","","","","","","","","",""
"learning-instructions","21","177675","0.0-8.0-0.0-0.13","5848","1","21","Female","approach_avoid_spark_v1","""event"",""trial"",""time""
""fullscreenenter"",""1"",""1655""
","
","
","""event"",""trial"",""time""
""fullscreenenter"",""1"",""1655""
","
","","","","","","1641","<p> You will have 3 seconds to make each choice. Try to respond before time runs out! </p><p> You will lose 5 points each time you do not make a response. </p>","","0","instructions","","","","","","","","","","",""
"learning-instructions","22","184016","0.0-8.0-0.0-0.14","5848","1","21","Female","approach_avoid_spark_v1","""event"",""trial"",""time""
""fullscreenenter"",""1"",""1655""
","
","
","""event"",""trial"",""time""
""fullscreenenter"",""1"",""1655""
","
","","","","","","935","<p> This is just a practice round, but in the real game, your bonus payment will depend on your total number of points.","","0","instructions","","","","","","","","","","",""
"learning-instructions","23","191277","0.0-8.0-0.0-0.15","5848","1","21","Female","approach_avoid_spark_v1","""event"",""trial"",""time""
""fullscreenenter"",""1"",""1655""
","
","
","""event"",""trial"",""time""
""fullscreenenter"",""1"",""1655""
","
","","","","","","1505","<p> Remember, you can give them the equipment by pressing 1 and choose not to give it to them by pressing 0. </p><br><div class=""choice-instructions-grid""> <div class=""choice-option""><img src=""images/approach.png"" class=""choice-option-img"" stage=""instructions"" position=""0"" ><div class=""choice-option-text""> Press ""1."" </div></div><div class=""choice-option""><img src=""images/avoid.png"" class=""choice-option-img"" stage=""instructions"" position=""1"" ><div class=""choice-option-text""> Press ""0."" </div></div>","","0","instructions","","","","","","","","","","",""
"html-button-response","24","193014","0.0-8.0-1.0","5848","1","21","Female","approach_avoid_spark_v1","""event"",""trial"",""time""
""fullscreenenter"",""1"",""1655""
","
","
","""event"",""trial"",""time""
""fullscreenenter"",""1"",""1655""
","
","","","","","","1634","<p> Ready to practice? </p>","0","","","","","","","","","","","","",""
"html-keyboard-response","25","193617","0.0-8.0-2.0-0.0","5848","1","21","Female","approach_avoid_spark_v1","""event"",""trial"",""time""
""fullscreenenter"",""1"",""1655""
","
","
","""event"",""trial"",""time""
""fullscreenenter"",""1"",""1655""
","
","","","","","","null","<div style=""font-size:60px;"">+</div>","null","","fixation","","","","","","","","","","",""
"aa-learning-trial","26","196619","0.0-8.0-2.0-1.0","5848","1","21","Female","approach_avoid_spark_v1","""event"",""trial"",""time""
""fullscreenenter"",""1"",""1655""
","
","
","""event"",""trial"",""time""
""fullscreenenter"",""1"",""1655""
","
","","","","","","1967","images/ball4.png","","","learning","-5","-5","1","1","practice","practice","practice","-1","","",""
"html-keyboard-response","27","197122","0.0-8.0-2.0-0.1","5848","1","21","Female","approach_avoid_spark_v1","""event"",""trial"",""time""
""fullscreenenter"",""1"",""1655""
","
","
","""event"",""trial"",""time""
""fullscreenenter"",""1"",""1655""
","
","","","","","","null","<div style=""font-size:60px;"">+</div>","null","","fixation","","","","","","","","","","",""
"aa-learning-trial","28","200125","0.0-8.0-2.0-1.1","5848","1","21","Female","approach_avoid_spark_v1","""event"",""trial"",""time""
""fullscreenenter"",""1"",""1655""
","
","
","""event"",""trial"",""time""
""fullscreenenter"",""1"",""1655""
","
","","","","","","null","images/ball4.png","","","learning","-6","-5","","null","practice","practice","practice","-1","","",""
"html-keyboard-response","29","200627","0.0-8.0-2.0-0.2","5848","1","21","Female","approach_avoid_spark_v1","""event"",""trial"",""time""
""fullscreenenter"",""1"",""1655""
","
","
","""event"",""trial"",""time""
""fullscreenenter"",""1"",""1655""
","
","","","","","","null","<div style=""font-size:60px;"">+</div>","null","","fixation","","","","","","","","","","",""
"aa-learning-trial","30","203630","0.0-8.0-2.0-1.2","5848","1","21","Female","approach_avoid_spark_v1","""event"",""trial"",""time""
""fullscreenenter"",""1"",""1655""
","
","
","""event"",""trial"",""time""
""fullscreenenter"",""1"",""1655""
","
","","","","","","2331.000000000029","images/racket2.png","","","learning","-3","0","0","0","practice","practice","practice","-1","","",""
"html-keyboard-response","31","204131","0.0-8.0-2.0-0.3","5848","1","21","Female","approach_avoid_spark_v1","""event"",""trial"",""time""
""fullscreenenter"",""1"",""1655""
","
","
","""event"",""trial"",""time""
""fullscreenenter"",""1"",""1655""
","
","","","","","","null","<div style=""font-size:60px;"">+</div>","null","","fixation","","","","","","","","","","",""
"aa-learning-trial","32","207134","0.0-8.0-2.0-1.3","5848","1","21","Female","approach_avoid_spark_v1","""event"",""trial"",""time""
""fullscreenenter"",""1"",""1655""
","
","
","""event"",""trial"",""time""
""fullscreenenter"",""1"",""1655""
","
","","","","","","1304","images/racket4.png","","","learning","8","8","1","1","practice","practice","practice","-1","","",""
"html-keyboard-response","33","207635","0.0-8.0-2.0-0.4","5848","1","21","Female","approach_avoid_spark_v1","""event"",""trial"",""time""
""fullscreenenter"",""1"",""1655""
","
","
","""event"",""trial"",""time""
""fullscreenenter"",""1"",""1655""
","
","","","","","","null","<div style=""font-size:60px;"">+</div>","null","","fixation","","","","","","","","","","",""
"aa-learning-trial","34","210637","0.0-8.0-2.0-1.4","5848","1","21","Female","approach_avoid_spark_v1","""event"",""trial"",""time""
""fullscreenenter"",""1"",""1655""
","
","
","""event"",""trial"",""time""
""fullscreenenter"",""1"",""1655""
","
","","","","","","1344","images/racket4.png","","","learning","4","4","1","1","practice","practice","practice","-1","","",""
"html-keyboard-response","35","211140","0.0-8.0-2.0-0.5","5848","1","21","Female","approach_avoid_spark_v1","""event"",""trial"",""time""
""fullscreenenter"",""1"",""1655""
","
","
","""event"",""trial"",""time""
""fullscreenenter"",""1"",""1655""
","
","","","","","","null","<div style=""font-size:60px;"">+</div>","null","","fixation","","","","","","","","","","",""
"aa-learning-trial","36","214142","0.0-8.0-2.0-1.5","5848","1","21","Female","approach_avoid_spark_v1","""event"",""trial"",""time""
""fullscreenenter"",""1"",""1655""
","
","
","""event"",""trial"",""time""
""fullscreenenter"",""1"",""1655""
","
","","","","","","990","images/ball2.png","","","learning","3","0","0","0","practice","practice","practice","-1","","",""
"html-keyboard-response","37","214643","0.0-8.0-2.0-0.6","5848","1","21","Female","approach_avoid_spark_v1","""event"",""trial"",""time""
""fullscreenenter"",""1"",""1655""
","
","
","""event"",""trial"",""time""
""fullscreenenter"",""1"",""1655""
","
","","","","","","null","<div style=""font-size:60px;"">+</div>","null","","fixation","","","","","","","","","","",""
"aa-learning-trial","38","217644","0.0-8.0-2.0-1.6","5848","1","21","Female","approach_avoid_spark_v1","""event"",""trial"",""time""
""fullscreenenter"",""1"",""1655""
","
","
","""event"",""trial"",""time""
""fullscreenenter"",""1"",""1655""
","
","","","","","","628","images/racket4.png","","","learning","-3","-3","1","1","practice","practice","practice","-1","","",""
"html-keyboard-response","39","218146","0.0-8.0-2.0-0.7","5848","1","21","Female","approach_avoid_spark_v1","""event"",""trial"",""time""
""fullscreenenter"",""1"",""1655""
","
","
","""event"",""trial"",""time""
""fullscreenenter"",""1"",""1655""
","
","","","","","","null","<div style=""font-size:60px;"">+</div>","null","","fixation","","","","","","","","","","",""
"aa-learning-trial","40","221148","0.0-8.0-2.0-1.7","5848","1","21","Female","approach_avoid_spark_v1","""event"",""trial"",""time""
""fullscreenenter"",""1"",""1655""
","
","
","""event"",""trial"",""time""
""fullscreenenter"",""1"",""1655""
","
","","","","","","1447","images/ball3.png","","","learning","-1","-1","1","1","practice","practice","practice","-1","","",""
"html-keyboard-response","41","221649","0.0-8.0-2.0-0.8","5848","1","21","Female","approach_avoid_spark_v1","""event"",""trial"",""time""
""fullscreenenter"",""1"",""1655""
","
","
","""event"",""trial"",""time""
""fullscreenenter"",""1"",""1655""
","
","","","","","","null","<div style=""font-size:60px;"">+</div>","null","","fixation","","","","","","","","","","",""
"aa-learning-trial","42","224651","0.0-8.0-2.0-1.8","5848","1","21","Female","approach_avoid_spark_v1","""event"",""trial"",""time""
""fullscreenenter"",""1"",""1655""
","
","
","""event"",""trial"",""time""
""fullscreenenter"",""1"",""1655""
","
","","","","","","1105.000000000029","images/racket1.png","","","learning","9","9","1","1","practice","practice","practice","-1","","",""
"html-keyboard-response","43","225153","0.0-8.0-2.0-0.9","5848","1","21","Female","approach_avoid_spark_v1","""event"",""trial"",""time""
""fullscreenenter"",""1"",""1655""
","
","
","""event"",""trial"",""time""
""fullscreenenter"",""1"",""1655""
","
","","","","","","null","<div style=""font-size:60px;"">+</div>","null","","fixation","","","","","","","","","","",""
"aa-learning-trial","44","228156","0.0-8.0-2.0-1.9","5848","1","21","Female","approach_avoid_spark_v1","""event"",""trial"",""time""
""fullscreenenter"",""1"",""1655""
","
","
","""event"",""trial"",""time""
""fullscreenenter"",""1"",""1655""
","
","","","","","","null","images/ball2.png","","","learning","-7","-5","","null","practice","practice","practice","-1","","",""
"html-keyboard-response","45","228657","0.0-8.0-2.0-0.10","5848","1","21","Female","approach_avoid_spark_v1","""event"",""trial"",""time""
""fullscreenenter"",""1"",""1655""
","
","
","""event"",""trial"",""time""
""fullscreenenter"",""1"",""1655""
","
","","","","","","null","<div style=""font-size:60px;"">+</div>","null","","fixation","","","","","","","","","","",""
"aa-learning-trial","46","231659","0.0-8.0-2.0-1.10","5848","1","21","Female","approach_avoid_spark_v1","""event"",""trial"",""time""
""fullscreenenter"",""1"",""1655""
","
","
","""event"",""trial"",""time""
""fullscreenenter"",""1"",""1655""
","
","","","","","","641","images/ball2.png","","","learning","-9","-9","1","1","practice","practice","practice","-1","","",""
"html-keyboard-response","47","232161","0.0-8.0-2.0-0.11","5848","1","21","Female","approach_avoid_spark_v1","""event"",""trial"",""time""
""fullscreenenter"",""1"",""1655""
","
","
","""event"",""trial"",""time""
""fullscreenenter"",""1"",""1655""
","
","","","","","","null","<div style=""font-size:60px;"">+</div>","null","","fixation","","","","","","","","","","",""
"aa-learning-trial","48","235164","0.0-8.0-2.0-1.11","5848","1","21","Female","approach_avoid_spark_v1","""event"",""trial"",""time""
""fullscreenenter"",""1"",""1655""
","
","
","""event"",""trial"",""time""
""fullscreenenter"",""1"",""1655""
","
","","","","","","491","images/ball1.png","","","learning","-7","-7","1","1","practice","practice","practice","-1","","",""
"html-button-response","49","237792","0.0-8.0-3.0","5848","1","21","Female","approach_avoid_spark_v1","""event"",""trial"",""time""
""fullscreenenter"",""1"",""1655""
","
","
","""event"",""trial"",""time""
""fullscreenenter"",""1"",""1655""
","
","","","","","","2627","<p> You earned -14 points in the practice round! </p>","0","","break","","","","","","","","","","",""
"learning-instructions","50","245311","0.0-8.0-4.0-0.0","5848","1","21","Female","approach_avoid_spark_v1","""event"",""trial"",""time""
""fullscreenenter"",""1"",""1655""
","
","
","""event"",""trial"",""time""
""fullscreenenter"",""1"",""1655""
","
","","","","","","1562.999999999971","<p> It's almost time to start the real game. </p><p> Before you start, we're going to ask you a few questions about how the game works. </p>","","0","instructions","","","","","","","","","","",""
"preload","51","247406","0.0-8.0-5.0","5848","1","21","Female","approach_avoid_spark_v1","""event"",""trial"",""time""
""fullscreenenter"",""1"",""1655""
","
","
","""event"",""trial"",""time""
""fullscreenenter"",""1"",""1655""
","
","true","false","[]","[]","[]","","","","","","","","","","","","","","","",""
"comp-q","52","253467","0.0-8.0-6.0-0.0","5848","1","21","Female","approach_avoid_spark_v1","""event"",""trial"",""time""
""fullscreenenter"",""1"",""1655""
","
","
","""event"",""trial"",""time""
""fullscreenenter"",""1"",""1655""
","
","","","","","","1066","<p> <b> True or False? </b> </p><p> If you see a number in GREY, that means you earned that many points. </p>","","1","comp_question","","","","","","","","","true","",""
"comp-q","53","263361","0.0-8.0-6.0-1.0","5848","1","21","Female","approach_avoid_spark_v1","""event"",""trial"",""time""
""fullscreenenter"",""1"",""1655""
","
","
","""event"",""trial"",""time""
""fullscreenenter"",""1"",""1655""
","
","","","","","","1535","<p><b> That's right! </b> If you see a grey number, it means you earned ZERO points. <br> The grey numbers show the points you WOULD HAVE earned if you had made the other choice. </p>","","0","comp_answer","","","","","","","","","","",""
"comp-q","54","269200","0.0-8.0-7.0-0.0","5848","1","21","Female","approach_avoid_spark_v1","""event"",""trial"",""time""
""fullscreenenter"",""1"",""1655""
","
","
","""event"",""trial"",""time""
""fullscreenenter"",""1"",""1655""
","
","","","","","","1150.9999999999418","<p> <b> True or False? </b> </p><p> You will have as much time as you want to make each choice. </p>","","1","comp_question","","","","","","","","","true","",""
"comp-q","55","274386","0.0-8.0-7.0-1.0","5848","1","21","Female","approach_avoid_spark_v1","""event"",""trial"",""time""
""fullscreenenter"",""1"",""1655""
","
","
","""event"",""trial"",""time""
""fullscreenenter"",""1"",""1655""
","
","","","","","","1149","<p> <b> That's right! </b> You will only have 3 seconds to make each choice. </p>","","0","comp_answer","","","","","","","","","","",""
"comp-q","56","279484","0.0-8.0-8.0-0.0","5848","1","21","Female","approach_avoid_spark_v1","""event"",""trial"",""time""
""fullscreenenter"",""1"",""1655""
","
","
","""event"",""trial"",""time""
""fullscreenenter"",""1"",""1655""
","
","","","","","","442.0000000000582","<p> <b> True or False? </b> </p><p> You should use the '1' and '0' keys to make your choices. </p>","","0","comp_question","","","","","","","","","true","",""
"comp-q","57","285296","0.0-8.0-8.0-1.0","5848","1","21","Female","approach_avoid_spark_v1","""event"",""trial"",""time""
""fullscreenenter"",""1"",""1655""
","
","
","""event"",""trial"",""time""
""fullscreenenter"",""1"",""1655""
","
","","","","","","1203","<p> <b> That's right! </b> You should use the '1' and '0' keys to make each choice. </p>","","0","comp_answer","","","","","","","","","","",""
"learning-instructions","58","292780","0.0-8.0-9.0-0.0","5848","1","21","Female","approach_avoid_spark_v1","""event"",""trial"",""time""
""fullscreenenter"",""1"",""1655""
","
","
","""event"",""trial"",""time""
""fullscreenenter"",""1"",""1655""
","
","","","","","","1218","<p> It's now time to start the real game. </p>Do your best, because the points you earn in the next rounds will influence your bonus payment. </p>","","0","instructions","","","","","","","","","","",""
"preload","59","292888","0.0-9.0-0.0","5848","1","21","Female","approach_avoid_spark_v1","""event"",""trial"",""time""
""fullscreenenter"",""1"",""1655""
","
","
","""event"",""trial"",""time""
""fullscreenenter"",""1"",""1655""
","
","true","false","[]","[]","[]","","","","","","","","","","","","","","","",""
"learning-instructions","60","299043","0.0-9.0-1.0-0.0","5848","1","21","Female","approach_avoid_spark_v1","""event"",""trial"",""time""
""fullscreenenter"",""1"",""1655""
","
","
","""event"",""trial"",""time""
""fullscreenenter"",""1"",""1655""
","
","","","","","","1690","<p> Your goal in this round is to take care of lots of farm animals. </p></div>","","0","instructions","","","","","","","","","","",""
"learning-instructions","61","309763","0.0-9.0-1.0-0.1","5848","1","21","Female","approach_avoid_spark_v1","""event"",""trial"",""time""
""fullscreenenter"",""1"",""1655""
","
","
","""event"",""trial"",""time""
""fullscreenenter"",""1"",""1655""
","
","","","","","","618.9999999999418","<p> Some farm animals are hungry, while other farm animals are already full.  </p><p> On each turn, you will see a farm animal.   </p><p> You need to decide whether to feed it or not.  </p>","","0","instructions","","","","","","","","","","",""
"learning-instructions","62","316520","0.0-9.0-1.0-0.2","5848","1","21","Female","approach_avoid_spark_v1","""event"",""trial"",""time""
""fullscreenenter"",""1"",""1655""
","
","
","""event"",""trial"",""time""
""fullscreenenter"",""1"",""1655""
","
","","","","","","719","<p> You can feed the farm animal by pressing 1 and leave the farm animal alone by pressing 0. </p><br><div class=""choice-instructions-grid""> <div class=""choice-option""><img src=""images/approach.png"" class=""choice-option-img"" stage=""instructions"" position=""0"" ><div class=""choice-option-text""> Press ""1."" </div></div><div class=""choice-option""><img src=""images/avoid.png"" class=""choice-option-img"" stage=""instructions"" position=""1"" ><div class=""choice-option-text""> Press ""0."" </div></div>","","0","instructions","","","","","","","","","","",""
"learning-instructions","63","326926","0.0-9.0-1.0-0.3","5848","1","21","Female","approach_avoid_spark_v1","""event"",""trial"",""time""
""fullscreenenter"",""1"",""1655""
","
","
","""event"",""trial"",""time""
""fullscreenenter"",""1"",""1655""
","
","","","","","","657.9999999999418","<p> If you feed a hungry farm animal, you will make it feel satisfied! </p><p> But if you feed the farm animal and it was already full, you will make it feel sick. </p>","","0","instructions","","","","","","","","","","",""
"learning-instructions","64","340623","0.0-9.0-1.0-0.4","5848","1","21","Female","approach_avoid_spark_v1","""event"",""trial"",""time""
""fullscreenenter"",""1"",""1655""
","
","
","""event"",""trial"",""time""
""fullscreenenter"",""1"",""1655""
","
","","","","","","1183","<p> You will earn points based on how you made the farm animal feel. </p><p> If you made it satisfied, you will WIN anywhere from 1 - 9 points, </p><p> but if you made it sick, you will LOSE anywhere from 1 - 9 points. </p>","","0","instructions","","","","","","","","","","",""
"learning-instructions","65","349835","0.0-9.0-1.0-0.5","5848","1","21","Female","approach_avoid_spark_v1","""event"",""trial"",""time""
""fullscreenenter"",""1"",""1655""
","
","
","""event"",""trial"",""time""
""fullscreenenter"",""1"",""1655""
","
","","","","","","1462","<p> You will see how many points you won or lost in the center of the screen. </p><p> Here is what you would see if you won 5 points: </p><p style=""color:green;font-size:50px;font-weight:bolder"">5</p>","","0","instructions","","","","","","","","","","",""
"learning-instructions","66","355060","0.0-9.0-1.0-0.6","5848","1","21","Female","approach_avoid_spark_v1","""event"",""trial"",""time""
""fullscreenenter"",""1"",""1655""
","
","
","""event"",""trial"",""time""
""fullscreenenter"",""1"",""1655""
","
","","","","","","1662.9999999999418","<p> And here is what you would see if you lost 3 points: </p><p style=""color:red;font-size:50px;font-weight:bolder"">-3</p>","","0","instructions","","","","","","","","","","",""
"learning-instructions","67","373348","0.0-9.0-1.0-0.7","5848","1","21","Female","approach_avoid_spark_v1","""event"",""trial"",""time""
""fullscreenenter"",""1"",""1655""
","
","
","""event"",""trial"",""time""
""fullscreenenter"",""1"",""1655""
","
","","","","","","2371","<p> Some farm animals will become very satisfied or very sick. </p><p> These farm animals will make you win or lose LOTS of points. </p><p> Other farm animals have less strong feelings. </p><p> These farm animals will make you win or lose small amounts of points. </p>","","0","instructions","","","","","","","","","","",""
"learning-instructions","68","387771","0.0-9.0-1.0-0.8","5848","1","21","Female","approach_avoid_spark_v1","""event"",""trial"",""time""
""fullscreenenter"",""1"",""1655""
","
","
","""event"",""trial"",""time""
""fullscreenenter"",""1"",""1655""
","
","","","","","","2050.000000000058","<p> If you choose to leave the farm animal alone, you will not win or lose any points. </p><p>  However, in the center of the screen, you will see the number of points you WOULD HAVE won or lost if you had fed the farm animal. </p>","","0","instructions","","","","","","","","","","",""
"learning-instructions","69","403238","0.0-9.0-1.0-0.9","5848","1","21","Female","approach_avoid_spark_v1","""event"",""trial"",""time""
""fullscreenenter"",""1"",""1655""
","
","
","""event"",""trial"",""time""
""fullscreenenter"",""1"",""1655""
","
","","","","","","3721","<p> Here is what you might see if you did not feed the farm animal but the animal was hungry: </p><p style=""color:grey; font-size:50px; display: inline-block; border-spacing: 15px; border-width:3px; border-style:solid; border-color:red"">  &nbsp; 6 &nbsp; </p><p> Remember, in this case, you would not win or lose ANY points because you did not feed the farm animal.  </p>","","0","instructions","","","","","","","","","","",""
"learning-instructions","70","411824","0.0-9.0-1.0-0.10","5848","1","21","Female","approach_avoid_spark_v1","""event"",""trial"",""time""
""fullscreenenter"",""1"",""1655""
","
","
","""event"",""trial"",""time""
""fullscreenenter"",""1"",""1655""
","
","","","","","","550","<p> Try to make the best choice for each farm animal because </p><p> at the end of the game, you will earn bonus money based on how many points you earned. </p>","","0","instructions","","","","","","","","","","",""
"learning-instructions","71","420684","0.0-9.0-1.0-0.11","5848","1","21","Female","approach_avoid_spark_v1","""event"",""trial"",""time""
""fullscreenenter"",""1"",""1655""
","
","
","""event"",""trial"",""time""
""fullscreenenter"",""1"",""1655""
","
","","","","","","675.9999999999418","<p> You will have 3 seconds to make each choice. Try to respond before time runs out! </p><p> You will lose 5 points each time you do not make a response. </p>","","0","instructions","","","","","","","","","","",""
"html-keyboard-response","72","421287","0.0-9.0-2.0-0.0","5848","1","21","Female","approach_avoid_spark_v1","""event"",""trial"",""time""
""fullscreenenter"",""1"",""1655""
","
","
","""event"",""trial"",""time""
""fullscreenenter"",""1"",""1655""
","
","","","","","","null","<div style=""font-size:60px;"">+</div>","null","","fixation","","","","","","","","","","",""
"aa-learning-trial","73","424289","0.0-9.0-2.0-1.0","5848","1","21","Female","approach_avoid_spark_v1","""event"",""trial"",""time""
""fullscreenenter"",""1"",""1655""
","
","
","""event"",""trial"",""time""
""fullscreenenter"",""1"",""1655""
","
","","","","","","1034","images/sheep6.png","","","learning","5","5","1","1","sheep","animals","1","0","","good","[6]"
"html-keyboard-response","74","424791","0.0-9.0-2.0-0.1","5848","1","21","Female","approach_avoid_spark_v1","""event"",""trial"",""time""
""fullscreenenter"",""1"",""1655""
","
","
","""event"",""trial"",""time""
""fullscreenenter"",""1"",""1655""
","
","","","","","","null","<div style=""font-size:60px;"">+</div>","null","","fixation","","","","","","","","","","",""
"aa-learning-trial","75","427793","0.0-9.0-2.0-1.1","5848","1","21","Female","approach_avoid_spark_v1","""event"",""trial"",""time""
""fullscreenenter"",""1"",""1655""
","
","
","""event"",""trial"",""time""
""fullscreenenter"",""1"",""1655""
","
","","","","","","781","images/cow1.png","","","learning","2","2","1","1","cow","animals","1","0","","neutral","0"
"html-keyboard-response","76","428294","0.0-9.0-2.0-0.2","5848","1","21","Female","approach_avoid_spark_v1","""event"",""trial"",""time""
""fullscreenenter"",""1"",""1655""
","
","
","""event"",""trial"",""time""
""fullscreenenter"",""1"",""1655""
","
","","","","","","null","<div style=""font-size:60px;"">+</div>","null","","fixation","","","","","","","","","","",""
"aa-learning-trial","77","431297","0.0-9.0-2.0-1.2","5848","1","21","Female","approach_avoid_spark_v1","""event"",""trial"",""time""
""fullscreenenter"",""1"",""1655""
","
","
","""event"",""trial"",""time""
""fullscreenenter"",""1"",""1655""
","
","","","","","","927","images/cow1.png","","","learning","1","0","0","0","cow","animals","1","0","","neutral","0"
"html-keyboard-response","78","431798","0.0-9.0-2.0-0.3","5848","1","21","Female","approach_avoid_spark_v1","""event"",""trial"",""time""
""fullscreenenter"",""1"",""1655""
","
","
","""event"",""trial"",""time""
""fullscreenenter"",""1"",""1655""
","
","","","","","","null","<div style=""font-size:60px;"">+</div>","null","","fixation","","","","","","","","","","",""
"aa-learning-trial","79","434800","0.0-9.0-2.0-1.3","5848","1","21","Female","approach_avoid_spark_v1","""event"",""trial"",""time""
""fullscreenenter"",""1"",""1655""
","
","
","""event"",""trial"",""time""
""fullscreenenter"",""1"",""1655""
","
","","","","","","520","images/horse1.png","","","learning","-1","-1","1","1","horse","animals","1","0","","bad","[-3]"
"html-keyboard-response","80","435302","0.0-9.0-2.0-0.4","5848","1","21","Female","approach_avoid_spark_v1","""event"",""trial"",""time""
""fullscreenenter"",""1"",""1655""
","
","
","""event"",""trial"",""time""
""fullscreenenter"",""1"",""1655""
","
","","","","","","null","<div style=""font-size:60px;"">+</div>","null","","fixation","","","","","","","","","","",""
"aa-learning-trial","81","438304","0.0-9.0-2.0-1.4","5848","1","21","Female","approach_avoid_spark_v1","""event"",""trial"",""time""
""fullscreenenter"",""1"",""1655""
","
","
","""event"",""trial"",""time""
""fullscreenenter"",""1"",""1655""
","
","","","","","","1153","images/horse4.png","","","learning","-3","0","0","0","horse","animals","1","0","","bad","[-3]"
"html-keyboard-response","82","438806","0.0-9.0-2.0-0.5","5848","1","21","Female","approach_avoid_spark_v1","""event"",""trial"",""time""
""fullscreenenter"",""1"",""1655""
","
","
","""event"",""trial"",""time""
""fullscreenenter"",""1"",""1655""
","
","","","","","","null","<div style=""font-size:60px;"">+</div>","null","","fixation","","","","","","","","","","",""
"aa-learning-trial","83","441808","0.0-9.0-2.0-1.5","5848","1","21","Female","approach_avoid_spark_v1","""event"",""trial"",""time""
""fullscreenenter"",""1"",""1655""
","
","
","""event"",""trial"",""time""
""fullscreenenter"",""1"",""1655""
","
","","","","","","579","images/cow2.png","","","learning","-1","-1","1","1","cow","animals","1","0","","neutral","0"
"html-keyboard-response","84","442310","0.0-9.0-2.0-0.6","5848","1","21","Female","approach_avoid_spark_v1","""event"",""trial"",""time""
""fullscreenenter"",""1"",""1655""
","
","
","""event"",""trial"",""time""
""fullscreenenter"",""1"",""1655""
","
","","","","","","null","<div style=""font-size:60px;"">+</div>","null","","fixation","","","","","","","","","","",""
"aa-learning-trial","85","445312","0.0-9.0-2.0-1.6","5848","1","21","Female","approach_avoid_spark_v1","""event"",""trial"",""time""
""fullscreenenter"",""1"",""1655""
","
","
","""event"",""trial"",""time""
""fullscreenenter"",""1"",""1655""
","
","","","","","","598","images/sheep6.png","","","learning","6","6","1","1","sheep","animals","1","0","","good","[6]"
"html-keyboard-response","86","445813","0.0-9.0-2.0-0.7","5848","1","21","Female","approach_avoid_spark_v1","""event"",""trial"",""time""
""fullscreenenter"",""1"",""1655""
","
","
","""event"",""trial"",""time""
""fullscreenenter"",""1"",""1655""
","
","","","","","","null","<div style=""font-size:60px;"">+</div>","null","","fixation","","","","","","","","","","",""
"aa-learning-trial","87","448816","0.0-9.0-2.0-1.7","5848","1","21","Female","approach_avoid_spark_v1","""event"",""trial"",""time""
""fullscreenenter"",""1"",""1655""
","
","
","""event"",""trial"",""time""
""fullscreenenter"",""1"",""1655""
","
","","","","","","781","images/horse5.png","","","learning","-3","0","0","0","horse","animals","1","0","","bad","[-3]"
"html-keyboard-response","88","449317","0.0-9.0-2.0-0.8","5848","1","21","Female","approach_avoid_spark_v1","""event"",""trial"",""time""
""fullscreenenter"",""1"",""1655""
","
","
","""event"",""trial"",""time""
""fullscreenenter"",""1"",""1655""
","
","","","","","","null","<div style=""font-size:60px;"">+</div>","null","","fixation","","","","","","","","","","",""
"aa-learning-trial","89","452320","0.0-9.0-2.0-1.8","5848","1","21","Female","approach_avoid_spark_v1","""event"",""trial"",""time""
""fullscreenenter"",""1"",""1655""
","
","
","""event"",""trial"",""time""
""fullscreenenter"",""1"",""1655""
","
","","","","","","607","images/cow2.png","","","learning","-1","-1","1","1","cow","animals","1","0","","neutral","0"
"html-keyboard-response","90","452821","0.0-9.0-2.0-0.9","5848","1","21","Female","approach_avoid_spark_v1","""event"",""trial"",""time""
""fullscreenenter"",""1"",""1655""
","
","
","""event"",""trial"",""time""
""fullscreenenter"",""1"",""1655""
","
","","","","","","null","<div style=""font-size:60px;"">+</div>","null","","fixation","","","","","","","","","","",""
"aa-learning-trial","91","455825","0.0-9.0-2.0-1.9","5848","1","21","Female","approach_avoid_spark_v1","""event"",""trial"",""time""
""fullscreenenter"",""1"",""1655""
","
","
","""event"",""trial"",""time""
""fullscreenenter"",""1"",""1655""
","
","","","","","","691","images/horse4.png","","","learning","-4","0","0","0","horse","animals","1","0","","bad","[-3]"
"html-keyboard-response","92","456327","0.0-9.0-2.0-0.10","5848","1","21","Female","approach_avoid_spark_v1","""event"",""trial"",""time""
""fullscreenenter"",""1"",""1655""
","
","
","""event"",""trial"",""time""
""fullscreenenter"",""1"",""1655""
","
","","","","","","null","<div style=""font-size:60px;"">+</div>","null","","fixation","","","","","","","","","","",""
"aa-learning-trial","93","459329","0.0-9.0-2.0-1.10","5848","1","21","Female","approach_avoid_spark_v1","""event"",""trial"",""time""
""fullscreenenter"",""1"",""1655""
","
","
","""event"",""trial"",""time""
""fullscreenenter"",""1"",""1655""
","
","","","","","","724.9999999999418","images/cow4.png","","","learning","[-1]","-1","1","1","cow","animals","1","0","","neutral","0"
"html-keyboard-response","94","459831","0.0-9.0-2.0-0.11","5848","1","21","Female","approach_avoid_spark_v1","""event"",""trial"",""time""
""fullscreenenter"",""1"",""1655""
","
","
","""event"",""trial"",""time""
""fullscreenenter"",""1"",""1655""
","
","","","","","","null","<div style=""font-size:60px;"">+</div>","null","","fixation","","","","","","","","","","",""
"aa-learning-trial","95","462834","0.0-9.0-2.0-1.11","5848","1","21","Female","approach_avoid_spark_v1","""event"",""trial"",""time""
""fullscreenenter"",""1"",""1655""
","
","
","""event"",""trial"",""time""
""fullscreenenter"",""1"",""1655""
","
","","","","","","720","images/sheep5.png","","","learning","5","0","0","0","sheep","animals","1","0","","good","[6]"
"html-keyboard-response","96","463335","0.0-9.0-2.0-0.12","5848","1","21","Female","approach_avoid_spark_v1","""event"",""trial"",""time""
""fullscreenenter"",""1"",""1655""
","
","
","""event"",""trial"",""time""
""fullscreenenter"",""1"",""1655""
","
","","","","","","null","<div style=""font-size:60px;"">+</div>","null","","fixation","","","","","","","","","","",""
"aa-learning-trial","97","466338","0.0-9.0-2.0-1.12","5848","1","21","Female","approach_avoid_spark_v1","""event"",""trial"",""time""
""fullscreenenter"",""1"",""1655""
","
","
","""event"",""trial"",""time""
""fullscreenenter"",""1"",""1655""
","
","","","","","","947","images/sheep5.png","","","learning","8","0","0","0","sheep","animals","1","0","","good","[6]"
"html-keyboard-response","98","466839","0.0-9.0-2.0-0.13","5848","1","21","Female","approach_avoid_spark_v1","""event"",""trial"",""time""
""fullscreenenter"",""1"",""1655""
","
","
","""event"",""trial"",""time""
""fullscreenenter"",""1"",""1655""
","
","","","","","","null","<div style=""font-size:60px;"">+</div>","null","","fixation","","","","","","","","","","",""
"aa-learning-trial","99","469842","0.0-9.0-2.0-1.13","5848","1","21","Female","approach_avoid_spark_v1","""event"",""trial"",""time""
""fullscreenenter"",""1"",""1655""
","
","
","""event"",""trial"",""time""
""fullscreenenter"",""1"",""1655""
","
","","","","","","738.9999999999418","images/horse1.png","","","learning","2","2","1","1","horse","animals","1","0","","bad","[-3]"
"html-keyboard-response","100","470343","0.0-9.0-2.0-0.14","5848","1","21","Female","approach_avoid_spark_v1","""event"",""trial"",""time""
""fullscreenenter"",""1"",""1655""
","
","
","""event"",""trial"",""time""
""fullscreenenter"",""1"",""1655""
","
","","","","","","null","<div style=""font-size:60px;"">+</div>","null","","fixation","","","","","","","","","","",""
"aa-learning-trial","101","473344","0.0-9.0-2.0-1.14","5848","1","21","Female","approach_avoid_spark_v1","""event"",""trial"",""time""
""fullscreenenter"",""1"",""1655""
","
","
","""event"",""trial"",""time""
""fullscreenenter"",""1"",""1655""
","
","","","","","","584","images/sheep1.png","","","learning","4","4","1","1","sheep","animals","1","0","","good","[6]"
"html-keyboard-response","102","473846","0.0-9.0-2.0-0.15","5848","1","21","Female","approach_avoid_spark_v1","""event"",""trial"",""time""
""fullscreenenter"",""1"",""1655""
","
","
","""event"",""trial"",""time""
""fullscreenenter"",""1"",""1655""
","
","","","","","","null","<div style=""font-size:60px;"">+</div>","null","","fixation","","","","","","","","","","",""
"aa-learning-trial","103","476849","0.0-9.0-2.0-1.15","5848","1","21","Female","approach_avoid_spark_v1","""event"",""trial"",""time""
""fullscreenenter"",""1"",""1655""
","
","
","""event"",""trial"",""time""
""fullscreenenter"",""1"",""1655""
","
","","","","","","1087","images/horse5.png","","","learning","-1","-1","1","1","horse","animals","1","0","","bad","[-3]"
"html-keyboard-response","104","477349","0.0-9.0-2.0-0.16","5848","1","21","Female","approach_avoid_spark_v1","""event"",""trial"",""time""
""fullscreenenter"",""1"",""1655""
","
","
","""event"",""trial"",""time""
""fullscreenenter"",""1"",""1655""
","
","","","","","","null","<div style=""font-size:60px;"">+</div>","null","","fixation","","","","","","","","","","",""
"aa-learning-trial","105","480351","0.0-9.0-2.0-1.16","5848","1","21","Female","approach_avoid_spark_v1","""event"",""trial"",""time""
""fullscreenenter"",""1"",""1655""
","
","
","""event"",""trial"",""time""
""fullscreenenter"",""1"",""1655""
","
","","","","","","614.0000000000582","images/sheep7.png","","","learning","5","5","1","1","sheep","animals","1","0","","good","[6]"
"html-keyboard-response","106","480852","0.0-9.0-2.0-0.17","5848","1","21","Female","approach_avoid_spark_v1","""event"",""trial"",""time""
""fullscreenenter"",""1"",""1655""
","
","
","""event"",""trial"",""time""
""fullscreenenter"",""1"",""1655""
","
","","","","","","null","<div style=""font-size:60px;"">+</div>","null","","fixation","","","","","","","","","","",""
"aa-learning-trial","107","483854","0.0-9.0-2.0-1.17","5848","1","21","Female","approach_avoid_spark_v1","""event"",""trial"",""time""
""fullscreenenter"",""1"",""1655""
","
","
","""event"",""trial"",""time""
""fullscreenenter"",""1"",""1655""
","
","","","","","","611.0000000000582","images/horse3.png","","","learning","-2","0","0","0","horse","animals","1","0","","bad","[-3]"
"html-keyboard-response","108","484355","0.0-9.0-2.0-0.18","5848","1","21","Female","approach_avoid_spark_v1","""event"",""trial"",""time""
""fullscreenenter"",""1"",""1655""
","
","
","""event"",""trial"",""time""
""fullscreenenter"",""1"",""1655""
","
","","","","","","null","<div style=""font-size:60px;"">+</div>","null","","fixation","","","","","","","","","","",""
"aa-learning-trial","109","487357","0.0-9.0-2.0-1.18","5848","1","21","Female","approach_avoid_spark_v1","""event"",""trial"",""time""
""fullscreenenter"",""1"",""1655""
","
","
","""event"",""trial"",""time""
""fullscreenenter"",""1"",""1655""
","
","","","","","","494","images/sheep5.png","","","learning","5","5","1","1","sheep","animals","1","0","","good","[6]"
"html-keyboard-response","110","487859","0.0-9.0-2.0-0.19","5848","1","21","Female","approach_avoid_spark_v1","""event"",""trial"",""time""
""fullscreenenter"",""1"",""1655""
","
","
","""event"",""trial"",""time""
""fullscreenenter"",""1"",""1655""
","
","","","","","","null","<div style=""font-size:60px;"">+</div>","null","","fixation","","","","","","","","","","",""
"aa-learning-trial","111","490861","0.0-9.0-2.0-1.19","5848","1","21","Female","approach_avoid_spark_v1","""event"",""trial"",""time""
""fullscreenenter"",""1"",""1655""
","
","
","""event"",""trial"",""time""
""fullscreenenter"",""1"",""1655""
","
","","","","","","750","images/horse1.png","","","learning","-2","-2","1","1","horse","animals","1","0","","bad","[-3]"
"html-keyboard-response","112","491362","0.0-9.0-2.0-0.20","5848","1","21","Female","approach_avoid_spark_v1","""event"",""trial"",""time""
""fullscreenenter"",""1"",""1655""
","
","
","""event"",""trial"",""time""
""fullscreenenter"",""1"",""1655""
","
","","","","","","null","<div style=""font-size:60px;"">+</div>","null","","fixation","","","","","","","","","","",""
"aa-learning-trial","113","494363","0.0-9.0-2.0-1.20","5848","1","21","Female","approach_avoid_spark_v1","""event"",""trial"",""time""
""fullscreenenter"",""1"",""1655""
","
","
","""event"",""trial"",""time""
""fullscreenenter"",""1"",""1655""
","
","","","","","","804.9999999999418","images/cow4.png","","","learning","1","1","1","1","cow","animals","1","0","","neutral","0"
"html-keyboard-response","114","494865","0.0-9.0-2.0-0.21","5848","1","21","Female","approach_avoid_spark_v1","""event"",""trial"",""time""
""fullscreenenter"",""1"",""1655""
","
","
","""event"",""trial"",""time""
""fullscreenenter"",""1"",""1655""
","
","","","","","","null","<div style=""font-size:60px;"">+</div>","null","","fixation","","","","","","","","","","",""
"aa-learning-trial","115","497867","0.0-9.0-2.0-1.21","5848","1","21","Female","approach_avoid_spark_v1","""event"",""trial"",""time""
""fullscreenenter"",""1"",""1655""
","
","
","""event"",""trial"",""time""
""fullscreenenter"",""1"",""1655""
","
","","","","","","1069.0000000000582","images/horse1.png","","","learning","-4","-4","1","1","horse","animals","1","0","","bad","[-3]"
"html-keyboard-response","116","498368","0.0-9.0-2.0-0.22","5848","1","21","Female","approach_avoid_spark_v1","""event"",""trial"",""time""
""fullscreenenter"",""1"",""1655""
","
","
","""event"",""trial"",""time""
""fullscreenenter"",""1"",""1655""
","
","","","","","","null","<div style=""font-size:60px;"">+</div>","null","","fixation","","","","","","","","","","",""
"aa-learning-trial","117","501370","0.0-9.0-2.0-1.22","5848","1","21","Female","approach_avoid_spark_v1","""event"",""trial"",""time""
""fullscreenenter"",""1"",""1655""
","
","
","""event"",""trial"",""time""
""fullscreenenter"",""1"",""1655""
","
","","","","","","743.9999999999418","images/cow4.png","","","learning","1","1","1","1","cow","animals","1","0","","neutral","0"
"html-keyboard-response","118","501872","0.0-9.0-2.0-0.23","5848","1","21","Female","approach_avoid_spark_v1","""event"",""trial"",""time""
""fullscreenenter"",""1"",""1655""
","
","
","""event"",""trial"",""time""
""fullscreenenter"",""1"",""1655""
","
","","","","","","null","<div style=""font-size:60px;"">+</div>","null","","fixation","","","","","","","","","","",""
"aa-learning-trial","119","504874","0.0-9.0-2.0-1.23","5848","1","21","Female","approach_avoid_spark_v1","""event"",""trial"",""time""
""fullscreenenter"",""1"",""1655""
","
","
","""event"",""trial"",""time""
""fullscreenenter"",""1"",""1655""
","
","","","","","","646","images/horse5.png","","","learning","-6","-6","1","1","horse","animals","1","0","","bad","[-3]"
"html-keyboard-response","120","505375","0.0-9.0-2.0-0.24","5848","1","21","Female","approach_avoid_spark_v1","""event"",""trial"",""time""
""fullscreenenter"",""1"",""1655""
","
","
","""event"",""trial"",""time""
""fullscreenenter"",""1"",""1655""
","
","","","","","","null","<div style=""font-size:60px;"">+</div>","null","","fixation","","","","","","","","","","",""
"aa-learning-trial","121","508480","0.0-9.0-2.0-1.24","5848","1","21","Female","approach_avoid_spark_v1","""event"",""trial"",""time""
""fullscreenenter"",""1"",""1655""
","
","
","""event"",""trial"",""time""
""fullscreenenter"",""1"",""1655""
","
","","","","","","580","images/sheep8.png","","","learning","6","6","1","1","sheep","animals","1","0","","good","[6]"
"html-keyboard-response","122","508982","0.0-9.0-2.0-0.25","5848","1","21","Female","approach_avoid_spark_v1","""event"",""trial"",""time""
""fullscreenenter"",""1"",""1655""
","
","
","""event"",""trial"",""time""
""fullscreenenter"",""1"",""1655""
","
","","","","","","null","<div style=""font-size:60px;"">+</div>","null","","fixation","","","","","","","","","","",""
"aa-learning-trial","123","511984","0.0-9.0-2.0-1.25","5848","1","21","Female","approach_avoid_spark_v1","""event"",""trial"",""time""
""fullscreenenter"",""1"",""1655""
","
","
","""event"",""trial"",""time""
""fullscreenenter"",""1"",""1655""
","
","","","","","","712","images/cow1.png","","","learning","-2","-2","1","1","cow","animals","1","0","","neutral","0"
"html-keyboard-response","124","512486","0.0-9.0-2.0-0.26","5848","1","21","Female","approach_avoid_spark_v1","""event"",""trial"",""time""
""fullscreenenter"",""1"",""1655""
","
","
","""event"",""trial"",""time""
""fullscreenenter"",""1"",""1655""
","
","","","","","","null","<div style=""font-size:60px;"">+</div>","null","","fixation","","","","","","","","","","",""
"aa-learning-trial","125","515488","0.0-9.0-2.0-1.26","5848","1","21","Female","approach_avoid_spark_v1","""event"",""trial"",""time""
""fullscreenenter"",""1"",""1655""
","
","
","""event"",""trial"",""time""
""fullscreenenter"",""1"",""1655""
","
","","","","","","544","images/sheep6.png","","","learning","6","6","1","1","sheep","animals","1","0","","good","[6]"
"html-keyboard-response","126","515990","0.0-9.0-2.0-0.27","5848","1","21","Female","approach_avoid_spark_v1","""event"",""trial"",""time""
""fullscreenenter"",""1"",""1655""
","
","
","""event"",""trial"",""time""
""fullscreenenter"",""1"",""1655""
","
","","","","","","null","<div style=""font-size:60px;"">+</div>","null","","fixation","","","","","","","","","","",""
"aa-learning-trial","127","518992","0.0-9.0-2.0-1.27","5848","1","21","Female","approach_avoid_spark_v1","""event"",""trial"",""time""
""fullscreenenter"",""1"",""1655""
","
","
","""event"",""trial"",""time""
""fullscreenenter"",""1"",""1655""
","
","","","","","","648.0000000000582","images/horse4.png","","","learning","-3","0","0","0","horse","animals","1","0","","bad","[-3]"
"html-keyboard-response","128","519494","0.0-9.0-2.0-0.28","5848","1","21","Female","approach_avoid_spark_v1","""event"",""trial"",""time""
""fullscreenenter"",""1"",""1655""
","
","
","""event"",""trial"",""time""
""fullscreenenter"",""1"",""1655""
","
","","","","","","null","<div style=""font-size:60px;"">+</div>","null","","fixation","","","","","","","","","","",""
"aa-learning-trial","129","522496","0.0-9.0-2.0-1.28","5848","1","21","Female","approach_avoid_spark_v1","""event"",""trial"",""time""
""fullscreenenter"",""1"",""1655""
","
","
","""event"",""trial"",""time""
""fullscreenenter"",""1"",""1655""
","
","","","","","","595.0000000000582","images/horse2.png","","","learning","-4","-4","1","1","horse","animals","1","0","","bad","[-3]"
"html-keyboard-response","130","522997","0.0-9.0-2.0-0.29","5848","1","21","Female","approach_avoid_spark_v1","""event"",""trial"",""time""
""fullscreenenter"",""1"",""1655""
","
","
","""event"",""trial"",""time""
""fullscreenenter"",""1"",""1655""
","
","","","","","","null","<div style=""font-size:60px;"">+</div>","null","","fixation","","","","","","","","","","",""
"aa-learning-trial","131","526000","0.0-9.0-2.0-1.29","5848","1","21","Female","approach_avoid_spark_v1","""event"",""trial"",""time""
""fullscreenenter"",""1"",""1655""
","
","
","""event"",""trial"",""time""
""fullscreenenter"",""1"",""1655""
","
","","","","","","434","images/sheep1.png","","","learning","5","5","1","1","sheep","animals","1","0","","good","[6]"
"html-keyboard-response","132","526501","0.0-9.0-2.0-0.30","5848","1","21","Female","approach_avoid_spark_v1","""event"",""trial"",""time""
""fullscreenenter"",""1"",""1655""
","
","
","""event"",""trial"",""time""
""fullscreenenter"",""1"",""1655""
","
","","","","","","null","<div style=""font-size:60px;"">+</div>","null","","fixation","","","","","","","","","","",""
"aa-learning-trial","133","529504","0.0-9.0-2.0-1.30","5848","1","21","Female","approach_avoid_spark_v1","""event"",""trial"",""time""
""fullscreenenter"",""1"",""1655""
","
","
","""event"",""trial"",""time""
""fullscreenenter"",""1"",""1655""
","
","","","","","","448","images/sheep5.png","","","learning","4","4","1","1","sheep","animals","1","0","","good","[6]"
"html-keyboard-response","134","530005","0.0-9.0-2.0-0.31","5848","1","21","Female","approach_avoid_spark_v1","""event"",""trial"",""time""
""fullscreenenter"",""1"",""1655""
","
","
","""event"",""trial"",""time""
""fullscreenenter"",""1"",""1655""
","
","","","","","","null","<div style=""font-size:60px;"">+</div>","null","","fixation","","","","","","","","","","",""
"aa-learning-trial","135","533007","0.0-9.0-2.0-1.31","5848","1","21","Female","approach_avoid_spark_v1","""event"",""trial"",""time""
""fullscreenenter"",""1"",""1655""
","
","
","""event"",""trial"",""time""
""fullscreenenter"",""1"",""1655""
","
","","","","","","606.9999999998836","images/cow2.png","","","learning","1","1","1","1","cow","animals","1","0","","neutral","0"
"html-keyboard-response","136","533508","0.0-9.0-2.0-0.32","5848","1","21","Female","approach_avoid_spark_v1","""event"",""trial"",""time""
""fullscreenenter"",""1"",""1655""
","
","
","""event"",""trial"",""time""
""fullscreenenter"",""1"",""1655""
","
","","","","","","null","<div style=""font-size:60px;"">+</div>","null","","fixation","","","","","","","","","","",""
"aa-learning-trial","137","536510","0.0-9.0-2.0-1.32","5848","1","21","Female","approach_avoid_spark_v1","""event"",""trial"",""time""
""fullscreenenter"",""1"",""1655""
","
","
","""event"",""trial"",""time""
""fullscreenenter"",""1"",""1655""
","
","","","","","","867","images/cow8.png","","","learning","-2","0","0","0","cow","animals","1","0","","neutral","0"
"html-keyboard-response","138","537012","0.0-9.0-2.0-0.33","5848","1","21","Female","approach_avoid_spark_v1","""event"",""trial"",""time""
""fullscreenenter"",""1"",""1655""
","
","
","""event"",""trial"",""time""
""fullscreenenter"",""1"",""1655""
","
","","","","","","null","<div style=""font-size:60px;"">+</div>","null","","fixation","","","","","","","","","","",""
"aa-learning-trial","139","540014","0.0-9.0-2.0-1.33","5848","1","21","Female","approach_avoid_spark_v1","""event"",""trial"",""time""
""fullscreenenter"",""1"",""1655""
","
","
","""event"",""trial"",""time""
""fullscreenenter"",""1"",""1655""
","
","","","","","","1028","images/horse4.png","","","learning","-4","-4","1","1","horse","animals","1","0","","bad","[-3]"
"html-keyboard-response","140","540516","0.0-9.0-2.0-0.34","5848","1","21","Female","approach_avoid_spark_v1","""event"",""trial"",""time""
""fullscreenenter"",""1"",""1655""
","
","
","""event"",""trial"",""time""
""fullscreenenter"",""1"",""1655""
","
","","","","","","null","<div style=""font-size:60px;"">+</div>","null","","fixation","","","","","","","","","","",""
"aa-learning-trial","141","543518","0.0-9.0-2.0-1.34","5848","1","21","Female","approach_avoid_spark_v1","""event"",""trial"",""time""
""fullscreenenter"",""1"",""1655""
","
","
","""event"",""trial"",""time""
""fullscreenenter"",""1"",""1655""
","
","","","","","","573","images/cow2.png","","","learning","[1]","1","1","1","cow","animals","1","0","","neutral","0"
"html-keyboard-response","142","544021","0.0-9.0-2.0-0.35","5848","1","21","Female","approach_avoid_spark_v1","""event"",""trial"",""time""
""fullscreenenter"",""1"",""1655""
","
","
","""event"",""trial"",""time""
""fullscreenenter"",""1"",""1655""
","
","","","","","","null","<div style=""font-size:60px;"">+</div>","null","","fixation","","","","","","","","","","",""
"aa-learning-trial","143","547023","0.0-9.0-2.0-1.35","5848","1","21","Female","approach_avoid_spark_v1","""event"",""trial"",""time""
""fullscreenenter"",""1"",""1655""
","
","
","""event"",""trial"",""time""
""fullscreenenter"",""1"",""1655""
","
","","","","","","633","images/sheep6.png","","","learning","5","5","1","1","sheep","animals","1","0","","good","[6]"
"html-keyboard-response","144","547524","0.0-9.0-2.0-0.36","5848","1","21","Female","approach_avoid_spark_v1","""event"",""trial"",""time""
""fullscreenenter"",""1"",""1655""
","
","
","""event"",""trial"",""time""
""fullscreenenter"",""1"",""1655""
","
","","","","","","null","<div style=""font-size:60px;"">+</div>","null","","fixation","","","","","","","","","","",""
"aa-learning-trial","145","550527","0.0-9.0-2.0-1.36","5848","1","21","Female","approach_avoid_spark_v1","""event"",""trial"",""time""
""fullscreenenter"",""1"",""1655""
","
","
","""event"",""trial"",""time""
""fullscreenenter"",""1"",""1655""
","
","","","","","","1220","images/horse1.png","","","learning","-3","-3","1","1","horse","animals","1","0","","bad","[-3]"
"html-keyboard-response","146","551028","0.0-9.0-2.0-0.37","5848","1","21","Female","approach_avoid_spark_v1","""event"",""trial"",""time""
""fullscreenenter"",""1"",""1655""
","
","
","""event"",""trial"",""time""
""fullscreenenter"",""1"",""1655""
","
","","","","","","null","<div style=""font-size:60px;"">+</div>","null","","fixation","","","","","","","","","","",""
"aa-learning-trial","147","554030","0.0-9.0-2.0-1.37","5848","1","21","Female","approach_avoid_spark_v1","""event"",""trial"",""time""
""fullscreenenter"",""1"",""1655""
","
","
","""event"",""trial"",""time""
""fullscreenenter"",""1"",""1655""
","
","","","","","","705.9999999998836","images/sheep6.png","","","learning","5","5","1","1","sheep","animals","1","0","","good","[6]"
"html-keyboard-response","148","554532","0.0-9.0-2.0-0.38","5848","1","21","Female","approach_avoid_spark_v1","""event"",""trial"",""time""
""fullscreenenter"",""1"",""1655""
","
","
","""event"",""trial"",""time""
""fullscreenenter"",""1"",""1655""
","
","","","","","","null","<div style=""font-size:60px;"">+</div>","null","","fixation","","","","","","","","","","",""
"aa-learning-trial","149","557534","0.0-9.0-2.0-1.38","5848","1","21","Female","approach_avoid_spark_v1","""event"",""trial"",""time""
""fullscreenenter"",""1"",""1655""
","
","
","""event"",""trial"",""time""
""fullscreenenter"",""1"",""1655""
","
","","","","","","477.0000000001164","images/sheep6.png","","","learning","4","4","1","1","sheep","animals","1","0","","good","[6]"
"html-keyboard-response","150","558036","0.0-9.0-2.0-0.39","5848","1","21","Female","approach_avoid_spark_v1","""event"",""trial"",""time""
""fullscreenenter"",""1"",""1655""
","
","
","""event"",""trial"",""time""
""fullscreenenter"",""1"",""1655""
","
","","","","","","null","<div style=""font-size:60px;"">+</div>","null","","fixation","","","","","","","","","","",""
"aa-learning-trial","151","561038","0.0-9.0-2.0-1.39","5848","1","21","Female","approach_avoid_spark_v1","""event"",""trial"",""time""
""fullscreenenter"",""1"",""1655""
","
","
","""event"",""trial"",""time""
""fullscreenenter"",""1"",""1655""
","
","","","","","","585","images/cow1.png","","","learning","-1","-1","1","1","cow","animals","1","0","","neutral","0"
"html-keyboard-response","152","561539","0.0-9.0-2.0-0.40","5848","1","21","Female","approach_avoid_spark_v1","""event"",""trial"",""time""
""fullscreenenter"",""1"",""1655""
","
","
","""event"",""trial"",""time""
""fullscreenenter"",""1"",""1655""
","
","","","","","","null","<div style=""font-size:60px;"">+</div>","null","","fixation","","","","","","","","","","",""
"aa-learning-trial","153","564542","0.0-9.0-2.0-1.40","5848","1","21","Female","approach_avoid_spark_v1","""event"",""trial"",""time""
""fullscreenenter"",""1"",""1655""
","
","
","""event"",""trial"",""time""
""fullscreenenter"",""1"",""1655""
","
","","","","","","523","images/sheep1.png","","","learning","6","6","1","1","sheep","animals","1","0","","good","[6]"
"html-keyboard-response","154","565043","0.0-9.0-2.0-0.41","5848","1","21","Female","approach_avoid_spark_v1","""event"",""trial"",""time""
""fullscreenenter"",""1"",""1655""
","
","
","""event"",""trial"",""time""
""fullscreenenter"",""1"",""1655""
","
","","","","","","null","<div style=""font-size:60px;"">+</div>","null","","fixation","","","","","","","","","","",""
"aa-learning-trial","155","568045","0.0-9.0-2.0-1.41","5848","1","21","Female","approach_avoid_spark_v1","""event"",""trial"",""time""
""fullscreenenter"",""1"",""1655""
","
","
","""event"",""trial"",""time""
""fullscreenenter"",""1"",""1655""
","
","","","","","","722","images/horse4.png","","","learning","-3","0","0","0","horse","animals","1","0","","bad","[-3]"
"html-keyboard-response","156","568547","0.0-9.0-2.0-0.42","5848","1","21","Female","approach_avoid_spark_v1","""event"",""trial"",""time""
""fullscreenenter"",""1"",""1655""
","
","
","""event"",""trial"",""time""
""fullscreenenter"",""1"",""1655""
","
","","","","","","null","<div style=""font-size:60px;"">+</div>","null","","fixation","","","","","","","","","","",""
"aa-learning-trial","157","571550","0.0-9.0-2.0-1.42","5848","1","21","Female","approach_avoid_spark_v1","""event"",""trial"",""time""
""fullscreenenter"",""1"",""1655""
","
","
","""event"",""trial"",""time""
""fullscreenenter"",""1"",""1655""
","
","","","","","","616","images/cow2.png","","","learning","1","1","1","1","cow","animals","1","0","","neutral","0"
"html-keyboard-response","158","572051","0.0-9.0-2.0-0.43","5848","1","21","Female","approach_avoid_spark_v1","""event"",""trial"",""time""
""fullscreenenter"",""1"",""1655""
","
","
","""event"",""trial"",""time""
""fullscreenenter"",""1"",""1655""
","
","","","","","","null","<div style=""font-size:60px;"">+</div>","null","","fixation","","","","","","","","","","",""
"aa-learning-trial","159","575053","0.0-9.0-2.0-1.43","5848","1","21","Female","approach_avoid_spark_v1","""event"",""trial"",""time""
""fullscreenenter"",""1"",""1655""
","
","
","""event"",""trial"",""time""
""fullscreenenter"",""1"",""1655""
","
","","","","","","654","images/horse4.png","","","learning","-2","0","0","0","horse","animals","1","0","","bad","[-3]"
"html-keyboard-response","160","575555","0.0-9.0-2.0-0.44","5848","1","21","Female","approach_avoid_spark_v1","""event"",""trial"",""time""
""fullscreenenter"",""1"",""1655""
","
","
","""event"",""trial"",""time""
""fullscreenenter"",""1"",""1655""
","
","","","","","","null","<div style=""font-size:60px;"">+</div>","null","","fixation","","","","","","","","","","",""
"aa-learning-trial","161","578557","0.0-9.0-2.0-1.44","5848","1","21","Female","approach_avoid_spark_v1","""event"",""trial"",""time""
""fullscreenenter"",""1"",""1655""
","
","
","""event"",""trial"",""time""
""fullscreenenter"",""1"",""1655""
","
","","","","","","310","images/cow2.png","","","learning","1","1","1","1","cow","animals","1","0","","neutral","0"
"html-keyboard-response","162","579059","0.0-9.0-2.0-0.45","5848","1","21","Female","approach_avoid_spark_v1","""event"",""trial"",""time""
""fullscreenenter"",""1"",""1655""
","
","
","""event"",""trial"",""time""
""fullscreenenter"",""1"",""1655""
","
","","","","","","null","<div style=""font-size:60px;"">+</div>","null","","fixation","","","","","","","","","","",""
"aa-learning-trial","163","582061","0.0-9.0-2.0-1.45","5848","1","21","Female","approach_avoid_spark_v1","""event"",""trial"",""time""
""fullscreenenter"",""1"",""1655""
","
","
","""event"",""trial"",""time""
""fullscreenenter"",""1"",""1655""
","
","","","","","","777","images/horse1.png","","","learning","-3","0","0","0","horse","animals","1","0","","bad","[-3]"
"html-keyboard-response","164","582563","0.0-9.0-2.0-0.46","5848","1","21","Female","approach_avoid_spark_v1","""event"",""trial"",""time""
""fullscreenenter"",""1"",""1655""
","
","
","""event"",""trial"",""time""
""fullscreenenter"",""1"",""1655""
","
","","","","","","null","<div style=""font-size:60px;"">+</div>","null","","fixation","","","","","","","","","","",""
"aa-learning-trial","165","585565","0.0-9.0-2.0-1.46","5848","1","21","Female","approach_avoid_spark_v1","""event"",""trial"",""time""
""fullscreenenter"",""1"",""1655""
","
","
","""event"",""trial"",""time""
""fullscreenenter"",""1"",""1655""
","
","","","","","","315.0000000001164","images/cow1.png","","","learning","-2","-2","1","1","cow","animals","1","0","","neutral","0"
"html-keyboard-response","166","586066","0.0-9.0-2.0-0.47","5848","1","21","Female","approach_avoid_spark_v1","""event"",""trial"",""time""
""fullscreenenter"",""1"",""1655""
","
","
","""event"",""trial"",""time""
""fullscreenenter"",""1"",""1655""
","
","","","","","","null","<div style=""font-size:60px;"">+</div>","null","","fixation","","","","","","","","","","",""
"aa-learning-trial","167","589069","0.0-9.0-2.0-1.47","5848","1","21","Female","approach_avoid_spark_v1","""event"",""trial"",""time""
""fullscreenenter"",""1"",""1655""
","
","
","""event"",""trial"",""time""
""fullscreenenter"",""1"",""1655""
","
","","","","","","379","images/cow7.png","","","learning","-2","0","0","0","cow","animals","1","0","","neutral","0"
"html-keyboard-response","168","589570","0.0-9.0-2.0-0.48","5848","1","21","Female","approach_avoid_spark_v1","""event"",""trial"",""time""
""fullscreenenter"",""1"",""1655""
","
","
","""event"",""trial"",""time""
""fullscreenenter"",""1"",""1655""
","
","","","","","","null","<div style=""font-size:60px;"">+</div>","null","","fixation","","","","","","","","","","",""
"aa-learning-trial","169","592572","0.0-9.0-2.0-1.48","5848","1","21","Female","approach_avoid_spark_v1","""event"",""trial"",""time""
""fullscreenenter"",""1"",""1655""
","
","
","""event"",""trial"",""time""
""fullscreenenter"",""1"",""1655""
","
","","","","","","306","images/sheep5.png","","","learning","5","5","1","1","sheep","animals","1","0","","good","[6]"
"html-keyboard-response","170","593074","0.0-9.0-2.0-0.49","5848","1","21","Female","approach_avoid_spark_v1","""event"",""trial"",""time""
""fullscreenenter"",""1"",""1655""
","
","
","""event"",""trial"",""time""
""fullscreenenter"",""1"",""1655""
","
","","","","","","null","<div style=""font-size:60px;"">+</div>","null","","fixation","","","","","","","","","","",""
"aa-learning-trial","171","596077","0.0-9.0-2.0-1.49","5848","1","21","Female","approach_avoid_spark_v1","""event"",""trial"",""time""
""fullscreenenter"",""1"",""1655""
","
","
","""event"",""trial"",""time""
""fullscreenenter"",""1"",""1655""
","
","","","","","","917.9999999998836","images/cow1.png","","","learning","-5","0","0","0","cow","animals","1","0","","neutral","0"
"html-keyboard-response","172","596578","0.0-9.0-2.0-0.50","5848","1","21","Female","approach_avoid_spark_v1","""event"",""trial"",""time""
""fullscreenenter"",""1"",""1655""
","
","
","""event"",""trial"",""time""
""fullscreenenter"",""1"",""1655""
","
","","","","","","null","<div style=""font-size:60px;"">+</div>","null","","fixation","","","","","","","","","","",""
"aa-learning-trial","173","599580","0.0-9.0-2.0-1.50","5848","1","21","Female","approach_avoid_spark_v1","""event"",""trial"",""time""
""fullscreenenter"",""1"",""1655""
","
","
","""event"",""trial"",""time""
""fullscreenenter"",""1"",""1655""
","
","","","","","","428","images/sheep5.png","","","learning","8","8","1","1","sheep","animals","1","0","","good","[6]"
"html-button-response","174","601859","0.0-9.0-3.0","5848","1","21","Female","approach_avoid_spark_v1","""event"",""trial"",""time""
""fullscreenenter"",""1"",""1655""
","
","
","""event"",""trial"",""time""
""fullscreenenter"",""1"",""1655""
","
","","","","","","2278","<p> You have completed the round! <p> In this round, you earned 56 points! </p>","0","","break","","","","","","","","","","",""
"html-button-response","175","603048","0.0-10.0","5848","1","21","Female","approach_avoid_spark_v1","""event"",""trial"",""time""
""fullscreenenter"",""1"",""1655""
","
","
","""event"",""trial"",""time""
""fullscreenenter"",""1"",""1655""
","
","","","","","","1187","<p> Now it's time to play another round. </p>","0","","transition_screen","","","","","","","","","","",""
"preload","176","603157","0.0-11.0-0.0","5848","1","21","Female","approach_avoid_spark_v1","""event"",""trial"",""time""
""fullscreenenter"",""1"",""1655""
","
","
","""event"",""trial"",""time""
""fullscreenenter"",""1"",""1655""
","
","true","false","[]","[]","[]","","","","","","","","","","","","","","","",""
"learning-instructions","177","609302","0.0-11.0-1.0-0.0","5848","1","21","Female","approach_avoid_spark_v1","""event"",""trial"",""time""
""fullscreenenter"",""1"",""1655""
","
","
","""event"",""trial"",""time""
""fullscreenenter"",""1"",""1655""
","
","","","","","","1449","<p> Your goal in this round is to take care of lots of animals. </p></div>","","0","instructions","","","","","","","","","","",""
"learning-instructions","178","619664","0.0-11.0-1.0-0.1","5848","1","21","Female","approach_avoid_spark_v1","""event"",""trial"",""time""
""fullscreenenter"",""1"",""1655""
","
","
","""event"",""trial"",""time""
""fullscreenenter"",""1"",""1655""
","
","","","","","","728","<p> Some animals want to be pet, while other animals want to be left alone.  </p><p> On each turn, you will see an animal.   </p><p> You need to decide whether to pet it or not.  </p>","","0","instructions","","","","","","","","","","",""
"learning-instructions","179","626365","0.0-11.0-1.0-0.2","5848","1","21","Female","approach_avoid_spark_v1","""event"",""trial"",""time""
""fullscreenenter"",""1"",""1655""
","
","
","""event"",""trial"",""time""
""fullscreenenter"",""1"",""1655""
","
","","","","","","1397","<p> You can pet the animal by pressing 1 and leave the animal alone by pressing 0. </p><br><div class=""choice-instructions-grid""> <div class=""choice-option""><img src=""images/approach.png"" class=""choice-option-img"" stage=""instructions"" position=""0"" ><div class=""choice-option-text""> Press ""1."" </div></div><div class=""choice-option""><img src=""images/avoid.png"" class=""choice-option-img"" stage=""instructions"" position=""1"" ><div class=""choice-option-text""> Press ""0."" </div></div>","","0","instructions","","","","","","","","","","",""
"learning-instructions","180","636372","0.0-11.0-1.0-0.3","5848","1","21","Female","approach_avoid_spark_v1","""event"",""trial"",""time""
""fullscreenenter"",""1"",""1655""
","
","
","""event"",""trial"",""time""
""fullscreenenter"",""1"",""1655""
","
","","","","","","1118.0000000001164","<p> If you pet an animal that wants to be pet, you will make it feel happy! </p><p> But if you pet an animal that wants to be left alone, you will make it feel angry. </p>","","0","instructions","","","","","","","","","","",""
"learning-instructions","181","649627","0.0-11.0-1.0-0.4","5848","1","21","Female","approach_avoid_spark_v1","""event"",""trial"",""time""
""fullscreenenter"",""1"",""1655""
","
","
","""event"",""trial"",""time""
""fullscreenenter"",""1"",""1655""
","
","","","","","","869.0000000001164","<p> You will earn points based on how you made the animal feel. </p><p> If you made it feel happy, you will WIN anywhere from 1 - 9 points, </p><p> but if you made it feel angry, you will LOSE anywhere from 1 - 9 points. </p>","","0","instructions","","","","","","","","","","",""
"learning-instructions","182","657650","0.0-11.0-1.0-0.5","5848","1","21","Female","approach_avoid_spark_v1","""event"",""trial"",""time""
""fullscreenenter"",""1"",""1655""
","
","
","""event"",""trial"",""time""
""fullscreenenter"",""1"",""1655""
","
","","","","","","1372.0000000001164","<p> You will see how many points you won or lost in the center of the screen. </p><p> Here is what you would see if you won 5 points: </p><p style=""color:green;font-size:50px;font-weight:bolder"">5</p>","","0","instructions","","","","","","","","","","",""
"learning-instructions","183","668618","0.0-11.0-1.0-0.6","5848","1","21","Female","approach_avoid_spark_v1","""event"",""trial"",""time""
""fullscreenenter"",""1"",""1655""
","
","
","""event"",""trial"",""time""
""fullscreenenter"",""1"",""1655""
","
","","","","","","8135","<p> And here is what you would see if you lost 3 points: </p><p style=""color:red;font-size:50px;font-weight:bolder"">-3</p>","","0","instructions","","","","","","","","","","",""
"learning-instructions","184","683603","0.0-11.0-1.0-0.7","5848","1","21","Female","approach_avoid_spark_v1","""event"",""trial"",""time""
""fullscreenenter"",""1"",""1655""
","
","
","""event"",""trial"",""time""
""fullscreenenter"",""1"",""1655""
","
","","","","","","1088","<p> Some animals will become very happy or very angry. </p><p> These animals will make you win or lose LOTS of points. </p><p> Other animals have less strong feelings. </p><p> These animals will make you win or lose small amounts of points. </p>","","0","instructions","","","","","","","","","","",""
"learning-instructions","185","696290","0.0-11.0-1.0-0.8","5848","1","21","Female","approach_avoid_spark_v1","""event"",""trial"",""time""
""fullscreenenter"",""1"",""1655""
","
","
","""event"",""trial"",""time""
""fullscreenenter"",""1"",""1655""
","
","","","","","","1412","<p> If you choose to leave the animal alone, you will not win or lose any points. </p><p>  However, in the center of the screen, you will see the number of points you WOULD HAVE won or lost if you had pet the animal. </p>","","0","instructions","","","","","","","","","","",""
"learning-instructions","186","708856","0.0-11.0-1.0-0.9","5848","1","21","Female","approach_avoid_spark_v1","""event"",""trial"",""time""
""fullscreenenter"",""1"",""1655""
","
","
","""event"",""trial"",""time""
""fullscreenenter"",""1"",""1655""
","
","","","","","","885.9999999998836","<p> Here is what you might see if you did not pet the animal but the animal wanted to be pet: </p><p style=""color:grey; font-size:50px; display: inline-block; border-spacing: 15px; border-width:3px; border-style:solid; border-color:red"">  &nbsp; 6 &nbsp; </p><p> Remember, in this case, you would not win or lose ANY points because you did not pet the animal.  </p>","","0","instructions","","","","","","","","","","",""
"learning-instructions","187","717050","0.0-11.0-1.0-0.10","5848","1","21","Female","approach_avoid_spark_v1","""event"",""trial"",""time""
""fullscreenenter"",""1"",""1655""
","
","
","""event"",""trial"",""time""
""fullscreenenter"",""1"",""1655""
","
","","","","","","939","<p> Try to make the best choice for each animal because </p><p> at the end of the game, you will earn bonus money based on how many points you earned. </p>","","0","instructions","","","","","","","","","","",""
"learning-instructions","188","727235","0.0-11.0-1.0-0.11","5848","1","21","Female","approach_avoid_spark_v1","""event"",""trial"",""time""
""fullscreenenter"",""1"",""1655""
","
","
","""event"",""trial"",""time""
""fullscreenenter"",""1"",""1655""
","
","","","","","","2002","<p> You will have 3 seconds to make each choice. Try to respond before time runs out! </p><p> You will lose 5 points each time you do not make a response. </p>","","0","instructions","","","","","","","","","","",""
"html-keyboard-response","189","727839","0.0-11.0-2.0-0.0","5848","1","21","Female","approach_avoid_spark_v1","""event"",""trial"",""time""
""fullscreenenter"",""1"",""1655""
","
","
","""event"",""trial"",""time""
""fullscreenenter"",""1"",""1655""
","
","","","","","","null","<div style=""font-size:60px;"">+</div>","null","","fixation","","","","","","","","","","",""
"aa-learning-trial","190","730841","0.0-11.0-2.0-1.0","5848","1","21","Female","approach_avoid_spark_v1","""event"",""trial"",""time""
""fullscreenenter"",""1"",""1655""
","
","
","""event"",""trial"",""time""
""fullscreenenter"",""1"",""1655""
","
","","","","","","856","images/dog7.png","","","learning","-1","-1","1","1","dog","pets","2","1","","bad","[-4]"
"html-keyboard-response","191","731342","0.0-11.0-2.0-0.1","5848","1","21","Female","approach_avoid_spark_v1","""event"",""trial"",""time""
""fullscreenenter"",""1"",""1655""
","
","
","""event"",""trial"",""time""
""fullscreenenter"",""1"",""1655""
","
","","","","","","null","<div style=""font-size:60px;"">+</div>","null","","fixation","","","","","","","","","","",""
"aa-learning-trial","192","734345","0.0-11.0-2.0-1.1","5848","1","21","Female","approach_avoid_spark_v1","""event"",""trial"",""time""
""fullscreenenter"",""1"",""1655""
","
","
","""event"",""trial"",""time""
""fullscreenenter"",""1"",""1655""
","
","","","","","","709","images/dog6.png","","","learning","-9","-5","-","","dog","pets","2","1","","bad","[-4]"
"html-keyboard-response","193","734846","0.0-11.0-2.0-0.2","5848","1","21","Female","approach_avoid_spark_v1","""event"",""trial"",""time""
""fullscreenenter"",""1"",""1655""
","
","
","""event"",""trial"",""time""
""fullscreenenter"",""1"",""1655""
","
","","","","","","null","<div style=""font-size:60px;"">+</div>","null","","fixation","","","","","","","","","","",""
"aa-learning-trial","194","737849","0.0-11.0-2.0-1.2","5848","1","21","Female","approach_avoid_spark_v1","""event"",""trial"",""time""
""fullscreenenter"",""1"",""1655""
","
","
","""event"",""trial"",""time""
""fullscreenenter"",""1"",""1655""
","
","","","","","","536","images/dog7.png","","","learning","-1","-1","1","1","dog","pets","2","1","","bad","[-4]"
"html-keyboard-response","195","738350","0.0-11.0-2.0-0.3","5848","1","21","Female","approach_avoid_spark_v1","""event"",""trial"",""time""
""fullscreenenter"",""1"",""1655""
","
","
","""event"",""trial"",""time""
""fullscreenenter"",""1"",""1655""
","
","","","","","","null","<div style=""font-size:60px;"">+</div>","null","","fixation","","","","","","","","","","",""
"aa-learning-trial","196","741352","0.0-11.0-2.0-1.3","5848","1","21","Female","approach_avoid_spark_v1","""event"",""trial"",""time""
""fullscreenenter"",""1"",""1655""
","
","
","""event"",""trial"",""time""
""fullscreenenter"",""1"",""1655""
","
","","","","","","796.0000000001164","images/dog2.png","","","learning","-3","-3","1","1","dog","pets","2","1","","bad","[-4]"
"html-keyboard-response","197","741854","0.0-11.0-2.0-0.4","5848","1","21","Female","approach_avoid_spark_v1","""event"",""trial"",""time""
""fullscreenenter"",""1"",""1655""
","
","
","""event"",""trial"",""time""
""fullscreenenter"",""1"",""1655""
","
","","","","","","null","<div style=""font-size:60px;"">+</div>","null","","fixation","","","","","","","","","","",""
"aa-learning-trial","198","744857","0.0-11.0-2.0-1.4","5848","1","21","Female","approach_avoid_spark_v1","""event"",""trial"",""time""
""fullscreenenter"",""1"",""1655""
","
","
","""event"",""trial"",""time""
""fullscreenenter"",""1"",""1655""
","
","","","","","","671","images/cat5.png","","","learning","3","-5","-","","cat","pets","2","1","","neutral","0"
"html-keyboard-response","199","745358","0.0-11.0-2.0-0.5","5848","1","21","Female","approach_avoid_spark_v1","""event"",""trial"",""time""
""fullscreenenter"",""1"",""1655""
","
","
","""event"",""trial"",""time""
""fullscreenenter"",""1"",""1655""
","
","","","","","","null","<div style=""font-size:60px;"">+</div>","null","","fixation","","","","","","","","","","",""
"aa-learning-trial","200","748360","0.0-11.0-2.0-1.5","5848","1","21","Female","approach_avoid_spark_v1","""event"",""trial"",""time""
""fullscreenenter"",""1"",""1655""
","
","
","""event"",""trial"",""time""
""fullscreenenter"",""1"",""1655""
","
","","","","","","490.0000000001164","images/dog2.png","","","learning","-3","-3","1","1","dog","pets","2","1","","bad","[-4]"
"html-keyboard-response","201","748862","0.0-11.0-2.0-0.6","5848","1","21","Female","approach_avoid_spark_v1","""event"",""trial"",""time""
""fullscreenenter"",""1"",""1655""
","
","
","""event"",""trial"",""time""
""fullscreenenter"",""1"",""1655""
","
","","","","","","null","<div style=""font-size:60px;"">+</div>","null","","fixation","","","","","","","","","","",""
"aa-learning-trial","202","751864","0.0-11.0-2.0-1.6","5848","1","21","Female","approach_avoid_spark_v1","""event"",""trial"",""time""
""fullscreenenter"",""1"",""1655""
","
","
","""event"",""trial"",""time""
""fullscreenenter"",""1"",""1655""
","
","","","","","","841","images/rabbit6.png","","","learning","-4","-4","1","1","rabbit","pets","2","1","","good","[3]"
"html-keyboard-response","203","752365","0.0-11.0-2.0-0.7","5848","1","21","Female","approach_avoid_spark_v1","""event"",""trial"",""time""
""fullscreenenter"",""1"",""1655""
","
","
","""event"",""trial"",""time""
""fullscreenenter"",""1"",""1655""
","
","","","","","","null","<div style=""font-size:60px;"">+</div>","null","","fixation","","","","","","","","","","",""
"aa-learning-trial","204","755368","0.0-11.0-2.0-1.7","5848","1","21","Female","approach_avoid_spark_v1","""event"",""trial"",""time""
""fullscreenenter"",""1"",""1655""
","
","
","""event"",""trial"",""time""
""fullscreenenter"",""1"",""1655""
","
","","","","","","624","images/cat6.png","","","learning","7","-5","-","","cat","pets","2","1","","neutral","0"
"html-keyboard-response","205","755869","0.0-11.0-2.0-0.8","5848","1","21","Female","approach_avoid_spark_v1","""event"",""trial"",""time""
""fullscreenenter"",""1"",""1655""
","
","
","""event"",""trial"",""time""
""fullscreenenter"",""1"",""1655""
","
","","","","","","null","<div style=""font-size:60px;"">+</div>","null","","fixation","","","","","","","","","","",""
"aa-learning-trial","206","758872","0.0-11.0-2.0-1.8","5848","1","21","Female","approach_avoid_spark_v1","""event"",""trial"",""time""
""fullscreenenter"",""1"",""1655""
","
","
","""event"",""trial"",""time""
""fullscreenenter"",""1"",""1655""
","
","","","","","","535","images/rabbit4.png","","","learning","9","9","1","1","rabbit","pets","2","1","","good","[3]"
"html-keyboard-response","207","759373","0.0-11.0-2.0-0.9","5848","1","21","Female","approach_avoid_spark_v1","""event"",""trial"",""time""
""fullscreenenter"",""1"",""1655""
","
","
","""event"",""trial"",""time""
""fullscreenenter"",""1"",""1655""
","
","","","","","","null","<div style=""font-size:60px;"">+</div>","null","","fixation","","","","","","","","","","",""
"aa-learning-trial","208","762376","0.0-11.0-2.0-1.9","5848","1","21","Female","approach_avoid_spark_v1","""event"",""trial"",""time""
""fullscreenenter"",""1"",""1655""
","
","
","""event"",""trial"",""time""
""fullscreenenter"",""1"",""1655""
","
","","","","","","775","images/rabbit5.png","","","learning","2","2","1","1","rabbit","pets","2","1","","good","[3]"
"html-keyboard-response","209","762877","0.0-11.0-2.0-0.10","5848","1","21","Female","approach_avoid_spark_v1","""event"",""trial"",""time""
""fullscreenenter"",""1"",""1655""
","
","
","""event"",""trial"",""time""
""fullscreenenter"",""1"",""1655""
","
","","","","","","null","<div style=""font-size:60px;"">+</div>","null","","fixation","","","","","","","","","","",""
"aa-learning-trial","210","765879","0.0-11.0-2.0-1.10","5848","1","21","Female","approach_avoid_spark_v1","""event"",""trial"",""time""
""fullscreenenter"",""1"",""1655""
","
","
","""event"",""trial"",""time""
""fullscreenenter"",""1"",""1655""
","
","","","","","","693.9999999998836","images/rabbit4.png","","","learning","9","9","1","1","rabbit","pets","2","1","","good","[3]"
"html-keyboard-response","211","766381","0.0-11.0-2.0-0.11","5848","1","21","Female","approach_avoid_spark_v1","""event"",""trial"",""time""
""fullscreenenter"",""1"",""1655""
","
","
","""event"",""trial"",""time""
""fullscreenenter"",""1"",""1655""
","
","","","","","","null","<div style=""font-size:60px;"">+</div>","null","","fixation","","","","","","","","","","",""
"aa-learning-trial","212","769383","0.0-11.0-2.0-1.11","5848","1","21","Female","approach_avoid_spark_v1","""event"",""trial"",""time""
""fullscreenenter"",""1"",""1655""
","
","
","""event"",""trial"",""time""
""fullscreenenter"",""1"",""1655""
","
","","","","","","821","images/cat1.png","","","learning","1","-5","-","","cat","pets","2","1","","neutral","0"
"html-keyboard-response","213","769885","0.0-11.0-2.0-0.12","5848","1","21","Female","approach_avoid_spark_v1","""event"",""trial"",""time""
""fullscreenenter"",""1"",""1655""
","
","
","""event"",""trial"",""time""
""fullscreenenter"",""1"",""1655""
","
","","","","","","null","<div style=""font-size:60px;"">+</div>","null","","fixation","","","","","","","","","","",""
"aa-learning-trial","214","772887","0.0-11.0-2.0-1.12","5848","1","21","Female","approach_avoid_spark_v1","""event"",""trial"",""time""
""fullscreenenter"",""1"",""1655""
","
","
","""event"",""trial"",""time""
""fullscreenenter"",""1"",""1655""
","
","","","","","","628","images/cat6.png","","","learning","7","7","1","1","cat","pets","2","1","","neutral","0"
"html-keyboard-response","215","773388","0.0-11.0-2.0-0.13","5848","1","21","Female","approach_avoid_spark_v1","""event"",""trial"",""time""
""fullscreenenter"",""1"",""1655""
","
","
","""event"",""trial"",""time""
""fullscreenenter"",""1"",""1655""
","
","","","","","","null","<div style=""font-size:60px;"">+</div>","null","","fixation","","","","","","","","","","",""
"aa-learning-trial","216","776391","0.0-11.0-2.0-1.13","5848","1","21","Female","approach_avoid_spark_v1","""event"",""trial"",""time""
""fullscreenenter"",""1"",""1655""
","
","
","""event"",""trial"",""time""
""fullscreenenter"",""1"",""1655""
","
","","","","","","1049","images/rabbit6.png","","","learning","-4","-4","1","1","rabbit","pets","2","1","","good","[3]"
"html-keyboard-response","217","776892","0.0-11.0-2.0-0.14","5848","1","21","Female","approach_avoid_spark_v1","""event"",""trial"",""time""
""fullscreenenter"",""1"",""1655""
","
","
","""event"",""trial"",""time""
""fullscreenenter"",""1"",""1655""
","
","","","","","","null","<div style=""font-size:60px;"">+</div>","null","","fixation","","","","","","","","","","",""
"aa-learning-trial","218","779894","0.0-11.0-2.0-1.14","5848","1","21","Female","approach_avoid_spark_v1","""event"",""trial"",""time""
""fullscreenenter"",""1"",""1655""
","
","
","""event"",""trial"",""time""
""fullscreenenter"",""1"",""1655""
","
","","","","","","951","images/cat5.png","","","learning","3","3","1","1","cat","pets","2","1","","neutral","0"
"html-keyboard-response","219","780396","0.0-11.0-2.0-0.15","5848","1","21","Female","approach_avoid_spark_v1","""event"",""trial"",""time""
""fullscreenenter"",""1"",""1655""
","
","
","""event"",""trial"",""time""
""fullscreenenter"",""1"",""1655""
","
","","","","","","null","<div style=""font-size:60px;"">+</div>","null","","fixation","","","","","","","","","","",""
"aa-learning-trial","220","783399","0.0-11.0-2.0-1.15","5848","1","21","Female","approach_avoid_spark_v1","""event"",""trial"",""time""
""fullscreenenter"",""1"",""1655""
","
","
","""event"",""trial"",""time""
""fullscreenenter"",""1"",""1655""
","
","","","","","","690","images/dog5.png","","","learning","4","4","1","1","dog","pets","2","1","","bad","[-4]"
"html-keyboard-response","221","783900","0.0-11.0-2.0-0.16","5848","1","21","Female","approach_avoid_spark_v1","""event"",""trial"",""time""
""fullscreenenter"",""1"",""1655""
","
","
","""event"",""trial"",""time""
""fullscreenenter"",""1"",""1655""
","
","","","","","","null","<div style=""font-size:60px;"">+</div>","null","","fixation","","","","","","","","","","",""
"aa-learning-trial","222","786902","0.0-11.0-2.0-1.16","5848","1","21","Female","approach_avoid_spark_v1","""event"",""trial"",""time""
""fullscreenenter"",""1"",""1655""
","
","
","""event"",""trial"",""time""
""fullscreenenter"",""1"",""1655""
","
","","","","","","1348.9999999998836","images/dog2.png","","","learning","-3","-5","-","","dog","pets","2","1","","bad","[-4]"
"html-keyboard-response","223","787404","0.0-11.0-2.0-0.17","5848","1","21","Female","approach_avoid_spark_v1","""event"",""trial"",""time""
""fullscreenenter"",""1"",""1655""
","
","
","""event"",""trial"",""time""
""fullscreenenter"",""1"",""1655""
","
","","","","","","null","<div style=""font-size:60px;"">+</div>","null","","fixation","","","","","","","","","","",""
"aa-learning-trial","224","790407","0.0-11.0-2.0-1.17","5848","1","21","Female","approach_avoid_spark_v1","""event"",""trial"",""time""
""fullscreenenter"",""1"",""1655""
","
","
","""event"",""trial"",""time""
""fullscreenenter"",""1"",""1655""
","
","","","","","","756","images/cat6.png","","","learning","7","7","1","1","cat","pets","2","1","","neutral","0"
"html-keyboard-response","225","790908","0.0-11.0-2.0-0.18","5848","1","21","Female","approach_avoid_spark_v1","""event"",""trial"",""time""
""fullscreenenter"",""1"",""1655""
","
","
","""event"",""trial"",""time""
""fullscreenenter"",""1"",""1655""
","
","","","","","","null","<div style=""font-size:60px;"">+</div>","null","","fixation","","","","","","","","","","",""
"aa-learning-trial","226","793910","0.0-11.0-2.0-1.18","5848","1","21","Female","approach_avoid_spark_v1","""event"",""trial"",""time""
""fullscreenenter"",""1"",""1655""
","
","
","""event"",""trial"",""time""
""fullscreenenter"",""1"",""1655""
","
","","","","","","794","images/dog7.png","","","learning","-1","-5","-","","dog","pets","2","1","","bad","[-4]"
"html-keyboard-response","227","794411","0.0-11.0-2.0-0.19","5848","1","21","Female","approach_avoid_spark_v1","""event"",""trial"",""time""
""fullscreenenter"",""1"",""1655""
","
","
","""event"",""trial"",""time""
""fullscreenenter"",""1"",""1655""
","
","","","","","","null","<div style=""font-size:60px;"">+</div>","null","","fixation","","","","","","","","","","",""
"aa-learning-trial","228","797414","0.0-11.0-2.0-1.19","5848","1","21","Female","approach_avoid_spark_v1","""event"",""trial"",""time""
""fullscreenenter"",""1"",""1655""
","
","
","""event"",""trial"",""time""
""fullscreenenter"",""1"",""1655""
","
","","","","","","426","images/dog7.png","","","learning","-1","-1","1","1","dog","pets","2","1","","bad","[-4]"
"html-keyboard-response","229","797915","0.0-11.0-2.0-0.20","5848","1","21","Female","approach_avoid_spark_v1","""event"",""trial"",""time""
""fullscreenenter"",""1"",""1655""
","
","
","""event"",""trial"",""time""
""fullscreenenter"",""1"",""1655""
","
","","","","","","null","<div style=""font-size:60px;"">+</div>","null","","fixation","","","","","","","","","","",""
"aa-learning-trial","230","800918","0.0-11.0-2.0-1.20","5848","1","21","Female","approach_avoid_spark_v1","""event"",""trial"",""time""
""fullscreenenter"",""1"",""1655""
","
","
","""event"",""trial"",""time""
""fullscreenenter"",""1"",""1655""
","
","","","","","","929","images/rabbit4.png","","","learning","9","9","1","1","rabbit","pets","2","1","","good","[3]"
"html-keyboard-response","231","801419","0.0-11.0-2.0-0.21","5848","1","21","Female","approach_avoid_spark_v1","""event"",""trial"",""time""
""fullscreenenter"",""1"",""1655""
","
","
","""event"",""trial"",""time""
""fullscreenenter"",""1"",""1655""
","
","","","","","","null","<div style=""font-size:60px;"">+</div>","null","","fixation","","","","","","","","","","",""
"aa-learning-trial","232","804422","0.0-11.0-2.0-1.21","5848","1","21","Female","approach_avoid_spark_v1","""event"",""trial"",""time""
""fullscreenenter"",""1"",""1655""
","
","
","""event"",""trial"",""time""
""fullscreenenter"",""1"",""1655""
","
","","","","","","848","images/cat6.png","","","learning","7","7","1","1","cat","pets","2","1","","neutral","0"
"html-keyboard-response","233","804923","0.0-11.0-2.0-0.22","5848","1","21","Female","approach_avoid_spark_v1","""event"",""trial"",""time""
""fullscreenenter"",""1"",""1655""
","
","
","""event"",""trial"",""time""
""fullscreenenter"",""1"",""1655""
","
","","","","","","null","<div style=""font-size:60px;"">+</div>","null","","fixation","","","","","","","","","","",""
"aa-learning-trial","234","807925","0.0-11.0-2.0-1.22","5848","1","21","Female","approach_avoid_spark_v1","""event"",""trial"",""time""
""fullscreenenter"",""1"",""1655""
","
","
","""event"",""trial"",""time""
""fullscreenenter"",""1"",""1655""
","
","","","","","","527.9999999998836","images/dog6.png","","","learning","-9","-9","1","1","dog","pets","2","1","","bad","[-4]"
"html-keyboard-response","235","808427","0.0-11.0-2.0-0.23","5848","1","21","Female","approach_avoid_spark_v1","""event"",""trial"",""time""
""fullscreenenter"",""1"",""1655""
","
","
","""event"",""trial"",""time""
""fullscreenenter"",""1"",""1655""
","
","","","","","","null","<div style=""font-size:60px;"">+</div>","null","","fixation","","","","","","","","","","",""
"aa-learning-trial","236","811429","0.0-11.0-2.0-1.23","5848","1","21","Female","approach_avoid_spark_v1","""event"",""trial"",""time""
""fullscreenenter"",""1"",""1655""
","
","
","""event"",""trial"",""time""
""fullscreenenter"",""1"",""1655""
","
","","","","","","1101","images/cat1.png","","","learning","1","1","1","1","cat","pets","2","1","","neutral","0"
"html-keyboard-response","237","811931","0.0-11.0-2.0-0.24","5848","1","21","Female","approach_avoid_spark_v1","""event"",""trial"",""time""
""fullscreenenter"",""1"",""1655""
","
","
","""event"",""trial"",""time""
""fullscreenenter"",""1"",""1655""
","
","","","","","","null","<div style=""font-size:60px;"">+</div>","null","","fixation","","","","","","","","","","",""
"aa-learning-trial","238","814933","0.0-11.0-2.0-1.24","5848","1","21","Female","approach_avoid_spark_v1","""event"",""trial"",""time""
""fullscreenenter"",""1"",""1655""
","
","
","""event"",""trial"",""time""
""fullscreenenter"",""1"",""1655""
","
","","","","","","584","images/cat1.png","","","learning","1","1","1","1","cat","pets","2","1","","neutral","0"
"html-keyboard-response","239","815434","0.0-11.0-2.0-0.25","5848","1","21","Female","approach_avoid_spark_v1","""event"",""trial"",""time""
""fullscreenenter"",""1"",""1655""
","
","
","""event"",""trial"",""time""
""fullscreenenter"",""1"",""1655""
","
","","","","","","null","<div style=""font-size:60px;"">+</div>","null","","fixation","","","","","","","","","","",""
