"trial_type","trial_index","time_elapsed","internal_node_id","subject_id","task_condition","age","gender","task_version","interactions","blur_events","focus_events","fullscreenenter_events","fullscreenexit_events","success","timeout","failed_images","failed_audio","failed_video","rt","stimulus","response","button_pressed","task_part","approach_reward","points","key_press","option_selected","stim_cat","task_block","block_condition","block_number","correct","cat_type","mean_cat_reward"
"pavlovia","0","5","0.0-0.0","4503","1","17","Female","approach_avoid_spark_v1","""event"",""trial"",""time""
""fullscreenenter"",""1"",""3713""
","
","
","""event"",""trial"",""time""
""fullscreenenter"",""1"",""3713""
","
","","","","","","","","","","","","","","","","","","","","",""
"fullscreen","1","4691","0.0-1.0","4503","1","17","Female","approach_avoid_spark_v1","""event"",""trial"",""time""
""fullscreenenter"",""1"",""3713""
","
","
","""event"",""trial"",""time""
""fullscreenenter"",""1"",""3713""
","
","true","","","","","","","","","","","","","","","","","","","",""
"preload","2","16397","0.0-2.0","4503","1","17","Female","approach_avoid_spark_v1","""event"",""trial"",""time""
""fullscreenenter"",""1"",""3713""
","
","
","""event"",""trial"",""time""
""fullscreenenter"",""1"",""3713""
","
","true","false","[]","[]","[]","","","","","","","","","","","","","","","",""
"audio-keyboard-response","3","19035","0.0-3.0","4503","1","17","Female","approach_avoid_spark_v1","""event"",""trial"",""time""
""fullscreenenter"",""1"",""3713""
","
","
","""event"",""trial"",""time""
""fullscreenenter"",""1"",""3713""
","
","","","","","","2631.9999999999995","audio/beep_loop.wav"," ","","","","","","","","","","","","",""
"audio-button-response","4","21358","0.0-4.0","4503","1","17","Female","approach_avoid_spark_v1","""event"",""trial"",""time""
""fullscreenenter"",""1"",""3713""
","
","
","""event"",""trial"",""time""
""fullscreenenter"",""1"",""3713""
","
","","","","","","2320","audio/shark.wav","4","","","","","","","","","","","","",""
"audio-button-response","5","23390","0.0-5.0","4503","1","17","Female","approach_avoid_spark_v1","""event"",""trial"",""time""
""fullscreenenter"",""1"",""3713""
","
","
","""event"",""trial"",""time""
""fullscreenenter"",""1"",""3713""
","
","","","","","","1032","audio/turtle.wav","1","","","","","","","","","","","","",""
"preload","6","29341","0.0-6.0","4503","1","17","Female","approach_avoid_spark_v1","""event"",""trial"",""time""
""fullscreenenter"",""1"",""3713""
","
","
","""event"",""trial"",""time""
""fullscreenenter"",""1"",""3713""
","
","true","false","[]","[]","[]","","","","","","","","","","","","","","","",""
"html-keyboard-response","7","31237","0.0-7.0","4503","1","17","Female","approach_avoid_spark_v1","""event"",""trial"",""time""
""fullscreenenter"",""1"",""3713""
","
","
","""event"",""trial"",""time""
""fullscreenenter"",""1"",""3713""
","
","","","","","","1895","Welcome to the experiment. Press any key to begin and to advance the instructions."," ","","","","","","","","","","","","",""
"learning-instructions","8","39535","0.0-8.0-0.0-0.0","4503","1","17","Female","approach_avoid_spark_v1","""event"",""trial"",""time""
""fullscreenenter"",""1"",""3713""
","
","
","""event"",""trial"",""time""
""fullscreenenter"",""1"",""3713""
","
","","","","","","1268.2999999970198","<p> Welcome! Today you are going to play 6 different rounds of a decision-making game. </p><p> Use the mouse to click next to continue. </p>","","0","instructions","","","","","","","","","","",""
"learning-instructions","9","44512","0.0-8.0-0.0-0.1","4503","1","17","Female","approach_avoid_spark_v1","""event"",""trial"",""time""
""fullscreenenter"",""1"",""3713""
","
","
","""event"",""trial"",""time""
""fullscreenenter"",""1"",""3713""
","
","","","","","","2246.2999999970198","<p> You will start with a practice round to learn the rules. </p>","","0","instructions","","","","","","","","","","",""
"learning-instructions","10","49281","0.0-8.0-0.0-0.2","4503","1","17","Female","approach_avoid_spark_v1","""event"",""trial"",""time""
""fullscreenenter"",""1"",""3713""
","
","
","""event"",""trial"",""time""
""fullscreenenter"",""1"",""3713""
","
","","","","","","1315.5","<p> Your goal in this round is to give out sports equipment to kids. </p></div>","","0","instructions","","","","","","","","","","",""
"learning-instructions","11","57410","0.0-8.0-0.0-0.3","4503","1","17","Female","approach_avoid_spark_v1","""event"",""trial"",""time""
""fullscreenenter"",""1"",""3713""
","
","
","""event"",""trial"",""time""
""fullscreenenter"",""1"",""3713""
","
","","","","","","583.5999999940395","<p> The kids only like some of the equipment.  </p><p> On each turn, you will see a piece of sports equipment.   </p><p> You need to decide whether to give it to the kids or not.  </p>","","0","instructions","","","","","","","","","","",""
"learning-instructions","12","63066","0.0-8.0-0.0-0.4","4503","1","17","Female","approach_avoid_spark_v1","""event"",""trial"",""time""
""fullscreenenter"",""1"",""3713""
","
","
","""event"",""trial"",""time""
""fullscreenenter"",""1"",""3713""
","
","","","","","","909.3999999985099","<p> You can give them the equipment by pressing 1 and choose not to give it to them by pressing 0. </p><br><div class=""choice-instructions-grid""> <div class=""choice-option""><img src=""images/approach.png"" class=""choice-option-img"" stage=""instructions"" position=""0"" ><div class=""choice-option-text""> Press ""1."" </div></div><div class=""choice-option""><img src=""images/avoid.png"" class=""choice-option-img"" stage=""instructions"" position=""1"" ><div class=""choice-option-text""> Press ""0."" </div></div>","","0","instructions","","","","","","","","","","",""
"learning-instructions","13","70898","0.0-8.0-0.0-0.5","4503","1","17","Female","approach_avoid_spark_v1","""event"",""trial"",""time""
""fullscreenenter"",""1"",""3713""
","
","
","""event"",""trial"",""time""
""fullscreenenter"",""1"",""3713""
","
","","","","","","451.30000000447035","<p> If you give them a piece of equipment they like, they will be happy! </p><p> But if you give them a piece of equipment they do not like, they will be sad. </p>","","0","instructions","","","","","","","","","","",""
"learning-instructions","14","81969","0.0-8.0-0.0-0.6","4503","1","17","Female","approach_avoid_spark_v1","""event"",""trial"",""time""
""fullscreenenter"",""1"",""3713""
","
","
","""event"",""trial"",""time""
""fullscreenenter"",""1"",""3713""
","
","","","","","","563.2999999970198","<p> You will earn points based on how you make kids feel. </p><p> If you make them happy, you will WIN anywhere from 1 - 9 points, </p><p> but if you make them sad, you will LOSE anywhere from 1 - 9 points. </p>","","0","instructions","","","","","","","","","","",""
"learning-instructions","15","92290","0.0-8.0-0.0-0.7","4503","1","17","Female","approach_avoid_spark_v1","""event"",""trial"",""time""
""fullscreenenter"",""1"",""3713""
","
","
","""event"",""trial"",""time""
""fullscreenenter"",""1"",""3713""
","
","","","","","","773.5","<p> You will see how many points you won or lost in the center of the screen. </p><p> Here is what you would see if you won 6 points: </p><p style=""color:green;font-size:50px;font-weight:bolder"">6</p><p style=""color:green"">The text is GREEN because you WON points.</p>","","0","instructions","","","","","","","","","","",""
"learning-instructions","16","98506","0.0-8.0-0.0-0.8","4503","1","17","Female","approach_avoid_spark_v1","""event"",""trial"",""time""
""fullscreenenter"",""1"",""3713""
","
","
","""event"",""trial"",""time""
""fullscreenenter"",""1"",""3713""
","
","","","","","","719.3000000044703","<p> And here is what you would see if you lost 4 points: </p><p style=""color:red;font-size:50px;font-weight:bolder"">-4</p><p style=""color:red"">The text is RED because you LOST points. </p>","","0","instructions","","","","","","","","","","",""
"learning-instructions","17","113602","0.0-8.0-0.0-0.9","4503","1","17","Female","approach_avoid_spark_v1","""event"",""trial"",""time""
""fullscreenenter"",""1"",""3713""
","
","
","""event"",""trial"",""time""
""fullscreenenter"",""1"",""3713""
","
","","","","","","385.5","<p> Some of the equipment will make the kids VERY happy or sad. </p><p> These pieces of equipment will make you win or lose LOTS of points. </p><p> Other pieces of equipment will only make the kids a little happy or sad. </p><p> These pieces of equipment will make you win or lose small amounts of points. </p>","","0","instructions","","","","","","","","","","",""
"learning-instructions","18","124921","0.0-8.0-0.0-0.10","4503","1","17","Female","approach_avoid_spark_v1","""event"",""trial"",""time""
""fullscreenenter"",""1"",""3713""
","
","
","""event"",""trial"",""time""
""fullscreenenter"",""1"",""3713""
","
","","","","","","705.3999999985099","<p> If you choose not to give them the equipment, you will not win or lose any points. </p><p>  However, in the center of the screen, you will see the number of points you WOULD HAVE won or lost if you had given them the equipment. </p>","","0","instructions","","","","","","","","","","",""
"learning-instructions","19","150753","0.0-8.0-0.0-0.11","4503","1","17","Female","approach_avoid_spark_v1","""event"",""trial"",""time""
""fullscreenenter"",""1"",""3713""
","
","
","""event"",""trial"",""time""
""fullscreenenter"",""1"",""3713""
","
","","","","","","4307.39999999851","<p> Here is what you might see if you did not give the equipment to the kids but it would have made them happy: </p><p style=""color:grey; font-size:50px; display: inline-block; border-spacing: 15px; border-width:3px; border-style:solid; border-color:red"">  &nbsp; 7 &nbsp; </p><p> Remember, in this case, you would not win or lose ANY points because you did not give them the equipment.  </p><p style=""color:grey"">The text is GREY because you earned ZERO points. </p><p style=""color:red"">However, choosing to give the kids the equipment would have made you win points. The box around the text is RED because you chose the worse option. </p>","","0","instructions","","","","","","","","","","",""
"learning-instructions","20","172689","0.0-8.0-0.0-0.12","4503","1","17","Female","approach_avoid_spark_v1","""event"",""trial"",""time""
""fullscreenenter"",""1"",""3713""
","
","
","""event"",""trial"",""time""
""fullscreenenter"",""1"",""3713""
","
","","","","","","863.7999999970198","<p> Here is what you might see if you did not give the equipment to the kids but it would have made them sad: </p><p style=""color:grey;font-size:50px; display: inline-block; border-spacing: 15px; border-width:3px; border-style:solid; border-color:green"">  &nbsp; -8 &nbsp; </p><p> Remember, in this case, you would not win or lose ANY points because you did not give them the equipment.  </p><p style=""color:grey"">The text is GREY because you earned ZERO points. </p><p  style=""color:green""> Choosing to give the kids the equipment would have made you lose points. The box around the text is GREEN because you chose the better option.</p>","","0","instructions","","","","","","","","","","",""
"learning-instructions","21","182929","0.0-8.0-0.0-0.13","4503","1","17","Female","approach_avoid_spark_v1","""event"",""trial"",""time""
""fullscreenenter"",""1"",""3713""
","
","
","""event"",""trial"",""time""
""fullscreenenter"",""1"",""3713""
","
","","","","","","1443.3999999985099","<p> You will have 3 seconds to make each choice. Try to respond before time runs out! </p><p> You will lose 5 points each time you do not make a response. </p>","","0","instructions","","","","","","","","","","",""
"learning-instructions","22","188793","0.0-8.0-0.0-0.14","4503","1","17","Female","approach_avoid_spark_v1","""event"",""trial"",""time""
""fullscreenenter"",""1"",""3713""
","
","
","""event"",""trial"",""time""
""fullscreenenter"",""1"",""3713""
","
","","","","","","457.29999999701977","<p> This is just a practice round, but in the real game, your bonus payment will depend on your total number of points.","","0","instructions","","","","","","","","","","",""
"learning-instructions","23","197281","0.0-8.0-0.0-0.15","4503","1","17","Female","approach_avoid_spark_v1","""event"",""trial"",""time""
""fullscreenenter"",""1"",""3713""
","
","
","""event"",""trial"",""time""
""fullscreenenter"",""1"",""3713""
","
","","","","","","2725.1999999955297","<p> Remember, you can give them the equipment by pressing 1 and choose not to give it to them by pressing 0. </p><br><div class=""choice-instructions-grid""> <div class=""choice-option""><img src=""images/approach.png"" class=""choice-option-img"" stage=""instructions"" position=""0"" ><div class=""choice-option-text""> Press ""1."" </div></div><div class=""choice-option""><img src=""images/avoid.png"" class=""choice-option-img"" stage=""instructions"" position=""1"" ><div class=""choice-option-text""> Press ""0."" </div></div>","","0","instructions","","","","","","","","","","",""
"html-button-response","24","199673","0.0-8.0-1.0","4503","1","17","Female","approach_avoid_spark_v1","""event"",""trial"",""time""
""fullscreenenter"",""1"",""3713""
","
","
","""event"",""trial"",""time""
""fullscreenenter"",""1"",""3713""
","
","","","","","","2289.39999999851","<p> Ready to practice? </p>","0","","","","","","","","","","","","",""
"html-keyboard-response","25","200280","0.0-8.0-2.0-0.0","4503","1","17","Female","approach_avoid_spark_v1","""event"",""trial"",""time""
""fullscreenenter"",""1"",""3713""
","
","
","""event"",""trial"",""time""
""fullscreenenter"",""1"",""3713""
","
","","","","","","null","<div style=""font-size:60px;"">+</div>","null","","fixation","","","","","","","","","","",""
"aa-learning-trial","26","203283","0.0-8.0-2.0-1.0","4503","1","17","Female","approach_avoid_spark_v1","""event"",""trial"",""time""
""fullscreenenter"",""1"",""3713""
","
","
","""event"",""trial"",""time""
""fullscreenenter"",""1"",""3713""
","
","","","","","","2414.0999999940395","images/racket3.png","","","learning","1","1","1","1","practice","practice","practice","-1","","",""
"html-keyboard-response","27","203787","0.0-8.0-2.0-0.1","4503","1","17","Female","approach_avoid_spark_v1","""event"",""trial"",""time""
""fullscreenenter"",""1"",""3713""
","
","
","""event"",""trial"",""time""
""fullscreenenter"",""1"",""3713""
","
","","","","","","null","<div style=""font-size:60px;"">+</div>","null","","fixation","","","","","","","","","","",""
"aa-learning-trial","28","206791","0.0-8.0-2.0-1.1","4503","1","17","Female","approach_avoid_spark_v1","""event"",""trial"",""time""
""fullscreenenter"",""1"",""3713""
","
","
","""event"",""trial"",""time""
""fullscreenenter"",""1"",""3713""
","
","","","","","","1631.7999999970198","images/racket4.png","","","learning","-6","-6","1","1","practice","practice","practice","-1","","",""
"html-keyboard-response","29","207295","0.0-8.0-2.0-0.2","4503","1","17","Female","approach_avoid_spark_v1","""event"",""trial"",""time""
""fullscreenenter"",""1"",""3713""
","
","
","""event"",""trial"",""time""
""fullscreenenter"",""1"",""3713""
","
","","","","","","null","<div style=""font-size:60px;"">+</div>","null","","fixation","","","","","","","","","","",""
"aa-learning-trial","30","210300","0.0-8.0-2.0-1.2","4503","1","17","Female","approach_avoid_spark_v1","""event"",""trial"",""time""
""fullscreenenter"",""1"",""3713""
","
","
","""event"",""trial"",""time""
""fullscreenenter"",""1"",""3713""
","
","","","","","","1604.1000000014901","images/racket2.png","","","learning","1","1","1","1","practice","practice","practice","-1","","",""
"html-keyboard-response","31","210800","0.0-8.0-2.0-0.3","4503","1","17","Female","approach_avoid_spark_v1","""event"",""trial"",""time""
""fullscreenenter"",""1"",""3713""
","
","
","""event"",""trial"",""time""
""fullscreenenter"",""1"",""3713""
","
","","","","","","null","<div style=""font-size:60px;"">+</div>","null","","fixation","","","","","","","","","","",""
"aa-learning-trial","32","213803","0.0-8.0-2.0-1.3","4503","1","17","Female","approach_avoid_spark_v1","""event"",""trial"",""time""
""fullscreenenter"",""1"",""3713""
","
","
","""event"",""trial"",""time""
""fullscreenenter"",""1"",""3713""
","
","","","","","","1138.1999999955297","images/ball2.png","","","learning","2","2","1","1","practice","practice","practice","-1","","",""
"html-keyboard-response","33","214307","0.0-8.0-2.0-0.4","4503","1","17","Female","approach_avoid_spark_v1","""event"",""trial"",""time""
""fullscreenenter"",""1"",""3713""
","
","
","""event"",""trial"",""time""
""fullscreenenter"",""1"",""3713""
","
","","","","","","null","<div style=""font-size:60px;"">+</div>","null","","fixation","","","","","","","","","","",""
"aa-learning-trial","34","217312","0.0-8.0-2.0-1.4","4503","1","17","Female","approach_avoid_spark_v1","""event"",""trial"",""time""
""fullscreenenter"",""1"",""3713""
","
","
","""event"",""trial"",""time""
""fullscreenenter"",""1"",""3713""
","
","","","","","","997.5999999940395","images/racket3.png","","","learning","5","5","1","1","practice","practice","practice","-1","","",""
"html-keyboard-response","35","217815","0.0-8.0-2.0-0.5","4503","1","17","Female","approach_avoid_spark_v1","""event"",""trial"",""time""
""fullscreenenter"",""1"",""3713""
","
","
","""event"",""trial"",""time""
""fullscreenenter"",""1"",""3713""
","
","","","","","","null","<div style=""font-size:60px;"">+</div>","null","","fixation","","","","","","","","","","",""
"aa-learning-trial","36","220819","0.0-8.0-2.0-1.5","4503","1","17","Female","approach_avoid_spark_v1","""event"",""trial"",""time""
""fullscreenenter"",""1"",""3713""
","
","
","""event"",""trial"",""time""
""fullscreenenter"",""1"",""3713""
","
","","","","","","1662","images/racket2.png","","","learning","-9","0","0","0","practice","practice","practice","-1","","",""
"html-keyboard-response","37","221323","0.0-8.0-2.0-0.6","4503","1","17","Female","approach_avoid_spark_v1","""event"",""trial"",""time""
""fullscreenenter"",""1"",""3713""
","
","
","""event"",""trial"",""time""
""fullscreenenter"",""1"",""3713""
","
","","","","","","null","<div style=""font-size:60px;"">+</div>","null","","fixation","","","","","","","","","","",""
"aa-learning-trial","38","224327","0.0-8.0-2.0-1.6","4503","1","17","Female","approach_avoid_spark_v1","""event"",""trial"",""time""
""fullscreenenter"",""1"",""3713""
","
","
","""event"",""trial"",""time""
""fullscreenenter"",""1"",""3713""
","
","","","","","","2683.6999999955297","images/racket1.png","","","learning","-9","-5","2","","practice","practice","practice","-1","","",""
"html-keyboard-response","39","224828","0.0-8.0-2.0-0.7","4503","1","17","Female","approach_avoid_spark_v1","""event"",""trial"",""time""
""fullscreenenter"",""1"",""3713""
","
","
","""event"",""trial"",""time""
""fullscreenenter"",""1"",""3713""
","
","","","","","","null","<div style=""font-size:60px;"">+</div>","null","","fixation","","","","","","","","","","",""
"aa-learning-trial","40","227831","0.0-8.0-2.0-1.7","4503","1","17","Female","approach_avoid_spark_v1","""event"",""trial"",""time""
""fullscreenenter"",""1"",""3713""
","
","
","""event"",""trial"",""time""
""fullscreenenter"",""1"",""3713""
","
","","","","","","919","images/ball2.png","","","learning","-6","-6","1","1","practice","practice","practice","-1","","",""
"html-keyboard-response","41","228333","0.0-8.0-2.0-0.8","4503","1","17","Female","approach_avoid_spark_v1","""event"",""trial"",""time""
""fullscreenenter"",""1"",""3713""
","
","
","""event"",""trial"",""time""
""fullscreenenter"",""1"",""3713""
","
","","","","","","null","<div style=""font-size:60px;"">+</div>","null","","fixation","","","","","","","","","","",""
"aa-learning-trial","42","231336","0.0-8.0-2.0-1.8","4503","1","17","Female","approach_avoid_spark_v1","""event"",""trial"",""time""
""fullscreenenter"",""1"",""3713""
","
","
","""event"",""trial"",""time""
""fullscreenenter"",""1"",""3713""
","
","","","","","","836.3999999985099","images/ball3.png","","","learning","-7","-7","1","1","practice","practice","practice","-1","","",""
"html-keyboard-response","43","231839","0.0-8.0-2.0-0.9","4503","1","17","Female","approach_avoid_spark_v1","""event"",""trial"",""time""
""fullscreenenter"",""1"",""3713""
","
","
","""event"",""trial"",""time""
""fullscreenenter"",""1"",""3713""
","
","","","","","","null","<div style=""font-size:60px;"">+</div>","null","","fixation","","","","","","","","","","",""
"aa-learning-trial","44","234843","0.0-8.0-2.0-1.9","4503","1","17","Female","approach_avoid_spark_v1","""event"",""trial"",""time""
""fullscreenenter"",""1"",""3713""
","
","
","""event"",""trial"",""time""
""fullscreenenter"",""1"",""3713""
","
","","","","","","659.8000000044703","images/racket3.png","","","learning","8","8","1","1","practice","practice","practice","-1","","",""
"html-keyboard-response","45","235347","0.0-8.0-2.0-0.10","4503","1","17","Female","approach_avoid_spark_v1","""event"",""trial"",""time""
""fullscreenenter"",""1"",""3713""
","
","
","""event"",""trial"",""time""
""fullscreenenter"",""1"",""3713""
","
","","","","","","null","<div style=""font-size:60px;"">+</div>","null","","fixation","","","","","","","","","","",""
"aa-learning-trial","46","238348","0.0-8.0-2.0-1.10","4503","1","17","Female","approach_avoid_spark_v1","""event"",""trial"",""time""
""fullscreenenter"",""1"",""3713""
","
","
","""event"",""trial"",""time""
""fullscreenenter"",""1"",""3713""
","
","","","","","","1003.8999999985099","images/ball1.png","","","learning","7","7","1","1","practice","practice","practice","-1","","",""
"html-keyboard-response","47","238852","0.0-8.0-2.0-0.11","4503","1","17","Female","approach_avoid_spark_v1","""event"",""trial"",""time""
""fullscreenenter"",""1"",""3713""
","
","
","""event"",""trial"",""time""
""fullscreenenter"",""1"",""3713""
","
","","","","","","null","<div style=""font-size:60px;"">+</div>","null","","fixation","","","","","","","","","","",""
"aa-learning-trial","48","241856","0.0-8.0-2.0-1.11","4503","1","17","Female","approach_avoid_spark_v1","""event"",""trial"",""time""
""fullscreenenter"",""1"",""3713""
","
","
","""event"",""trial"",""time""
""fullscreenenter"",""1"",""3713""
","
","","","","","","2902.39999999851","images/racket1.png","","","learning","8","-5","2","","practice","practice","practice","-1","","",""
"html-button-response","49","244593","0.0-8.0-3.0","4503","1","17","Female","approach_avoid_spark_v1","""event"",""trial"",""time""
""fullscreenenter"",""1"",""3713""
","
","
","""event"",""trial"",""time""
""fullscreenenter"",""1"",""3713""
","
","","","","","","2735.7999999970198","<p> You earned -5 points in the practice round! </p>","0","","break","","","","","","","","","","",""
"learning-instructions","50","251209","0.0-8.0-4.0-0.0","4503","1","17","Female","approach_avoid_spark_v1","""event"",""trial"",""time""
""fullscreenenter"",""1"",""3713""
","
","
","""event"",""trial"",""time""
""fullscreenenter"",""1"",""3713""
","
","","","","","","624.1999999955297","<p> It's almost time to start the real game. </p><p> Before you start, we're going to ask you a few questions about how the game works. </p>","","0","instructions","","","","","","","","","","",""
"preload","51","252757","0.0-8.0-5.0","4503","1","17","Female","approach_avoid_spark_v1","""event"",""trial"",""time""
""fullscreenenter"",""1"",""3713""
","
","
","""event"",""trial"",""time""
""fullscreenenter"",""1"",""3713""
","
","true","false","[]","[]","[]","","","","","","","","","","","","","","","",""
"comp-q","52","258969","0.0-8.0-6.0-0.0","4503","1","17","Female","approach_avoid_spark_v1","""event"",""trial"",""time""
""fullscreenenter"",""1"",""3713""
","
","
","""event"",""trial"",""time""
""fullscreenenter"",""1"",""3713""
","
","","","","","","1214.1000000014901","<p> <b> True or False? </b> </p><p> If you see a number in GREY, that means you earned that many points. </p>","","1","comp_question","","","","","","","","","true","",""
"comp-q","53","268625","0.0-8.0-6.0-1.0","4503","1","17","Female","approach_avoid_spark_v1","""event"",""trial"",""time""
""fullscreenenter"",""1"",""3713""
","
","
","""event"",""trial"",""time""
""fullscreenenter"",""1"",""3713""
","
","","","","","","1300.1999999955297","<p><b> That's right! </b> If you see a grey number, it means you earned ZERO points. <br> The grey numbers show the points you WOULD HAVE earned if you had made the other choice. </p>","","0","comp_answer","","","","","","","","","","",""
"comp-q","54","273929","0.0-8.0-7.0-0.0","4503","1","17","Female","approach_avoid_spark_v1","""event"",""trial"",""time""
""fullscreenenter"",""1"",""3713""
","
","
","""event"",""trial"",""time""
""fullscreenenter"",""1"",""3713""
","
","","","","","","614.0999999940395","<p> <b> True or False? </b> </p><p> You will have as much time as you want to make each choice. </p>","","1","comp_question","","","","","","","","","true","",""
"comp-q","55","278801","0.0-8.0-7.0-1.0","4503","1","17","Female","approach_avoid_spark_v1","""event"",""trial"",""time""
""fullscreenenter"",""1"",""3713""
","
","
","""event"",""trial"",""time""
""fullscreenenter"",""1"",""3713""
","
","","","","","","836.2999999970198","<p> <b> That's right! </b> You will only have 3 seconds to make each choice. </p>","","0","comp_answer","","","","","","","","","","",""
"comp-q","56","284313","0.0-8.0-8.0-0.0","4503","1","17","Female","approach_avoid_spark_v1","""event"",""trial"",""time""
""fullscreenenter"",""1"",""3713""
","
","
","""event"",""trial"",""time""
""fullscreenenter"",""1"",""3713""
","
","","","","","","848.1999999955297","<p> <b> True or False? </b> </p><p> You should use the '1' and '0' keys to make your choices. </p>","","0","comp_question","","","","","","","","","true","",""
"comp-q","57","289745","0.0-8.0-8.0-1.0","4503","1","17","Female","approach_avoid_spark_v1","""event"",""trial"",""time""
""fullscreenenter"",""1"",""3713""
","
","
","""event"",""trial"",""time""
""fullscreenenter"",""1"",""3713""
","
","","","","","","820.2000000029802","<p> <b> That's right! </b> You should use the '1' and '0' keys to make each choice. </p>","","0","comp_answer","","","","","","","","","","",""
"learning-instructions","58","296961","0.0-8.0-9.0-0.0","4503","1","17","Female","approach_avoid_spark_v1","""event"",""trial"",""time""
""fullscreenenter"",""1"",""3713""
","
","
","""event"",""trial"",""time""
""fullscreenenter"",""1"",""3713""
","
","","","","","","946.1000000014901","<p> It's now time to start the real game. </p>Do your best, because the points you earn in the next rounds will influence your bonus payment. </p>","","0","instructions","","","","","","","","","","",""
"preload","59","297075","0.0-9.0-0.0","4503","1","17","Female","approach_avoid_spark_v1","""event"",""trial"",""time""
""fullscreenenter"",""1"",""3713""
","
","
","""event"",""trial"",""time""
""fullscreenenter"",""1"",""3713""
","
","true","false","[]","[]","[]","","","","","","","","","","","","","","","",""
"learning-instructions","60","303264","0.0-9.0-1.0-0.0","4503","1","17","Female","approach_avoid_spark_v1","""event"",""trial"",""time""
""fullscreenenter"",""1"",""3713""
","
","
","""event"",""trial"",""time""
""fullscreenenter"",""1"",""3713""
","
","","","","","","1840.2999999970198","<p> Your goal in this round is to decorate your friend's new house with furniture. </p></div>","","0","instructions","","","","","","","","","","",""
"learning-instructions","61","313784","0.0-9.0-1.0-0.1","4503","1","17","Female","approach_avoid_spark_v1","""event"",""trial"",""time""
""fullscreenenter"",""1"",""3713""
","
","
","""event"",""trial"",""time""
""fullscreenenter"",""1"",""3713""
","
","","","","","","1090.3999999985099","<p> Your friend likes some pieces of furniture but not others.  </p><p> On each turn, you will see a piece of furniture.   </p><p> You need to decide whether to put it in your friend's house or not.  </p>","","0","instructions","","","","","","","","","","",""
"learning-instructions","62","320240","0.0-9.0-1.0-0.2","4503","1","17","Female","approach_avoid_spark_v1","""event"",""trial"",""time""
""fullscreenenter"",""1"",""3713""
","
","
","""event"",""trial"",""time""
""fullscreenenter"",""1"",""3713""
","
","","","","","","1076","<p> You can put the furniture in her house by pressing 1 and deliver it elsewhere by pressing 0. </p><br><div class=""choice-instructions-grid""> <div class=""choice-option""><img src=""images/approach.png"" class=""choice-option-img"" stage=""instructions"" position=""0"" ><div class=""choice-option-text""> Press ""1."" </div></div><div class=""choice-option""><img src=""images/avoid.png"" class=""choice-option-img"" stage=""instructions"" position=""1"" ><div class=""choice-option-text""> Press ""0."" </div></div>","","0","instructions","","","","","","","","","","",""
"learning-instructions","63","329904","0.0-9.0-1.0-0.3","4503","1","17","Female","approach_avoid_spark_v1","""event"",""trial"",""time""
""fullscreenenter"",""1"",""3713""
","
","
","""event"",""trial"",""time""
""fullscreenenter"",""1"",""3713""
","
","","","","","","1190.0999999940395","<p> If you decorate your friend's house with furniture she likes, she will be happy! </p><p> But if you give her furniture that she does not like, she will be annoyed. </p>","","0","instructions","","","","","","","","","","",""
"learning-instructions","64","342392","0.0-9.0-1.0-0.4","4503","1","17","Female","approach_avoid_spark_v1","""event"",""trial"",""time""
""fullscreenenter"",""1"",""3713""
","
","
","""event"",""trial"",""time""
""fullscreenenter"",""1"",""3713""
","
","","","","","","618.1000000014901","<p> You will earn points based on how you made your friend feel. </p><p> If you made her happy, you will WIN anywhere from 1 - 9 points, </p><p> but if you made her annoyed you will LOSE anywhere from 1 - 9 points. </p>","","0","instructions","","","","","","","","","","",""
"learning-instructions","65","350928","0.0-9.0-1.0-0.5","4503","1","17","Female","approach_avoid_spark_v1","""event"",""trial"",""time""
""fullscreenenter"",""1"",""3713""
","
","
","""event"",""trial"",""time""
""fullscreenenter"",""1"",""3713""
","
","","","","","","1114.1000000014901","<p> You will see how many points you won or lost in the center of the screen. </p><p> Here is what you would see if you won 5 points: </p><p style=""color:green;font-size:50px;font-weight:bolder"">5</p>","","0","instructions","","","","","","","","","","",""
"learning-instructions","66","354624","0.0-9.0-1.0-0.6","4503","1","17","Female","approach_avoid_spark_v1","""event"",""trial"",""time""
""fullscreenenter"",""1"",""3713""
","
","
","""event"",""trial"",""time""
""fullscreenenter"",""1"",""3713""
","
","","","","","","480","<p> And here is what you would see if you lost 3 points: </p><p style=""color:red;font-size:50px;font-weight:bolder"">-3</p>","","0","instructions","","","","","","","","","","",""
"learning-instructions","67","409065","0.0-9.0-1.0-0.7","4503","1","17","Female","approach_avoid_spark_v1","""event"",""trial"",""time""
""fullscreenenter"",""1"",""3713""
","
","
","""event"",""trial"",""time""
""fullscreenenter"",""1"",""3713""
","
","","","","","","37460.20000000298","<p> Some pieces of furniture will make her feel very happy or very annoyed. </p><p> These pieces of furniture will make you win or lose LOTS of points. </p><p> Other pieces of furniture will only make her feel a little happy or a little annoyed. </p><p> These pieces of furniture will make you win or lose small amounts of points. </p>","","0","instructions","","","","","","","","","","",""
"learning-instructions","68","426233","0.0-9.0-1.0-0.8","4503","1","17","Female","approach_avoid_spark_v1","""event"",""trial"",""time""
""fullscreenenter"",""1"",""3713""
","
","
","""event"",""trial"",""time""
""fullscreenenter"",""1"",""3713""
","
","","","","","","4666.70000000298","<p> If you choose to deliver a piece of furniture elsewhere, you will not win or lose any points. </p><p>  However, in the center of the screen, you will see the number of points you WOULD HAVE won or lost if you had given the furniture to your friend. </p>","","0","instructions","","","","","","","","","","",""
"learning-instructions","69","440225","0.0-9.0-1.0-0.9","4503","1","17","Female","approach_avoid_spark_v1","""event"",""trial"",""time""
""fullscreenenter"",""1"",""3713""
","
","
","""event"",""trial"",""time""
""fullscreenenter"",""1"",""3713""
","
","","","","","","2758.7999999970198","<p> Here is what you might see if you did not give a piece of furniture to your friend that would have made her happy: </p><p style=""color:grey; font-size:50px; display: inline-block; border-spacing: 15px; border-width:3px; border-style:solid; border-color:red"">  &nbsp; 6 &nbsp; </p><p> Remember, in this case, you would not win or lose ANY points because you did not give her the furniture.  </p>","","0","instructions","","","","","","","","","","",""
"learning-instructions","70","448657","0.0-9.0-1.0-0.10","4503","1","17","Female","approach_avoid_spark_v1","""event"",""trial"",""time""
""fullscreenenter"",""1"",""3713""
","
","
","""event"",""trial"",""time""
""fullscreenenter"",""1"",""3713""
","
","","","","","","1180.7999999970198","<p> Try to make the best choice for each piece of furniture because </p><p> at the end of the game, you will earn bonus money based on how many points you earned. </p>","","0","instructions","","","","","","","","","","",""
"learning-instructions","71","459617","0.0-9.0-1.0-0.11","4503","1","17","Female","approach_avoid_spark_v1","""event"",""trial"",""time""
""fullscreenenter"",""1"",""3713""
","
","
","""event"",""trial"",""time""
""fullscreenenter"",""1"",""3713""
","
","","","","","","2770.5","<p> You will have 3 seconds to make each choice. Try to respond before time runs out! </p><p> You will lose 5 points each time you do not make a response. </p>","","0","instructions","","","","","","","","","","",""
"html-keyboard-response","72","460223","0.0-9.0-2.0-0.0","4503","1","17","Female","approach_avoid_spark_v1","""event"",""trial"",""time""
""fullscreenenter"",""1"",""3713""
","
","
","""event"",""trial"",""time""
""fullscreenenter"",""1"",""3713""
","
","","","","","","null","<div style=""font-size:60px;"">+</div>","null","","fixation","","","","","","","","","","",""
"aa-learning-trial","73","463227","0.0-9.0-2.0-1.0","4503","1","17","Female","approach_avoid_spark_v1","""event"",""trial"",""time""
""fullscreenenter"",""1"",""3713""
","
","
","""event"",""trial"",""time""
""fullscreenenter"",""1"",""3713""
","
","","","","","","1939.2999999970198","images/chair2.png","","","learning","1","0","0","0","chair","furniture","1","0","","neutral","0"
"html-keyboard-response","74","463731","0.0-9.0-2.0-0.1","4503","1","17","Female","approach_avoid_spark_v1","""event"",""trial"",""time""
""fullscreenenter"",""1"",""3713""
","
","
","""event"",""trial"",""time""
""fullscreenenter"",""1"",""3713""
","
","","","","","","null","<div style=""font-size:60px;"">+</div>","null","","fixation","","","","","","","","","","",""
"aa-learning-trial","75","466732","0.0-9.0-2.0-1.1","4503","1","17","Female","approach_avoid_spark_v1","""event"",""trial"",""time""
""fullscreenenter"",""1"",""3713""
","
","
","""event"",""trial"",""time""
""fullscreenenter"",""1"",""3713""
","
","","","","","","1921.8999999985099","images/table6.png","","","learning","-10","0","0","0","table","furniture","1","0","","bad","[-6]"
"html-keyboard-response","76","467236","0.0-9.0-2.0-0.2","4503","1","17","Female","approach_avoid_spark_v1","""event"",""trial"",""time""
""fullscreenenter"",""1"",""3713""
","
","
","""event"",""trial"",""time""
""fullscreenenter"",""1"",""3713""
","
","","","","","","null","<div style=""font-size:60px;"">+</div>","null","","fixation","","","","","","","","","","",""
"aa-learning-trial","77","470239","0.0-9.0-2.0-1.2","4503","1","17","Female","approach_avoid_spark_v1","""event"",""trial"",""time""
""fullscreenenter"",""1"",""3713""
","
","
","""event"",""trial"",""time""
""fullscreenenter"",""1"",""3713""
","
","","","","","","1925.2999999970198","images/bed1.png","","","learning","5","5","1","1","bed","furniture","1","0","","good","[5]"
"html-keyboard-response","78","470743","0.0-9.0-2.0-0.3","4503","1","17","Female","approach_avoid_spark_v1","""event"",""trial"",""time""
""fullscreenenter"",""1"",""3713""
","
","
","""event"",""trial"",""time""
""fullscreenenter"",""1"",""3713""
","
","","","","","","null","<div style=""font-size:60px;"">+</div>","null","","fixation","","","","","","","","","","",""
"aa-learning-trial","79","473747","0.0-9.0-2.0-1.3","4503","1","17","Female","approach_avoid_spark_v1","""event"",""trial"",""time""
""fullscreenenter"",""1"",""3713""
","
","
","""event"",""trial"",""time""
""fullscreenenter"",""1"",""3713""
","
","","","","","","1533.5","images/table5.png","","","learning","-5","0","0","0","table","furniture","1","0","","bad","[-6]"
"html-keyboard-response","80","474251","0.0-9.0-2.0-0.4","4503","1","17","Female","approach_avoid_spark_v1","""event"",""trial"",""time""
""fullscreenenter"",""1"",""3713""
","
","
","""event"",""trial"",""time""
""fullscreenenter"",""1"",""3713""
","
","","","","","","null","<div style=""font-size:60px;"">+</div>","null","","fixation","","","","","","","","","","",""
"aa-learning-trial","81","477255","0.0-9.0-2.0-1.4","4503","1","17","Female","approach_avoid_spark_v1","""event"",""trial"",""time""
""fullscreenenter"",""1"",""3713""
","
","
","""event"",""trial"",""time""
""fullscreenenter"",""1"",""3713""
","
","","","","","","1264.8999999985099","images/bed7.png","","","learning","7","7","1","1","bed","furniture","1","0","","good","[5]"
"html-keyboard-response","82","477759","0.0-9.0-2.0-0.5","4503","1","17","Female","approach_avoid_spark_v1","""event"",""trial"",""time""
""fullscreenenter"",""1"",""3713""
","
","
","""event"",""trial"",""time""
""fullscreenenter"",""1"",""3713""
","
","","","","","","null","<div style=""font-size:60px;"">+</div>","null","","fixation","","","","","","","","","","",""
"aa-learning-trial","83","480763","0.0-9.0-2.0-1.5","4503","1","17","Female","approach_avoid_spark_v1","""event"",""trial"",""time""
""fullscreenenter"",""1"",""3713""
","
","
","""event"",""trial"",""time""
""fullscreenenter"",""1"",""3713""
","
","","","","","","1243.1999999955297","images/chair1.png","","","learning","-1","-1","1","1","chair","furniture","1","0","","neutral","0"
"html-keyboard-response","84","481268","0.0-9.0-2.0-0.6","4503","1","17","Female","approach_avoid_spark_v1","""event"",""trial"",""time""
""fullscreenenter"",""1"",""3713""
","
","
","""event"",""trial"",""time""
""fullscreenenter"",""1"",""3713""
","
","","","","","","null","<div style=""font-size:60px;"">+</div>","null","","fixation","","","","","","","","","","",""
"aa-learning-trial","85","484272","0.0-9.0-2.0-1.6","4503","1","17","Female","approach_avoid_spark_v1","""event"",""trial"",""time""
""fullscreenenter"",""1"",""3713""
","
","
","""event"",""trial"",""time""
""fullscreenenter"",""1"",""3713""
","
","","","","","","1246.3999999985099","images/table6.png","","","learning","-6","0","0","0","table","furniture","1","0","","bad","[-6]"
"html-keyboard-response","86","484776","0.0-9.0-2.0-0.7","4503","1","17","Female","approach_avoid_spark_v1","""event"",""trial"",""time""
""fullscreenenter"",""1"",""3713""
","
","
","""event"",""trial"",""time""
""fullscreenenter"",""1"",""3713""
","
","","","","","","null","<div style=""font-size:60px;"">+</div>","null","","fixation","","","","","","","","","","",""
"aa-learning-trial","87","487780","0.0-9.0-2.0-1.7","4503","1","17","Female","approach_avoid_spark_v1","""event"",""trial"",""time""
""fullscreenenter"",""1"",""3713""
","
","
","""event"",""trial"",""time""
""fullscreenenter"",""1"",""3713""
","
","","","","","","2460.0999999940395","images/bed1.png","","","learning","4","0","0","0","bed","furniture","1","0","","good","[5]"
"html-keyboard-response","88","488284","0.0-9.0-2.0-0.8","4503","1","17","Female","approach_avoid_spark_v1","""event"",""trial"",""time""
""fullscreenenter"",""1"",""3713""
","
","
","""event"",""trial"",""time""
""fullscreenenter"",""1"",""3713""
","
","","","","","","null","<div style=""font-size:60px;"">+</div>","null","","fixation","","","","","","","","","","",""
"aa-learning-trial","89","491288","0.0-9.0-2.0-1.8","4503","1","17","Female","approach_avoid_spark_v1","""event"",""trial"",""time""
""fullscreenenter"",""1"",""3713""
","
","
","""event"",""trial"",""time""
""fullscreenenter"",""1"",""3713""
","
","","","","","","1477.7999999970198","images/chair7.png","","","learning","2","2","1","1","chair","furniture","1","0","","neutral","0"
"html-keyboard-response","90","491791","0.0-9.0-2.0-0.9","4503","1","17","Female","approach_avoid_spark_v1","""event"",""trial"",""time""
""fullscreenenter"",""1"",""3713""
","
","
","""event"",""trial"",""time""
""fullscreenenter"",""1"",""3713""
","
","","","","","","null","<div style=""font-size:60px;"">+</div>","null","","fixation","","","","","","","","","","",""
"aa-learning-trial","91","494796","0.0-9.0-2.0-1.9","4503","1","17","Female","approach_avoid_spark_v1","""event"",""trial"",""time""
""fullscreenenter"",""1"",""3713""
","
","
","""event"",""trial"",""time""
""fullscreenenter"",""1"",""3713""
","
","","","","","","1149.6000000014901","images/chair2.png","","","learning","[-1]","-1","1","1","chair","furniture","1","0","","neutral","0"
"html-keyboard-response","92","495300","0.0-9.0-2.0-0.10","4503","1","17","Female","approach_avoid_spark_v1","""event"",""trial"",""time""
""fullscreenenter"",""1"",""3713""
","
","
","""event"",""trial"",""time""
""fullscreenenter"",""1"",""3713""
","
","","","","","","null","<div style=""font-size:60px;"">+</div>","null","","fixation","","","","","","","","","","",""
"aa-learning-trial","93","498302","0.0-9.0-2.0-1.10","4503","1","17","Female","approach_avoid_spark_v1","""event"",""trial"",""time""
""fullscreenenter"",""1"",""3713""
","
","
","""event"",""trial"",""time""
""fullscreenenter"",""1"",""3713""
","
","","","","","","1413","images/chair7.png","","","learning","2","2","1","1","chair","furniture","1","0","","neutral","0"
"html-keyboard-response","94","498804","0.0-9.0-2.0-0.11","4503","1","17","Female","approach_avoid_spark_v1","""event"",""trial"",""time""
""fullscreenenter"",""1"",""3713""
","
","
","""event"",""trial"",""time""
""fullscreenenter"",""1"",""3713""
","
","","","","","","null","<div style=""font-size:60px;"">+</div>","null","","fixation","","","","","","","","","","",""
"aa-learning-trial","95","501807","0.0-9.0-2.0-1.11","4503","1","17","Female","approach_avoid_spark_v1","""event"",""trial"",""time""
""fullscreenenter"",""1"",""3713""
","
","
","""event"",""trial"",""time""
""fullscreenenter"",""1"",""3713""
","
","","","","","","915.1000000014901","images/table4.png","","","learning","-6","-6","1","1","table","furniture","1","0","","bad","[-6]"
"html-keyboard-response","96","502308","0.0-9.0-2.0-0.12","4503","1","17","Female","approach_avoid_spark_v1","""event"",""trial"",""time""
""fullscreenenter"",""1"",""3713""
","
","
","""event"",""trial"",""time""
""fullscreenenter"",""1"",""3713""
","
","","","","","","null","<div style=""font-size:60px;"">+</div>","null","","fixation","","","","","","","","","","",""
"aa-learning-trial","97","505311","0.0-9.0-2.0-1.12","4503","1","17","Female","approach_avoid_spark_v1","""event"",""trial"",""time""
""fullscreenenter"",""1"",""3713""
","
","
","""event"",""trial"",""time""
""fullscreenenter"",""1"",""3713""
","
","","","","","","1017","images/table4.png","","","learning","-6","0","0","0","table","furniture","1","0","","bad","[-6]"
"html-keyboard-response","98","505815","0.0-9.0-2.0-0.13","4503","1","17","Female","approach_avoid_spark_v1","""event"",""trial"",""time""
""fullscreenenter"",""1"",""3713""
","
","
","""event"",""trial"",""time""
""fullscreenenter"",""1"",""3713""
","
","","","","","","null","<div style=""font-size:60px;"">+</div>","null","","fixation","","","","","","","","","","",""
"aa-learning-trial","99","508818","0.0-9.0-2.0-1.13","4503","1","17","Female","approach_avoid_spark_v1","""event"",""trial"",""time""
""fullscreenenter"",""1"",""3713""
","
","
","""event"",""trial"",""time""
""fullscreenenter"",""1"",""3713""
","
","","","","","","844.1999999955297","images/bed2.png","","","learning","6","6","1","1","bed","furniture","1","0","","good","[5]"
"html-keyboard-response","100","509320","0.0-9.0-2.0-0.14","4503","1","17","Female","approach_avoid_spark_v1","""event"",""trial"",""time""
""fullscreenenter"",""1"",""3713""
","
","
","""event"",""trial"",""time""
""fullscreenenter"",""1"",""3713""
","
","","","","","","null","<div style=""font-size:60px;"">+</div>","null","","fixation","","","","","","","","","","",""
"aa-learning-trial","101","512323","0.0-9.0-2.0-1.14","4503","1","17","Female","approach_avoid_spark_v1","""event"",""trial"",""time""
""fullscreenenter"",""1"",""3713""
","
","
","""event"",""trial"",""time""
""fullscreenenter"",""1"",""3713""
","
","","","","","","1319.2999999970198","images/bed7.png","","","learning","6","0","0","0","bed","furniture","1","0","","good","[5]"
"html-keyboard-response","102","512827","0.0-9.0-2.0-0.15","4503","1","17","Female","approach_avoid_spark_v1","""event"",""trial"",""time""
""fullscreenenter"",""1"",""3713""
","
","
","""event"",""trial"",""time""
""fullscreenenter"",""1"",""3713""
","
","","","","","","null","<div style=""font-size:60px;"">+</div>","null","","fixation","","","","","","","","","","",""
"aa-learning-trial","103","515831","0.0-9.0-2.0-1.15","4503","1","17","Female","approach_avoid_spark_v1","""event"",""trial"",""time""
""fullscreenenter"",""1"",""3713""
","
","
","""event"",""trial"",""time""
""fullscreenenter"",""1"",""3713""
","
","","","","","","828","images/table6.png","","","learning","-7","0","0","0","table","furniture","1","0","","bad","[-6]"
"html-keyboard-response","104","516332","0.0-9.0-2.0-0.16","4503","1","17","Female","approach_avoid_spark_v1","""event"",""trial"",""time""
""fullscreenenter"",""1"",""3713""
","
","
","""event"",""trial"",""time""
""fullscreenenter"",""1"",""3713""
","
","","","","","","null","<div style=""font-size:60px;"">+</div>","null","","fixation","","","","","","","","","","",""
"aa-learning-trial","105","519335","0.0-9.0-2.0-1.16","4503","1","17","Female","approach_avoid_spark_v1","""event"",""trial"",""time""
""fullscreenenter"",""1"",""3713""
","
","
","""event"",""trial"",""time""
""fullscreenenter"",""1"",""3713""
","
","","","","","","855.1000000014901","images/chair5.png","","","learning","-2","-2","1","1","chair","furniture","1","0","","neutral","0"
"html-keyboard-response","106","519839","0.0-9.0-2.0-0.17","4503","1","17","Female","approach_avoid_spark_v1","""event"",""trial"",""time""
""fullscreenenter"",""1"",""3713""
","
","
","""event"",""trial"",""time""
""fullscreenenter"",""1"",""3713""
","
","","","","","","null","<div style=""font-size:60px;"">+</div>","null","","fixation","","","","","","","","","","",""
"aa-learning-trial","107","522844","0.0-9.0-2.0-1.17","4503","1","17","Female","approach_avoid_spark_v1","""event"",""trial"",""time""
""fullscreenenter"",""1"",""3713""
","
","
","""event"",""trial"",""time""
""fullscreenenter"",""1"",""3713""
","
","","","","","","699.8000000044703","images/chair7.png","","","learning","-2","-2","1","1","chair","furniture","1","0","","neutral","0"
"html-keyboard-response","108","523348","0.0-9.0-2.0-0.18","4503","1","17","Female","approach_avoid_spark_v1","""event"",""trial"",""time""
""fullscreenenter"",""1"",""3713""
","
","
","""event"",""trial"",""time""
""fullscreenenter"",""1"",""3713""
","
","","","","","","null","<div style=""font-size:60px;"">+</div>","null","","fixation","","","","","","","","","","",""
"aa-learning-trial","109","526351","0.0-9.0-2.0-1.18","4503","1","17","Female","approach_avoid_spark_v1","""event"",""trial"",""time""
""fullscreenenter"",""1"",""3713""
","
","
","""event"",""trial"",""time""
""fullscreenenter"",""1"",""3713""
","
","","","","","","1231.5","images/table4.png","","","learning","-5","0","0","0","table","furniture","1","0","","bad","[-6]"
"html-keyboard-response","110","526855","0.0-9.0-2.0-0.19","4503","1","17","Female","approach_avoid_spark_v1","""event"",""trial"",""time""
""fullscreenenter"",""1"",""3713""
","
","
","""event"",""trial"",""time""
""fullscreenenter"",""1"",""3713""
","
","","","","","","null","<div style=""font-size:60px;"">+</div>","null","","fixation","","","","","","","","","","",""
"aa-learning-trial","111","529860","0.0-9.0-2.0-1.19","4503","1","17","Female","approach_avoid_spark_v1","""event"",""trial"",""time""
""fullscreenenter"",""1"",""3713""
","
","
","""event"",""trial"",""time""
""fullscreenenter"",""1"",""3713""
","
","","","","","","769.7000000029802","images/bed4.png","","","learning","4","4","1","1","bed","furniture","1","0","","good","[5]"
"html-keyboard-response","112","530363","0.0-9.0-2.0-0.20","4503","1","17","Female","approach_avoid_spark_v1","""event"",""trial"",""time""
""fullscreenenter"",""1"",""3713""
","
","
","""event"",""trial"",""time""
""fullscreenenter"",""1"",""3713""
","
","","","","","","null","<div style=""font-size:60px;"">+</div>","null","","fixation","","","","","","","","","","",""
"aa-learning-trial","113","533367","0.0-9.0-2.0-1.20","4503","1","17","Female","approach_avoid_spark_v1","""event"",""trial"",""time""
""fullscreenenter"",""1"",""3713""
","
","
","""event"",""trial"",""time""
""fullscreenenter"",""1"",""3713""
","
","","","","","","677.8000000044703","images/chair2.png","","","learning","-1","0","0","0","chair","furniture","1","0","","neutral","0"
"html-keyboard-response","114","533871","0.0-9.0-2.0-0.21","4503","1","17","Female","approach_avoid_spark_v1","""event"",""trial"",""time""
""fullscreenenter"",""1"",""3713""
","
","
","""event"",""trial"",""time""
""fullscreenenter"",""1"",""3713""
","
","","","","","","null","<div style=""font-size:60px;"">+</div>","null","","fixation","","","","","","","","","","",""
"aa-learning-trial","115","536876","0.0-9.0-2.0-1.21","4503","1","17","Female","approach_avoid_spark_v1","""event"",""trial"",""time""
""fullscreenenter"",""1"",""3713""
","
","
","""event"",""trial"",""time""
""fullscreenenter"",""1"",""3713""
","
","","","","","","1516.7000000029802","images/bed1.png","","","learning","4","4","1","1","bed","furniture","1","0","","good","[5]"
"html-keyboard-response","116","537380","0.0-9.0-2.0-0.22","4503","1","17","Female","approach_avoid_spark_v1","""event"",""trial"",""time""
""fullscreenenter"",""1"",""3713""
","
","
","""event"",""trial"",""time""
""fullscreenenter"",""1"",""3713""
","
","","","","","","null","<div style=""font-size:60px;"">+</div>","null","","fixation","","","","","","","","","","",""
"aa-learning-trial","117","540383","0.0-9.0-2.0-1.22","4503","1","17","Female","approach_avoid_spark_v1","""event"",""trial"",""time""
""fullscreenenter"",""1"",""3713""
","
","
","""event"",""trial"",""time""
""fullscreenenter"",""1"",""3713""
","
","","","","","","1186.8000000044703","images/table4.png","","","learning","-8","0","0","0","table","furniture","1","0","","bad","[-6]"
"html-keyboard-response","118","540886","0.0-9.0-2.0-0.23","4503","1","17","Female","approach_avoid_spark_v1","""event"",""trial"",""time""
""fullscreenenter"",""1"",""3713""
","
","
","""event"",""trial"",""time""
""fullscreenenter"",""1"",""3713""
","
","","","","","","null","<div style=""font-size:60px;"">+</div>","null","","fixation","","","","","","","","","","",""
"aa-learning-trial","119","543891","0.0-9.0-2.0-1.23","4503","1","17","Female","approach_avoid_spark_v1","""event"",""trial"",""time""
""fullscreenenter"",""1"",""3713""
","
","
","""event"",""trial"",""time""
""fullscreenenter"",""1"",""3713""
","
","","","","","","748.7000000029802","images/table6.png","","","learning","-6","0","0","0","table","furniture","1","0","","bad","[-6]"
"html-keyboard-response","120","544395","0.0-9.0-2.0-0.24","4503","1","17","Female","approach_avoid_spark_v1","""event"",""trial"",""time""
""fullscreenenter"",""1"",""3713""
","
","
","""event"",""trial"",""time""
""fullscreenenter"",""1"",""3713""
","
","","","","","","null","<div style=""font-size:60px;"">+</div>","null","","fixation","","","","","","","","","","",""
"aa-learning-trial","121","547400","0.0-9.0-2.0-1.24","4503","1","17","Female","approach_avoid_spark_v1","""event"",""trial"",""time""
""fullscreenenter"",""1"",""3713""
","
","
","""event"",""trial"",""time""
""fullscreenenter"",""1"",""3713""
","
","","","","","","1728.1000000014901","images/table1.png","","","learning","-9","0","0","0","table","furniture","1","0","","bad","[-6]"
"html-keyboard-response","122","547903","0.0-9.0-2.0-0.25","4503","1","17","Female","approach_avoid_spark_v1","""event"",""trial"",""time""
""fullscreenenter"",""1"",""3713""
","
","
","""event"",""trial"",""time""
""fullscreenenter"",""1"",""3713""
","
","","","","","","null","<div style=""font-size:60px;"">+</div>","null","","fixation","","","","","","","","","","",""
"aa-learning-trial","123","550907","0.0-9.0-2.0-1.25","4503","1","17","Female","approach_avoid_spark_v1","""event"",""trial"",""time""
""fullscreenenter"",""1"",""3713""
","
","
","""event"",""trial"",""time""
""fullscreenenter"",""1"",""3713""
","
","","","","","","622.4000000059605","images/bed2.png","","","learning","7","7","1","1","bed","furniture","1","0","","good","[5]"
"html-keyboard-response","124","551412","0.0-9.0-2.0-0.26","4503","1","17","Female","approach_avoid_spark_v1","""event"",""trial"",""time""
""fullscreenenter"",""1"",""3713""
","
","
","""event"",""trial"",""time""
""fullscreenenter"",""1"",""3713""
","
","","","","","","null","<div style=""font-size:60px;"">+</div>","null","","fixation","","","","","","","","","","",""
"aa-learning-trial","125","554414","0.0-9.0-2.0-1.26","4503","1","17","Female","approach_avoid_spark_v1","""event"",""trial"",""time""
""fullscreenenter"",""1"",""3713""
","
","
","""event"",""trial"",""time""
""fullscreenenter"",""1"",""3713""
","
","","","","","","674.4000000059605","images/bed2.png","","","learning","9","9","1","1","bed","furniture","1","0","","good","[5]"
"html-keyboard-response","126","554919","0.0-9.0-2.0-0.27","4503","1","17","Female","approach_avoid_spark_v1","""event"",""trial"",""time""
""fullscreenenter"",""1"",""3713""
","
","
","""event"",""trial"",""time""
""fullscreenenter"",""1"",""3713""
","
","","","","","","null","<div style=""font-size:60px;"">+</div>","null","","fixation","","","","","","","","","","",""
"aa-learning-trial","127","557920","0.0-9.0-2.0-1.27","4503","1","17","Female","approach_avoid_spark_v1","""event"",""trial"",""time""
""fullscreenenter"",""1"",""3713""
","
","
","""event"",""trial"",""time""
""fullscreenenter"",""1"",""3713""
","
","","","","","","730.2000000029802","images/table5.png","","","learning","-7","0","0","0","table","furniture","1","0","","bad","[-6]"
"html-keyboard-response","128","558424","0.0-9.0-2.0-0.28","4503","1","17","Female","approach_avoid_spark_v1","""event"",""trial"",""time""
""fullscreenenter"",""1"",""3713""
","
","
","""event"",""trial"",""time""
""fullscreenenter"",""1"",""3713""
","
","","","","","","null","<div style=""font-size:60px;"">+</div>","null","","fixation","","","","","","","","","","",""
"aa-learning-trial","129","561428","0.0-9.0-2.0-1.28","4503","1","17","Female","approach_avoid_spark_v1","""event"",""trial"",""time""
""fullscreenenter"",""1"",""3713""
","
","
","""event"",""trial"",""time""
""fullscreenenter"",""1"",""3713""
","
","","","","","","858","images/bed7.png","","","learning","2","2","1","1","bed","furniture","1","0","","good","[5]"
"html-keyboard-response","130","561932","0.0-9.0-2.0-0.29","4503","1","17","Female","approach_avoid_spark_v1","""event"",""trial"",""time""
""fullscreenenter"",""1"",""3713""
","
","
","""event"",""trial"",""time""
""fullscreenenter"",""1"",""3713""
","
","","","","","","null","<div style=""font-size:60px;"">+</div>","null","","fixation","","","","","","","","","","",""
"aa-learning-trial","131","564936","0.0-9.0-2.0-1.29","4503","1","17","Female","approach_avoid_spark_v1","""event"",""trial"",""time""
""fullscreenenter"",""1"",""3713""
","
","
","""event"",""trial"",""time""
""fullscreenenter"",""1"",""3713""
","
","","","","","","603.1000000014901","images/table5.png","","","learning","-7","0","0","0","table","furniture","1","0","","bad","[-6]"
"html-keyboard-response","132","565440","0.0-9.0-2.0-0.30","4503","1","17","Female","approach_avoid_spark_v1","""event"",""trial"",""time""
""fullscreenenter"",""1"",""3713""
","
","
","""event"",""trial"",""time""
""fullscreenenter"",""1"",""3713""
","
","","","","","","null","<div style=""font-size:60px;"">+</div>","null","","fixation","","","","","","","","","","",""
"aa-learning-trial","133","568444","0.0-9.0-2.0-1.30","4503","1","17","Female","approach_avoid_spark_v1","""event"",""trial"",""time""
""fullscreenenter"",""1"",""3713""
","
","
","""event"",""trial"",""time""
""fullscreenenter"",""1"",""3713""
","
","","","","","","1127.4000000059605","images/chair6.png","","","learning","[1]","1","1","1","chair","furniture","1","0","","neutral","0"
"html-keyboard-response","134","568947","0.0-9.0-2.0-0.31","4503","1","17","Female","approach_avoid_spark_v1","""event"",""trial"",""time""
""fullscreenenter"",""1"",""3713""
","
","
","""event"",""trial"",""time""
""fullscreenenter"",""1"",""3713""
","
","","","","","","null","<div style=""font-size:60px;"">+</div>","null","","fixation","","","","","","","","","","",""
"aa-learning-trial","135","571952","0.0-9.0-2.0-1.31","4503","1","17","Female","approach_avoid_spark_v1","""event"",""trial"",""time""
""fullscreenenter"",""1"",""3713""
","
","
","""event"",""trial"",""time""
""fullscreenenter"",""1"",""3713""
","
","","","","","","704.3999999985099","images/chair2.png","","","learning","[1]","0","0","0","chair","furniture","1","0","","neutral","0"
"html-keyboard-response","136","572455","0.0-9.0-2.0-0.32","4503","1","17","Female","approach_avoid_spark_v1","""event"",""trial"",""time""
""fullscreenenter"",""1"",""3713""
","
","
","""event"",""trial"",""time""
""fullscreenenter"",""1"",""3713""
","
","","","","","","null","<div style=""font-size:60px;"">+</div>","null","","fixation","","","","","","","","","","",""
"aa-learning-trial","137","575460","0.0-9.0-2.0-1.32","4503","1","17","Female","approach_avoid_spark_v1","""event"",""trial"",""time""
""fullscreenenter"",""1"",""3713""
","
","
","""event"",""trial"",""time""
""fullscreenenter"",""1"",""3713""
","
","","","","","","1667.6000000014901","images/chair7.png","","","learning","1","0","0","0","chair","furniture","1","0","","neutral","0"
"html-keyboard-response","138","575964","0.0-9.0-2.0-0.33","4503","1","17","Female","approach_avoid_spark_v1","""event"",""trial"",""time""
""fullscreenenter"",""1"",""3713""
","
","
","""event"",""trial"",""time""
""fullscreenenter"",""1"",""3713""
","
","","","","","","null","<div style=""font-size:60px;"">+</div>","null","","fixation","","","","","","","","","","",""
"aa-learning-trial","139","578967","0.0-9.0-2.0-1.33","4503","1","17","Female","approach_avoid_spark_v1","""event"",""trial"",""time""
""fullscreenenter"",""1"",""3713""
","
","
","""event"",""trial"",""time""
""fullscreenenter"",""1"",""3713""
","
","","","","","","649.1000000014901","images/table6.png","","","learning","-6","0","0","0","table","furniture","1","0","","bad","[-6]"
"html-keyboard-response","140","579471","0.0-9.0-2.0-0.34","4503","1","17","Female","approach_avoid_spark_v1","""event"",""trial"",""time""
""fullscreenenter"",""1"",""3713""
","
","
","""event"",""trial"",""time""
""fullscreenenter"",""1"",""3713""
","
","","","","","","null","<div style=""font-size:60px;"">+</div>","null","","fixation","","","","","","","","","","",""
"aa-learning-trial","141","582475","0.0-9.0-2.0-1.34","4503","1","17","Female","approach_avoid_spark_v1","""event"",""trial"",""time""
""fullscreenenter"",""1"",""3713""
","
","
","""event"",""trial"",""time""
""fullscreenenter"",""1"",""3713""
","
","","","","","","936.6000000014901","images/bed3.png","","","learning","7","7","1","1","bed","furniture","1","0","","good","[5]"
"html-keyboard-response","142","582980","0.0-9.0-2.0-0.35","4503","1","17","Female","approach_avoid_spark_v1","""event"",""trial"",""time""
""fullscreenenter"",""1"",""3713""
","
","
","""event"",""trial"",""time""
""fullscreenenter"",""1"",""3713""
","
","","","","","","null","<div style=""font-size:60px;"">+</div>","null","","fixation","","","","","","","","","","",""
"aa-learning-trial","143","585984","0.0-9.0-2.0-1.35","4503","1","17","Female","approach_avoid_spark_v1","""event"",""trial"",""time""
""fullscreenenter"",""1"",""3713""
","
","
","""event"",""trial"",""time""
""fullscreenenter"",""1"",""3713""
","
","","","","","","1228.8000000044703","images/bed1.png","","","learning","7","7","1","1","bed","furniture","1","0","","good","[5]"
"html-keyboard-response","144","586488","0.0-9.0-2.0-0.36","4503","1","17","Female","approach_avoid_spark_v1","""event"",""trial"",""time""
""fullscreenenter"",""1"",""3713""
","
","
","""event"",""trial"",""time""
""fullscreenenter"",""1"",""3713""
","
","","","","","","null","<div style=""font-size:60px;"">+</div>","null","","fixation","","","","","","","","","","",""
"aa-learning-trial","145","589492","0.0-9.0-2.0-1.36","4503","1","17","Female","approach_avoid_spark_v1","""event"",""trial"",""time""
""fullscreenenter"",""1"",""3713""
","
","
","""event"",""trial"",""time""
""fullscreenenter"",""1"",""3713""
","
","","","","","","649.2000000029802","images/bed7.png","","","learning","4","4","1","1","bed","furniture","1","0","","good","[5]"
"html-keyboard-response","146","589995","0.0-9.0-2.0-0.37","4503","1","17","Female","approach_avoid_spark_v1","""event"",""trial"",""time""
""fullscreenenter"",""1"",""3713""
","
","
","""event"",""trial"",""time""
""fullscreenenter"",""1"",""3713""
","
","","","","","","null","<div style=""font-size:60px;"">+</div>","null","","fixation","","","","","","","","","","",""
"aa-learning-trial","147","593000","0.0-9.0-2.0-1.37","4503","1","17","Female","approach_avoid_spark_v1","""event"",""trial"",""time""
""fullscreenenter"",""1"",""3713""
","
","
","""event"",""trial"",""time""
""fullscreenenter"",""1"",""3713""
","
","","","","","","504.29999999701977","images/bed7.png","","","learning","6","6","1","1","bed","furniture","1","0","","good","[5]"
"html-keyboard-response","148","593504","0.0-9.0-2.0-0.38","4503","1","17","Female","approach_avoid_spark_v1","""event"",""trial"",""time""
""fullscreenenter"",""1"",""3713""
","
","
","""event"",""trial"",""time""
""fullscreenenter"",""1"",""3713""
","
","","","","","","null","<div style=""font-size:60px;"">+</div>","null","","fixation","","","","","","","","","","",""
"aa-learning-trial","149","596507","0.0-9.0-2.0-1.38","4503","1","17","Female","approach_avoid_spark_v1","""event"",""trial"",""time""
""fullscreenenter"",""1"",""3713""
","
","
","""event"",""trial"",""time""
""fullscreenenter"",""1"",""3713""
","
","","","","","","983.7999999970198","images/chair1.png","","","learning","[1]","0","0","0","chair","furniture","1","0","","neutral","0"
"html-keyboard-response","150","597011","0.0-9.0-2.0-0.39","4503","1","17","Female","approach_avoid_spark_v1","""event"",""trial"",""time""
""fullscreenenter"",""1"",""3713""
","
","
","""event"",""trial"",""time""
""fullscreenenter"",""1"",""3713""
","
","","","","","","null","<div style=""font-size:60px;"">+</div>","null","","fixation","","","","","","","","","","",""
"aa-learning-trial","151","600013","0.0-9.0-2.0-1.39","4503","1","17","Female","approach_avoid_spark_v1","""event"",""trial"",""time""
""fullscreenenter"",""1"",""3713""
","
","
","""event"",""trial"",""time""
""fullscreenenter"",""1"",""3713""
","
","","","","","","880.2000000029802","images/chair7.png","","","learning","[1]","1","1","1","chair","furniture","1","0","","neutral","0"
"html-keyboard-response","152","600516","0.0-9.0-2.0-0.40","4503","1","17","Female","approach_avoid_spark_v1","""event"",""trial"",""time""
""fullscreenenter"",""1"",""3713""
","
","
","""event"",""trial"",""time""
""fullscreenenter"",""1"",""3713""
","
","","","","","","null","<div style=""font-size:60px;"">+</div>","null","","fixation","","","","","","","","","","",""
"aa-learning-trial","153","603520","0.0-9.0-2.0-1.40","4503","1","17","Female","approach_avoid_spark_v1","""event"",""trial"",""time""
""fullscreenenter"",""1"",""3713""
","
","
","""event"",""trial"",""time""
""fullscreenenter"",""1"",""3713""
","
","","","","","","479.80000000447035","images/chair2.png","","","learning","-1","-1","1","1","chair","furniture","1","0","","neutral","0"
"html-keyboard-response","154","604023","0.0-9.0-2.0-0.41","4503","1","17","Female","approach_avoid_spark_v1","""event"",""trial"",""time""
""fullscreenenter"",""1"",""3713""
","
","
","""event"",""trial"",""time""
""fullscreenenter"",""1"",""3713""
","
","","","","","","null","<div style=""font-size:60px;"">+</div>","null","","fixation","","","","","","","","","","",""
"aa-learning-trial","155","607027","0.0-9.0-2.0-1.41","4503","1","17","Female","approach_avoid_spark_v1","""event"",""trial"",""time""
""fullscreenenter"",""1"",""3713""
","
","
","""event"",""trial"",""time""
""fullscreenenter"",""1"",""3713""
","
","","","","","","658.2000000029802","images/bed1.png","","","learning","4","4","1","1","bed","furniture","1","0","","good","[5]"
"html-keyboard-response","156","607531","0.0-9.0-2.0-0.42","4503","1","17","Female","approach_avoid_spark_v1","""event"",""trial"",""time""
""fullscreenenter"",""1"",""3713""
","
","
","""event"",""trial"",""time""
""fullscreenenter"",""1"",""3713""
","
","","","","","","null","<div style=""font-size:60px;"">+</div>","null","","fixation","","","","","","","","","","",""
"aa-learning-trial","157","610535","0.0-9.0-2.0-1.42","4503","1","17","Female","approach_avoid_spark_v1","""event"",""trial"",""time""
""fullscreenenter"",""1"",""3713""
","
","
","""event"",""trial"",""time""
""fullscreenenter"",""1"",""3713""
","
","","","","","","826.3999999985099","images/chair1.png","","","learning","[-1]","0","0","0","chair","furniture","1","0","","neutral","0"
"html-keyboard-response","158","611040","0.0-9.0-2.0-0.43","4503","1","17","Female","approach_avoid_spark_v1","""event"",""trial"",""time""
""fullscreenenter"",""1"",""3713""
","
","
","""event"",""trial"",""time""
""fullscreenenter"",""1"",""3713""
","
","","","","","","null","<div style=""font-size:60px;"">+</div>","null","","fixation","","","","","","","","","","",""
"aa-learning-trial","159","614044","0.0-9.0-2.0-1.43","4503","1","17","Female","approach_avoid_spark_v1","""event"",""trial"",""time""
""fullscreenenter"",""1"",""3713""
","
","
","""event"",""trial"",""time""
""fullscreenenter"",""1"",""3713""
","
","","","","","","710.7999999970198","images/table6.png","","","learning","-6","0","0","0","table","furniture","1","0","","bad","[-6]"
"html-keyboard-response","160","614547","0.0-9.0-2.0-0.44","4503","1","17","Female","approach_avoid_spark_v1","""event"",""trial"",""time""
""fullscreenenter"",""1"",""3713""
","
","
","""event"",""trial"",""time""
""fullscreenenter"",""1"",""3713""
","
","","","","","","null","<div style=""font-size:60px;"">+</div>","null","","fixation","","","","","","","","","","",""
"aa-learning-trial","161","617549","0.0-9.0-2.0-1.44","4503","1","17","Female","approach_avoid_spark_v1","""event"",""trial"",""time""
""fullscreenenter"",""1"",""3713""
","
","
","""event"",""trial"",""time""
""fullscreenenter"",""1"",""3713""
","
","","","","","","1272.1000000014901","images/table3.png","","","learning","-6","0","0","0","table","furniture","1","0","","bad","[-6]"
"html-keyboard-response","162","618052","0.0-9.0-2.0-0.45","4503","1","17","Female","approach_avoid_spark_v1","""event"",""trial"",""time""
""fullscreenenter"",""1"",""3713""
","
","
","""event"",""trial"",""time""
""fullscreenenter"",""1"",""3713""
","
","","","","","","null","<div style=""font-size:60px;"">+</div>","null","","fixation","","","","","","","","","","",""
"aa-learning-trial","163","621055","0.0-9.0-2.0-1.45","4503","1","17","Female","approach_avoid_spark_v1","""event"",""trial"",""time""
""fullscreenenter"",""1"",""3713""
","
","
","""event"",""trial"",""time""
""fullscreenenter"",""1"",""3713""
","
","","","","","","1159.1000000014901","images/chair7.png","","","learning","3","3","1","1","chair","furniture","1","0","","neutral","0"
"html-keyboard-response","164","621560","0.0-9.0-2.0-0.46","4503","1","17","Female","approach_avoid_spark_v1","""event"",""trial"",""time""
""fullscreenenter"",""1"",""3713""
","
","
","""event"",""trial"",""time""
""fullscreenenter"",""1"",""3713""
","
","","","","","","null","<div style=""font-size:60px;"">+</div>","null","","fixation","","","","","","","","","","",""
"aa-learning-trial","165","624563","0.0-9.0-2.0-1.46","4503","1","17","Female","approach_avoid_spark_v1","""event"",""trial"",""time""
""fullscreenenter"",""1"",""3713""
","
","
","""event"",""trial"",""time""
""fullscreenenter"",""1"",""3713""
","
","","","","","","895.1000000014901","images/chair2.png","","","learning","[-1]","0","0","0","chair","furniture","1","0","","neutral","0"
"html-keyboard-response","166","625068","0.0-9.0-2.0-0.47","4503","1","17","Female","approach_avoid_spark_v1","""event"",""trial"",""time""
""fullscreenenter"",""1"",""3713""
","
","
","""event"",""trial"",""time""
""fullscreenenter"",""1"",""3713""
","
","","","","","","null","<div style=""font-size:60px;"">+</div>","null","","fixation","","","","","","","","","","",""
"aa-learning-trial","167","628071","0.0-9.0-2.0-1.47","4503","1","17","Female","approach_avoid_spark_v1","""event"",""trial"",""time""
""fullscreenenter"",""1"",""3713""
","
","
","""event"",""trial"",""time""
""fullscreenenter"",""1"",""3713""
","
","","","","","","688.8999999985099","images/bed1.png","","","learning","6","6","1","1","bed","furniture","1","0","","good","[5]"
"html-keyboard-response","168","628573","0.0-9.0-2.0-0.48","4503","1","17","Female","approach_avoid_spark_v1","""event"",""trial"",""time""
""fullscreenenter"",""1"",""3713""
","
","
","""event"",""trial"",""time""
""fullscreenenter"",""1"",""3713""
","
","","","","","","null","<div style=""font-size:60px;"">+</div>","null","","fixation","","","","","","","","","","",""
"aa-learning-trial","169","631575","0.0-9.0-2.0-1.48","4503","1","17","Female","approach_avoid_spark_v1","""event"",""trial"",""time""
""fullscreenenter"",""1"",""3713""
","
","
","""event"",""trial"",""time""
""fullscreenenter"",""1"",""3713""
","
","","","","","","698.6000000014901","images/table4.png","","","learning","-7","0","0","0","table","furniture","1","0","","bad","[-6]"
"html-keyboard-response","170","632076","0.0-9.0-2.0-0.49","4503","1","17","Female","approach_avoid_spark_v1","""event"",""trial"",""time""
""fullscreenenter"",""1"",""3713""
","
","
","""event"",""trial"",""time""
""fullscreenenter"",""1"",""3713""
","
","","","","","","null","<div style=""font-size:60px;"">+</div>","null","","fixation","","","","","","","","","","",""
"aa-learning-trial","171","635080","0.0-9.0-2.0-1.49","4503","1","17","Female","approach_avoid_spark_v1","""event"",""trial"",""time""
""fullscreenenter"",""1"",""3713""
","
","
","""event"",""trial"",""time""
""fullscreenenter"",""1"",""3713""
","
","","","","","","745.2999999970198","images/bed7.png","","","learning","4","4","1","1","bed","furniture","1","0","","good","[5]"
"html-keyboard-response","172","635583","0.0-9.0-2.0-0.50","4503","1","17","Female","approach_avoid_spark_v1","""event"",""trial"",""time""
""fullscreenenter"",""1"",""3713""
","
","
","""event"",""trial"",""time""
""fullscreenenter"",""1"",""3713""
","
","","","","","","null","<div style=""font-size:60px;"">+</div>","null","","fixation","","","","","","","","","","",""
"aa-learning-trial","173","638589","0.0-9.0-2.0-1.50","4503","1","17","Female","approach_avoid_spark_v1","""event"",""trial"",""time""
""fullscreenenter"",""1"",""3713""
","
","
","""event"",""trial"",""time""
""fullscreenenter"",""1"",""3713""
","
","","","","","","522","images/table4.png","","","learning","-4","0","0","0","table","furniture","1","0","","bad","[-6]"
"html-button-response","174","641216","0.0-9.0-3.0","4503","1","17","Female","approach_avoid_spark_v1","""event"",""trial"",""time""
""fullscreenenter"",""1"",""3713""
","
","
","""event"",""trial"",""time""
""fullscreenenter"",""1"",""3713""
","
","","","","","","2627.2000000029802","<p> You have completed the round! <p> In this round, you earned 78 points! </p>","0","","break","","","","","","","","","","",""
"html-button-response","175","642265","0.0-10.0","4503","1","17","Female","approach_avoid_spark_v1","""event"",""trial"",""time""
""fullscreenenter"",""1"",""3713""
","
","
","""event"",""trial"",""time""
""fullscreenenter"",""1"",""3713""
","
","","","","","","1047.3000000044703","<p> Now it's time to play another round. </p>","0","","transition_screen","","","","","","","","","","",""
"preload","176","642378","0.0-11.0-0.0","4503","1","17","Female","approach_avoid_spark_v1","""event"",""trial"",""time""
""fullscreenenter"",""1"",""3713""
","
","
","""event"",""trial"",""time""
""fullscreenenter"",""1"",""3713""
","
","true","false","[]","[]","[]","","","","","","","","","","","","","","","",""
"learning-instructions","177","649200","0.0-11.0-1.0-0.0","4503","1","17","Female","approach_avoid_spark_v1","""event"",""trial"",""time""
""fullscreenenter"",""1"",""3713""
","
","
","""event"",""trial"",""time""
""fullscreenenter"",""1"",""3713""
","
","","","","","","2484.7999999970198","<p> Your goal in this round is to take care of lots of farm animals. </p></div>","","0","instructions","","","","","","","","","","",""
"learning-instructions","178","660776","0.0-11.0-1.0-0.1","4503","1","17","Female","approach_avoid_spark_v1","""event"",""trial"",""time""
""fullscreenenter"",""1"",""3713""
","
","
","""event"",""trial"",""time""
""fullscreenenter"",""1"",""3713""
","
","","","","","","1791","<p> Some farm animals are hungry, while other farm animals are already full.  </p><p> On each turn, you will see a farm animal.   </p><p> You need to decide whether to feed it or not.  </p>","","0","instructions","","","","","","","","","","",""
"learning-instructions","179","668480","0.0-11.0-1.0-0.2","4503","1","17","Female","approach_avoid_spark_v1","""event"",""trial"",""time""
""fullscreenenter"",""1"",""3713""
","
","
","""event"",""trial"",""time""
""fullscreenenter"",""1"",""3713""
","
","","","","","","1964.7000000029802","<p> You can feed the farm animal by pressing 1 and leave the farm animal alone by pressing 0. </p><br><div class=""choice-instructions-grid""> <div class=""choice-option""><img src=""images/approach.png"" class=""choice-option-img"" stage=""instructions"" position=""0"" ><div class=""choice-option-text""> Press ""1."" </div></div><div class=""choice-option""><img src=""images/avoid.png"" class=""choice-option-img"" stage=""instructions"" position=""1"" ><div class=""choice-option-text""> Press ""0."" </div></div>","","0","instructions","","","","","","","","","","",""
"learning-instructions","180","678441","0.0-11.0-1.0-0.3","4503","1","17","Female","approach_avoid_spark_v1","""event"",""trial"",""time""
""fullscreenenter"",""1"",""3713""
","
","
","""event"",""trial"",""time""
""fullscreenenter"",""1"",""3713""
","
","","","","","","645.2000000029802","<p> If you feed a hungry farm animal, you will make it feel satisfied! </p><p> But if you feed the farm animal and it was already full, you will make it feel sick. </p>","","0","instructions","","","","","","","","","","",""
"learning-instructions","181","691279","0.0-11.0-1.0-0.4","4503","1","17","Female","approach_avoid_spark_v1","""event"",""trial"",""time""
""fullscreenenter"",""1"",""3713""
","
","
","""event"",""trial"",""time""
""fullscreenenter"",""1"",""3713""
","
","","","","","","765.1000000014901","<p> You will earn points based on how you made the farm animal feel. </p><p> If you made it satisfied, you will WIN anywhere from 1 - 9 points, </p><p> but if you made it sick, you will LOSE anywhere from 1 - 9 points. </p>","","0","instructions","","","","","","","","","","",""
"learning-instructions","182","698608","0.0-11.0-1.0-0.5","4503","1","17","Female","approach_avoid_spark_v1","""event"",""trial"",""time""
""fullscreenenter"",""1"",""3713""
","
","
","""event"",""trial"",""time""
""fullscreenenter"",""1"",""3713""
","
","","","","","","683.1000000014901","<p> You will see how many points you won or lost in the center of the screen. </p><p> Here is what you would see if you won 5 points: </p><p style=""color:green;font-size:50px;font-weight:bolder"">5</p>","","0","instructions","","","","","","","","","","",""
"learning-instructions","183","701799","0.0-11.0-1.0-0.6","4503","1","17","Female","approach_avoid_spark_v1","""event"",""trial"",""time""
""fullscreenenter"",""1"",""3713""
","
","
","""event"",""trial"",""time""
""fullscreenenter"",""1"",""3713""
","
","","","","","","364.8999999985099","<p> And here is what you would see if you lost 3 points: </p><p style=""color:red;font-size:50px;font-weight:bolder"">-3</p>","","0","instructions","","","","","","","","","","",""
"learning-instructions","184","718383","0.0-11.0-1.0-0.7","4503","1","17","Female","approach_avoid_spark_v1","""event"",""trial"",""time""
""fullscreenenter"",""1"",""3713""
","
","
","""event"",""trial"",""time""
""fullscreenenter"",""1"",""3713""
","
","","","","","","1469","<p> Some farm animals will become very satisfied or very sick. </p><p> These farm animals will make you win or lose LOTS of points. </p><p> Other farm animals have less strong feelings. </p><p> These farm animals will make you win or lose small amounts of points. </p>","","0","instructions","","","","","","","","","","",""
"learning-instructions","185","730767","0.0-11.0-1.0-0.8","4503","1","17","Female","approach_avoid_spark_v1","""event"",""trial"",""time""
""fullscreenenter"",""1"",""3713""
","
","
","""event"",""trial"",""time""
""fullscreenenter"",""1"",""3713""
","
","","","","","","552.8999999985099","<p> If you choose to leave the farm animal alone, you will not win or lose any points. </p><p>  However, in the center of the screen, you will see the number of points you WOULD HAVE won or lost if you had fed the farm animal. </p>","","0","instructions","","","","","","","","","","",""
"learning-instructions","186","745224","0.0-11.0-1.0-0.9","4503","1","17","Female","approach_avoid_spark_v1","""event"",""trial"",""time""
""fullscreenenter"",""1"",""3713""
","
","
","""event"",""trial"",""time""
""fullscreenenter"",""1"",""3713""
","
","","","","","","3339","<p> Here is what you might see if you did not feed the farm animal but the animal was hungry: </p><p style=""color:grey; font-size:50px; display: inline-block; border-spacing: 15px; border-width:3px; border-style:solid; border-color:red"">  &nbsp; 6 &nbsp; </p><p> Remember, in this case, you would not win or lose ANY points because you did not feed the farm animal.  </p>","","0","instructions","","","","","","","","","","",""
"learning-instructions","187","765568","0.0-11.0-1.0-0.10","4503","1","17","Female","approach_avoid_spark_v1","""event"",""trial"",""time""
""fullscreenenter"",""1"",""3713""
","
","
","""event"",""trial"",""time""
""fullscreenenter"",""1"",""3713""
","
","","","","","","12822.69999999553","<p> Try to make the best choice for each farm animal because </p><p> at the end of the game, you will earn bonus money based on how many points you earned. </p>","","0","instructions","","","","","","","","","","",""
"learning-instructions","188","800608","0.0-11.0-1.0-0.11","4503","1","17","Female","approach_avoid_spark_v1","""event"",""trial"",""time""
""fullscreenenter"",""1"",""3713""
","
","
","""event"",""trial"",""time""
""fullscreenenter"",""1"",""3713""
","
","","","","","","26853.10000000149","<p> You will have 3 seconds to make each choice. Try to respond before time runs out! </p><p> You will lose 5 points each time you do not make a response. </p>","","0","instructions","","","","","","","","","","",""
"html-keyboard-response","189","801215","0.0-11.0-2.0-0.0","4503","1","17","Female","approach_avoid_spark_v1","""event"",""trial"",""time""
""fullscreenenter"",""1"",""3713""
","
","
","""event"",""trial"",""time""
""fullscreenenter"",""1"",""3713""
","
","","","","","","null","<div style=""font-size:60px;"">+</div>","null","","fixation","","","","","","","","","","",""
"aa-learning-trial","190","804220","0.0-11.0-2.0-1.0","4503","1","17","Female","approach_avoid_spark_v1","""event"",""trial"",""time""
""fullscreenenter"",""1"",""3713""
","
","
","""event"",""trial"",""time""
""fullscreenenter"",""1"",""3713""
","
","","","","","","2015.6000000014901","images/sheep3.png","","","learning","-3","0","0","0","sheep","animals","2","1","","bad","[-5]"
"html-keyboard-response","191","804723","0.0-11.0-2.0-0.1","4503","1","17","Female","approach_avoid_spark_v1","""event"",""trial"",""time""
""fullscreenenter"",""1"",""3713""
","
","
","""event"",""trial"",""time""
""fullscreenenter"",""1"",""3713""
","
","","","","","","null","<div style=""font-size:60px;"">+</div>","null","","fixation","","","","","","","","","","",""
"aa-learning-trial","192","807727","0.0-11.0-2.0-1.1","4503","1","17","Female","approach_avoid_spark_v1","""event"",""trial"",""time""
""fullscreenenter"",""1"",""3713""
","
","
","""event"",""trial"",""time""
""fullscreenenter"",""1"",""3713""
","
","","","","","","1043.6000000014901","images/cow6.png","","","learning","-5","0","0","0","cow","animals","2","1","","neutral","0"
"html-keyboard-response","193","808228","0.0-11.0-2.0-0.2","4503","1","17","Female","approach_avoid_spark_v1","""event"",""trial"",""time""
""fullscreenenter"",""1"",""3713""
","
","
","""event"",""trial"",""time""
""fullscreenenter"",""1"",""3713""
","
","","","","","","null","<div style=""font-size:60px;"">+</div>","null","","fixation","","","","","","","","","","",""
"aa-learning-trial","194","811231","0.0-11.0-2.0-1.2","4503","1","17","Female","approach_avoid_spark_v1","""event"",""trial"",""time""
""fullscreenenter"",""1"",""3713""
","
","
","""event"",""trial"",""time""
""fullscreenenter"",""1"",""3713""
","
","","","","","","990.2999999970198","images/sheep1.png","","","learning","4","4","1","1","sheep","animals","2","1","","bad","[-5]"
"html-keyboard-response","195","811732","0.0-11.0-2.0-0.3","4503","1","17","Female","approach_avoid_spark_v1","""event"",""trial"",""time""
""fullscreenenter"",""1"",""3713""
","
","
","""event"",""trial"",""time""
""fullscreenenter"",""1"",""3713""
","
","","","","","","null","<div style=""font-size:60px;"">+</div>","null","","fixation","","","","","","","","","","",""
"aa-learning-trial","196","814735","0.0-11.0-2.0-1.3","4503","1","17","Female","approach_avoid_spark_v1","""event"",""trial"",""time""
""fullscreenenter"",""1"",""3713""
","
","
","""event"",""trial"",""time""
""fullscreenenter"",""1"",""3713""
","
","","","","","","922.8999999985099","images/goat3.png","","","learning","-4","-4","1","1","goat","animals","2","1","","good","[5]"
"html-keyboard-response","197","815239","0.0-11.0-2.0-0.4","4503","1","17","Female","approach_avoid_spark_v1","""event"",""trial"",""time""
""fullscreenenter"",""1"",""3713""
","
","
","""event"",""trial"",""time""
""fullscreenenter"",""1"",""3713""
","
","","","","","","null","<div style=""font-size:60px;"">+</div>","null","","fixation","","","","","","","","","","",""
"aa-learning-trial","198","818245","0.0-11.0-2.0-1.4","4503","1","17","Female","approach_avoid_spark_v1","""event"",""trial"",""time""
""fullscreenenter"",""1"",""3713""
","
","
","""event"",""trial"",""time""
""fullscreenenter"",""1"",""3713""
","
","","","","","","1053.6000000014901","images/goat4.png","","","learning","9","9","1","1","goat","animals","2","1","","good","[5]"
"html-keyboard-response","199","818747","0.0-11.0-2.0-0.5","4503","1","17","Female","approach_avoid_spark_v1","""event"",""trial"",""time""
""fullscreenenter"",""1"",""3713""
","
","
","""event"",""trial"",""time""
""fullscreenenter"",""1"",""3713""
","
","","","","","","null","<div style=""font-size:60px;"">+</div>","null","","fixation","","","","","","","","","","",""
"aa-learning-trial","200","821751","0.0-11.0-2.0-1.5","4503","1","17","Female","approach_avoid_spark_v1","""event"",""trial"",""time""
""fullscreenenter"",""1"",""3713""
","
","
","""event"",""trial"",""time""
""fullscreenenter"",""1"",""3713""
","
","","","","","","876","images/goat2.png","","","learning","2","0","0","0","goat","animals","2","1","","good","[5]"
"html-keyboard-response","201","822255","0.0-11.0-2.0-0.6","4503","1","17","Female","approach_avoid_spark_v1","""event"",""trial"",""time""
""fullscreenenter"",""1"",""3713""
","
","
","""event"",""trial"",""time""
""fullscreenenter"",""1"",""3713""
","
","","","","","","null","<div style=""font-size:60px;"">+</div>","null","","fixation","","","","","","","","","","",""
"aa-learning-trial","202","825259","0.0-11.0-2.0-1.6","4503","1","17","Female","approach_avoid_spark_v1","""event"",""trial"",""time""
""fullscreenenter"",""1"",""3713""
","
","
","""event"",""trial"",""time""
""fullscreenenter"",""1"",""3713""
","
","","","","","","785.6000000014901","images/goat3.png","","","learning","-4","0","0","0","goat","animals","2","1","","good","[5]"
"html-keyboard-response","203","825760","0.0-11.0-2.0-0.7","4503","1","17","Female","approach_avoid_spark_v1","""event"",""trial"",""time""
""fullscreenenter"",""1"",""3713""
","
","
","""event"",""trial"",""time""
""fullscreenenter"",""1"",""3713""
","
","","","","","","null","<div style=""font-size:60px;"">+</div>","null","","fixation","","","","","","","","","","",""
"aa-learning-trial","204","828763","0.0-11.0-2.0-1.7","4503","1","17","Female","approach_avoid_spark_v1","""event"",""trial"",""time""
""fullscreenenter"",""1"",""3713""
","
","
","""event"",""trial"",""time""
""fullscreenenter"",""1"",""3713""
","
","","","","","","842.3000000044703","images/cow8.png","","","learning","-9","0","0","0","cow","animals","2","1","","neutral","0"
"html-keyboard-response","205","829267","0.0-11.0-2.0-0.8","4503","1","17","Female","approach_avoid_spark_v1","""event"",""trial"",""time""
""fullscreenenter"",""1"",""3713""
","
","
","""event"",""trial"",""time""
""fullscreenenter"",""1"",""3713""
","
","","","","","","null","<div style=""font-size:60px;"">+</div>","null","","fixation","","","","","","","","","","",""
"aa-learning-trial","206","832268","0.0-11.0-2.0-1.8","4503","1","17","Female","approach_avoid_spark_v1","""event"",""trial"",""time""
""fullscreenenter"",""1"",""3713""
","
","
","""event"",""trial"",""time""
""fullscreenenter"",""1"",""3713""
","
","","","","","","1107.7999999970198","images/sheep6.png","","","learning","-8","0","0","0","sheep","animals","2","1","","bad","[-5]"
"html-keyboard-response","207","832772","0.0-11.0-2.0-0.9","4503","1","17","Female","approach_avoid_spark_v1","""event"",""trial"",""time""
""fullscreenenter"",""1"",""3713""
","
","
","""event"",""trial"",""time""
""fullscreenenter"",""1"",""3713""
","
","","","","","","null","<div style=""font-size:60px;"">+</div>","null","","fixation","","","","","","","","","","",""
"aa-learning-trial","208","835776","0.0-11.0-2.0-1.9","4503","1","17","Female","approach_avoid_spark_v1","""event"",""trial"",""time""
""fullscreenenter"",""1"",""3713""
","
","
","""event"",""trial"",""time""
""fullscreenenter"",""1"",""3713""
","
","","","","","","1033.1000000014901","images/sheep6.png","","","learning","-8","0","0","0","sheep","animals","2","1","","bad","[-5]"
"html-keyboard-response","209","836279","0.0-11.0-2.0-0.10","4503","1","17","Female","approach_avoid_spark_v1","""event"",""trial"",""time""
""fullscreenenter"",""1"",""3713""
","
","
","""event"",""trial"",""time""
""fullscreenenter"",""1"",""3713""
","
","","","","","","null","<div style=""font-size:60px;"">+</div>","null","","fixation","","","","","","","","","","",""
"aa-learning-trial","210","839283","0.0-11.0-2.0-1.10","4503","1","17","Female","approach_avoid_spark_v1","""event"",""trial"",""time""
""fullscreenenter"",""1"",""3713""
","
","
","""event"",""trial"",""time""
""fullscreenenter"",""1"",""3713""
","
","","","","","","1069.2000000029802","images/cow6.png","","","learning","-5","0","0","0","cow","animals","2","1","","neutral","0"
"html-keyboard-response","211","839788","0.0-11.0-2.0-0.11","4503","1","17","Female","approach_avoid_spark_v1","""event"",""trial"",""time""
""fullscreenenter"",""1"",""3713""
","
","
","""event"",""trial"",""time""
""fullscreenenter"",""1"",""3713""
","
","","","","","","null","<div style=""font-size:60px;"">+</div>","null","","fixation","","","","","","","","","","",""
"aa-learning-trial","212","842792","0.0-11.0-2.0-1.11","4503","1","17","Female","approach_avoid_spark_v1","""event"",""trial"",""time""
""fullscreenenter"",""1"",""3713""
","
","
","""event"",""trial"",""time""
""fullscreenenter"",""1"",""3713""
","
","","","","","","944.3999999985099","images/sheep1.png","","","learning","4","0","0","0","sheep","animals","2","1","","bad","[-5]"
"html-keyboard-response","213","843292","0.0-11.0-2.0-0.12","4503","1","17","Female","approach_avoid_spark_v1","""event"",""trial"",""time""
""fullscreenenter"",""1"",""3713""
","
","
","""event"",""trial"",""time""
""fullscreenenter"",""1"",""3713""
","
","","","","","","null","<div style=""font-size:60px;"">+</div>","null","","fixation","","","","","","","","","","",""
"aa-learning-trial","214","846295","0.0-11.0-2.0-1.12","4503","1","17","Female","approach_avoid_spark_v1","""event"",""trial"",""time""
""fullscreenenter"",""1"",""3713""
","
","
","""event"",""trial"",""time""
""fullscreenenter"",""1"",""3713""
","
","","","","","","940.6999999955297","images/cow8.png","","","learning","-9","0","0","0","cow","animals","2","1","","neutral","0"
"html-keyboard-response","215","846800","0.0-11.0-2.0-0.13","4503","1","17","Female","approach_avoid_spark_v1","""event"",""trial"",""time""
""fullscreenenter"",""1"",""3713""
","
","
","""event"",""trial"",""time""
""fullscreenenter"",""1"",""3713""
","
","","","","","","null","<div style=""font-size:60px;"">+</div>","null","","fixation","","","","","","","","","","",""
"aa-learning-trial","216","849804","0.0-11.0-2.0-1.13","4503","1","17","Female","approach_avoid_spark_v1","""event"",""trial"",""time""
""fullscreenenter"",""1"",""3713""
","
","
","""event"",""trial"",""time""
""fullscreenenter"",""1"",""3713""
","
","","","","","","1042.4000000059605","images/cow4.png","","","learning","1","0","0","0","cow","animals","2","1","","neutral","0"
"html-keyboard-response","217","850308","0.0-11.0-2.0-0.14","4503","1","17","Female","approach_avoid_spark_v1","""event"",""trial"",""time""
""fullscreenenter"",""1"",""3713""
","
","
","""event"",""trial"",""time""
""fullscreenenter"",""1"",""3713""
","
","","","","","","null","<div style=""font-size:60px;"">+</div>","null","","fixation","","","","","","","","","","",""
"aa-learning-trial","218","853311","0.0-11.0-2.0-1.14","4503","1","17","Female","approach_avoid_spark_v1","""event"",""trial"",""time""
""fullscreenenter"",""1"",""3713""
","
","
","""event"",""trial"",""time""
""fullscreenenter"",""1"",""3713""
","
","","","","","","1060.4000000059605","images/goat4.png","","","learning","9","0","0","0","goat","animals","2","1","","good","[5]"
"html-keyboard-response","219","853812","0.0-11.0-2.0-0.15","4503","1","17","Female","approach_avoid_spark_v1","""event"",""trial"",""time""
""fullscreenenter"",""1"",""3713""
","
","
","""event"",""trial"",""time""
""fullscreenenter"",""1"",""3713""
","
","","","","","","null","<div style=""font-size:60px;"">+</div>","null","","fixation","","","","","","","","","","",""
"aa-learning-trial","220","856815","0.0-11.0-2.0-1.15","4503","1","17","Female","approach_avoid_spark_v1","""event"",""trial"",""time""
""fullscreenenter"",""1"",""3713""
","
","
","""event"",""trial"",""time""
""fullscreenenter"",""1"",""3713""
","
","","","","","","934.3999999985099","images/sheep3.png","","","learning","-3","0","0","0","sheep","animals","2","1","","bad","[-5]"
"html-keyboard-response","221","857316","0.0-11.0-2.0-0.16","4503","1","17","Female","approach_avoid_spark_v1","""event"",""trial"",""time""
""fullscreenenter"",""1"",""3713""
","
","
","""event"",""trial"",""time""
""fullscreenenter"",""1"",""3713""
","
","","","","","","null","<div style=""font-size:60px;"">+</div>","null","","fixation","","","","","","","","","","",""
"aa-learning-trial","222","860320","0.0-11.0-2.0-1.16","4503","1","17","Female","approach_avoid_spark_v1","""event"",""trial"",""time""
""fullscreenenter"",""1"",""3713""
","
","
","""event"",""trial"",""time""
""fullscreenenter"",""1"",""3713""
","
","","","","","","694.3000000044703","images/cow8.png","","","learning","-9","0","0","0","cow","animals","2","1","","neutral","0"
"html-keyboard-response","223","860823","0.0-11.0-2.0-0.17","4503","1","17","Female","approach_avoid_spark_v1","""event"",""trial"",""time""
""fullscreenenter"",""1"",""3713""
","
","
","""event"",""trial"",""time""
""fullscreenenter"",""1"",""3713""
","
","","","","","","null","<div style=""font-size:60px;"">+</div>","null","","fixation","","","","","","","","","","",""
"aa-learning-trial","224","863828","0.0-11.0-2.0-1.17","4503","1","17","Female","approach_avoid_spark_v1","""event"",""trial"",""time""
""fullscreenenter"",""1"",""3713""
","
","
","""event"",""trial"",""time""
""fullscreenenter"",""1"",""3713""
","
","","","","","","1049.3000000044703","images/goat2.png","","","learning","2","0","0","0","goat","animals","2","1","","good","[5]"
"html-keyboard-response","225","864331","0.0-11.0-2.0-0.18","4503","1","17","Female","approach_avoid_spark_v1","""event"",""trial"",""time""
""fullscreenenter"",""1"",""3713""
","
","
","""event"",""trial"",""time""
""fullscreenenter"",""1"",""3713""
","
","","","","","","null","<div style=""font-size:60px;"">+</div>","null","","fixation","","","","","","","","","","",""
"aa-learning-trial","226","867335","0.0-11.0-2.0-1.18","4503","1","17","Female","approach_avoid_spark_v1","""event"",""trial"",""time""
""fullscreenenter"",""1"",""3713""
","
","
","""event"",""trial"",""time""
""fullscreenenter"",""1"",""3713""
","
","","","","","","899.3999999985099","images/cow6.png","","","learning","-5","0","0","0","cow","animals","2","1","","neutral","0"
"html-keyboard-response","227","867839","0.0-11.0-2.0-0.19","4503","1","17","Female","approach_avoid_spark_v1","""event"",""trial"",""time""
""fullscreenenter"",""1"",""3713""
","
","
","""event"",""trial"",""time""
""fullscreenenter"",""1"",""3713""
","
","","","","","","null","<div style=""font-size:60px;"">+</div>","null","","fixation","","","","","","","","","","",""
"aa-learning-trial","228","870843","0.0-11.0-2.0-1.19","4503","1","17","Female","approach_avoid_spark_v1","""event"",""trial"",""time""
""fullscreenenter"",""1"",""3713""
","
","
","""event"",""trial"",""time""
""fullscreenenter"",""1"",""3713""
","
","","","","","","677.3999999985099","images/cow8.png","","","learning","-9","0","0","0","cow","animals","2","1","","neutral","0"
"html-keyboard-response","229","871348","0.0-11.0-2.0-0.20","4503","1","17","Female","approach_avoid_spark_v1","""event"",""trial"",""time""
""fullscreenenter"",""1"",""3713""
","
","
","""event"",""trial"",""time""
""fullscreenenter"",""1"",""3713""
","
","","","","","","null","<div style=""font-size:60px;"">+</div>","null","","fixation","","","","","","","","","","",""
"aa-learning-trial","230","874351","0.0-11.0-2.0-1.20","4503","1","17","Female","approach_avoid_spark_v1","""event"",""trial"",""time""
""fullscreenenter"",""1"",""3713""
","
","
","""event"",""trial"",""time""
""fullscreenenter"",""1"",""3713""
","
","","","","","","1306.3000000044703","images/goat4.png","","","learning","9","9","1","1","goat","animals","2","1","","good","[5]"
"html-keyboard-response","231","874852","0.0-11.0-2.0-0.21","4503","1","17","Female","approach_avoid_spark_v1","""event"",""trial"",""time""
""fullscreenenter"",""1"",""3713""
","
","
","""event"",""trial"",""time""
""fullscreenenter"",""1"",""3713""
","
","","","","","","null","<div style=""font-size:60px;"">+</div>","null","","fixation","","","","","","","","","","",""
"aa-learning-trial","232","877855","0.0-11.0-2.0-1.21","4503","1","17","Female","approach_avoid_spark_v1","""event"",""trial"",""time""
""fullscreenenter"",""1"",""3713""
","
","
","""event"",""trial"",""time""
""fullscreenenter"",""1"",""3713""
","
","","","","","","527","images/goat4.png","","","learning","9","9","1","1","goat","animals","2","1","","good","[5]"
"html-keyboard-response","233","878356","0.0-11.0-2.0-0.22","4503","1","17","Female","approach_avoid_spark_v1","""event"",""trial"",""time""
""fullscreenenter"",""1"",""3713""
","
","
","""event"",""trial"",""time""
""fullscreenenter"",""1"",""3713""
","
","","","","","","null","<div style=""font-size:60px;"">+</div>","null","","fixation","","","","","","","","","","",""
"aa-learning-trial","234","881360","0.0-11.0-2.0-1.22","4503","1","17","Female","approach_avoid_spark_v1","""event"",""trial"",""time""
""fullscreenenter"",""1"",""3713""
","
","
","""event"",""trial"",""time""
""fullscreenenter"",""1"",""3713""
","
","","","","","","872","images/sheep4.png","","","learning","7","0","0","0","sheep","animals","2","1","","bad","[-5]"
"html-keyboard-response","235","881863","0.0-11.0-2.0-0.23","4503","1","17","Female","approach_avoid_spark_v1","""event"",""trial"",""time""
""fullscreenenter"",""1"",""3713""
","
","
","""event"",""trial"",""time""
""fullscreenenter"",""1"",""3713""
","
