"trial_type","trial_index","time_elapsed","internal_node_id","subject_id","task_condition","age","gender","task_version","interactions","blur_events","focus_events","fullscreenenter_events","fullscreenexit_events","success","timeout","failed_images","failed_audio","failed_video","rt","stimulus","response","button_pressed","task_part","approach_reward","points","key_press","option_selected","stim_cat","task_block","block_condition","block_number","correct","cat_type","mean_cat_reward"
"pavlovia","0","4","0.0-0.0","3883","1","19","Female","approach_avoid_spark_v1","""event"",""trial"",""time""
""fullscreenenter"",""1"",""5994""
","
","
","""event"",""trial"",""time""
""fullscreenenter"",""1"",""5994""
","
","","","","","","","","","","","","","","","","","","","","",""
"fullscreen","1","6974","0.0-1.0","3883","1","19","Female","approach_avoid_spark_v1","""event"",""trial"",""time""
""fullscreenenter"",""1"",""5994""
","
","
","""event"",""trial"",""time""
""fullscreenenter"",""1"",""5994""
","
","true","","","","","","","","","","","","","","","","","","","",""
"preload","2","10455","0.0-2.0","3883","1","19","Female","approach_avoid_spark_v1","""event"",""trial"",""time""
""fullscreenenter"",""1"",""5994""
","
","
","""event"",""trial"",""time""
""fullscreenenter"",""1"",""5994""
","
","true","false","[]","[]","[]","","","","","","","","","","","","","","","",""
"audio-keyboard-response","3","14559","0.0-3.0","3883","1","19","Female","approach_avoid_spark_v1","""event"",""trial"",""time""
""fullscreenenter"",""1"",""5994""
","
","
","""event"",""trial"",""time""
""fullscreenenter"",""1"",""5994""
","
","","","","","","4101.333333333333","audio/beep_loop.wav"," ","","","","","","","","","","","","",""
"audio-button-response","4","17198","0.0-4.0","3883","1","19","Female","approach_avoid_spark_v1","""event"",""trial"",""time""
""fullscreenenter"",""1"",""5994""
","
","
","""event"",""trial"",""time""
""fullscreenenter"",""1"",""5994""
","
","","","","","","2640","audio/shark.wav","4","","","","","","","","","","","","",""
"audio-button-response","5","20063","0.0-5.0","3883","1","19","Female","approach_avoid_spark_v1","""event"",""trial"",""time""
""fullscreenenter"",""1"",""5994""
","
","
","""event"",""trial"",""time""
""fullscreenenter"",""1"",""5994""
","
","","","","","","1851","audio/turtle.wav","1","","","","","","","","","","","","",""
"preload","6","22559","0.0-6.0","3883","1","19","Female","approach_avoid_spark_v1","""event"",""trial"",""time""
""fullscreenenter"",""1"",""5994""
","
","
","""event"",""trial"",""time""
""fullscreenenter"",""1"",""5994""
","
","true","false","[]","[]","[]","","","","","","","","","","","","","","","",""
"html-keyboard-response","7","25070","0.0-7.0","3883","1","19","Female","approach_avoid_spark_v1","""event"",""trial"",""time""
""fullscreenenter"",""1"",""5994""
","
","
","""event"",""trial"",""time""
""fullscreenenter"",""1"",""5994""
","
","","","","","","2508.399999976158","Welcome to the experiment. Press any key to begin and to advance the instructions."," ","","","","","","","","","","","","",""
"learning-instructions","8","34084","0.0-8.0-0.0-0.0","3883","1","19","Female","approach_avoid_spark_v1","""event"",""trial"",""time""
""fullscreenenter"",""1"",""5994""
","
","
","""event"",""trial"",""time""
""fullscreenenter"",""1"",""5994""
","
","","","","","","2059","<p> Welcome! Today you are going to play 6 different rounds of a decision-making game. </p><p> Use the mouse to click next to continue. </p>","","0","instructions","","","","","","","","","","",""
"learning-instructions","9","39307","0.0-8.0-0.0-0.1","3883","1","19","Female","approach_avoid_spark_v1","""event"",""trial"",""time""
""fullscreenenter"",""1"",""5994""
","
","
","""event"",""trial"",""time""
""fullscreenenter"",""1"",""5994""
","
","","","","","","2472.199999988079","<p> You will start with a practice round to learn the rules. </p>","","0","instructions","","","","","","","","","","",""
"learning-instructions","10","44082","0.0-8.0-0.0-0.2","3883","1","19","Female","approach_avoid_spark_v1","""event"",""trial"",""time""
""fullscreenenter"",""1"",""5994""
","
","
","""event"",""trial"",""time""
""fullscreenenter"",""1"",""5994""
","
","","","","","","1316.699999988079","<p> Your goal in this round is to give out sports equipment to kids. </p></div>","","0","instructions","","","","","","","","","","",""
"learning-instructions","11","52541","0.0-8.0-0.0-0.3","3883","1","19","Female","approach_avoid_spark_v1","""event"",""trial"",""time""
""fullscreenenter"",""1"",""5994""
","
","
","""event"",""trial"",""time""
""fullscreenenter"",""1"",""5994""
","
","","","","","","905.6000000238419","<p> The kids only like some of the equipment.  </p><p> On each turn, you will see a piece of sports equipment.   </p><p> You need to decide whether to give it to the kids or not.  </p>","","0","instructions","","","","","","","","","","",""
"learning-instructions","12","59613","0.0-8.0-0.0-0.4","3883","1","19","Female","approach_avoid_spark_v1","""event"",""trial"",""time""
""fullscreenenter"",""1"",""5994""
","
","
","""event"",""trial"",""time""
""fullscreenenter"",""1"",""5994""
","
","","","","","","2318","<p> You can give them the equipment by pressing 1 and choose not to give it to them by pressing 0. </p><br><div class=""choice-instructions-grid""> <div class=""choice-option""><img src=""images/approach.png"" class=""choice-option-img"" stage=""instructions"" position=""0"" ><div class=""choice-option-text""> Press ""1."" </div></div><div class=""choice-option""><img src=""images/avoid.png"" class=""choice-option-img"" stage=""instructions"" position=""1"" ><div class=""choice-option-text""> Press ""0."" </div></div>","","0","instructions","","","","","","","","","","",""
"learning-instructions","13","68315","0.0-8.0-0.0-0.5","3883","1","19","Female","approach_avoid_spark_v1","""event"",""trial"",""time""
""fullscreenenter"",""1"",""5994""
","
","
","""event"",""trial"",""time""
""fullscreenenter"",""1"",""5994""
","
","","","","","","1310","<p> If you give them a piece of equipment they like, they will be happy! </p><p> But if you give them a piece of equipment they do not like, they will be sad. </p>","","0","instructions","","","","","","","","","","",""
"learning-instructions","14","79888","0.0-8.0-0.0-0.6","3883","1","19","Female","approach_avoid_spark_v1","""event"",""trial"",""time""
""fullscreenenter"",""1"",""5994""
","
","
","""event"",""trial"",""time""
""fullscreenenter"",""1"",""5994""
","
","","","","","","1062.6000000238419","<p> You will earn points based on how you make kids feel. </p><p> If you make them happy, you will WIN anywhere from 1 - 9 points, </p><p> but if you make them sad, you will LOSE anywhere from 1 - 9 points. </p>","","0","instructions","","","","","","","","","","",""
"learning-instructions","15","90307","0.0-8.0-0.0-0.7","3883","1","19","Female","approach_avoid_spark_v1","""event"",""trial"",""time""
""fullscreenenter"",""1"",""5994""
","
","
","""event"",""trial"",""time""
""fullscreenenter"",""1"",""5994""
","
","","","","","","851.1999999880791","<p> You will see how many points you won or lost in the center of the screen. </p><p> Here is what you would see if you won 6 points: </p><p style=""color:green;font-size:50px;font-weight:bolder"">6</p><p style=""color:green"">The text is GREEN because you WON points.</p>","","0","instructions","","","","","","","","","","",""
"learning-instructions","16","96695","0.0-8.0-0.0-0.8","3883","1","19","Female","approach_avoid_spark_v1","""event"",""trial"",""time""
""fullscreenenter"",""1"",""5994""
","
","
","""event"",""trial"",""time""
""fullscreenenter"",""1"",""5994""
","
","","","","","","890.5","<p> And here is what you would see if you lost 4 points: </p><p style=""color:red;font-size:50px;font-weight:bolder"">-4</p><p style=""color:red"">The text is RED because you LOST points. </p>","","0","instructions","","","","","","","","","","",""
"learning-instructions","17","112804","0.0-8.0-0.0-0.9","3883","1","19","Female","approach_avoid_spark_v1","""event"",""trial"",""time""
""fullscreenenter"",""1"",""5994""
","
","
","""event"",""trial"",""time""
""fullscreenenter"",""1"",""5994""
","
","","","","","","1399.300000011921","<p> Some of the equipment will make the kids VERY happy or sad. </p><p> These pieces of equipment will make you win or lose LOTS of points. </p><p> Other pieces of equipment will only make the kids a little happy or sad. </p><p> These pieces of equipment will make you win or lose small amounts of points. </p>","","0","instructions","","","","","","","","","","",""
"learning-instructions","18","124285","0.0-8.0-0.0-0.10","3883","1","19","Female","approach_avoid_spark_v1","""event"",""trial"",""time""
""fullscreenenter"",""1"",""5994""
","
","
","""event"",""trial"",""time""
""fullscreenenter"",""1"",""5994""
","
","","","","","","861.6999999880791","<p> If you choose not to give them the equipment, you will not win or lose any points. </p><p>  However, in the center of the screen, you will see the number of points you WOULD HAVE won or lost if you had given them the equipment. </p>","","0","instructions","","","","","","","","","","",""
"learning-instructions","19","147394","0.0-8.0-0.0-0.11","3883","1","19","Female","approach_avoid_spark_v1","""event"",""trial"",""time""
""fullscreenenter"",""1"",""5994""
","
","
","""event"",""trial"",""time""
""fullscreenenter"",""1"",""5994""
","
","","","","","","1569.1000000238419","<p> Here is what you might see if you did not give the equipment to the kids but it would have made them happy: </p><p style=""color:grey; font-size:50px; display: inline-block; border-spacing: 15px; border-width:3px; border-style:solid; border-color:red"">  &nbsp; 7 &nbsp; </p><p> Remember, in this case, you would not win or lose ANY points because you did not give them the equipment.  </p><p style=""color:grey"">The text is GREY because you earned ZERO points. </p><p style=""color:red"">However, choosing to give the kids the equipment would have made you win points. The box around the text is RED because you chose the worse option. </p>","","0","instructions","","","","","","","","","","",""
"learning-instructions","20","170058","0.0-8.0-0.0-0.12","3883","1","19","Female","approach_avoid_spark_v1","""event"",""trial"",""time""
""fullscreenenter"",""1"",""5994""
","
","
","""event"",""trial"",""time""
""fullscreenenter"",""1"",""5994""
","
","","","","","","1594.300000011921","<p> Here is what you might see if you did not give the equipment to the kids but it would have made them sad: </p><p style=""color:grey;font-size:50px; display: inline-block; border-spacing: 15px; border-width:3px; border-style:solid; border-color:green"">  &nbsp; -8 &nbsp; </p><p> Remember, in this case, you would not win or lose ANY points because you did not give them the equipment.  </p><p style=""color:grey"">The text is GREY because you earned ZERO points. </p><p  style=""color:green""> Choosing to give the kids the equipment would have made you lose points. The box around the text is GREEN because you chose the better option.</p>","","0","instructions","","","","","","","","","","",""
"learning-instructions","21","180029","0.0-8.0-0.0-0.13","3883","1","19","Female","approach_avoid_spark_v1","""event"",""trial"",""time""
""fullscreenenter"",""1"",""5994""
","
","
","""event"",""trial"",""time""
""fullscreenenter"",""1"",""5994""
","
","","","","","","1135.8999999761581","<p> You will have 3 seconds to make each choice. Try to respond before time runs out! </p><p> You will lose 5 points each time you do not make a response. </p>","","0","instructions","","","","","","","","","","",""
"learning-instructions","22","186491","0.0-8.0-0.0-0.14","3883","1","19","Female","approach_avoid_spark_v1","""event"",""trial"",""time""
""fullscreenenter"",""1"",""5994""
","
","
","""event"",""trial"",""time""
""fullscreenenter"",""1"",""5994""
","
","","","","","","1047.1000000238419","<p> This is just a practice round, but in the real game, your bonus payment will depend on your total number of points.","","0","instructions","","","","","","","","","","",""
"learning-instructions","23","193038","0.0-8.0-0.0-0.15","3883","1","19","Female","approach_avoid_spark_v1","""event"",""trial"",""time""
""fullscreenenter"",""1"",""5994""
","
","
","""event"",""trial"",""time""
""fullscreenenter"",""1"",""5994""
","
","","","","","","782.3000000119209","<p> Remember, you can give them the equipment by pressing 1 and choose not to give it to them by pressing 0. </p><br><div class=""choice-instructions-grid""> <div class=""choice-option""><img src=""images/approach.png"" class=""choice-option-img"" stage=""instructions"" position=""0"" ><div class=""choice-option-text""> Press ""1."" </div></div><div class=""choice-option""><img src=""images/avoid.png"" class=""choice-option-img"" stage=""instructions"" position=""1"" ><div class=""choice-option-text""> Press ""0."" </div></div>","","0","instructions","","","","","","","","","","",""
"html-button-response","24","195415","0.0-8.0-1.0","3883","1","19","Female","approach_avoid_spark_v1","""event"",""trial"",""time""
""fullscreenenter"",""1"",""5994""
","
","
","""event"",""trial"",""time""
""fullscreenenter"",""1"",""5994""
","
","","","","","","2262.800000011921","<p> Ready to practice? </p>","0","","","","","","","","","","","","",""
"html-keyboard-response","25","196034","0.0-8.0-2.0-0.0","3883","1","19","Female","approach_avoid_spark_v1","""event"",""trial"",""time""
""fullscreenenter"",""1"",""5994""
","
","
","""event"",""trial"",""time""
""fullscreenenter"",""1"",""5994""
","
","","","","","","null","<div style=""font-size:60px;"">+</div>","null","","fixation","","","","","","","","","","",""
"aa-learning-trial","26","199045","0.0-8.0-2.0-1.0","3883","1","19","Female","approach_avoid_spark_v1","""event"",""trial"",""time""
""fullscreenenter"",""1"",""5994""
","
","
","""event"",""trial"",""time""
""fullscreenenter"",""1"",""5994""
","
","","","","","","2709.699999988079","images/ball2.png","","","learning","-3","-5","3","","practice","practice","practice","-1","","",""
"html-keyboard-response","27","199562","0.0-8.0-2.0-0.1","3883","1","19","Female","approach_avoid_spark_v1","""event"",""trial"",""time""
""fullscreenenter"",""1"",""5994""
","
","
","""event"",""trial"",""time""
""fullscreenenter"",""1"",""5994""
","
","","","","","","null","<div style=""font-size:60px;"">+</div>","null","","fixation","","","","","","","","","","",""
"aa-learning-trial","28","202568","0.0-8.0-2.0-1.1","3883","1","19","Female","approach_avoid_spark_v1","""event"",""trial"",""time""
""fullscreenenter"",""1"",""5994""
","
","
","""event"",""trial"",""time""
""fullscreenenter"",""1"",""5994""
","
","","","","","","2183.699999988079","images/racket3.png","","","learning","2","2","1","1","practice","practice","practice","-1","","",""
"html-keyboard-response","29","203079","0.0-8.0-2.0-0.2","3883","1","19","Female","approach_avoid_spark_v1","""event"",""trial"",""time""
""fullscreenenter"",""1"",""5994""
","
","
","""event"",""trial"",""time""
""fullscreenenter"",""1"",""5994""
","
","","","","","","null","<div style=""font-size:60px;"">+</div>","null","","fixation","","","","","","","","","","",""
"aa-learning-trial","30","206091","0.0-8.0-2.0-1.2","3883","1","19","Female","approach_avoid_spark_v1","""event"",""trial"",""time""
""fullscreenenter"",""1"",""5994""
","
","
","""event"",""trial"",""time""
""fullscreenenter"",""1"",""5994""
","
","","","","","","1705.8999999761581","images/ball3.png","","","learning","-4","0","0","0","practice","practice","practice","-1","","",""
"html-keyboard-response","31","206596","0.0-8.0-2.0-0.3","3883","1","19","Female","approach_avoid_spark_v1","""event"",""trial"",""time""
""fullscreenenter"",""1"",""5994""
","
","
","""event"",""trial"",""time""
""fullscreenenter"",""1"",""5994""
","
","","","","","","null","<div style=""font-size:60px;"">+</div>","null","","fixation","","","","","","","","","","",""
"aa-learning-trial","32","209614","0.0-8.0-2.0-1.3","3883","1","19","Female","approach_avoid_spark_v1","""event"",""trial"",""time""
""fullscreenenter"",""1"",""5994""
","
","
","""event"",""trial"",""time""
""fullscreenenter"",""1"",""5994""
","
","","","","","","2329.300000011921","images/ball2.png","","","learning","-4","-4","1","1","practice","practice","practice","-1","","",""
"html-keyboard-response","33","210128","0.0-8.0-2.0-0.4","3883","1","19","Female","approach_avoid_spark_v1","""event"",""trial"",""time""
""fullscreenenter"",""1"",""5994""
","
","
","""event"",""trial"",""time""
""fullscreenenter"",""1"",""5994""
","
","","","","","","null","<div style=""font-size:60px;"">+</div>","null","","fixation","","","","","","","","","","",""
"aa-learning-trial","34","213145","0.0-8.0-2.0-1.4","3883","1","19","Female","approach_avoid_spark_v1","""event"",""trial"",""time""
""fullscreenenter"",""1"",""5994""
","
","
","""event"",""trial"",""time""
""fullscreenenter"",""1"",""5994""
","
","","","","","","1847.1000000238419","images/racket2.png","","","learning","8","0","0","0","practice","practice","practice","-1","","",""
"html-keyboard-response","35","213661","0.0-8.0-2.0-0.5","3883","1","19","Female","approach_avoid_spark_v1","""event"",""trial"",""time""
""fullscreenenter"",""1"",""5994""
","
","
","""event"",""trial"",""time""
""fullscreenenter"",""1"",""5994""
","
","","","","","","null","<div style=""font-size:60px;"">+</div>","null","","fixation","","","","","","","","","","",""
"aa-learning-trial","36","216672","0.0-8.0-2.0-1.5","3883","1","19","Female","approach_avoid_spark_v1","""event"",""trial"",""time""
""fullscreenenter"",""1"",""5994""
","
","
","""event"",""trial"",""time""
""fullscreenenter"",""1"",""5994""
","
","","","","","","2644","images/racket2.png","","","learning","-2","-2","1","1","practice","practice","practice","-1","","",""
"html-keyboard-response","37","217189","0.0-8.0-2.0-0.6","3883","1","19","Female","approach_avoid_spark_v1","""event"",""trial"",""time""
""fullscreenenter"",""1"",""5994""
","
","
","""event"",""trial"",""time""
""fullscreenenter"",""1"",""5994""
","
","","","","","","null","<div style=""font-size:60px;"">+</div>","null","","fixation","","","","","","","","","","",""
"aa-learning-trial","38","220207","0.0-8.0-2.0-1.6","3883","1","19","Female","approach_avoid_spark_v1","""event"",""trial"",""time""
""fullscreenenter"",""1"",""5994""
","
","
","""event"",""trial"",""time""
""fullscreenenter"",""1"",""5994""
","
","","","","","","null","images/ball3.png","","","learning","-2","-5","","null","practice","practice","practice","-1","","",""
"html-keyboard-response","39","220723","0.0-8.0-2.0-0.7","3883","1","19","Female","approach_avoid_spark_v1","""event"",""trial"",""time""
""fullscreenenter"",""1"",""5994""
","
","
","""event"",""trial"",""time""
""fullscreenenter"",""1"",""5994""
","
","","","","","","null","<div style=""font-size:60px;"">+</div>","null","","fixation","","","","","","","","","","",""
"aa-learning-trial","40","223730","0.0-8.0-2.0-1.7","3883","1","19","Female","approach_avoid_spark_v1","""event"",""trial"",""time""
""fullscreenenter"",""1"",""5994""
","
","
","""event"",""trial"",""time""
""fullscreenenter"",""1"",""5994""
","
","","","","","","1901.6000000238419","images/racket1.png","","","learning","-7","0","0","0","practice","practice","practice","-1","","",""
"html-keyboard-response","41","224232","0.0-8.0-2.0-0.8","3883","1","19","Female","approach_avoid_spark_v1","""event"",""trial"",""time""
""fullscreenenter"",""1"",""5994""
","
","
","""event"",""trial"",""time""
""fullscreenenter"",""1"",""5994""
","
","","","","","","null","<div style=""font-size:60px;"">+</div>","null","","fixation","","","","","","","","","","",""
"aa-learning-trial","42","227242","0.0-8.0-2.0-1.8","3883","1","19","Female","approach_avoid_spark_v1","""event"",""trial"",""time""
""fullscreenenter"",""1"",""5994""
","
","
","""event"",""trial"",""time""
""fullscreenenter"",""1"",""5994""
","
","","","","","","2082.699999988079","images/ball3.png","","","learning","-1","0","0","0","practice","practice","practice","-1","","",""
"html-keyboard-response","43","227745","0.0-8.0-2.0-0.9","3883","1","19","Female","approach_avoid_spark_v1","""event"",""trial"",""time""
""fullscreenenter"",""1"",""5994""
","
","
","""event"",""trial"",""time""
""fullscreenenter"",""1"",""5994""
","
","","","","","","null","<div style=""font-size:60px;"">+</div>","null","","fixation","","","","","","","","","","",""
"aa-learning-trial","44","230753","0.0-8.0-2.0-1.9","3883","1","19","Female","approach_avoid_spark_v1","""event"",""trial"",""time""
""fullscreenenter"",""1"",""5994""
","
","
","""event"",""trial"",""time""
""fullscreenenter"",""1"",""5994""
","
","","","","","","1920.1000000238419","images/racket3.png","","","learning","8","8","1","1","practice","practice","practice","-1","","",""
"html-keyboard-response","45","231257","0.0-8.0-2.0-0.10","3883","1","19","Female","approach_avoid_spark_v1","""event"",""trial"",""time""
""fullscreenenter"",""1"",""5994""
","
","
","""event"",""trial"",""time""
""fullscreenenter"",""1"",""5994""
","
","","","","","","null","<div style=""font-size:60px;"">+</div>","null","","fixation","","","","","","","","","","",""
"aa-learning-trial","46","234264","0.0-8.0-2.0-1.10","3883","1","19","Female","approach_avoid_spark_v1","""event"",""trial"",""time""
""fullscreenenter"",""1"",""5994""
","
","
","""event"",""trial"",""time""
""fullscreenenter"",""1"",""5994""
","
","","","","","","2567.899999976158","images/racket2.png","","","learning","-3","-3","1","1","practice","practice","practice","-1","","",""
"html-keyboard-response","47","234769","0.0-8.0-2.0-0.11","3883","1","19","Female","approach_avoid_spark_v1","""event"",""trial"",""time""
""fullscreenenter"",""1"",""5994""
","
","
","""event"",""trial"",""time""
""fullscreenenter"",""1"",""5994""
","
","","","","","","null","<div style=""font-size:60px;"">+</div>","null","","fixation","","","","","","","","","","",""
"aa-learning-trial","48","237791","0.0-8.0-2.0-1.11","3883","1","19","Female","approach_avoid_spark_v1","""event"",""trial"",""time""
""fullscreenenter"",""1"",""5994""
","
","
","""event"",""trial"",""time""
""fullscreenenter"",""1"",""5994""
","
","","","","","","2105.899999976158","images/racket4.png","","","learning","-9","0","0","0","practice","practice","practice","-1","","",""
"html-button-response","49","249341","0.0-8.0-3.0","3883","1","19","Female","approach_avoid_spark_v1","""event"",""trial"",""time""
""fullscreenenter"",""1"",""5994""
","
","
","""event"",""trial"",""time""
""fullscreenenter"",""1"",""5994""
","
","","","","","","11546.800000011921","<p> You earned -9 points in the practice round! </p>","0","","break","","","","","","","","","","",""
"learning-instructions","50","257097","0.0-8.0-4.0-0.0","3883","1","19","Female","approach_avoid_spark_v1","""event"",""trial"",""time""
""fullscreenenter"",""1"",""5994""
","
","
","""event"",""trial"",""time""
""fullscreenenter"",""1"",""5994""
","
","","","","","","1688.800000011921","<p> It's almost time to start the real game. </p><p> Before you start, we're going to ask you a few questions about how the game works. </p>","","0","instructions","","","","","","","","","","",""
"preload","51","258173","0.0-8.0-5.0","3883","1","19","Female","approach_avoid_spark_v1","""event"",""trial"",""time""
""fullscreenenter"",""1"",""5994""
","
","
","""event"",""trial"",""time""
""fullscreenenter"",""1"",""5994""
","
","true","false","[]","[]","[]","","","","","","","","","","","","","","","",""
"comp-q","52","265202","0.0-8.0-6.0-0.0","3883","1","19","Female","approach_avoid_spark_v1","""event"",""trial"",""time""
""fullscreenenter"",""1"",""5994""
","
","
","""event"",""trial"",""time""
""fullscreenenter"",""1"",""5994""
","
","","","","","","2033.199999988079","<p> <b> True or False? </b> </p><p> If you see a number in GREY, that means you earned that many points. </p>","","1","comp_question","","","","","","","","","true","",""
"comp-q","53","277242","0.0-8.0-6.0-1.0","3883","1","19","Female","approach_avoid_spark_v1","""event"",""trial"",""time""
""fullscreenenter"",""1"",""5994""
","
","
","""event"",""trial"",""time""
""fullscreenenter"",""1"",""5994""
","
","","","","","","3673.199999988079","<p><b> That's right! </b> If you see a grey number, it means you earned ZERO points. <br> The grey numbers show the points you WOULD HAVE earned if you had made the other choice. </p>","","0","comp_answer","","","","","","","","","","",""
"comp-q","54","283091","0.0-8.0-7.0-0.0","3883","1","19","Female","approach_avoid_spark_v1","""event"",""trial"",""time""
""fullscreenenter"",""1"",""5994""
","
","
","""event"",""trial"",""time""
""fullscreenenter"",""1"",""5994""
","
","","","","","","1152.3999999761581","<p> <b> True or False? </b> </p><p> You will have as much time as you want to make each choice. </p>","","1","comp_question","","","","","","","","","true","",""
"comp-q","55","288686","0.0-8.0-7.0-1.0","3883","1","19","Female","approach_avoid_spark_v1","""event"",""trial"",""time""
""fullscreenenter"",""1"",""5994""
","
","
","""event"",""trial"",""time""
""fullscreenenter"",""1"",""5994""
","
","","","","","","1547.800000011921","<p> <b> That's right! </b> You will only have 3 seconds to make each choice. </p>","","0","comp_answer","","","","","","","","","","",""
"comp-q","56","294666","0.0-8.0-8.0-0.0","3883","1","19","Female","approach_avoid_spark_v1","""event"",""trial"",""time""
""fullscreenenter"",""1"",""5994""
","
","
","""event"",""trial"",""time""
""fullscreenenter"",""1"",""5994""
","
","","","","","","1307.1000000238419","<p> <b> True or False? </b> </p><p> You should use the '1' and '0' keys to make your choices. </p>","","0","comp_question","","","","","","","","","true","",""
"comp-q","57","300870","0.0-8.0-8.0-1.0","3883","1","19","Female","approach_avoid_spark_v1","""event"",""trial"",""time""
""fullscreenenter"",""1"",""5994""
","
","
","""event"",""trial"",""time""
""fullscreenenter"",""1"",""5994""
","
","","","","","","1591.8999999761581","<p> <b> That's right! </b> You should use the '1' and '0' keys to make each choice. </p>","","0","comp_answer","","","","","","","","","","",""
"learning-instructions","58","308869","0.0-8.0-9.0-0.0","3883","1","19","Female","approach_avoid_spark_v1","""event"",""trial"",""time""
""fullscreenenter"",""1"",""5994""
","
","
","""event"",""trial"",""time""
""fullscreenenter"",""1"",""5994""
","
","","","","","","1720.5999999642372","<p> It's now time to start the real game. </p>Do your best, because the points you earn in the next rounds will influence your bonus payment. </p>","","0","instructions","","","","","","","","","","",""
"preload","59","309005","0.0-9.0-0.0","3883","1","19","Female","approach_avoid_spark_v1","""event"",""trial"",""time""
""fullscreenenter"",""1"",""5994""
","
","
","""event"",""trial"",""time""
""fullscreenenter"",""1"",""5994""
","
","true","false","[]","[]","[]","","","","","","","","","","","","","","","",""
"learning-instructions","60","315440","0.0-9.0-1.0-0.0","3883","1","19","Female","approach_avoid_spark_v1","""event"",""trial"",""time""
""fullscreenenter"",""1"",""5994""
","
","
","""event"",""trial"",""time""
""fullscreenenter"",""1"",""5994""
","
","","","","","","2361.600000023842","<p> Your goal in this round is to take care of lots of farm animals. </p></div>","","0","instructions","","","","","","","","","","",""
"learning-instructions","61","327027","0.0-9.0-1.0-0.1","3883","1","19","Female","approach_avoid_spark_v1","""event"",""trial"",""time""
""fullscreenenter"",""1"",""5994""
","
","
","""event"",""trial"",""time""
""fullscreenenter"",""1"",""5994""
","
","","","","","","1948.699999988079","<p> Some farm animals are hungry, while other farm animals are already full.  </p><p> On each turn, you will see a farm animal.   </p><p> You need to decide whether to feed it or not.  </p>","","0","instructions","","","","","","","","","","",""
"learning-instructions","62","334320","0.0-9.0-1.0-0.2","3883","1","19","Female","approach_avoid_spark_v1","""event"",""trial"",""time""
""fullscreenenter"",""1"",""5994""
","
","
","""event"",""trial"",""time""
""fullscreenenter"",""1"",""5994""
","
","","","","","","1641.199999988079","<p> You can feed the farm animal by pressing 1 and leave the farm animal alone by pressing 0. </p><br><div class=""choice-instructions-grid""> <div class=""choice-option""><img src=""images/approach.png"" class=""choice-option-img"" stage=""instructions"" position=""0"" ><div class=""choice-option-text""> Press ""1."" </div></div><div class=""choice-option""><img src=""images/avoid.png"" class=""choice-option-img"" stage=""instructions"" position=""1"" ><div class=""choice-option-text""> Press ""0."" </div></div>","","0","instructions","","","","","","","","","","",""
"learning-instructions","63","346087","0.0-9.0-1.0-0.3","3883","1","19","Female","approach_avoid_spark_v1","""event"",""trial"",""time""
""fullscreenenter"",""1"",""5994""
","
","
","""event"",""trial"",""time""
""fullscreenenter"",""1"",""5994""
","
","","","","","","2528.399999976158","<p> If you feed a hungry farm animal, you will make it feel satisfied! </p><p> But if you feed the farm animal and it was already full, you will make it feel sick. </p>","","0","instructions","","","","","","","","","","",""
"learning-instructions","64","365380","0.0-9.0-1.0-0.4","3883","1","19","Female","approach_avoid_spark_v1","""event"",""trial"",""time""
""fullscreenenter"",""1"",""5994""
","
","
","""event"",""trial"",""time""
""fullscreenenter"",""1"",""5994""
","
","","","","","","7251.799999952316","<p> You will earn points based on how you made the farm animal feel. </p><p> If you made it satisfied, you will WIN anywhere from 1 - 9 points, </p><p> but if you made it sick, you will LOSE anywhere from 1 - 9 points. </p>","","0","instructions","","","","","","","","","","",""
"learning-instructions","65","374037","0.0-9.0-1.0-0.5","3883","1","19","Female","approach_avoid_spark_v1","""event"",""trial"",""time""
""fullscreenenter"",""1"",""5994""
","
","
","""event"",""trial"",""time""
""fullscreenenter"",""1"",""5994""
","
","","","","","","1368.8999999761581","<p> You will see how many points you won or lost in the center of the screen. </p><p> Here is what you would see if you won 5 points: </p><p style=""color:green;font-size:50px;font-weight:bolder"">5</p>","","0","instructions","","","","","","","","","","",""
"learning-instructions","66","379592","0.0-9.0-1.0-0.6","3883","1","19","Female","approach_avoid_spark_v1","""event"",""trial"",""time""
""fullscreenenter"",""1"",""5994""
","
","
","""event"",""trial"",""time""
""fullscreenenter"",""1"",""5994""
","
","","","","","","2273.800000011921","<p> And here is what you would see if you lost 3 points: </p><p style=""color:red;font-size:50px;font-weight:bolder"">-3</p>","","0","instructions","","","","","","","","","","",""
"learning-instructions","67","397733","0.0-9.0-1.0-0.7","3883","1","19","Female","approach_avoid_spark_v1","""event"",""trial"",""time""
""fullscreenenter"",""1"",""5994""
","
","
","""event"",""trial"",""time""
""fullscreenenter"",""1"",""5994""
","
","","","","","","2984.699999988079","<p> Some farm animals will become very satisfied or very sick. </p><p> These farm animals will make you win or lose LOTS of points. </p><p> Other farm animals have less strong feelings. </p><p> These farm animals will make you win or lose small amounts of points. </p>","","0","instructions","","","","","","","","","","",""
"learning-instructions","68","410742","0.0-9.0-1.0-0.8","3883","1","19","Female","approach_avoid_spark_v1","""event"",""trial"",""time""
""fullscreenenter"",""1"",""5994""
","
","
","""event"",""trial"",""time""
""fullscreenenter"",""1"",""5994""
","
","","","","","","1253.7999999523163","<p> If you choose to leave the farm animal alone, you will not win or lose any points. </p><p>  However, in the center of the screen, you will see the number of points you WOULD HAVE won or lost if you had fed the farm animal. </p>","","0","instructions","","","","","","","","","","",""
"learning-instructions","69","435665","0.0-9.0-1.0-0.9","3883","1","19","Female","approach_avoid_spark_v1","""event"",""trial"",""time""
""fullscreenenter"",""1"",""5994""
","
","
","""event"",""trial"",""time""
""fullscreenenter"",""1"",""5994""
","
","","","","","","13816.800000011921","<p> Here is what you might see if you did not feed the farm animal but the animal was hungry: </p><p style=""color:grey; font-size:50px; display: inline-block; border-spacing: 15px; border-width:3px; border-style:solid; border-color:red"">  &nbsp; 6 &nbsp; </p><p> Remember, in this case, you would not win or lose ANY points because you did not feed the farm animal.  </p>","","0","instructions","","","","","","","","","","",""
"learning-instructions","70","445853","0.0-9.0-1.0-0.10","3883","1","19","Female","approach_avoid_spark_v1","""event"",""trial"",""time""
""fullscreenenter"",""1"",""5994""
","
","
","""event"",""trial"",""time""
""fullscreenenter"",""1"",""5994""
","
","","","","","","2615.300000011921","<p> Try to make the best choice for each farm animal because </p><p> at the end of the game, you will earn bonus money based on how many points you earned. </p>","","0","instructions","","","","","","","","","","",""
"learning-instructions","71","455239","0.0-9.0-1.0-0.11","3883","1","19","Female","approach_avoid_spark_v1","""event"",""trial"",""time""
""fullscreenenter"",""1"",""5994""
","
","
","""event"",""trial"",""time""
""fullscreenenter"",""1"",""5994""
","
","","","","","","1181.1000000238419","<p> You will have 3 seconds to make each choice. Try to respond before time runs out! </p><p> You will lose 5 points each time you do not make a response. </p>","","0","instructions","","","","","","","","","","",""
"html-keyboard-response","72","455864","0.0-9.0-2.0-0.0","3883","1","19","Female","approach_avoid_spark_v1","""event"",""trial"",""time""
""fullscreenenter"",""1"",""5994""
","
","
","""event"",""trial"",""time""
""fullscreenenter"",""1"",""5994""
","
","","","","","","null","<div style=""font-size:60px;"">+</div>","null","","fixation","","","","","","","","","","",""
"aa-learning-trial","73","458870","0.0-9.0-2.0-1.0","3883","1","19","Female","approach_avoid_spark_v1","""event"",""trial"",""time""
""fullscreenenter"",""1"",""5994""
","
","
","""event"",""trial"",""time""
""fullscreenenter"",""1"",""5994""
","
","","","","","","1633","images/sheep7.png","","","learning","[1]","1","1","1","sheep","animals","1","0","","neutral","0"
"html-keyboard-response","74","459391","0.0-9.0-2.0-0.1","3883","1","19","Female","approach_avoid_spark_v1","""event"",""trial"",""time""
""fullscreenenter"",""1"",""5994""
","
","
","""event"",""trial"",""time""
""fullscreenenter"",""1"",""5994""
","
","","","","","","null","<div style=""font-size:60px;"">+</div>","null","","fixation","","","","","","","","","","",""
"aa-learning-trial","75","462400","0.0-9.0-2.0-1.1","3883","1","19","Female","approach_avoid_spark_v1","""event"",""trial"",""time""
""fullscreenenter"",""1"",""5994""
","
","
","""event"",""trial"",""time""
""fullscreenenter"",""1"",""5994""
","
","","","","","","1536.4000000357628","images/cow3.png","","","learning","7","7","1","1","cow","animals","1","0","","good","[6]"
"html-keyboard-response","76","462914","0.0-9.0-2.0-0.2","3883","1","19","Female","approach_avoid_spark_v1","""event"",""trial"",""time""
""fullscreenenter"",""1"",""5994""
","
","
","""event"",""trial"",""time""
""fullscreenenter"",""1"",""5994""
","
","","","","","","null","<div style=""font-size:60px;"">+</div>","null","","fixation","","","","","","","","","","",""
"aa-learning-trial","77","465931","0.0-9.0-2.0-1.2","3883","1","19","Female","approach_avoid_spark_v1","""event"",""trial"",""time""
""fullscreenenter"",""1"",""5994""
","
","
","""event"",""trial"",""time""
""fullscreenenter"",""1"",""5994""
","
","","","","","","1332.699999988079","images/horse7.png","","","learning","-4","0","0","0","horse","animals","1","0","","bad","[-4]"
"html-keyboard-response","78","466446","0.0-9.0-2.0-0.3","3883","1","19","Female","approach_avoid_spark_v1","""event"",""trial"",""time""
""fullscreenenter"",""1"",""5994""
","
","
","""event"",""trial"",""time""
""fullscreenenter"",""1"",""5994""
","
","","","","","","null","<div style=""font-size:60px;"">+</div>","null","","fixation","","","","","","","","","","",""
"aa-learning-trial","79","469450","0.0-9.0-2.0-1.3","3883","1","19","Female","approach_avoid_spark_v1","""event"",""trial"",""time""
""fullscreenenter"",""1"",""5994""
","
","
","""event"",""trial"",""time""
""fullscreenenter"",""1"",""5994""
","
","","","","","","2280.899999976158","images/cow1.png","","","learning","6","6","1","1","cow","animals","1","0","","good","[6]"
"html-keyboard-response","80","469955","0.0-9.0-2.0-0.4","3883","1","19","Female","approach_avoid_spark_v1","""event"",""trial"",""time""
""fullscreenenter"",""1"",""5994""
","
","
","""event"",""trial"",""time""
""fullscreenenter"",""1"",""5994""
","
","","","","","","null","<div style=""font-size:60px;"">+</div>","null","","fixation","","","","","","","","","","",""
"aa-learning-trial","81","472961","0.0-9.0-2.0-1.4","3883","1","19","Female","approach_avoid_spark_v1","""event"",""trial"",""time""
""fullscreenenter"",""1"",""5994""
","
","
","""event"",""trial"",""time""
""fullscreenenter"",""1"",""5994""
","
","","","","","","1590.3999999761581","images/sheep6.png","","","learning","1","1","1","1","sheep","animals","1","0","","neutral","0"
"html-keyboard-response","82","473474","0.0-9.0-2.0-0.5","3883","1","19","Female","approach_avoid_spark_v1","""event"",""trial"",""time""
""fullscreenenter"",""1"",""5994""
","
","
","""event"",""trial"",""time""
""fullscreenenter"",""1"",""5994""
","
","","","","","","null","<div style=""font-size:60px;"">+</div>","null","","fixation","","","","","","","","","","",""
"aa-learning-trial","83","476482","0.0-9.0-2.0-1.5","3883","1","19","Female","approach_avoid_spark_v1","""event"",""trial"",""time""
""fullscreenenter"",""1"",""5994""
","
","
","""event"",""trial"",""time""
""fullscreenenter"",""1"",""5994""
","
","","","","","","1622.2000000476837","images/sheep7.png","","","learning","1","1","1","1","sheep","animals","1","0","","neutral","0"
"html-keyboard-response","84","476998","0.0-9.0-2.0-0.6","3883","1","19","Female","approach_avoid_spark_v1","""event"",""trial"",""time""
""fullscreenenter"",""1"",""5994""
","
","
","""event"",""trial"",""time""
""fullscreenenter"",""1"",""5994""
","
","","","","","","null","<div style=""font-size:60px;"">+</div>","null","","fixation","","","","","","","","","","",""
"aa-learning-trial","85","480021","0.0-9.0-2.0-1.6","3883","1","19","Female","approach_avoid_spark_v1","""event"",""trial"",""time""
""fullscreenenter"",""1"",""5994""
","
","
","""event"",""trial"",""time""
""fullscreenenter"",""1"",""5994""
","
","","","","","","1238.199999988079","images/sheep3.png","","","learning","2","0","0","0","sheep","animals","1","0","","neutral","0"
"html-keyboard-response","86","480534","0.0-9.0-2.0-0.7","3883","1","19","Female","approach_avoid_spark_v1","""event"",""trial"",""time""
""fullscreenenter"",""1"",""5994""
","
","
","""event"",""trial"",""time""
""fullscreenenter"",""1"",""5994""
","
","","","","","","null","<div style=""font-size:60px;"">+</div>","null","","fixation","","","","","","","","","","",""
"aa-learning-trial","87","483549","0.0-9.0-2.0-1.7","3883","1","19","Female","approach_avoid_spark_v1","""event"",""trial"",""time""
""fullscreenenter"",""1"",""5994""
","
","
","""event"",""trial"",""time""
""fullscreenenter"",""1"",""5994""
","
","","","","","","1191.699999988079","images/cow3.png","","","learning","8","8","1","1","cow","animals","1","0","","good","[6]"
"html-keyboard-response","88","484066","0.0-9.0-2.0-0.8","3883","1","19","Female","approach_avoid_spark_v1","""event"",""trial"",""time""
""fullscreenenter"",""1"",""5994""
","
","
","""event"",""trial"",""time""
""fullscreenenter"",""1"",""5994""
","
","","","","","","null","<div style=""font-size:60px;"">+</div>","null","","fixation","","","","","","","","","","",""
"aa-learning-trial","89","487074","0.0-9.0-2.0-1.8","3883","1","19","Female","approach_avoid_spark_v1","""event"",""trial"",""time""
""fullscreenenter"",""1"",""5994""
","
","
","""event"",""trial"",""time""
""fullscreenenter"",""1"",""5994""
","
","","","","","","1720.8999999761581","images/horse8.png","","","learning","-4","0","0","0","horse","animals","1","0","","bad","[-4]"
"html-keyboard-response","90","487577","0.0-9.0-2.0-0.9","3883","1","19","Female","approach_avoid_spark_v1","""event"",""trial"",""time""
""fullscreenenter"",""1"",""5994""
","
","
","""event"",""trial"",""time""
""fullscreenenter"",""1"",""5994""
","
","","","","","","null","<div style=""font-size:60px;"">+</div>","null","","fixation","","","","","","","","","","",""
"aa-learning-trial","91","490585","0.0-9.0-2.0-1.9","3883","1","19","Female","approach_avoid_spark_v1","""event"",""trial"",""time""
""fullscreenenter"",""1"",""5994""
","
","
","""event"",""trial"",""time""
""fullscreenenter"",""1"",""5994""
","
","","","","","","1180.4000000357628","images/cow7.png","","","learning","6","6","1","1","cow","animals","1","0","","good","[6]"
"html-keyboard-response","92","491089","0.0-9.0-2.0-0.10","3883","1","19","Female","approach_avoid_spark_v1","""event"",""trial"",""time""
""fullscreenenter"",""1"",""5994""
","
","
","""event"",""trial"",""time""
""fullscreenenter"",""1"",""5994""
","
","","","","","","null","<div style=""font-size:60px;"">+</div>","null","","fixation","","","","","","","","","","",""
"aa-learning-trial","93","494097","0.0-9.0-2.0-1.10","3883","1","19","Female","approach_avoid_spark_v1","""event"",""trial"",""time""
""fullscreenenter"",""1"",""5994""
","
","
","""event"",""trial"",""time""
""fullscreenenter"",""1"",""5994""
","
","","","","","","1168.0999999642372","images/horse5.png","","","learning","-3","-3","1","1","horse","animals","1","0","","bad","[-4]"
"html-keyboard-response","94","494602","0.0-9.0-2.0-0.11","3883","1","19","Female","approach_avoid_spark_v1","""event"",""trial"",""time""
""fullscreenenter"",""1"",""5994""
","
","
","""event"",""trial"",""time""
""fullscreenenter"",""1"",""5994""
","
","","","","","","null","<div style=""font-size:60px;"">+</div>","null","","fixation","","","","","","","","","","",""
"aa-learning-trial","95","497608","0.0-9.0-2.0-1.11","3883","1","19","Female","approach_avoid_spark_v1","""event"",""trial"",""time""
""fullscreenenter"",""1"",""5994""
","
","
","""event"",""trial"",""time""
""fullscreenenter"",""1"",""5994""
","
","","","","","","1154.5","images/horse8.png","","","learning","-3","0","0","0","horse","animals","1","0","","bad","[-4]"
"html-keyboard-response","96","498116","0.0-9.0-2.0-0.12","3883","1","19","Female","approach_avoid_spark_v1","""event"",""trial"",""time""
""fullscreenenter"",""1"",""5994""
","
","
","""event"",""trial"",""time""
""fullscreenenter"",""1"",""5994""
","
","","","","","","null","<div style=""font-size:60px;"">+</div>","null","","fixation","","","","","","","","","","",""
"aa-learning-trial","97","501120","0.0-9.0-2.0-1.12","3883","1","19","Female","approach_avoid_spark_v1","""event"",""trial"",""time""
""fullscreenenter"",""1"",""5994""
","
","
","""event"",""trial"",""time""
""fullscreenenter"",""1"",""5994""
","
","","","","","","1160.7000000476837","images/sheep3.png","","","learning","[-1]","-1","1","1","sheep","animals","1","0","","neutral","0"
"html-keyboard-response","98","501625","0.0-9.0-2.0-0.13","3883","1","19","Female","approach_avoid_spark_v1","""event"",""trial"",""time""
""fullscreenenter"",""1"",""5994""
","
","
","""event"",""trial"",""time""
""fullscreenenter"",""1"",""5994""
","
","","","","","","null","<div style=""font-size:60px;"">+</div>","null","","fixation","","","","","","","","","","",""
"aa-learning-trial","99","504632","0.0-9.0-2.0-1.13","3883","1","19","Female","approach_avoid_spark_v1","""event"",""trial"",""time""
""fullscreenenter"",""1"",""5994""
","
","
","""event"",""trial"",""time""
""fullscreenenter"",""1"",""5994""
","
","","","","","","1443.4000000357628","images/horse5.png","","","learning","-5","-5","1","1","horse","animals","1","0","","bad","[-4]"
"html-keyboard-response","100","505137","0.0-9.0-2.0-0.14","3883","1","19","Female","approach_avoid_spark_v1","""event"",""trial"",""time""
""fullscreenenter"",""1"",""5994""
","
","
","""event"",""trial"",""time""
""fullscreenenter"",""1"",""5994""
","
","","","","","","null","<div style=""font-size:60px;"">+</div>","null","","fixation","","","","","","","","","","",""
"aa-learning-trial","101","508160","0.0-9.0-2.0-1.14","3883","1","19","Female","approach_avoid_spark_v1","""event"",""trial"",""time""
""fullscreenenter"",""1"",""5994""
","
","
","""event"",""trial"",""time""
""fullscreenenter"",""1"",""5994""
","
","","","","","","1229.5999999642372","images/cow7.png","","","learning","6","6","1","1","cow","animals","1","0","","good","[6]"
"html-keyboard-response","102","508665","0.0-9.0-2.0-0.15","3883","1","19","Female","approach_avoid_spark_v1","""event"",""trial"",""time""
""fullscreenenter"",""1"",""5994""
","
","
","""event"",""trial"",""time""
""fullscreenenter"",""1"",""5994""
","
","","","","","","null","<div style=""font-size:60px;"">+</div>","null","","fixation","","","","","","","","","","",""
"aa-learning-trial","103","511673","0.0-9.0-2.0-1.15","3883","1","19","Female","approach_avoid_spark_v1","""event"",""trial"",""time""
""fullscreenenter"",""1"",""5994""
","
","
","""event"",""trial"",""time""
""fullscreenenter"",""1"",""5994""
","
","","","","","","1191.1000000238419","images/sheep7.png","","","learning","-2","-2","1","1","sheep","animals","1","0","","neutral","0"
"html-keyboard-response","104","512176","0.0-9.0-2.0-0.16","3883","1","19","Female","approach_avoid_spark_v1","""event"",""trial"",""time""
""fullscreenenter"",""1"",""5994""
","
","
","""event"",""trial"",""time""
""fullscreenenter"",""1"",""5994""
","
","","","","","","null","<div style=""font-size:60px;"">+</div>","null","","fixation","","","","","","","","","","",""
"aa-learning-trial","105","515184","0.0-9.0-2.0-1.16","3883","1","19","Female","approach_avoid_spark_v1","""event"",""trial"",""time""
""fullscreenenter"",""1"",""5994""
","
","
","""event"",""trial"",""time""
""fullscreenenter"",""1"",""5994""
","
","","","","","","1230.2000000476837","images/horse7.png","","","learning","-5","0","0","0","horse","animals","1","0","","bad","[-4]"
"html-keyboard-response","106","515693","0.0-9.0-2.0-0.17","3883","1","19","Female","approach_avoid_spark_v1","""event"",""trial"",""time""
""fullscreenenter"",""1"",""5994""
","
","
","""event"",""trial"",""time""
""fullscreenenter"",""1"",""5994""
","
","","","","","","null","<div style=""font-size:60px;"">+</div>","null","","fixation","","","","","","","","","","",""
"aa-learning-trial","107","518696","0.0-9.0-2.0-1.17","3883","1","19","Female","approach_avoid_spark_v1","""event"",""trial"",""time""
""fullscreenenter"",""1"",""5994""
","
","
","""event"",""trial"",""time""
""fullscreenenter"",""1"",""5994""
","
","","","","","","1243.5","images/horse6.png","","","learning","-3","0","0","0","horse","animals","1","0","","bad","[-4]"
"html-keyboard-response","108","519201","0.0-9.0-2.0-0.18","3883","1","19","Female","approach_avoid_spark_v1","""event"",""trial"",""time""
""fullscreenenter"",""1"",""5994""
","
","
","""event"",""trial"",""time""
""fullscreenenter"",""1"",""5994""
","
","","","","","","null","<div style=""font-size:60px;"">+</div>","null","","fixation","","","","","","","","","","",""
"aa-learning-trial","109","522208","0.0-9.0-2.0-1.18","3883","1","19","Female","approach_avoid_spark_v1","""event"",""trial"",""time""
""fullscreenenter"",""1"",""5994""
","
","
","""event"",""trial"",""time""
""fullscreenenter"",""1"",""5994""
","
","","","","","","1304.800000011921","images/horse5.png","","","learning","-6","0","0","0","horse","animals","1","0","","bad","[-4]"
"html-keyboard-response","110","522712","0.0-9.0-2.0-0.19","3883","1","19","Female","approach_avoid_spark_v1","""event"",""trial"",""time""
""fullscreenenter"",""1"",""5994""
","
","
","""event"",""trial"",""time""
""fullscreenenter"",""1"",""5994""
","
","","","","","","null","<div style=""font-size:60px;"">+</div>","null","","fixation","","","","","","","","","","",""
"aa-learning-trial","111","525721","0.0-9.0-2.0-1.19","3883","1","19","Female","approach_avoid_spark_v1","""event"",""trial"",""time""
""fullscreenenter"",""1"",""5994""
","
","
","""event"",""trial"",""time""
""fullscreenenter"",""1"",""5994""
","
","","","","","","864.2999999523163","images/cow3.png","","","learning","4","4","1","1","cow","animals","1","0","","good","[6]"
"html-keyboard-response","112","526225","0.0-9.0-2.0-0.20","3883","1","19","Female","approach_avoid_spark_v1","""event"",""trial"",""time""
""fullscreenenter"",""1"",""5994""
","
","
","""event"",""trial"",""time""
""fullscreenenter"",""1"",""5994""
","
","","","","","","null","<div style=""font-size:60px;"">+</div>","null","","fixation","","","","","","","","","","",""
"aa-learning-trial","113","529233","0.0-9.0-2.0-1.20","3883","1","19","Female","approach_avoid_spark_v1","""event"",""trial"",""time""
""fullscreenenter"",""1"",""5994""
","
","
","""event"",""trial"",""time""
""fullscreenenter"",""1"",""5994""
","
","","","","","","1590.9000000357628","images/cow7.png","","","learning","7","7","1","1","cow","animals","1","0","","good","[6]"
"html-keyboard-response","114","529736","0.0-9.0-2.0-0.21","3883","1","19","Female","approach_avoid_spark_v1","""event"",""trial"",""time""
""fullscreenenter"",""1"",""5994""
","
","
","""event"",""trial"",""time""
""fullscreenenter"",""1"",""5994""
","
","","","","","","null","<div style=""font-size:60px;"">+</div>","null","","fixation","","","","","","","","","","",""
"aa-learning-trial","115","532745","0.0-9.0-2.0-1.21","3883","1","19","Female","approach_avoid_spark_v1","""event"",""trial"",""time""
""fullscreenenter"",""1"",""5994""
","
","
","""event"",""trial"",""time""
""fullscreenenter"",""1"",""5994""
","
","","","","","","1209.199999988079","images/sheep6.png","","","learning","1","1","1","1","sheep","animals","1","0","","neutral","0"
"html-keyboard-response","116","533259","0.0-9.0-2.0-0.22","3883","1","19","Female","approach_avoid_spark_v1","""event"",""trial"",""time""
""fullscreenenter"",""1"",""5994""
","
","
","""event"",""trial"",""time""
""fullscreenenter"",""1"",""5994""
","
","","","","","","null","<div style=""font-size:60px;"">+</div>","null","","fixation","","","","","","","","","","",""
"aa-learning-trial","117","536265","0.0-9.0-2.0-1.22","3883","1","19","Female","approach_avoid_spark_v1","""event"",""trial"",""time""
""fullscreenenter"",""1"",""5994""
","
","
","""event"",""trial"",""time""
""fullscreenenter"",""1"",""5994""
","
","","","","","","1127.800000011921","images/sheep6.png","","","learning","-1","-1","1","1","sheep","animals","1","0","","neutral","0"
"html-keyboard-response","118","536774","0.0-9.0-2.0-0.23","3883","1","19","Female","approach_avoid_spark_v1","""event"",""trial"",""time""
""fullscreenenter"",""1"",""5994""
","
","
","""event"",""trial"",""time""
""fullscreenenter"",""1"",""5994""
","
","","","","","","null","<div style=""font-size:60px;"">+</div>","null","","fixation","","","","","","","","","","",""
"aa-learning-trial","119","539785","0.0-9.0-2.0-1.23","3883","1","19","Female","approach_avoid_spark_v1","""event"",""trial"",""time""
""fullscreenenter"",""1"",""5994""
","
","
","""event"",""trial"",""time""
""fullscreenenter"",""1"",""5994""
","
","","","","","","1072.1000000238419","images/cow3.png","","","learning","9","9","1","1","cow","animals","1","0","","good","[6]"
"html-keyboard-response","120","540288","0.0-9.0-2.0-0.24","3883","1","19","Female","approach_avoid_spark_v1","""event"",""trial"",""time""
""fullscreenenter"",""1"",""5994""
","
","
","""event"",""trial"",""time""
""fullscreenenter"",""1"",""5994""
","
","","","","","","null","<div style=""font-size:60px;"">+</div>","null","","fixation","","","","","","","","","","",""
"aa-learning-trial","121","543297","0.0-9.0-2.0-1.24","3883","1","19","Female","approach_avoid_spark_v1","""event"",""trial"",""time""
""fullscreenenter"",""1"",""5994""
","
","
","""event"",""trial"",""time""
""fullscreenenter"",""1"",""5994""
","
","","","","","","1538.199999988079","images/sheep3.png","","","learning","2","0","0","0","sheep","animals","1","0","","neutral","0"
"html-keyboard-response","122","543800","0.0-9.0-2.0-0.25","3883","1","19","Female","approach_avoid_spark_v1","""event"",""trial"",""time""
""fullscreenenter"",""1"",""5994""
","
","
","""event"",""trial"",""time""
""fullscreenenter"",""1"",""5994""
","
","","","","","","null","<div style=""font-size:60px;"">+</div>","null","","fixation","","","","","","","","","","",""
"aa-learning-trial","123","546804","0.0-9.0-2.0-1.25","3883","1","19","Female","approach_avoid_spark_v1","""event"",""trial"",""time""
""fullscreenenter"",""1"",""5994""
","
","
","""event"",""trial"",""time""
""fullscreenenter"",""1"",""5994""
","
","","","","","","1896.1000000238419","images/sheep2.png","","","learning","-2","-2","1","1","sheep","animals","1","0","","neutral","0"
"html-keyboard-response","124","547313","0.0-9.0-2.0-0.26","3883","1","19","Female","approach_avoid_spark_v1","""event"",""trial"",""time""
""fullscreenenter"",""1"",""5994""
","
","
","""event"",""trial"",""time""
""fullscreenenter"",""1"",""5994""
","
","","","","","","null","<div style=""font-size:60px;"">+</div>","null","","fixation","","","","","","","","","","",""
"aa-learning-trial","125","550320","0.0-9.0-2.0-1.26","3883","1","19","Female","approach_avoid_spark_v1","""event"",""trial"",""time""
""fullscreenenter"",""1"",""5994""
","
","
","""event"",""trial"",""time""
""fullscreenenter"",""1"",""5994""
","
","","","","","","2092.800000011921","images/horse8.png","","","learning","-3","0","0","0","horse","animals","1","0","","bad","[-4]"
"html-keyboard-response","126","550824","0.0-9.0-2.0-0.27","3883","1","19","Female","approach_avoid_spark_v1","""event"",""trial"",""time""
""fullscreenenter"",""1"",""5994""
","
","
","""event"",""trial"",""time""
""fullscreenenter"",""1"",""5994""
","
","","","","","","null","<div style=""font-size:60px;"">+</div>","null","","fixation","","","","","","","","","","",""
"aa-learning-trial","127","553837","0.0-9.0-2.0-1.27","3883","1","19","Female","approach_avoid_spark_v1","""event"",""trial"",""time""
""fullscreenenter"",""1"",""5994""
","
","
","""event"",""trial"",""time""
""fullscreenenter"",""1"",""5994""
","
","","","","","","1251.699999988079","images/horse5.png","","","learning","-3","0","0","0","horse","animals","1","0","","bad","[-4]"
"html-keyboard-response","128","554345","0.0-9.0-2.0-0.28","3883","1","19","Female","approach_avoid_spark_v1","""event"",""trial"",""time""
""fullscreenenter"",""1"",""5994""
","
","
","""event"",""trial"",""time""
""fullscreenenter"",""1"",""5994""
","
","","","","","","null","<div style=""font-size:60px;"">+</div>","null","","fixation","","","","","","","","","","",""
"aa-learning-trial","129","557353","0.0-9.0-2.0-1.28","3883","1","19","Female","approach_avoid_spark_v1","""event"",""trial"",""time""
""fullscreenenter"",""1"",""5994""
","
","
","""event"",""trial"",""time""
""fullscreenenter"",""1"",""5994""
","
","","","","","","1371.1000000238419","images/sheep3.png","","","learning","2","2","1","1","sheep","animals","1","0","","neutral","0"
"html-keyboard-response","130","557857","0.0-9.0-2.0-0.29","3883","1","19","Female","approach_avoid_spark_v1","""event"",""trial"",""time""
""fullscreenenter"",""1"",""5994""
","
","
","""event"",""trial"",""time""
""fullscreenenter"",""1"",""5994""
","
","","","","","","null","<div style=""font-size:60px;"">+</div>","null","","fixation","","","","","","","","","","",""
"aa-learning-trial","131","560871","0.0-9.0-2.0-1.29","3883","1","19","Female","approach_avoid_spark_v1","""event"",""trial"",""time""
""fullscreenenter"",""1"",""5994""
","
","
","""event"",""trial"",""time""
""fullscreenenter"",""1"",""5994""
","
","","","","","","1300.1000000238419","images/horse7.png","","","learning","-4","0","0","0","horse","animals","1","0","","bad","[-4]"
"html-keyboard-response","132","561377","0.0-9.0-2.0-0.30","3883","1","19","Female","approach_avoid_spark_v1","""event"",""trial"",""time""
""fullscreenenter"",""1"",""5994""
","
","
","""event"",""trial"",""time""
""fullscreenenter"",""1"",""5994""
","
","","","","","","null","<div style=""font-size:60px;"">+</div>","null","","fixation","","","","","","","","","","",""
"aa-learning-trial","133","564385","0.0-9.0-2.0-1.30","3883","1","19","Female","approach_avoid_spark_v1","""event"",""trial"",""time""
""fullscreenenter"",""1"",""5994""
","
","
","""event"",""trial"",""time""
""fullscreenenter"",""1"",""5994""
","
","","","","","","1269.3999999761581","images/horse5.png","","","learning","-4","0","0","0","horse","animals","1","0","","bad","[-4]"
"html-keyboard-response","134","564889","0.0-9.0-2.0-0.31","3883","1","19","Female","approach_avoid_spark_v1","""event"",""trial"",""time""
""fullscreenenter"",""1"",""5994""
","
","
","""event"",""trial"",""time""
""fullscreenenter"",""1"",""5994""
","
","","","","","","null","<div style=""font-size:60px;"">+</div>","null","","fixation","","","","","","","","","","",""
"aa-learning-trial","135","567903","0.0-9.0-2.0-1.31","3883","1","19","Female","approach_avoid_spark_v1","""event"",""trial"",""time""
""fullscreenenter"",""1"",""5994""
","
","
","""event"",""trial"",""time""
""fullscreenenter"",""1"",""5994""
","
","","","","","","1048.9000000357628","images/cow7.png","","","learning","7","7","1","1","cow","animals","1","0","","good","[6]"
"html-keyboard-response","136","568408","0.0-9.0-2.0-0.32","3883","1","19","Female","approach_avoid_spark_v1","""event"",""trial"",""time""
""fullscreenenter"",""1"",""5994""
","
","
","""event"",""trial"",""time""
""fullscreenenter"",""1"",""5994""
","
","","","","","","null","<div style=""font-size:60px;"">+</div>","null","","fixation","","","","","","","","","","",""
"aa-learning-trial","137","571417","0.0-9.0-2.0-1.32","3883","1","19","Female","approach_avoid_spark_v1","""event"",""trial"",""time""
""fullscreenenter"",""1"",""5994""
","
","
","""event"",""trial"",""time""
""fullscreenenter"",""1"",""5994""
","
","","","","","","1199","images/horse8.png","","","learning","-6","0","0","0","horse","animals","1","0","","bad","[-4]"
"html-keyboard-response","138","571921","0.0-9.0-2.0-0.33","3883","1","19","Female","approach_avoid_spark_v1","""event"",""trial"",""time""
""fullscreenenter"",""1"",""5994""
","
","
","""event"",""trial"",""time""
""fullscreenenter"",""1"",""5994""
","
","","","","","","null","<div style=""font-size:60px;"">+</div>","null","","fixation","","","","","","","","","","",""
"aa-learning-trial","139","574927","0.0-9.0-2.0-1.33","3883","1","19","Female","approach_avoid_spark_v1","""event"",""trial"",""time""
""fullscreenenter"",""1"",""5994""
","
","
","""event"",""trial"",""time""
""fullscreenenter"",""1"",""5994""
","
","","","","","","1967.5","images/cow3.png","","","learning","6","6","1","1","cow","animals","1","0","","good","[6]"
"html-keyboard-response","140","575433","0.0-9.0-2.0-0.34","3883","1","19","Female","approach_avoid_spark_v1","""event"",""trial"",""time""
""fullscreenenter"",""1"",""5994""
","
","
","""event"",""trial"",""time""
""fullscreenenter"",""1"",""5994""
","
","","","","","","null","<div style=""font-size:60px;"">+</div>","null","","fixation","","","","","","","","","","",""
"aa-learning-trial","141","578441","0.0-9.0-2.0-1.34","3883","1","19","Female","approach_avoid_spark_v1","""event"",""trial"",""time""
""fullscreenenter"",""1"",""5994""
","
","
","""event"",""trial"",""time""
""fullscreenenter"",""1"",""5994""
","
","","","","","","1325","images/sheep7.png","","","learning","1","0","0","0","sheep","animals","1","0","","neutral","0"
"html-keyboard-response","142","578944","0.0-9.0-2.0-0.35","3883","1","19","Female","approach_avoid_spark_v1","""event"",""trial"",""time""
""fullscreenenter"",""1"",""5994""
","
","
","""event"",""trial"",""time""
""fullscreenenter"",""1"",""5994""
","
","","","","","","null","<div style=""font-size:60px;"">+</div>","null","","fixation","","","","","","","","","","",""
"aa-learning-trial","143","581954","0.0-9.0-2.0-1.35","3883","1","19","Female","approach_avoid_spark_v1","""event"",""trial"",""time""
""fullscreenenter"",""1"",""5994""
","
","
","""event"",""trial"",""time""
""fullscreenenter"",""1"",""5994""
","
","","","","","","992.8999999761581","images/sheep3.png","","","learning","-2","-2","1","1","sheep","animals","1","0","","neutral","0"
"html-keyboard-response","144","582457","0.0-9.0-2.0-0.36","3883","1","19","Female","approach_avoid_spark_v1","""event"",""trial"",""time""
""fullscreenenter"",""1"",""5994""
","
","
","""event"",""trial"",""time""
""fullscreenenter"",""1"",""5994""
","
","","","","","","null","<div style=""font-size:60px;"">+</div>","null","","fixation","","","","","","","","","","",""
"aa-learning-trial","145","585465","0.0-9.0-2.0-1.36","3883","1","19","Female","approach_avoid_spark_v1","""event"",""trial"",""time""
""fullscreenenter"",""1"",""5994""
","
","
","""event"",""trial"",""time""
""fullscreenenter"",""1"",""5994""
","
","","","","","","1440","images/horse8.png","","","learning","-3","0","0","0","horse","animals","1","0","","bad","[-4]"
"html-keyboard-response","146","585969","0.0-9.0-2.0-0.37","3883","1","19","Female","approach_avoid_spark_v1","""event"",""trial"",""time""
""fullscreenenter"",""1"",""5994""
","
","
","""event"",""trial"",""time""
""fullscreenenter"",""1"",""5994""
","
","","","","","","null","<div style=""font-size:60px;"">+</div>","null","","fixation","","","","","","","","","","",""
"aa-learning-trial","147","588977","0.0-9.0-2.0-1.37","3883","1","19","Female","approach_avoid_spark_v1","""event"",""trial"",""time""
""fullscreenenter"",""1"",""5994""
","
","
","""event"",""trial"",""time""
""fullscreenenter"",""1"",""5994""
","
","","","","","","1339.4000000357628","images/cow5.png","","","learning","4","4","1","1","cow","animals","1","0","","good","[6]"
"html-keyboard-response","148","589482","0.0-9.0-2.0-0.38","3883","1","19","Female","approach_avoid_spark_v1","""event"",""trial"",""time""
""fullscreenenter"",""1"",""5994""
","
","
","""event"",""trial"",""time""
""fullscreenenter"",""1"",""5994""
","
","","","","","","null","<div style=""font-size:60px;"">+</div>","null","","fixation","","","","","","","","","","",""
"aa-learning-trial","149","592489","0.0-9.0-2.0-1.38","3883","1","19","Female","approach_avoid_spark_v1","""event"",""trial"",""time""
""fullscreenenter"",""1"",""5994""
","
","
","""event"",""trial"",""time""
""fullscreenenter"",""1"",""5994""
","
","","","","","","1205.699999988079","images/sheep8.png","","","learning","-1","-1","1","1","sheep","animals","1","0","","neutral","0"
"html-keyboard-response","150","592993","0.0-9.0-2.0-0.39","3883","1","19","Female","approach_avoid_spark_v1","""event"",""trial"",""time""
""fullscreenenter"",""1"",""5994""
","
","
","""event"",""trial"",""time""
""fullscreenenter"",""1"",""5994""
","
","","","","","","null","<div style=""font-size:60px;"">+</div>","null","","fixation","","","","","","","","","","",""
"aa-learning-trial","151","596014","0.0-9.0-2.0-1.39","3883","1","19","Female","approach_avoid_spark_v1","""event"",""trial"",""time""
""fullscreenenter"",""1"",""5994""
","
","
","""event"",""trial"",""time""
""fullscreenenter"",""1"",""5994""
","
","","","","","","1084.5","images/horse4.png","","","learning","-3","-3","1","1","horse","animals","1","0","","bad","[-4]"
"html-keyboard-response","152","596521","0.0-9.0-2.0-0.40","3883","1","19","Female","approach_avoid_spark_v1","""event"",""trial"",""time""
""fullscreenenter"",""1"",""5994""
","
","
","""event"",""trial"",""time""
""fullscreenenter"",""1"",""5994""
","
","","","","","","null","<div style=""font-size:60px;"">+</div>","null","","fixation","","","","","","","","","","",""
"aa-learning-trial","153","599530","0.0-9.0-2.0-1.40","3883","1","19","Female","approach_avoid_spark_v1","""event"",""trial"",""time""
""fullscreenenter"",""1"",""5994""
","
","
","""event"",""trial"",""time""
""fullscreenenter"",""1"",""5994""
","
","","","","","","1417.199999988079","images/cow1.png","","","learning","4","4","1","1","cow","animals","1","0","","good","[6]"
"html-keyboard-response","154","600033","0.0-9.0-2.0-0.41","3883","1","19","Female","approach_avoid_spark_v1","""event"",""trial"",""time""
""fullscreenenter"",""1"",""5994""
","
","
","""event"",""trial"",""time""
""fullscreenenter"",""1"",""5994""
","
","","","","","","null","<div style=""font-size:60px;"">+</div>","null","","fixation","","","","","","","","","","",""
"aa-learning-trial","155","603041","0.0-9.0-2.0-1.41","3883","1","19","Female","approach_avoid_spark_v1","""event"",""trial"",""time""
""fullscreenenter"",""1"",""5994""
","
","
","""event"",""trial"",""time""
""fullscreenenter"",""1"",""5994""
","
","","","","","","1065.2999999523163","images/sheep3.png","","","learning","2","2","1","1","sheep","animals","1","0","","neutral","0"
"html-keyboard-response","156","603545","0.0-9.0-2.0-0.42","3883","1","19","Female","approach_avoid_spark_v1","""event"",""trial"",""time""
""fullscreenenter"",""1"",""5994""
","
","
","""event"",""trial"",""time""
""fullscreenenter"",""1"",""5994""
","
","","","","","","null","<div style=""font-size:60px;"">+</div>","null","","fixation","","","","","","","","","","",""
"aa-learning-trial","157","606553","0.0-9.0-2.0-1.42","3883","1","19","Female","approach_avoid_spark_v1","""event"",""trial"",""time""
""fullscreenenter"",""1"",""5994""
","
","
","""event"",""trial"",""time""
""fullscreenenter"",""1"",""5994""
","
","","","","","","1452.300000011921","images/cow7.png","","","learning","7","7","1","1","cow","animals","1","0","","good","[6]"
"html-keyboard-response","158","607057","0.0-9.0-2.0-0.43","3883","1","19","Female","approach_avoid_spark_v1","""event"",""trial"",""time""
""fullscreenenter"",""1"",""5994""
","
","
","""event"",""trial"",""time""
""fullscreenenter"",""1"",""5994""
","
","","","","","","null","<div style=""font-size:60px;"">+</div>","null","","fixation","","","","","","","","","","",""
"aa-learning-trial","159","610065","0.0-9.0-2.0-1.43","3883","1","19","Female","approach_avoid_spark_v1","""event"",""trial"",""time""
""fullscreenenter"",""1"",""5994""
","
","
","""event"",""trial"",""time""
""fullscreenenter"",""1"",""5994""
","
","","","","","","990.6999999880791","images/cow7.png","","","learning","6","6","1","1","cow","animals","1","0","","good","[6]"
"html-keyboard-response","160","610570","0.0-9.0-2.0-0.44","3883","1","19","Female","approach_avoid_spark_v1","""event"",""trial"",""time""
""fullscreenenter"",""1"",""5994""
","
","
","""event"",""trial"",""time""
""fullscreenenter"",""1"",""5994""
","
","","","","","","null","<div style=""font-size:60px;"">+</div>","null","","fixation","","","","","","","","","","",""
"aa-learning-trial","161","613577","0.0-9.0-2.0-1.44","3883","1","19","Female","approach_avoid_spark_v1","""event"",""trial"",""time""
""fullscreenenter"",""1"",""5994""
","
","
","""event"",""trial"",""time""
""fullscreenenter"",""1"",""5994""
","
","","","","","","1397.3999999761581","images/horse5.png","","","learning","-6","-6","1","1","horse","animals","1","0","","bad","[-4]"
"html-keyboard-response","162","614081","0.0-9.0-2.0-0.45","3883","1","19","Female","approach_avoid_spark_v1","""event"",""trial"",""time""
""fullscreenenter"",""1"",""5994""
","
","
","""event"",""trial"",""time""
""fullscreenenter"",""1"",""5994""
","
","","","","","","null","<div style=""font-size:60px;"">+</div>","null","","fixation","","","","","","","","","","",""
"aa-learning-trial","163","617089","0.0-9.0-2.0-1.45","3883","1","19","Female","approach_avoid_spark_v1","""event"",""trial"",""time""
""fullscreenenter"",""1"",""5994""
","
","
","""event"",""trial"",""time""
""fullscreenenter"",""1"",""5994""
","
","","","","","","1367.1000000238419","images/sheep7.png","","","learning","2","0","0","0","sheep","animals","1","0","","neutral","0"
"html-keyboard-response","164","617593","0.0-9.0-2.0-0.46","3883","1","19","Female","approach_avoid_spark_v1","""event"",""trial"",""time""
""fullscreenenter"",""1"",""5994""
","
","
","""event"",""trial"",""time""
""fullscreenenter"",""1"",""5994""
","
","","","","","","null","<div style=""font-size:60px;"">+</div>","null","","fixation","","","","","","","","","","",""
"aa-learning-trial","165","620600","0.0-9.0-2.0-1.46","3883","1","19","Female","approach_avoid_spark_v1","""event"",""trial"",""time""
""fullscreenenter"",""1"",""5994""
","
","
","""event"",""trial"",""time""
""fullscreenenter"",""1"",""5994""
","
","","","","","","1093.800000011921","images/sheep7.png","","","learning","2","2","1","1","sheep","animals","1","0","","neutral","0"
"html-keyboard-response","166","621105","0.0-9.0-2.0-0.47","3883","1","19","Female","approach_avoid_spark_v1","""event"",""trial"",""time""
""fullscreenenter"",""1"",""5994""
","
","
","""event"",""trial"",""time""
""fullscreenenter"",""1"",""5994""
","
","","","","","","null","<div style=""font-size:60px;"">+</div>","null","","fixation","","","","","","","","","","",""
"aa-learning-trial","167","624112","0.0-9.0-2.0-1.47","3883","1","19","Female","approach_avoid_spark_v1","""event"",""trial"",""time""
""fullscreenenter"",""1"",""5994""
","
","
","""event"",""trial"",""time""
""fullscreenenter"",""1"",""5994""
","
","","","","","","1760.8999999761581","images/cow6.png","","","learning","6","6","1","1","cow","animals","1","0","","good","[6]"
"html-keyboard-response","168","624617","0.0-9.0-2.0-0.48","3883","1","19","Female","approach_avoid_spark_v1","""event"",""trial"",""time""
""fullscreenenter"",""1"",""5994""
","
","
","""event"",""trial"",""time""
""fullscreenenter"",""1"",""5994""
","
","","","","","","null","<div style=""font-size:60px;"">+</div>","null","","fixation","","","","","","","","","","",""
"aa-learning-trial","169","627624","0.0-9.0-2.0-1.48","3883","1","19","Female","approach_avoid_spark_v1","""event"",""trial"",""time""
""fullscreenenter"",""1"",""5994""
","
","
","""event"",""trial"",""time""
""fullscreenenter"",""1"",""5994""
","
","","","","","","1460.300000011921","images/cow3.png","","","learning","5","5","1","1","cow","animals","1","0","","good","[6]"
"html-keyboard-response","170","628128","0.0-9.0-2.0-0.49","3883","1","19","Female","approach_avoid_spark_v1","""event"",""trial"",""time""
""fullscreenenter"",""1"",""5994""
","
","
","""event"",""trial"",""time""
""fullscreenenter"",""1"",""5994""
","
","","","","","","null","<div style=""font-size:60px;"">+</div>","null","","fixation","","","","","","","","","","",""
"aa-learning-trial","171","631144","0.0-9.0-2.0-1.49","3883","1","19","Female","approach_avoid_spark_v1","""event"",""trial"",""time""
""fullscreenenter"",""1"",""5994""
","
","
","""event"",""trial"",""time""
""fullscreenenter"",""1"",""5994""
","
","","","","","","1108.8999999761581","images/cow1.png","","","learning","5","5","1","1","cow","animals","1","0","","good","[6]"
"html-keyboard-response","172","631653","0.0-9.0-2.0-0.50","3883","1","19","Female","approach_avoid_spark_v1","""event"",""trial"",""time""
""fullscreenenter"",""1"",""5994""
","
","
","""event"",""trial"",""time""
""fullscreenenter"",""1"",""5994""
","
","","","","","","null","<div style=""font-size:60px;"">+</div>","null","","fixation","","","","","","","","","","",""
"aa-learning-trial","173","634657","0.0-9.0-2.0-1.50","3883","1","19","Female","approach_avoid_spark_v1","""event"",""trial"",""time""
""fullscreenenter"",""1"",""5994""
","
","
","""event"",""trial"",""time""
""fullscreenenter"",""1"",""5994""
","
","","","","","","1424.1000000238419","images/horse8.png","","","learning","-3","-3","1","1","horse","animals","1","0","","bad","[-4]"
"html-button-response","174","638286","0.0-9.0-3.0","3883","1","19","Female","approach_avoid_spark_v1","""event"",""trial"",""time""
""fullscreenenter"",""1"",""5994""
","
","
","""event"",""trial"",""time""
""fullscreenenter"",""1"",""5994""
","
","","","","","","3627.300000011921","<p> You have completed the round! <p> In this round, you earned 84 points! </p>","0","","break","","","","","","","","","","",""
"html-button-response","175","646803","0.0-10.0","3883","1","19","Female","approach_avoid_spark_v1","""event"",""trial"",""time""
""fullscreenenter"",""1"",""5994""
","
","
","""event"",""trial"",""time""
""fullscreenenter"",""1"",""5994""
","
","","","","","","8514.800000011921","<p> Now it's time to play another round. </p>","0","","transition_screen","","","","","","","","","","",""
"preload","176","646919","0.0-11.0-0.0","3883","1","19","Female","approach_avoid_spark_v1","""event"",""trial"",""time""
""fullscreenenter"",""1"",""5994""
","
","
","""event"",""trial"",""time""
""fullscreenenter"",""1"",""5994""
","
","true","false","[]","[]","[]","","","","","","","","","","","","","","","",""
"learning-instructions","177","653294","0.0-11.0-1.0-0.0","3883","1","19","Female","approach_avoid_spark_v1","""event"",""trial"",""time""
""fullscreenenter"",""1"",""5994""
","
","
","""event"",""trial"",""time""
""fullscreenenter"",""1"",""5994""
","
","","","","","","2384.899999976158","<p> Your goal in this round is to take care of lots of animals. </p></div>","","0","instructions","","","","","","","","","","",""
"learning-instructions","178","667073","0.0-11.0-1.0-0.1","3883","1","19","Female","approach_avoid_spark_v1","""event"",""trial"",""time""
""fullscreenenter"",""1"",""5994""
","
","
","""event"",""trial"",""time""
""fullscreenenter"",""1"",""5994""
","
","","","","","","4595","<p> Some animals want to be pet, while other animals want to be left alone.  </p><p> On each turn, you will see an animal.   </p><p> You need to decide whether to pet it or not.  </p>","","0","instructions","","","","","","","","","","",""
"learning-instructions","179","673403","0.0-11.0-1.0-0.2","3883","1","19","Female","approach_avoid_spark_v1","""event"",""trial"",""time""
""fullscreenenter"",""1"",""5994""
","
","
","""event"",""trial"",""time""
""fullscreenenter"",""1"",""5994""
","
","","","","","","1433.800000011921","<p> You can pet the animal by pressing 1 and leave the animal alone by pressing 0. </p><br><div class=""choice-instructions-grid""> <div class=""choice-option""><img src=""images/approach.png"" class=""choice-option-img"" stage=""instructions"" position=""0"" ><div class=""choice-option-text""> Press ""1."" </div></div><div class=""choice-option""><img src=""images/avoid.png"" class=""choice-option-img"" stage=""instructions"" position=""1"" ><div class=""choice-option-text""> Press ""0."" </div></div>","","0","instructions","","","","","","","","","","",""
"learning-instructions","180","682893","0.0-11.0-1.0-0.3","3883","1","19","Female","approach_avoid_spark_v1","""event"",""trial"",""time""
""fullscreenenter"",""1"",""5994""
","
","
","""event"",""trial"",""time""
""fullscreenenter"",""1"",""5994""
","
","","","","","","1034.1000000238419","<p> If you pet an animal that wants to be pet, you will make it feel happy! </p><p> But if you pet an animal that wants to be left alone, you will make it feel angry. </p>","","0","instructions","","","","","","","","","","",""
"learning-instructions","181","697268","0.0-11.0-1.0-0.4","3883","1","19","Female","approach_avoid_spark_v1","""event"",""trial"",""time""
""fullscreenenter"",""1"",""5994""
","
","
","""event"",""trial"",""time""
""fullscreenenter"",""1"",""5994""
","
","","","","","","2419","<p> You will earn points based on how you made the animal feel. </p><p> If you made it feel happy, you will WIN anywhere from 1 - 9 points, </p><p> but if you made it feel angry, you will LOSE anywhere from 1 - 9 points. </p>","","0","instructions","","","","","","","","","","",""
"learning-instructions","182","705350","0.0-11.0-1.0-0.5","3883","1","19","Female","approach_avoid_spark_v1","""event"",""trial"",""time""
""fullscreenenter"",""1"",""5994""
","
","
","""event"",""trial"",""time""
""fullscreenenter"",""1"",""5994""
","
","","","","","","1431.3999999761581","<p> You will see how many points you won or lost in the center of the screen. </p><p> Here is what you would see if you won 5 points: </p><p style=""color:green;font-size:50px;font-weight:bolder"">5</p>","","0","instructions","","","","","","","","","","",""
"learning-instructions","183","709442","0.0-11.0-1.0-0.6","3883","1","19","Female","approach_avoid_spark_v1","""event"",""trial"",""time""
""fullscreenenter"",""1"",""5994""
","
","
","""event"",""trial"",""time""
""fullscreenenter"",""1"",""5994""
","
","","","","","","1233.6000000238419","<p> And here is what you would see if you lost 3 points: </p><p style=""color:red;font-size:50px;font-weight:bolder"">-3</p>","","0","instructions","","","","","","","","","","",""
"learning-instructions","184","727076","0.0-11.0-1.0-0.7","3883","1","19","Female","approach_avoid_spark_v1","""event"",""trial"",""time""
""fullscreenenter"",""1"",""5994""
","
","
","""event"",""trial"",""time""
""fullscreenenter"",""1"",""5994""
","
","","","","","","4306.899999976158","<p> Some animals will become very happy or very angry. </p><p> These animals will make you win or lose LOTS of points. </p><p> Other animals have less strong feelings. </p><p> These animals will make you win or lose small amounts of points. </p>","","0","instructions","","","","","","","","","","",""
"learning-instructions","185","739140","0.0-11.0-1.0-0.8","3883","1","19","Female","approach_avoid_spark_v1","""event"",""trial"",""time""
""fullscreenenter"",""1"",""5994""
","
","
","""event"",""trial"",""time""
""fullscreenenter"",""1"",""5994""
","
","","","","","","1231.300000011921","<p> If you choose to leave the animal alone, you will not win or lose any points. </p><p>  However, in the center of the screen, you will see the number of points you WOULD HAVE won or lost if you had pet the animal. </p>","","0","instructions","","","","","","","","","","",""
"learning-instructions","186","751525","0.0-11.0-1.0-0.9","3883","1","19","Female","approach_avoid_spark_v1","""event"",""trial"",""time""
""fullscreenenter"",""1"",""5994""
","
","
","""event"",""trial"",""time""
""fullscreenenter"",""1"",""5994""
","
","","","","","","1146.699999988079","<p> Here is what you might see if you did not pet the animal but the animal wanted to be pet: </p><p style=""color:grey; font-size:50px; display: inline-block; border-spacing: 15px; border-width:3px; border-style:solid; border-color:red"">  &nbsp; 6 &nbsp; </p><p> Remember, in this case, you would not win or lose ANY points because you did not pet the animal.  </p>","","0","instructions","","","","","","","","","","",""
"learning-instructions","187","761086","0.0-11.0-1.0-0.10","3883","1","19","Female","approach_avoid_spark_v1","""event"",""trial"",""time""
""fullscreenenter"",""1"",""5994""
","
","
","""event"",""trial"",""time""
""fullscreenenter"",""1"",""5994""
","
","","","","","","2747.899999976158","<p> Try to make the best choice for each animal because </p><p> at the end of the game, you will earn bonus money based on how many points you earned. </p>","","0","instructions","","","","","","","","","","",""
"learning-instructions","188","771352","0.0-11.0-1.0-0.11","3883","1","19","Female","approach_avoid_spark_v1","""event"",""trial"",""time""
""fullscreenenter"",""1"",""5994""
","
","
","""event"",""trial"",""time""
""fullscreenenter"",""1"",""5994""
","
","","","","","","2054.100000023842","<p> You will have 3 seconds to make each choice. Try to respond before time runs out! </p><p> You will lose 5 points each time you do not make a response. </p>","","0","instructions","","","","","","","","","","",""
"html-keyboard-response","189","771974","0.0-11.0-2.0-0.0","3883","1","19","Female","approach_avoid_spark_v1","""event"",""trial"",""time""
""fullscreenenter"",""1"",""5994""
","
","
","""event"",""trial"",""time""
""fullscreenenter"",""1"",""5994""
","
","","","","","","null","<div style=""font-size:60px;"">+</div>","null","","fixation","","","","","","","","","","",""
"aa-learning-trial","190","774994","0.0-11.0-2.0-1.0","3883","1","19","Female","approach_avoid_spark_v1","""event"",""trial"",""time""
""fullscreenenter"",""1"",""5994""
","
","
","""event"",""trial"",""time""
""fullscreenenter"",""1"",""5994""
","
","","","","","","1093","images/dog7.png","","","learning","-4","-4","1","1","dog","pets","2","1","","bad","[-4]"
"html-keyboard-response","191","775509","0.0-11.0-2.0-0.1","3883","1","19","Female","approach_avoid_spark_v1","""event"",""trial"",""time""
""fullscreenenter"",""1"",""5994""
","
","
","""event"",""trial"",""time""
""fullscreenenter"",""1"",""5994""
","
","","","","","","null","<div style=""font-size:60px;"">+</div>","null","","fixation","","","","","","","","","","",""
"aa-learning-trial","192","778522","0.0-11.0-2.0-1.1","3883","1","19","Female","approach_avoid_spark_v1","""event"",""trial"",""time""
""fullscreenenter"",""1"",""5994""
","
","
","""event"",""trial"",""time""
""fullscreenenter"",""1"",""5994""
","
","","","","","","1427.5","images/dog3.png","","","learning","3","3","1","1","dog","pets","2","1","","bad","[-4]"
"html-keyboard-response","193","779037","0.0-11.0-2.0-0.2","3883","1","19","Female","approach_avoid_spark_v1","""event"",""trial"",""time""
""fullscreenenter"",""1"",""5994""
","
","
","""event"",""trial"",""time""
""fullscreenenter"",""1"",""5994""
","
","","","","","","null","<div style=""font-size:60px;"">+</div>","null","","fixation","","","","","","","","","","",""
"aa-learning-trial","194","782059","0.0-11.0-2.0-1.2","3883","1","19","Female","approach_avoid_spark_v1","""event"",""trial"",""time""
""fullscreenenter"",""1"",""5994""
","
","
","""event"",""trial"",""time""
""fullscreenenter"",""1"",""5994""
","
","","","","","","1237.7999999523163","images/dog7.png","","","learning","-4","0","0","0","dog","pets","2","1","","bad","[-4]"
"html-keyboard-response","195","782571","0.0-11.0-2.0-0.3","3883","1","19","Female","approach_avoid_spark_v1","""event"",""trial"",""time""
""fullscreenenter"",""1"",""5994""
","
","
","""event"",""trial"",""time""
""fullscreenenter"",""1"",""5994""
","
","","","","","","null","<div style=""font-size:60px;"">+</div>","null","","fixation","","","","","","","","","","",""
"aa-learning-trial","196","785581","0.0-11.0-2.0-1.3","3883","1","19","Female","approach_avoid_spark_v1","""event"",""trial"",""time""
""fullscreenenter"",""1"",""5994""
","
","
","""event"",""trial"",""time""
""fullscreenenter"",""1"",""5994""
","
","","","","","","1196.1000000238419","images/rabbit7.png","","","learning","7","7","1","1","rabbit","pets","2","1","","good","[3]"
"html-keyboard-response","197","786097","0.0-11.0-2.0-0.4","3883","1","19","Female","approach_avoid_spark_v1","""event"",""trial"",""time""
""fullscreenenter"",""1"",""5994""
","
","
","""event"",""trial"",""time""
""fullscreenenter"",""1"",""5994""
","
","","","","","","null","<div style=""font-size:60px;"">+</div>","null","","fixation","","","","","","","","","","",""
"aa-learning-trial","198","789119","0.0-11.0-2.0-1.4","3883","1","19","Female","approach_avoid_spark_v1","""event"",""trial"",""time""
""fullscreenenter"",""1"",""5994""
","
","
","""event"",""trial"",""time""
""fullscreenenter"",""1"",""5994""
","
","","","","","","1030.300000011921","images/dog6.png","","","learning","8","8","1","1","dog","pets","2","1","","bad","[-4]"
"html-keyboard-response","199","789634","0.0-11.0-2.0-0.5","3883","1","19","Female","approach_avoid_spark_v1","""event"",""trial"",""time""
""fullscreenenter"",""1"",""5994""
","
","
","""event"",""trial"",""time""
""fullscreenenter"",""1"",""5994""
","
","","","","","","null","<div style=""font-size:60px;"">+</div>","null","","fixation","","","","","","","","","","",""
"aa-learning-trial","200","792645","0.0-11.0-2.0-1.5","3883","1","19","Female","approach_avoid_spark_v1","""event"",""trial"",""time""
""fullscreenenter"",""1"",""5994""
","
","
","""event"",""trial"",""time""
""fullscreenenter"",""1"",""5994""
","
","","","","","","993.6999999880791","images/rabbit7.png","","","learning","7","7","1","1","rabbit","pets","2","1","","good","[3]"
"html-keyboard-response","201","793159","0.0-11.0-2.0-0.6","3883","1","19","Female","approach_avoid_spark_v1","""event"",""trial"",""time""
""fullscreenenter"",""1"",""5994""
","
","
","""event"",""trial"",""time""
""fullscreenenter"",""1"",""5994""
","
","","","","","","null","<div style=""font-size:60px;"">+</div>","null","","fixation","","","","","","","","","","",""
"aa-learning-trial","202","796174","0.0-11.0-2.0-1.6","3883","1","19","Female","approach_avoid_spark_v1","""event"",""trial"",""time""
""fullscreenenter"",""1"",""5994""
","
","
","""event"",""trial"",""time""
""fullscreenenter"",""1"",""5994""
","
","","","","","","1068.6000000238419","images/rabbit4.png","","","learning","-9","-9","1","1","rabbit","pets","2","1","","good","[3]"
"html-keyboard-response","203","796693","0.0-11.0-2.0-0.7","3883","1","19","Female","approach_avoid_spark_v1","""event"",""trial"",""time""
""fullscreenenter"",""1"",""5994""
","
","
","""event"",""trial"",""time""
""fullscreenenter"",""1"",""5994""
","
","","","","","","null","<div style=""font-size:60px;"">+</div>","null","","fixation","","","","","","","","","","",""
"aa-learning-trial","204","799705","0.0-11.0-2.0-1.7","3883","1","19","Female","approach_avoid_spark_v1","""event"",""trial"",""time""
""fullscreenenter"",""1"",""5994""
","
","
","""event"",""trial"",""time""
""fullscreenenter"",""1"",""5994""
","
","","","","","","1094","images/dog6.png","","","learning","8","8","1","1","dog","pets","2","1","","bad","[-4]"
"html-keyboard-response","205","800208","0.0-11.0-2.0-0.8","3883","1","19","Female","approach_avoid_spark_v1","""event"",""trial"",""time""
""fullscreenenter"",""1"",""5994""
","
","
","""event"",""trial"",""time""
""fullscreenenter"",""1"",""5994""
","
","","","","","","null","<div style=""font-size:60px;"">+</div>","null","","fixation","","","","","","","","","","",""
"aa-learning-trial","206","803217","0.0-11.0-2.0-1.8","3883","1","19","Female","approach_avoid_spark_v1","""event"",""trial"",""time""
""fullscreenenter"",""1"",""5994""
","
","
","""event"",""trial"",""time""
""fullscreenenter"",""1"",""5994""
","
","","","","","","1309.4000000357628","images/rodent6.png","","","learning","4","0","0","0","rodent","pets","2","1","","neutral","0"
"html-keyboard-response","207","803720","0.0-11.0-2.0-0.9","3883","1","19","Female","approach_avoid_spark_v1","""event"",""trial"",""time""
""fullscreenenter"",""1"",""5994""
","
","
","""event"",""trial"",""time""
""fullscreenenter"",""1"",""5994""
","
","","","","","","null","<div style=""font-size:60px;"">+</div>","null","","fixation","","","","","","","","","","",""
"aa-learning-trial","208","806729","0.0-11.0-2.0-1.9","3883","1","19","Female","approach_avoid_spark_v1","""event"",""trial"",""time""
""fullscreenenter"",""1"",""5994""
","
","
","""event"",""trial"",""time""
""fullscreenenter"",""1"",""5994""
","
","","","","","","1077.9000000357628","images/rodent4.png","","","learning","9","0","0","0","rodent","pets","2","1","","neutral","0"
"html-keyboard-response","209","807232","0.0-11.0-2.0-0.10","3883","1","19","Female","approach_avoid_spark_v1","""event"",""trial"",""time""
""fullscreenenter"",""1"",""5994""
","
","
","""event"",""trial"",""time""
""fullscreenenter"",""1"",""5994""
","
","","","","","","null","<div style=""font-size:60px;"">+</div>","null","","fixation","","","","","","","","","","",""
"aa-learning-trial","210","810240","0.0-11.0-2.0-1.10","3883","1","19","Female","approach_avoid_spark_v1","""event"",""trial"",""time""
""fullscreenenter"",""1"",""5994""
","
","
","""event"",""trial"",""time""
""fullscreenenter"",""1"",""5994""
","
","","","","","","1095.1000000238419","images/rabbit2.png","","","learning","5","5","1","1","rabbit","pets","2","1","","good","[3]"
"html-keyboard-response","211","810745","0.0-11.0-2.0-0.11","3883","1","19","Female","approach_avoid_spark_v1","""event"",""trial"",""time""
""fullscreenenter"",""1"",""5994""
","
","
","""event"",""trial"",""time""
""fullscreenenter"",""1"",""5994""
","
","","","","","","null","<div style=""font-size:60px;"">+</div>","null","","fixation","","","","","","","","","","",""
"aa-learning-trial","212","813753","0.0-11.0-2.0-1.11","3883","1","19","Female","approach_avoid_spark_v1","""event"",""trial"",""time""
""fullscreenenter"",""1"",""5994""
","
","
","""event"",""trial"",""time""
""fullscreenenter"",""1"",""5994""
","
","","","","","","1122.9000000357628","images/rodent7.png","","","learning","1","0","0","0","rodent","pets","2","1","","neutral","0"
"html-keyboard-response","213","814257","0.0-11.0-2.0-0.12","3883","1","19","Female","approach_avoid_spark_v1","""event"",""trial"",""time""
""fullscreenenter"",""1"",""5994""
","
","
","""event"",""trial"",""time""
""fullscreenenter"",""1"",""5994""
","
","","","","","","null","<div style=""font-size:60px;"">+</div>","null","","fixation","","","","","","","","","","",""
"aa-learning-trial","214","817265","0.0-11.0-2.0-1.12","3883","1","19","Female","approach_avoid_spark_v1","""event"",""trial"",""time""
""fullscreenenter"",""1"",""5994""
","
","
","""event"",""trial"",""time""
""fullscreenenter"",""1"",""5994""
","
","","","","","","1691.5","images/rabbit2.png","","","learning","5","5","1","1","rabbit","pets","2","1","","good","[3]"
"html-keyboard-response","215","817768","0.0-11.0-2.0-0.13","3883","1","19","Female","approach_avoid_spark_v1","""event"",""trial"",""time""
""fullscreenenter"",""1"",""5994""
","
","
","""event"",""trial"",""time""
""fullscreenenter"",""1"",""5994""
","
","","","","","","null","<div style=""font-size:60px;"">+</div>","null","","fixation","","","","","","","","","","",""
"aa-learning-trial","216","820781","0.0-11.0-2.0-1.13","3883","1","19","Female","approach_avoid_spark_v1","""event"",""trial"",""time""
""fullscreenenter"",""1"",""5994""
","
","
","""event"",""trial"",""time""
""fullscreenenter"",""1"",""5994""
","
","","","","","","899.6999999880791","images/rodent4.png","","","learning","9","0","0","0","rodent","pets","2","1","","neutral","0"
"html-keyboard-response","217","821288","0.0-11.0-2.0-0.14","3883","1","19","Female","approach_avoid_spark_v1","""event"",""trial"",""time""
""fullscreenenter"",""1"",""5994""
","
","
","""event"",""trial"",""time""
""fullscreenenter"",""1"",""5994""
","
","","","","","","null","<div style=""font-size:60px;"">+</div>","null","","fixation","","","","","","","","","","",""
"aa-learning-trial","218","824297","0.0-11.0-2.0-1.14","3883","1","19","Female","approach_avoid_spark_v1","""event"",""trial"",""time""
""fullscreenenter"",""1"",""5994""
","
","
","""event"",""trial"",""time""
""fullscreenenter"",""1"",""5994""
","
","","","","","","1080.699999988079","images/rodent7.png","","","learning","1","0","0","0","rodent","pets","2","1","","neutral","0"
"html-keyboard-response","219","824800","0.0-11.0-2.0-0.15","3883","1","19","Female","approach_avoid_spark_v1","""event"",""trial"",""time""
""fullscreenenter"",""1"",""5994""
","
","
","""event"",""trial"",""time""
""fullscreenenter"",""1"",""5994""
","
","","","","","","null","<div style=""font-size:60px;"">+</div>","null","","fixation","","","","","","","","","","",""
"aa-learning-trial","220","827808","0.0-11.0-2.0-1.15","3883","1","19","Female","approach_avoid_spark_v1","""event"",""trial"",""time""
""fullscreenenter"",""1"",""5994""
","
","
","""event"",""trial"",""time""
""fullscreenenter"",""1"",""5994""
","
","","","","","","1017.0999999642372","images/rabbit7.png","","","learning","7","7","1","1","rabbit","pets","2","1","","good","[3]"
"html-keyboard-response","221","828313","0.0-11.0-2.0-0.16","3883","1","19","Female","approach_avoid_spark_v1","""event"",""trial"",""time""
""fullscreenenter"",""1"",""5994""
","
","
","""event"",""trial"",""time""
""fullscreenenter"",""1"",""5994""
","
","","","","","","null","<div style=""font-size:60px;"">+</div>","null","","fixation","","","","","","","","","","",""
"aa-learning-trial","222","831321","0.0-11.0-2.0-1.16","3883","1","19","Female","approach_avoid_spark_v1","""event"",""trial"",""time""
""fullscreenenter"",""1"",""5994""
","
","
","""event"",""trial"",""time""
""fullscreenenter"",""1"",""5994""
","
","","","","","","974.9000000357628","images/rabbit2.png","","","learning","5","5","1","1","rabbit","pets","2","1","","good","[3]"
"html-keyboard-response","223","831825","0.0-11.0-2.0-0.17","3883","1","19","Female","approach_avoid_spark_v1","""event"",""trial"",""time""
""fullscreenenter"",""1"",""5994""
","
","
","""event"",""trial"",""time""
""fullscreenenter"",""1"",""5994""
","
","","","","","","null","<div style=""font-size:60px;"">+</div>","null","","fixation","","","","","","","","","","",""
"aa-learning-trial","224","834846","0.0-11.0-2.0-1.17","3883","1","19","Female","approach_avoid_spark_v1","""event"",""trial"",""time""
""fullscreenenter"",""1"",""5994""
","
","
","""event"",""trial"",""time""
""fullscreenenter"",""1"",""5994""
","
","","","","","","1373.6000000238419","images/rabbit3.png","","","learning","-3","-3","1","1","rabbit","pets","2","1","","good","[3]"
"html-keyboard-response","225","835353","0.0-11.0-2.0-0.18","3883","1","19","Female","approach_avoid_spark_v1","""event"",""trial"",""time""
""fullscreenenter"",""1"",""5994""
","
","
","""event"",""trial"",""time""
""fullscreenenter"",""1"",""5994""
","
","","","","","","null","<div style=""font-size:60px;"">+</div>","null","","fixation","","","","","","","","","","",""
"aa-learning-trial","226","838374","0.0-11.0-2.0-1.18","3883","1","19","Female","approach_avoid_spark_v1","""event"",""trial"",""time""
""fullscreenenter"",""1"",""5994""
","
","
","""event"",""trial"",""time""
""fullscreenenter"",""1"",""5994""
","
","","","","","","1435.7000000476837","images/rodent7.png","","","learning","1","0","0","0","rodent","pets","2","1","","neutral","0"
"html-keyboard-response","227","838880","0.0-11.0-2.0-0.19","3883","1","19","Female","approach_avoid_spark_v1","""event"",""trial"",""time""
""fullscreenenter"",""1"",""5994""
","
","
","""event"",""trial"",""time""
""fullscreenenter"",""1"",""5994""
","
","","","","","","null","<div style=""font-size:60px;"">+</div>","null","","fixation","","","","","","","","","","",""
"aa-learning-trial","228","841889","0.0-11.0-2.0-1.19","3883","1","19","Female","approach_avoid_spark_v1","""event"",""trial"",""time""
""fullscreenenter"",""1"",""5994""
","
","
","""event"",""trial"",""time""
""fullscreenenter"",""1"",""5994""
","
","","","","","","1318.800000011921","images/rodent6.png","","","learning","4","0","0","0","rodent","pets","2","1","","neutral","0"
"html-keyboard-response","229","842393","0.0-11.0-2.0-0.20","3883","1","19","Female","approach_avoid_spark_v1","""event"",""trial"",""time""
""fullscreenenter"",""1"",""5994""
","
","
","""event"",""trial"",""time""
""fullscreenenter"",""1"",""5994""
","
","","","","","","null","<div style=""font-size:60px;"">+</div>","null","","fixation","","","","","","","","","","",""
"aa-learning-trial","230","845398","0.0-11.0-2.0-1.20","3883","1","19","Female","approach_avoid_spark_v1","""event"",""trial"",""time""
""fullscreenenter"",""1"",""5994""
","
","
","""event"",""trial"",""time""
""fullscreenenter"",""1"",""5994""
","
","","","","","","1565.199999988079","images/rabbit7.png","","","learning","7","7","1","1","rabbit","pets","2","1","","good","[3]"
"html-keyboard-response","231","845905","0.0-11.0-2.0-0.21","3883","1","19","Female","approach_avoid_spark_v1","""event"",""trial"",""time""
""fullscreenenter"",""1"",""5994""
","
","
","""event"",""trial"",""time""
""fullscreenenter"",""1"",""5994""
","
","","","","","","null","<div style=""font-size:60px;"">+</div>","null","","fixation","","","","","","","","","","",""
"aa-learning-trial","232","848913","0.0-11.0-2.0-1.21","3883","1","19","Female","approach_avoid_spark_v1","""event"",""trial"",""time""
""fullscreenenter"",""1"",""5994""
","
","
","""event"",""trial"",""time""
""fullscreenenter"",""1"",""5994""
","
","","","","","","1004.5","images/rodent4.png","","","learning","9","9","1","1","rodent","pets","2","1","","neutral","0"
"html-keyboard-response","233","849420","0.0-11.0-2.0-0.22","3883","1","19","Female","approach_avoid_spark_v1","""event"",""trial"",""time""
""fullscreenenter"",""1"",""5994""
","
","
","""event"",""trial"",""time""
""fullscreenenter"",""1"",""5994""
","
","","","","","","null","<div style=""font-size:60px;"">+</div>","null","","fixation","","","","","","","","","","",""
"aa-learning-trial","234","852426","0.0-11.0-2.0-1.22","3883","1","19","Female","approach_avoid_spark_v1","""event"",""trial"",""time""
""fullscreenenter"",""1"",""5994""
","
","
","""event"",""trial"",""time""
""fullscreenenter"",""1"",""5994""
","
","","","","","","1269.199999988079","images/rodent4.png","","","learning","9","9","1","1","rodent","pets","2","1","","neutral","0"
"html-keyboard-response","235","852928","0.0-11.0-2.0-0.23","3883","1","19","Female","approach_avoid_spark_v1","""event"",""trial"",""time""
""fullscreenenter"",""1"",""5994""
","
","
","""event"",""trial"",""time""
""fullscreenenter"",""1"",""5994""
","
","","","","","","null","<div style=""font-size:60px;"">+</div>","null","","fixation","","","","","","","","","","",""
"aa-learning-trial","236","855937","0.0-11.0-2.0-1.23","3883","1","19","Female","approach_avoid_spark_v1","""event"",""trial"",""time""
""fullscreenenter"",""1"",""5994""
","
","
","""event"",""trial"",""time""
""fullscreenenter"",""1"",""5994""
