"trial_type","trial_index","time_elapsed","internal_node_id","subject_id","task_condition","age","gender","task_version","interactions","blur_events","focus_events","fullscreenenter_events","fullscreenexit_events","success","timeout","failed_images","failed_audio","failed_video","rt","stimulus","response","button_pressed","task_part","approach_reward","points","key_press","option_selected","stim_cat","task_block","block_condition","block_number","correct","cat_type","mean_cat_reward"
"pavlovia","0","8","0.0-0.0","3817","1","11","Female","approach_avoid_spark_v1","""event"",""trial"",""time""
""fullscreenenter"",""1"",""2387""
","
","
","""event"",""trial"",""time""
""fullscreenenter"",""1"",""2387""
","
","","","","","","","","","","","","","","","","","","","","",""
"fullscreen","1","3375","0.0-1.0","3817","1","11","Female","approach_avoid_spark_v1","""event"",""trial"",""time""
""fullscreenenter"",""1"",""2387""
""fullscreenexit"",""2"",""5336""
","
","
","""event"",""trial"",""time""
""fullscreenenter"",""1"",""2387""
","""event"",""trial"",""time""
""fullscreenexit"",""2"",""5336""
","true","","","","","","","","","","","","","","","","","","","",""
"preload","2","27371","0.0-2.0","3817","1","11","Female","approach_avoid_spark_v1","""event"",""trial"",""time""
""fullscreenenter"",""1"",""2387""
""fullscreenexit"",""2"",""5336""
","
","
","""event"",""trial"",""time""
""fullscreenenter"",""1"",""2387""
","""event"",""trial"",""time""
""fullscreenexit"",""2"",""5336""
","true","false","[]","[]","[]","","","","","","","","","","","","","","","",""
"audio-keyboard-response","3","30348","0.0-3.0","3817","1","11","Female","approach_avoid_spark_v1","""event"",""trial"",""time""
""fullscreenenter"",""1"",""2387""
""fullscreenexit"",""2"",""5336""
","
","
","""event"",""trial"",""time""
""fullscreenenter"",""1"",""2387""
","""event"",""trial"",""time""
""fullscreenexit"",""2"",""5336""
","","","","","","2975.999999999999","audio/beep_loop.wav"," ","","","","","","","","","","","","",""
"audio-button-response","4","33312","0.0-4.0","3817","1","11","Female","approach_avoid_spark_v1","""event"",""trial"",""time""
""fullscreenenter"",""1"",""2387""
""fullscreenexit"",""2"",""5336""
","
","
","""event"",""trial"",""time""
""fullscreenenter"",""1"",""2387""
","""event"",""trial"",""time""
""fullscreenexit"",""2"",""5336""
","","","","","","2965","audio/shark.wav","4","","","","","","","","","","","","",""
"audio-button-response","5","36476","0.0-5.0","3817","1","11","Female","approach_avoid_spark_v1","""event"",""trial"",""time""
""fullscreenenter"",""1"",""2387""
""fullscreenexit"",""2"",""5336""
","
","
","""event"",""trial"",""time""
""fullscreenenter"",""1"",""2387""
","""event"",""trial"",""time""
""fullscreenexit"",""2"",""5336""
","","","","","","2155","audio/turtle.wav","1","","","","","","","","","","","","",""
"preload","6","56575","0.0-6.0","3817","1","11","Female","approach_avoid_spark_v1","""event"",""trial"",""time""
""fullscreenenter"",""1"",""2387""
""fullscreenexit"",""2"",""5336""
","
","
","""event"",""trial"",""time""
""fullscreenenter"",""1"",""2387""
","""event"",""trial"",""time""
""fullscreenexit"",""2"",""5336""
","true","false","[]","[]","[]","","","","","","","","","","","","","","","",""
"html-keyboard-response","7","59915","0.0-7.0","3817","1","11","Female","approach_avoid_spark_v1","""event"",""trial"",""time""
""fullscreenenter"",""1"",""2387""
""fullscreenexit"",""2"",""5336""
","
","
","""event"",""trial"",""time""
""fullscreenenter"",""1"",""2387""
","""event"",""trial"",""time""
""fullscreenexit"",""2"",""5336""
","","","","","","3336.800000000745","Welcome to the experiment. Press any key to begin and to advance the instructions."," ","","","","","","","","","","","","",""
"learning-instructions","8","67977","0.0-8.0-0.0-0.0","3817","1","11","Female","approach_avoid_spark_v1","""event"",""trial"",""time""
""fullscreenenter"",""1"",""2387""
""fullscreenexit"",""2"",""5336""
","
","
","""event"",""trial"",""time""
""fullscreenenter"",""1"",""2387""
","""event"",""trial"",""time""
""fullscreenexit"",""2"",""5336""
","","","","","","1109.4000000003725","<p> Welcome! Today you are going to play 6 different rounds of a decision-making game. </p><p> Use the mouse to click next to continue. </p>","","0","instructions","","","","","","","","","","",""
"learning-instructions","9","71637","0.0-8.0-0.0-0.1","3817","1","11","Female","approach_avoid_spark_v1","""event"",""trial"",""time""
""fullscreenenter"",""1"",""2387""
""fullscreenexit"",""2"",""5336""
","
","
","""event"",""trial"",""time""
""fullscreenenter"",""1"",""2387""
","""event"",""trial"",""time""
""fullscreenexit"",""2"",""5336""
","","","","","","929.5","<p> You will start with a practice round to learn the rules. </p>","","0","instructions","","","","","","","","","","",""
"learning-instructions","10","75515","0.0-8.0-0.0-0.2","3817","1","11","Female","approach_avoid_spark_v1","""event"",""trial"",""time""
""fullscreenenter"",""1"",""2387""
""fullscreenexit"",""2"",""5336""
","
","
","""event"",""trial"",""time""
""fullscreenenter"",""1"",""2387""
","""event"",""trial"",""time""
""fullscreenexit"",""2"",""5336""
","","","","","","423.69999999925494","<p> Your goal in this round is to give out sports equipment to kids. </p></div>","","0","instructions","","","","","","","","","","",""
"learning-instructions","11","83434","0.0-8.0-0.0-0.3","3817","1","11","Female","approach_avoid_spark_v1","""event"",""trial"",""time""
""fullscreenenter"",""1"",""2387""
""fullscreenexit"",""2"",""5336""
","
","
","""event"",""trial"",""time""
""fullscreenenter"",""1"",""2387""
","""event"",""trial"",""time""
""fullscreenexit"",""2"",""5336""
","","","","","","374.69999999925494","<p> The kids only like some of the equipment.  </p><p> On each turn, you will see a piece of sports equipment.   </p><p> You need to decide whether to give it to the kids or not.  </p>","","0","instructions","","","","","","","","","","",""
"learning-instructions","12","88611","0.0-8.0-0.0-0.4","3817","1","11","Female","approach_avoid_spark_v1","""event"",""trial"",""time""
""fullscreenenter"",""1"",""2387""
""fullscreenexit"",""2"",""5336""
","
","
","""event"",""trial"",""time""
""fullscreenenter"",""1"",""2387""
","""event"",""trial"",""time""
""fullscreenexit"",""2"",""5336""
","","","","","","431","<p> You can give them the equipment by pressing 1 and choose not to give it to them by pressing 0. </p><br><div class=""choice-instructions-grid""> <div class=""choice-option""><img src=""images/approach.png"" class=""choice-option-img"" stage=""instructions"" position=""0"" ><div class=""choice-option-text""> Press ""1."" </div></div><div class=""choice-option""><img src=""images/avoid.png"" class=""choice-option-img"" stage=""instructions"" position=""1"" ><div class=""choice-option-text""> Press ""0."" </div></div>","","0","instructions","","","","","","","","","","",""
"learning-instructions","13","97404","0.0-8.0-0.0-0.5","3817","1","11","Female","approach_avoid_spark_v1","""event"",""trial"",""time""
""fullscreenenter"",""1"",""2387""
""fullscreenexit"",""2"",""5336""
","
","
","""event"",""trial"",""time""
""fullscreenenter"",""1"",""2387""
","""event"",""trial"",""time""
""fullscreenexit"",""2"",""5336""
","","","","","","1403.9000000003725","<p> If you give them a piece of equipment they like, they will be happy! </p><p> But if you give them a piece of equipment they do not like, they will be sad. </p>","","0","instructions","","","","","","","","","","",""
"learning-instructions","14","108503","0.0-8.0-0.0-0.6","3817","1","11","Female","approach_avoid_spark_v1","""event"",""trial"",""time""
""fullscreenenter"",""1"",""2387""
""fullscreenexit"",""2"",""5336""
","
","
","""event"",""trial"",""time""
""fullscreenenter"",""1"",""2387""
","""event"",""trial"",""time""
""fullscreenexit"",""2"",""5336""
","","","","","","579.4000000003725","<p> You will earn points based on how you make kids feel. </p><p> If you make them happy, you will WIN anywhere from 1 - 9 points, </p><p> but if you make them sad, you will LOSE anywhere from 1 - 9 points. </p>","","0","instructions","","","","","","","","","","",""
"learning-instructions","15","118506","0.0-8.0-0.0-0.7","3817","1","11","Female","approach_avoid_spark_v1","""event"",""trial"",""time""
""fullscreenenter"",""1"",""2387""
""fullscreenexit"",""2"",""5336""
","
","
","""event"",""trial"",""time""
""fullscreenenter"",""1"",""2387""
","""event"",""trial"",""time""
""fullscreenexit"",""2"",""5336""
","","","","","","449.09999999962747","<p> You will see how many points you won or lost in the center of the screen. </p><p> Here is what you would see if you won 6 points: </p><p style=""color:green;font-size:50px;font-weight:bolder"">6</p><p style=""color:green"">The text is GREEN because you WON points.</p>","","0","instructions","","","","","","","","","","",""
"learning-instructions","16","125017","0.0-8.0-0.0-0.8","3817","1","11","Female","approach_avoid_spark_v1","""event"",""trial"",""time""
""fullscreenenter"",""1"",""2387""
""fullscreenexit"",""2"",""5336""
","
","
","""event"",""trial"",""time""
""fullscreenenter"",""1"",""2387""
","""event"",""trial"",""time""
""fullscreenexit"",""2"",""5336""
","","","","","","1008.4000000003725","<p> And here is what you would see if you lost 4 points: </p><p style=""color:red;font-size:50px;font-weight:bolder"">-4</p><p style=""color:red"">The text is RED because you LOST points. </p>","","0","instructions","","","","","","","","","","",""
"learning-instructions","17","140181","0.0-8.0-0.0-0.9","3817","1","11","Female","approach_avoid_spark_v1","""event"",""trial"",""time""
""fullscreenenter"",""1"",""2387""
""fullscreenexit"",""2"",""5336""
","
","
","""event"",""trial"",""time""
""fullscreenenter"",""1"",""2387""
","""event"",""trial"",""time""
""fullscreenexit"",""2"",""5336""
","","","","","","448.30000000074506","<p> Some of the equipment will make the kids VERY happy or sad. </p><p> These pieces of equipment will make you win or lose LOTS of points. </p><p> Other pieces of equipment will only make the kids a little happy or sad. </p><p> These pieces of equipment will make you win or lose small amounts of points. </p>","","0","instructions","","","","","","","","","","",""
"learning-instructions","18","151747","0.0-8.0-0.0-0.10","3817","1","11","Female","approach_avoid_spark_v1","""event"",""trial"",""time""
""fullscreenenter"",""1"",""2387""
""fullscreenexit"",""2"",""5336""
","
","
","""event"",""trial"",""time""
""fullscreenenter"",""1"",""2387""
","""event"",""trial"",""time""
""fullscreenexit"",""2"",""5336""
","","","","","","933","<p> If you choose not to give them the equipment, you will not win or lose any points. </p><p>  However, in the center of the screen, you will see the number of points you WOULD HAVE won or lost if you had given them the equipment. </p>","","0","instructions","","","","","","","","","","",""
"learning-instructions","19","174751","0.0-8.0-0.0-0.11","3817","1","11","Female","approach_avoid_spark_v1","""event"",""trial"",""time""
""fullscreenenter"",""1"",""2387""
""fullscreenexit"",""2"",""5336""
","
","
","""event"",""trial"",""time""
""fullscreenenter"",""1"",""2387""
","""event"",""trial"",""time""
""fullscreenexit"",""2"",""5336""
","","","","","","1472.5999999996275","<p> Here is what you might see if you did not give the equipment to the kids but it would have made them happy: </p><p style=""color:grey; font-size:50px; display: inline-block; border-spacing: 15px; border-width:3px; border-style:solid; border-color:red"">  &nbsp; 7 &nbsp; </p><p> Remember, in this case, you would not win or lose ANY points because you did not give them the equipment.  </p><p style=""color:grey"">The text is GREY because you earned ZERO points. </p><p style=""color:red"">However, choosing to give the kids the equipment would have made you win points. The box around the text is RED because you chose the worse option. </p>","","0","instructions","","","","","","","","","","",""
"learning-instructions","20","196766","0.0-8.0-0.0-0.12","3817","1","11","Female","approach_avoid_spark_v1","""event"",""trial"",""time""
""fullscreenenter"",""1"",""2387""
""fullscreenexit"",""2"",""5336""
","
","
","""event"",""trial"",""time""
""fullscreenenter"",""1"",""2387""
","""event"",""trial"",""time""
""fullscreenexit"",""2"",""5336""
","","","","","","938.6999999992549","<p> Here is what you might see if you did not give the equipment to the kids but it would have made them sad: </p><p style=""color:grey;font-size:50px; display: inline-block; border-spacing: 15px; border-width:3px; border-style:solid; border-color:green"">  &nbsp; -8 &nbsp; </p><p> Remember, in this case, you would not win or lose ANY points because you did not give them the equipment.  </p><p style=""color:grey"">The text is GREY because you earned ZERO points. </p><p  style=""color:green""> Choosing to give the kids the equipment would have made you lose points. The box around the text is GREEN because you chose the better option.</p>","","0","instructions","","","","","","","","","","",""
"learning-instructions","21","208579","0.0-8.0-0.0-0.13","3817","1","11","Female","approach_avoid_spark_v1","""event"",""trial"",""time""
""fullscreenenter"",""1"",""2387""
""fullscreenexit"",""2"",""5336""
","
","
","""event"",""trial"",""time""
""fullscreenenter"",""1"",""2387""
","""event"",""trial"",""time""
""fullscreenexit"",""2"",""5336""
","","","","","","1614.800000000745","<p> You will have 3 seconds to make each choice. Try to respond before time runs out! </p><p> You will lose 5 points each time you do not make a response. </p>","","0","instructions","","","","","","","","","","",""
"learning-instructions","22","214936","0.0-8.0-0.0-0.14","3817","1","11","Female","approach_avoid_spark_v1","""event"",""trial"",""time""
""fullscreenenter"",""1"",""2387""
""fullscreenexit"",""2"",""5336""
","
","
","""event"",""trial"",""time""
""fullscreenenter"",""1"",""2387""
","""event"",""trial"",""time""
""fullscreenexit"",""2"",""5336""
","","","","","","943.7000000011176","<p> This is just a practice round, but in the real game, your bonus payment will depend on your total number of points.","","0","instructions","","","","","","","","","","",""
"learning-instructions","23","221136","0.0-8.0-0.0-0.15","3817","1","11","Female","approach_avoid_spark_v1","""event"",""trial"",""time""
""fullscreenenter"",""1"",""2387""
""fullscreenexit"",""2"",""5336""
","
","
","""event"",""trial"",""time""
""fullscreenenter"",""1"",""2387""
","""event"",""trial"",""time""
""fullscreenexit"",""2"",""5336""
","","","","","","433.5","<p> Remember, you can give them the equipment by pressing 1 and choose not to give it to them by pressing 0. </p><br><div class=""choice-instructions-grid""> <div class=""choice-option""><img src=""images/approach.png"" class=""choice-option-img"" stage=""instructions"" position=""0"" ><div class=""choice-option-text""> Press ""1."" </div></div><div class=""choice-option""><img src=""images/avoid.png"" class=""choice-option-img"" stage=""instructions"" position=""1"" ><div class=""choice-option-text""> Press ""0."" </div></div>","","0","instructions","","","","","","","","","","",""
"html-button-response","24","224352","0.0-8.0-1.0","3817","1","11","Female","approach_avoid_spark_v1","""event"",""trial"",""time""
""fullscreenenter"",""1"",""2387""
""fullscreenexit"",""2"",""5336""
","
","
","""event"",""trial"",""time""
""fullscreenenter"",""1"",""2387""
","""event"",""trial"",""time""
""fullscreenexit"",""2"",""5336""
","","","","","","3110.0999999996275","<p> Ready to practice? </p>","0","","","","","","","","","","","","",""
"html-keyboard-response","25","224960","0.0-8.0-2.0-0.0","3817","1","11","Female","approach_avoid_spark_v1","""event"",""trial"",""time""
""fullscreenenter"",""1"",""2387""
""fullscreenexit"",""2"",""5336""
","
","
","""event"",""trial"",""time""
""fullscreenenter"",""1"",""2387""
","""event"",""trial"",""time""
""fullscreenexit"",""2"",""5336""
","","","","","","null","<div style=""font-size:60px;"">+</div>","null","","fixation","","","","","","","","","","",""
"aa-learning-trial","26","227968","0.0-8.0-2.0-1.0","3817","1","11","Female","approach_avoid_spark_v1","""event"",""trial"",""time""
""fullscreenenter"",""1"",""2387""
""fullscreenexit"",""2"",""5336""
","
","
","""event"",""trial"",""time""
""fullscreenenter"",""1"",""2387""
","""event"",""trial"",""time""
""fullscreenexit"",""2"",""5336""
","","","","","","1443.9000000003725","images/racket2.png","","","learning","-7","-7","1","1","practice","practice","practice","-1","","",""
"html-keyboard-response","27","228472","0.0-8.0-2.0-0.1","3817","1","11","Female","approach_avoid_spark_v1","""event"",""trial"",""time""
""fullscreenenter"",""1"",""2387""
""fullscreenexit"",""2"",""5336""
","
","
","""event"",""trial"",""time""
""fullscreenenter"",""1"",""2387""
","""event"",""trial"",""time""
""fullscreenexit"",""2"",""5336""
","","","","","","null","<div style=""font-size:60px;"">+</div>","null","","fixation","","","","","","","","","","",""
"aa-learning-trial","28","231480","0.0-8.0-2.0-1.1","3817","1","11","Female","approach_avoid_spark_v1","""event"",""trial"",""time""
""fullscreenenter"",""1"",""2387""
""fullscreenexit"",""2"",""5336""
","
","
","""event"",""trial"",""time""
""fullscreenenter"",""1"",""2387""
","""event"",""trial"",""time""
""fullscreenexit"",""2"",""5336""
","","","","","","936.1000000014901","images/ball2.png","","","learning","3","0","0","0","practice","practice","practice","-1","","",""
"html-keyboard-response","29","231984","0.0-8.0-2.0-0.2","3817","1","11","Female","approach_avoid_spark_v1","""event"",""trial"",""time""
""fullscreenenter"",""1"",""2387""
""fullscreenexit"",""2"",""5336""
","
","
","""event"",""trial"",""time""
""fullscreenenter"",""1"",""2387""
","""event"",""trial"",""time""
""fullscreenexit"",""2"",""5336""
","","","","","","null","<div style=""font-size:60px;"">+</div>","null","","fixation","","","","","","","","","","",""
"aa-learning-trial","30","234992","0.0-8.0-2.0-1.2","3817","1","11","Female","approach_avoid_spark_v1","""event"",""trial"",""time""
""fullscreenenter"",""1"",""2387""
""fullscreenexit"",""2"",""5336""
","
","
","""event"",""trial"",""time""
""fullscreenenter"",""1"",""2387""
","""event"",""trial"",""time""
""fullscreenexit"",""2"",""5336""
","","","","","","667.9000000003725","images/racket4.png","","","learning","-9","-9","1","1","practice","practice","practice","-1","","",""
"html-keyboard-response","31","235496","0.0-8.0-2.0-0.3","3817","1","11","Female","approach_avoid_spark_v1","""event"",""trial"",""time""
""fullscreenenter"",""1"",""2387""
""fullscreenexit"",""2"",""5336""
","
","
","""event"",""trial"",""time""
""fullscreenenter"",""1"",""2387""
","""event"",""trial"",""time""
""fullscreenexit"",""2"",""5336""
","","","","","","null","<div style=""font-size:60px;"">+</div>","null","","fixation","","","","","","","","","","",""
"aa-learning-trial","32","238504","0.0-8.0-2.0-1.3","3817","1","11","Female","approach_avoid_spark_v1","""event"",""trial"",""time""
""fullscreenenter"",""1"",""2387""
""fullscreenexit"",""2"",""5336""
","
","
","""event"",""trial"",""time""
""fullscreenenter"",""1"",""2387""
","""event"",""trial"",""time""
""fullscreenexit"",""2"",""5336""
","","","","","","654.1999999992549","images/racket1.png","","","learning","3","3","1","1","practice","practice","practice","-1","","",""
"html-keyboard-response","33","239008","0.0-8.0-2.0-0.4","3817","1","11","Female","approach_avoid_spark_v1","""event"",""trial"",""time""
""fullscreenenter"",""1"",""2387""
""fullscreenexit"",""2"",""5336""
","
","
","""event"",""trial"",""time""
""fullscreenenter"",""1"",""2387""
","""event"",""trial"",""time""
""fullscreenexit"",""2"",""5336""
","","","","","","null","<div style=""font-size:60px;"">+</div>","null","","fixation","","","","","","","","","","",""
"aa-learning-trial","34","242016","0.0-8.0-2.0-1.4","3817","1","11","Female","approach_avoid_spark_v1","""event"",""trial"",""time""
""fullscreenenter"",""1"",""2387""
""fullscreenexit"",""2"",""5336""
","
","
","""event"",""trial"",""time""
""fullscreenenter"",""1"",""2387""
","""event"",""trial"",""time""
""fullscreenexit"",""2"",""5336""
","","","","","","797.8999999985099","images/racket3.png","","","learning","-4","0","0","0","practice","practice","practice","-1","","",""
"html-keyboard-response","35","242520","0.0-8.0-2.0-0.5","3817","1","11","Female","approach_avoid_spark_v1","""event"",""trial"",""time""
""fullscreenenter"",""1"",""2387""
""fullscreenexit"",""2"",""5336""
","
","
","""event"",""trial"",""time""
""fullscreenenter"",""1"",""2387""
","""event"",""trial"",""time""
""fullscreenexit"",""2"",""5336""
","","","","","","null","<div style=""font-size:60px;"">+</div>","null","","fixation","","","","","","","","","","",""
"aa-learning-trial","36","245528","0.0-8.0-2.0-1.5","3817","1","11","Female","approach_avoid_spark_v1","""event"",""trial"",""time""
""fullscreenenter"",""1"",""2387""
""fullscreenexit"",""2"",""5336""
","
","
","""event"",""trial"",""time""
""fullscreenenter"",""1"",""2387""
","""event"",""trial"",""time""
""fullscreenexit"",""2"",""5336""
","","","","","","777.1999999992549","images/racket3.png","","","learning","6","0","0","0","practice","practice","practice","-1","","",""
"html-keyboard-response","37","246032","0.0-8.0-2.0-0.6","3817","1","11","Female","approach_avoid_spark_v1","""event"",""trial"",""time""
""fullscreenenter"",""1"",""2387""
""fullscreenexit"",""2"",""5336""
","
","
","""event"",""trial"",""time""
""fullscreenenter"",""1"",""2387""
","""event"",""trial"",""time""
""fullscreenexit"",""2"",""5336""
","","","","","","null","<div style=""font-size:60px;"">+</div>","null","","fixation","","","","","","","","","","",""
"aa-learning-trial","38","249040","0.0-8.0-2.0-1.6","3817","1","11","Female","approach_avoid_spark_v1","""event"",""trial"",""time""
""fullscreenenter"",""1"",""2387""
""fullscreenexit"",""2"",""5336""
","
","
","""event"",""trial"",""time""
""fullscreenenter"",""1"",""2387""
","""event"",""trial"",""time""
""fullscreenexit"",""2"",""5336""
","","","","","","414.2999999988824","images/ball2.png","","","learning","-3","-3","1","1","practice","practice","practice","-1","","",""
"html-keyboard-response","39","249544","0.0-8.0-2.0-0.7","3817","1","11","Female","approach_avoid_spark_v1","""event"",""trial"",""time""
""fullscreenenter"",""1"",""2387""
""fullscreenexit"",""2"",""5336""
","
","
","""event"",""trial"",""time""
""fullscreenenter"",""1"",""2387""
","""event"",""trial"",""time""
""fullscreenexit"",""2"",""5336""
","","","","","","null","<div style=""font-size:60px;"">+</div>","null","","fixation","","","","","","","","","","",""
"aa-learning-trial","40","252552","0.0-8.0-2.0-1.7","3817","1","11","Female","approach_avoid_spark_v1","""event"",""trial"",""time""
""fullscreenenter"",""1"",""2387""
""fullscreenexit"",""2"",""5336""
","
","
","""event"",""trial"",""time""
""fullscreenenter"",""1"",""2387""
","""event"",""trial"",""time""
""fullscreenexit"",""2"",""5336""
","","","","","","521","images/ball2.png","","","learning","5","5","1","1","practice","practice","practice","-1","","",""
"html-keyboard-response","41","253056","0.0-8.0-2.0-0.8","3817","1","11","Female","approach_avoid_spark_v1","""event"",""trial"",""time""
""fullscreenenter"",""1"",""2387""
""fullscreenexit"",""2"",""5336""
","
","
","""event"",""trial"",""time""
""fullscreenenter"",""1"",""2387""
","""event"",""trial"",""time""
""fullscreenexit"",""2"",""5336""
","","","","","","null","<div style=""font-size:60px;"">+</div>","null","","fixation","","","","","","","","","","",""
"aa-learning-trial","42","256065","0.0-8.0-2.0-1.8","3817","1","11","Female","approach_avoid_spark_v1","""event"",""trial"",""time""
""fullscreenenter"",""1"",""2387""
""fullscreenexit"",""2"",""5336""
","
","
","""event"",""trial"",""time""
""fullscreenenter"",""1"",""2387""
","""event"",""trial"",""time""
""fullscreenexit"",""2"",""5336""
","","","","","","552.5","images/ball2.png","","","learning","-9","-9","1","1","practice","practice","practice","-1","","",""
"html-keyboard-response","43","256568","0.0-8.0-2.0-0.9","3817","1","11","Female","approach_avoid_spark_v1","""event"",""trial"",""time""
""fullscreenenter"",""1"",""2387""
""fullscreenexit"",""2"",""5336""
","
","
","""event"",""trial"",""time""
""fullscreenenter"",""1"",""2387""
","""event"",""trial"",""time""
""fullscreenexit"",""2"",""5336""
","","","","","","null","<div style=""font-size:60px;"">+</div>","null","","fixation","","","","","","","","","","",""
"aa-learning-trial","44","259576","0.0-8.0-2.0-1.9","3817","1","11","Female","approach_avoid_spark_v1","""event"",""trial"",""time""
""fullscreenenter"",""1"",""2387""
""fullscreenexit"",""2"",""5336""
","
","
","""event"",""trial"",""time""
""fullscreenenter"",""1"",""2387""
","""event"",""trial"",""time""
""fullscreenexit"",""2"",""5336""
","","","","","","248.90000000037253","images/ball1.png","","","learning","-2","0","0","0","practice","practice","practice","-1","","",""
"html-keyboard-response","45","260080","0.0-8.0-2.0-0.10","3817","1","11","Female","approach_avoid_spark_v1","""event"",""trial"",""time""
""fullscreenenter"",""1"",""2387""
""fullscreenexit"",""2"",""5336""
","
","
","""event"",""trial"",""time""
""fullscreenenter"",""1"",""2387""
","""event"",""trial"",""time""
""fullscreenexit"",""2"",""5336""
","","","","","","null","<div style=""font-size:60px;"">+</div>","null","","fixation","","","","","","","","","","",""
"aa-learning-trial","46","263088","0.0-8.0-2.0-1.10","3817","1","11","Female","approach_avoid_spark_v1","""event"",""trial"",""time""
""fullscreenenter"",""1"",""2387""
""fullscreenexit"",""2"",""5336""
","
","
","""event"",""trial"",""time""
""fullscreenenter"",""1"",""2387""
","""event"",""trial"",""time""
""fullscreenexit"",""2"",""5336""
","","","","","","294.5","images/racket3.png","","","learning","-7","0","0","0","practice","practice","practice","-1","","",""
"html-keyboard-response","47","263592","0.0-8.0-2.0-0.11","3817","1","11","Female","approach_avoid_spark_v1","""event"",""trial"",""time""
""fullscreenenter"",""1"",""2387""
""fullscreenexit"",""2"",""5336""
","
","
","""event"",""trial"",""time""
""fullscreenenter"",""1"",""2387""
","""event"",""trial"",""time""
""fullscreenexit"",""2"",""5336""
","","","","","","null","<div style=""font-size:60px;"">+</div>","null","","fixation","","","","","","","","","","",""
"aa-learning-trial","48","266600","0.0-8.0-2.0-1.11","3817","1","11","Female","approach_avoid_spark_v1","""event"",""trial"",""time""
""fullscreenenter"",""1"",""2387""
""fullscreenexit"",""2"",""5336""
","
","
","""event"",""trial"",""time""
""fullscreenenter"",""1"",""2387""
","""event"",""trial"",""time""
""fullscreenexit"",""2"",""5336""
","","","","","","660.7000000011176","images/racket4.png","","","learning","-1","0","0","0","practice","practice","practice","-1","","",""
"html-button-response","49","269664","0.0-8.0-3.0","3817","1","11","Female","approach_avoid_spark_v1","""event"",""trial"",""time""
""fullscreenenter"",""1"",""2387""
""fullscreenexit"",""2"",""5336""
","
","
","""event"",""trial"",""time""
""fullscreenenter"",""1"",""2387""
","""event"",""trial"",""time""
""fullscreenexit"",""2"",""5336""
","","","","","","3061.800000000745","<p> You earned -20 points in the practice round! </p>","0","","break","","","","","","","","","","",""
"learning-instructions","50","276450","0.0-8.0-4.0-0.0","3817","1","11","Female","approach_avoid_spark_v1","""event"",""trial"",""time""
""fullscreenenter"",""1"",""2387""
""fullscreenexit"",""2"",""5336""
","
","
","""event"",""trial"",""time""
""fullscreenenter"",""1"",""2387""
","""event"",""trial"",""time""
""fullscreenexit"",""2"",""5336""
","","","","","","812.4000000003725","<p> It's almost time to start the real game. </p><p> Before you start, we're going to ask you a few questions about how the game works. </p>","","0","instructions","","","","","","","","","","",""
"preload","51","283157","0.0-8.0-5.0","3817","1","11","Female","approach_avoid_spark_v1","""event"",""trial"",""time""
""fullscreenenter"",""1"",""2387""
""fullscreenexit"",""2"",""5336""
","
","
","""event"",""trial"",""time""
""fullscreenenter"",""1"",""2387""
","""event"",""trial"",""time""
""fullscreenexit"",""2"",""5336""
","true","false","[]","[]","[]","","","","","","","","","","","","","","","",""
"comp-q","52","289446","0.0-8.0-6.0-0.0","3817","1","11","Female","approach_avoid_spark_v1","""event"",""trial"",""time""
""fullscreenenter"",""1"",""2387""
""fullscreenexit"",""2"",""5336""
","
","
","""event"",""trial"",""time""
""fullscreenenter"",""1"",""2387""
","""event"",""trial"",""time""
""fullscreenexit"",""2"",""5336""
","","","","","","1285.699999999255","<p> <b> True or False? </b> </p><p> If you see a number in GREY, that means you earned that many points. </p>","","1","comp_question","","","","","","","","","true","",""
"comp-q","53","299304","0.0-8.0-6.0-1.0","3817","1","11","Female","approach_avoid_spark_v1","""event"",""trial"",""time""
""fullscreenenter"",""1"",""2387""
""fullscreenexit"",""2"",""5336""
","
","
","""event"",""trial"",""time""
""fullscreenenter"",""1"",""2387""
","""event"",""trial"",""time""
""fullscreenexit"",""2"",""5336""
","","","","","","1501.800000000745","<p><b> That's right! </b> If you see a grey number, it means you earned ZERO points. <br> The grey numbers show the points you WOULD HAVE earned if you had made the other choice. </p>","","0","comp_answer","","","","","","","","","","",""
"comp-q","54","305303","0.0-8.0-7.0-0.0","3817","1","11","Female","approach_avoid_spark_v1","""event"",""trial"",""time""
""fullscreenenter"",""1"",""2387""
""fullscreenexit"",""2"",""5336""
","
","
","""event"",""trial"",""time""
""fullscreenenter"",""1"",""2387""
","""event"",""trial"",""time""
""fullscreenexit"",""2"",""5336""
","","","","","","1313.5","<p> <b> True or False? </b> </p><p> You will have as much time as you want to make each choice. </p>","","1","comp_question","","","","","","","","","true","",""
"comp-q","55","310707","0.0-8.0-7.0-1.0","3817","1","11","Female","approach_avoid_spark_v1","""event"",""trial"",""time""
""fullscreenenter"",""1"",""2387""
""fullscreenexit"",""2"",""5336""
","
","
","""event"",""trial"",""time""
""fullscreenenter"",""1"",""2387""
","""event"",""trial"",""time""
""fullscreenexit"",""2"",""5336""
","","","","","","1363.300000000745","<p> <b> That's right! </b> You will only have 3 seconds to make each choice. </p>","","0","comp_answer","","","","","","","","","","",""
"comp-q","56","316202","0.0-8.0-8.0-0.0","3817","1","11","Female","approach_avoid_spark_v1","""event"",""trial"",""time""
""fullscreenenter"",""1"",""2387""
""fullscreenexit"",""2"",""5336""
","
","
","""event"",""trial"",""time""
""fullscreenenter"",""1"",""2387""
","""event"",""trial"",""time""
""fullscreenexit"",""2"",""5336""
","","","","","","841.5999999996275","<p> <b> True or False? </b> </p><p> You should use the '1' and '0' keys to make your choices. </p>","","0","comp_question","","","","","","","","","true","",""
"comp-q","57","321735","0.0-8.0-8.0-1.0","3817","1","11","Female","approach_avoid_spark_v1","""event"",""trial"",""time""
""fullscreenenter"",""1"",""2387""
""fullscreenexit"",""2"",""5336""
","
","
","""event"",""trial"",""time""
""fullscreenenter"",""1"",""2387""
","""event"",""trial"",""time""
""fullscreenexit"",""2"",""5336""
","","","","","","924.5","<p> <b> That's right! </b> You should use the '1' and '0' keys to make each choice. </p>","","0","comp_answer","","","","","","","","","","",""
"learning-instructions","58","332432","0.0-8.0-9.0-0.0","3817","1","11","Female","approach_avoid_spark_v1","""event"",""trial"",""time""
""fullscreenenter"",""1"",""2387""
""fullscreenexit"",""2"",""5336""
","
","
","""event"",""trial"",""time""
""fullscreenenter"",""1"",""2387""
","""event"",""trial"",""time""
""fullscreenexit"",""2"",""5336""
","","","","","","4431.700000001118","<p> It's now time to start the real game. </p>Do your best, because the points you earn in the next rounds will influence your bonus payment. </p>","","0","instructions","","","","","","","","","","",""
"preload","59","332569","0.0-9.0-0.0","3817","1","11","Female","approach_avoid_spark_v1","""event"",""trial"",""time""
""fullscreenenter"",""1"",""2387""
""fullscreenexit"",""2"",""5336""
","
","
","""event"",""trial"",""time""
""fullscreenenter"",""1"",""2387""
","""event"",""trial"",""time""
""fullscreenexit"",""2"",""5336""
","true","false","[]","[]","[]","","","","","","","","","","","","","","","",""
"learning-instructions","60","337283","0.0-9.0-1.0-0.0","3817","1","11","Female","approach_avoid_spark_v1","""event"",""trial"",""time""
""fullscreenenter"",""1"",""2387""
""fullscreenexit"",""2"",""5336""
","
","
","""event"",""trial"",""time""
""fullscreenenter"",""1"",""2387""
","""event"",""trial"",""time""
""fullscreenexit"",""2"",""5336""
","","","","","","1293.2999999988824","<p> Your goal in this round is to eat tasty fruit. </p></div>","","0","instructions","","","","","","","","","","",""
"learning-instructions","61","348504","0.0-9.0-1.0-0.1","3817","1","11","Female","approach_avoid_spark_v1","""event"",""trial"",""time""
""fullscreenenter"",""1"",""2387""
""fullscreenexit"",""2"",""5336""
","
","
","""event"",""trial"",""time""
""fullscreenenter"",""1"",""2387""
","""event"",""trial"",""time""
""fullscreenexit"",""2"",""5336""
","","","","","","803.6000000014901","<p> Some of the fruits you will see are tasty. Others are rotten on the inside.  </p><p> On each turn, you will see a fruit.   </p><p> You need to decide whether to eat it or not.  </p>","","0","instructions","","","","","","","","","","",""
"learning-instructions","62","354437","0.0-9.0-1.0-0.2","3817","1","11","Female","approach_avoid_spark_v1","""event"",""trial"",""time""
""fullscreenenter"",""1"",""2387""
""fullscreenexit"",""2"",""5336""
","
","
","""event"",""trial"",""time""
""fullscreenenter"",""1"",""2387""
","""event"",""trial"",""time""
""fullscreenexit"",""2"",""5336""
","","","","","","707.9000000003725","<p> You can eat the fruit by pressing 1 and choose not to eat it by pressing 0. </p><br><div class=""choice-instructions-grid""> <div class=""choice-option""><img src=""images/approach.png"" class=""choice-option-img"" stage=""instructions"" position=""0"" ><div class=""choice-option-text""> Press ""1."" </div></div><div class=""choice-option""><img src=""images/avoid.png"" class=""choice-option-img"" stage=""instructions"" position=""1"" ><div class=""choice-option-text""> Press ""0."" </div></div>","","0","instructions","","","","","","","","","","",""
"learning-instructions","63","363787","0.0-9.0-1.0-0.3","3817","1","11","Female","approach_avoid_spark_v1","""event"",""trial"",""time""
""fullscreenenter"",""1"",""2387""
""fullscreenexit"",""2"",""5336""
","
","
","""event"",""trial"",""time""
""fullscreenenter"",""1"",""2387""
","""event"",""trial"",""time""
""fullscreenexit"",""2"",""5336""
","","","","","","1557","<p> If you eat the fruit and it was tasty, you will win points! </p><p> But if you eat the fruit and it was rotten, you will lose points. </p>","","0","instructions","","","","","","","","","","",""
"learning-instructions","64","377796","0.0-9.0-1.0-0.4","3817","1","11","Female","approach_avoid_spark_v1","""event"",""trial"",""time""
""fullscreenenter"",""1"",""2387""
""fullscreenexit"",""2"",""5336""
","
","
","""event"",""trial"",""time""
""fullscreenenter"",""1"",""2387""
","""event"",""trial"",""time""
""fullscreenexit"",""2"",""5336""
","","","","","","1933.800000000745","<p> You will earn points based on how tasty or rotten the fruit was. </p><p> If it was tasty, you will WIN anywhere from 1 - 9 points, </p><p> but if it was rotten, you will LOSE anywhere from 1 - 9 points. </p>","","0","instructions","","","","","","","","","","",""
"learning-instructions","65","386718","0.0-9.0-1.0-0.5","3817","1","11","Female","approach_avoid_spark_v1","""event"",""trial"",""time""
""fullscreenenter"",""1"",""2387""
""fullscreenexit"",""2"",""5336""
","
","
","""event"",""trial"",""time""
""fullscreenenter"",""1"",""2387""
","""event"",""trial"",""time""
""fullscreenexit"",""2"",""5336""
","","","","","","958.5","<p> You will see how many points you won or lost in the center of the screen. </p><p> Here is what you would see if you earned 5 points: </p><p style=""color:green;font-size:50px;font-weight:bolder"">5</p>","","0","instructions","","","","","","","","","","",""
"learning-instructions","66","390945","0.0-9.0-1.0-0.6","3817","1","11","Female","approach_avoid_spark_v1","""event"",""trial"",""time""
""fullscreenenter"",""1"",""2387""
""fullscreenexit"",""2"",""5336""
","
","
","""event"",""trial"",""time""
""fullscreenenter"",""1"",""2387""
","""event"",""trial"",""time""
""fullscreenexit"",""2"",""5336""
","","","","","","555.5","<p> And here is what you would see if you lost 3 points: </p><p style=""color:red;font-size:50px;font-weight:bolder"">-3</p>","","0","instructions","","","","","","","","","","",""
"learning-instructions","67","406466","0.0-9.0-1.0-0.7","3817","1","11","Female","approach_avoid_spark_v1","""event"",""trial"",""time""
""fullscreenenter"",""1"",""2387""
""fullscreenexit"",""2"",""5336""
","
","
","""event"",""trial"",""time""
""fullscreenenter"",""1"",""2387""
","""event"",""trial"",""time""
""fullscreenexit"",""2"",""5336""
","","","","","","706","<p> Some fruit is very tasty or very rotten. </p><p> These fruits will make you win or lose LOTS of points. </p><p> Other fruits are only kind of tasty or kind of rotten. </p><p> These fruits will make you win or lose small amounts of points. </p>","","0","instructions","","","","","","","","","","",""
"learning-instructions","68","418007","0.0-9.0-1.0-0.8","3817","1","11","Female","approach_avoid_spark_v1","""event"",""trial"",""time""
""fullscreenenter"",""1"",""2387""
""fullscreenexit"",""2"",""5336""
","
","
","""event"",""trial"",""time""
""fullscreenenter"",""1"",""2387""
","""event"",""trial"",""time""
""fullscreenexit"",""2"",""5336""
","","","","","","407.09999999962747","<p> If you choose to not eat the fruit, you will not win or lose any points. </p><p>  However, in the center of the screen, you will see the number of points you WOULD HAVE earned if you had eaten the fruit. </p>","","0","instructions","","","","","","","","","","",""
"learning-instructions","69","428914","0.0-9.0-1.0-0.9","3817","1","11","Female","approach_avoid_spark_v1","""event"",""trial"",""time""
""fullscreenenter"",""1"",""2387""
""fullscreenexit"",""2"",""5336""
","
","
","""event"",""trial"",""time""
""fullscreenenter"",""1"",""2387""
","""event"",""trial"",""time""
""fullscreenexit"",""2"",""5336""
","","","","","","380.6000000014901","<p> Here is what you might see if you did not eat the fruit but the fruit was tasty: </p><p style=""color:grey; font-size:50px; display: inline-block; border-spacing: 15px; border-width:3px; border-style:solid; border-color:red"">  &nbsp; 6 &nbsp; </p><p> Remember, in this case, you would not win or lose ANY points because you did not eat the fruit.  </p>","","0","instructions","","","","","","","","","","",""
"learning-instructions","70","437967","0.0-9.0-1.0-0.10","3817","1","11","Female","approach_avoid_spark_v1","""event"",""trial"",""time""
""fullscreenenter"",""1"",""2387""
""fullscreenexit"",""2"",""5336""
","
","
","""event"",""trial"",""time""
""fullscreenenter"",""1"",""2387""
","""event"",""trial"",""time""
""fullscreenexit"",""2"",""5336""
","","","","","","750.2000000011176","<p> Try to make the best choice for each fruit because </p><p> at the end of the game, you will earn bonus money based on how many points you earned. </p>","","0","instructions","","","","","","","","","","",""
"learning-instructions","71","446876","0.0-9.0-1.0-0.11","3817","1","11","Female","approach_avoid_spark_v1","""event"",""trial"",""time""
""fullscreenenter"",""1"",""2387""
""fullscreenexit"",""2"",""5336""
","
","
","""event"",""trial"",""time""
""fullscreenenter"",""1"",""2387""
","""event"",""trial"",""time""
""fullscreenexit"",""2"",""5336""
","","","","","","721.2999999988824","<p> You will have 3 seconds to make each choice. Try to respond before time runs out! </p><p> You will lose 5 points each time you do not make a response. </p>","","0","instructions","","","","","","","","","","",""
"html-keyboard-response","72","447488","0.0-9.0-2.0-0.0","3817","1","11","Female","approach_avoid_spark_v1","""event"",""trial"",""time""
""fullscreenenter"",""1"",""2387""
""fullscreenexit"",""2"",""5336""
","
","
","""event"",""trial"",""time""
""fullscreenenter"",""1"",""2387""
","""event"",""trial"",""time""
""fullscreenexit"",""2"",""5336""
","","","","","","null","<div style=""font-size:60px;"">+</div>","null","","fixation","","","","","","","","","","",""
"aa-learning-trial","73","450496","0.0-9.0-2.0-1.0","3817","1","11","Female","approach_avoid_spark_v1","""event"",""trial"",""time""
""fullscreenenter"",""1"",""2387""
""fullscreenexit"",""2"",""5336""
","
","
","""event"",""trial"",""time""
""fullscreenenter"",""1"",""2387""
","""event"",""trial"",""time""
""fullscreenexit"",""2"",""5336""
","","","","","","1941.5999999996275","images/orange4.png","","","learning","-3","-3","1","1","orange","fruit","1","0","","bad","[-3]"
"html-keyboard-response","74","451000","0.0-9.0-2.0-0.1","3817","1","11","Female","approach_avoid_spark_v1","""event"",""trial"",""time""
""fullscreenenter"",""1"",""2387""
""fullscreenexit"",""2"",""5336""
","
","
","""event"",""trial"",""time""
""fullscreenenter"",""1"",""2387""
","""event"",""trial"",""time""
""fullscreenexit"",""2"",""5336""
","","","","","","null","<div style=""font-size:60px;"">+</div>","null","","fixation","","","","","","","","","","",""
"aa-learning-trial","75","454008","0.0-9.0-2.0-1.1","3817","1","11","Female","approach_avoid_spark_v1","""event"",""trial"",""time""
""fullscreenenter"",""1"",""2387""
""fullscreenexit"",""2"",""5336""
","
","
","""event"",""trial"",""time""
""fullscreenenter"",""1"",""2387""
","""event"",""trial"",""time""
""fullscreenexit"",""2"",""5336""
","","","","","","1129.7999999988824","images/banana3.png","","","learning","4","4","1","1","banana","fruit","1","0","","good","[3]"
"html-keyboard-response","76","454512","0.0-9.0-2.0-0.2","3817","1","11","Female","approach_avoid_spark_v1","""event"",""trial"",""time""
""fullscreenenter"",""1"",""2387""
""fullscreenexit"",""2"",""5336""
","
","
","""event"",""trial"",""time""
""fullscreenenter"",""1"",""2387""
","""event"",""trial"",""time""
""fullscreenexit"",""2"",""5336""
","","","","","","null","<div style=""font-size:60px;"">+</div>","null","","fixation","","","","","","","","","","",""
"aa-learning-trial","77","457520","0.0-9.0-2.0-1.2","3817","1","11","Female","approach_avoid_spark_v1","""event"",""trial"",""time""
""fullscreenenter"",""1"",""2387""
""fullscreenexit"",""2"",""5336""
","
","
","""event"",""trial"",""time""
""fullscreenenter"",""1"",""2387""
","""event"",""trial"",""time""
""fullscreenexit"",""2"",""5336""
","","","","","","324.1000000014901","images/banana1.png","","","learning","2","2","1","1","banana","fruit","1","0","","good","[3]"
"html-keyboard-response","78","458024","0.0-9.0-2.0-0.3","3817","1","11","Female","approach_avoid_spark_v1","""event"",""trial"",""time""
""fullscreenenter"",""1"",""2387""
""fullscreenexit"",""2"",""5336""
","
","
","""event"",""trial"",""time""
""fullscreenenter"",""1"",""2387""
","""event"",""trial"",""time""
""fullscreenexit"",""2"",""5336""
","","","","","","null","<div style=""font-size:60px;"">+</div>","null","","fixation","","","","","","","","","","",""
"aa-learning-trial","79","461032","0.0-9.0-2.0-1.3","3817","1","11","Female","approach_avoid_spark_v1","""event"",""trial"",""time""
""fullscreenenter"",""1"",""2387""
""fullscreenexit"",""2"",""5336""
","
","
","""event"",""trial"",""time""
""fullscreenenter"",""1"",""2387""
","""event"",""trial"",""time""
""fullscreenexit"",""2"",""5336""
","","","","","","331.19999999925494","images/apple1.png","","","learning","[-1]","-1","1","1","apple","fruit","1","0","","neutral","0"
"html-keyboard-response","80","461536","0.0-9.0-2.0-0.4","3817","1","11","Female","approach_avoid_spark_v1","""event"",""trial"",""time""
""fullscreenenter"",""1"",""2387""
""fullscreenexit"",""2"",""5336""
","
","
","""event"",""trial"",""time""
""fullscreenenter"",""1"",""2387""
","""event"",""trial"",""time""
""fullscreenexit"",""2"",""5336""
","","","","","","null","<div style=""font-size:60px;"">+</div>","null","","fixation","","","","","","","","","","",""
"aa-learning-trial","81","464544","0.0-9.0-2.0-1.4","3817","1","11","Female","approach_avoid_spark_v1","""event"",""trial"",""time""
""fullscreenenter"",""1"",""2387""
""fullscreenexit"",""2"",""5336""
","
","
","""event"",""trial"",""time""
""fullscreenenter"",""1"",""2387""
","""event"",""trial"",""time""
""fullscreenexit"",""2"",""5336""
","","","","","","447.2000000011176","images/banana2.png","","","learning","4","4","1","1","banana","fruit","1","0","","good","[3]"
"html-keyboard-response","82","465048","0.0-9.0-2.0-0.5","3817","1","11","Female","approach_avoid_spark_v1","""event"",""trial"",""time""
""fullscreenenter"",""1"",""2387""
""fullscreenexit"",""2"",""5336""
","
","
","""event"",""trial"",""time""
""fullscreenenter"",""1"",""2387""
","""event"",""trial"",""time""
""fullscreenexit"",""2"",""5336""
","","","","","","null","<div style=""font-size:60px;"">+</div>","null","","fixation","","","","","","","","","","",""
"aa-learning-trial","83","468056","0.0-9.0-2.0-1.5","3817","1","11","Female","approach_avoid_spark_v1","""event"",""trial"",""time""
""fullscreenenter"",""1"",""2387""
""fullscreenexit"",""2"",""5336""
","
","
","""event"",""trial"",""time""
""fullscreenenter"",""1"",""2387""
","""event"",""trial"",""time""
""fullscreenexit"",""2"",""5336""
","","","","","","626.7000000011176","images/orange1.png","","","learning","-4","-4","1","1","orange","fruit","1","0","","bad","[-3]"
"html-keyboard-response","84","468560","0.0-9.0-2.0-0.6","3817","1","11","Female","approach_avoid_spark_v1","""event"",""trial"",""time""
""fullscreenenter"",""1"",""2387""
""fullscreenexit"",""2"",""5336""
","
","
","""event"",""trial"",""time""
""fullscreenenter"",""1"",""2387""
","""event"",""trial"",""time""
""fullscreenexit"",""2"",""5336""
","","","","","","null","<div style=""font-size:60px;"">+</div>","null","","fixation","","","","","","","","","","",""
"aa-learning-trial","85","471569","0.0-9.0-2.0-1.6","3817","1","11","Female","approach_avoid_spark_v1","""event"",""trial"",""time""
""fullscreenenter"",""1"",""2387""
""fullscreenexit"",""2"",""5336""
","
","
","""event"",""trial"",""time""
""fullscreenenter"",""1"",""2387""
","""event"",""trial"",""time""
""fullscreenexit"",""2"",""5336""
","","","","","","508.09999999962747","images/apple6.png","","","learning","-2","-2","1","1","apple","fruit","1","0","","neutral","0"
"html-keyboard-response","86","472072","0.0-9.0-2.0-0.7","3817","1","11","Female","approach_avoid_spark_v1","""event"",""trial"",""time""
""fullscreenenter"",""1"",""2387""
""fullscreenexit"",""2"",""5336""
","
","
","""event"",""trial"",""time""
""fullscreenenter"",""1"",""2387""
","""event"",""trial"",""time""
""fullscreenexit"",""2"",""5336""
","","","","","","null","<div style=""font-size:60px;"">+</div>","null","","fixation","","","","","","","","","","",""
"aa-learning-trial","87","475080","0.0-9.0-2.0-1.7","3817","1","11","Female","approach_avoid_spark_v1","""event"",""trial"",""time""
""fullscreenenter"",""1"",""2387""
""fullscreenexit"",""2"",""5336""
","
","
","""event"",""trial"",""time""
""fullscreenenter"",""1"",""2387""
","""event"",""trial"",""time""
""fullscreenexit"",""2"",""5336""
","","","","","","505.80000000074506","images/apple6.png","","","learning","1","1","1","1","apple","fruit","1","0","","neutral","0"
"html-keyboard-response","88","475584","0.0-9.0-2.0-0.8","3817","1","11","Female","approach_avoid_spark_v1","""event"",""trial"",""time""
""fullscreenenter"",""1"",""2387""
""fullscreenexit"",""2"",""5336""
","
","
","""event"",""trial"",""time""
""fullscreenenter"",""1"",""2387""
","""event"",""trial"",""time""
""fullscreenexit"",""2"",""5336""
","","","","","","null","<div style=""font-size:60px;"">+</div>","null","","fixation","","","","","","","","","","",""
"aa-learning-trial","89","478592","0.0-9.0-2.0-1.8","3817","1","11","Female","approach_avoid_spark_v1","""event"",""trial"",""time""
""fullscreenenter"",""1"",""2387""
""fullscreenexit"",""2"",""5336""
","
","
","""event"",""trial"",""time""
""fullscreenenter"",""1"",""2387""
","""event"",""trial"",""time""
""fullscreenexit"",""2"",""5336""
","","","","","","311.90000000037253","images/orange3.png","","","learning","-1","0","0","0","orange","fruit","1","0","","bad","[-3]"
"html-keyboard-response","90","479096","0.0-9.0-2.0-0.9","3817","1","11","Female","approach_avoid_spark_v1","""event"",""trial"",""time""
""fullscreenenter"",""1"",""2387""
""fullscreenexit"",""2"",""5336""
","
","
","""event"",""trial"",""time""
""fullscreenenter"",""1"",""2387""
","""event"",""trial"",""time""
""fullscreenexit"",""2"",""5336""
","","","","","","null","<div style=""font-size:60px;"">+</div>","null","","fixation","","","","","","","","","","",""
"aa-learning-trial","91","482104","0.0-9.0-2.0-1.9","3817","1","11","Female","approach_avoid_spark_v1","""event"",""trial"",""time""
""fullscreenenter"",""1"",""2387""
""fullscreenexit"",""2"",""5336""
","
","
","""event"",""trial"",""time""
""fullscreenenter"",""1"",""2387""
","""event"",""trial"",""time""
""fullscreenexit"",""2"",""5336""
","","","","","","323.80000000074506","images/orange4.png","","","learning","-4","0","0","0","orange","fruit","1","0","","bad","[-3]"
"html-keyboard-response","92","482608","0.0-9.0-2.0-0.10","3817","1","11","Female","approach_avoid_spark_v1","""event"",""trial"",""time""
""fullscreenenter"",""1"",""2387""
""fullscreenexit"",""2"",""5336""
","
","
","""event"",""trial"",""time""
""fullscreenenter"",""1"",""2387""
","""event"",""trial"",""time""
""fullscreenexit"",""2"",""5336""
","","","","","","null","<div style=""font-size:60px;"">+</div>","null","","fixation","","","","","","","","","","",""
"aa-learning-trial","93","485616","0.0-9.0-2.0-1.10","3817","1","11","Female","approach_avoid_spark_v1","""event"",""trial"",""time""
""fullscreenenter"",""1"",""2387""
""fullscreenexit"",""2"",""5336""
","
","
","""event"",""trial"",""time""
""fullscreenenter"",""1"",""2387""
","""event"",""trial"",""time""
""fullscreenexit"",""2"",""5336""
","","","","","","742.3000000007451","images/orange3.png","","","learning","-2","0","0","0","orange","fruit","1","0","","bad","[-3]"
"html-keyboard-response","94","486120","0.0-9.0-2.0-0.11","3817","1","11","Female","approach_avoid_spark_v1","""event"",""trial"",""time""
""fullscreenenter"",""1"",""2387""
""fullscreenexit"",""2"",""5336""
","
","
","""event"",""trial"",""time""
""fullscreenenter"",""1"",""2387""
","""event"",""trial"",""time""
""fullscreenexit"",""2"",""5336""
","","","","","","null","<div style=""font-size:60px;"">+</div>","null","","fixation","","","","","","","","","","",""
"aa-learning-trial","95","489128","0.0-9.0-2.0-1.11","3817","1","11","Female","approach_avoid_spark_v1","""event"",""trial"",""time""
""fullscreenenter"",""1"",""2387""
""fullscreenexit"",""2"",""5336""
","
","
","""event"",""trial"",""time""
""fullscreenenter"",""1"",""2387""
","""event"",""trial"",""time""
""fullscreenexit"",""2"",""5336""
","","","","","","778.5999999996275","images/apple3.png","","","learning","-1","-1","1","1","apple","fruit","1","0","","neutral","0"
"html-keyboard-response","96","489632","0.0-9.0-2.0-0.12","3817","1","11","Female","approach_avoid_spark_v1","""event"",""trial"",""time""
""fullscreenenter"",""1"",""2387""
""fullscreenexit"",""2"",""5336""
","
","
","""event"",""trial"",""time""
""fullscreenenter"",""1"",""2387""
","""event"",""trial"",""time""
""fullscreenexit"",""2"",""5336""
","","","","","","null","<div style=""font-size:60px;"">+</div>","null","","fixation","","","","","","","","","","",""
"aa-learning-trial","97","492641","0.0-9.0-2.0-1.12","3817","1","11","Female","approach_avoid_spark_v1","""event"",""trial"",""time""
""fullscreenenter"",""1"",""2387""
""fullscreenexit"",""2"",""5336""
","
","
","""event"",""trial"",""time""
""fullscreenenter"",""1"",""2387""
","""event"",""trial"",""time""
""fullscreenexit"",""2"",""5336""
","","","","","","922.0999999996275","images/banana1.png","","","learning","2","2","1","1","banana","fruit","1","0","","good","[3]"
"html-keyboard-response","98","493144","0.0-9.0-2.0-0.13","3817","1","11","Female","approach_avoid_spark_v1","""event"",""trial"",""time""
""fullscreenenter"",""1"",""2387""
""fullscreenexit"",""2"",""5336""
","
","
","""event"",""trial"",""time""
""fullscreenenter"",""1"",""2387""
","""event"",""trial"",""time""
""fullscreenexit"",""2"",""5336""
","","","","","","null","<div style=""font-size:60px;"">+</div>","null","","fixation","","","","","","","","","","",""
"aa-learning-trial","99","496152","0.0-9.0-2.0-1.13","3817","1","11","Female","approach_avoid_spark_v1","""event"",""trial"",""time""
""fullscreenenter"",""1"",""2387""
""fullscreenexit"",""2"",""5336""
","
","
","""event"",""trial"",""time""
""fullscreenenter"",""1"",""2387""
","""event"",""trial"",""time""
""fullscreenexit"",""2"",""5336""
","","","","","","534.8000000007451","images/banana2.png","","","learning","6","6","1","1","banana","fruit","1","0","","good","[3]"
"html-keyboard-response","100","496656","0.0-9.0-2.0-0.14","3817","1","11","Female","approach_avoid_spark_v1","""event"",""trial"",""time""
""fullscreenenter"",""1"",""2387""
""fullscreenexit"",""2"",""5336""
","
","
","""event"",""trial"",""time""
""fullscreenenter"",""1"",""2387""
","""event"",""trial"",""time""
""fullscreenexit"",""2"",""5336""
","","","","","","null","<div style=""font-size:60px;"">+</div>","null","","fixation","","","","","","","","","","",""
"aa-learning-trial","101","499665","0.0-9.0-2.0-1.14","3817","1","11","Female","approach_avoid_spark_v1","""event"",""trial"",""time""
""fullscreenenter"",""1"",""2387""
""fullscreenexit"",""2"",""5336""
","
","
","""event"",""trial"",""time""
""fullscreenenter"",""1"",""2387""
","""event"",""trial"",""time""
""fullscreenexit"",""2"",""5336""
","","","","","","854.7000000011176","images/apple1.png","","","learning","-1","-1","1","1","apple","fruit","1","0","","neutral","0"
"html-keyboard-response","102","500168","0.0-9.0-2.0-0.15","3817","1","11","Female","approach_avoid_spark_v1","""event"",""trial"",""time""
""fullscreenenter"",""1"",""2387""
""fullscreenexit"",""2"",""5336""
","
","
","""event"",""trial"",""time""
""fullscreenenter"",""1"",""2387""
","""event"",""trial"",""time""
""fullscreenexit"",""2"",""5336""
","","","","","","null","<div style=""font-size:60px;"">+</div>","null","","fixation","","","","","","","","","","",""
"aa-learning-trial","103","503177","0.0-9.0-2.0-1.15","3817","1","11","Female","approach_avoid_spark_v1","""event"",""trial"",""time""
""fullscreenenter"",""1"",""2387""
""fullscreenexit"",""2"",""5336""
","
","
","""event"",""trial"",""time""
""fullscreenenter"",""1"",""2387""
","""event"",""trial"",""time""
""fullscreenexit"",""2"",""5336""
","","","","","","999.0999999996275","images/apple6.png","","","learning","-1","0","0","0","apple","fruit","1","0","","neutral","0"
"html-keyboard-response","104","503680","0.0-9.0-2.0-0.16","3817","1","11","Female","approach_avoid_spark_v1","""event"",""trial"",""time""
""fullscreenenter"",""1"",""2387""
""fullscreenexit"",""2"",""5336""
","
","
","""event"",""trial"",""time""
""fullscreenenter"",""1"",""2387""
","""event"",""trial"",""time""
""fullscreenexit"",""2"",""5336""
","","","","","","null","<div style=""font-size:60px;"">+</div>","null","","fixation","","","","","","","","","","",""
"aa-learning-trial","105","506688","0.0-9.0-2.0-1.16","3817","1","11","Female","approach_avoid_spark_v1","""event"",""trial"",""time""
""fullscreenenter"",""1"",""2387""
""fullscreenexit"",""2"",""5336""
","
","
","""event"",""trial"",""time""
""fullscreenenter"",""1"",""2387""
","""event"",""trial"",""time""
""fullscreenexit"",""2"",""5336""
","","","","","","382.19999999925494","images/orange4.png","","","learning","-3","0","0","0","orange","fruit","1","0","","bad","[-3]"
"html-keyboard-response","106","507192","0.0-9.0-2.0-0.17","3817","1","11","Female","approach_avoid_spark_v1","""event"",""trial"",""time""
""fullscreenenter"",""1"",""2387""
""fullscreenexit"",""2"",""5336""
","
","
","""event"",""trial"",""time""
""fullscreenenter"",""1"",""2387""
","""event"",""trial"",""time""
""fullscreenexit"",""2"",""5336""
","","","","","","null","<div style=""font-size:60px;"">+</div>","null","","fixation","","","","","","","","","","",""
"aa-learning-trial","107","510200","0.0-9.0-2.0-1.17","3817","1","11","Female","approach_avoid_spark_v1","""event"",""trial"",""time""
""fullscreenenter"",""1"",""2387""
""fullscreenexit"",""2"",""5336""
","
","
","""event"",""trial"",""time""
""fullscreenenter"",""1"",""2387""
","""event"",""trial"",""time""
""fullscreenexit"",""2"",""5336""
","","","","","","475.90000000037253","images/apple1.png","","","learning","[1]","0","0","0","apple","fruit","1","0","","neutral","0"
"html-keyboard-response","108","510704","0.0-9.0-2.0-0.18","3817","1","11","Female","approach_avoid_spark_v1","""event"",""trial"",""time""
""fullscreenenter"",""1"",""2387""
""fullscreenexit"",""2"",""5336""
","
","
","""event"",""trial"",""time""
""fullscreenenter"",""1"",""2387""
","""event"",""trial"",""time""
""fullscreenexit"",""2"",""5336""
","","","","","","null","<div style=""font-size:60px;"">+</div>","null","","fixation","","","","","","","","","","",""
"aa-learning-trial","109","513712","0.0-9.0-2.0-1.18","3817","1","11","Female","approach_avoid_spark_v1","""event"",""trial"",""time""
""fullscreenenter"",""1"",""2387""
""fullscreenexit"",""2"",""5336""
","
","
","""event"",""trial"",""time""
""fullscreenenter"",""1"",""2387""
","""event"",""trial"",""time""
""fullscreenexit"",""2"",""5336""
","","","","","","641.7999999988824","images/banana5.png","","","learning","1","1","1","1","banana","fruit","1","0","","good","[3]"
"html-keyboard-response","110","514216","0.0-9.0-2.0-0.19","3817","1","11","Female","approach_avoid_spark_v1","""event"",""trial"",""time""
""fullscreenenter"",""1"",""2387""
""fullscreenexit"",""2"",""5336""
","
","
","""event"",""trial"",""time""
""fullscreenenter"",""1"",""2387""
","""event"",""trial"",""time""
""fullscreenexit"",""2"",""5336""
","","","","","","null","<div style=""font-size:60px;"">+</div>","null","","fixation","","","","","","","","","","",""
"aa-learning-trial","111","517225","0.0-9.0-2.0-1.19","3817","1","11","Female","approach_avoid_spark_v1","""event"",""trial"",""time""
""fullscreenenter"",""1"",""2387""
""fullscreenexit"",""2"",""5336""
","
","
","""event"",""trial"",""time""
""fullscreenenter"",""1"",""2387""
","""event"",""trial"",""time""
""fullscreenexit"",""2"",""5336""
","","","","","","507.5","images/apple6.png","","","learning","1","1","1","1","apple","fruit","1","0","","neutral","0"
"html-keyboard-response","112","517728","0.0-9.0-2.0-0.20","3817","1","11","Female","approach_avoid_spark_v1","""event"",""trial"",""time""
""fullscreenenter"",""1"",""2387""
""fullscreenexit"",""2"",""5336""
","
","
","""event"",""trial"",""time""
""fullscreenenter"",""1"",""2387""
","""event"",""trial"",""time""
""fullscreenexit"",""2"",""5336""
","","","","","","null","<div style=""font-size:60px;"">+</div>","null","","fixation","","","","","","","","","","",""
"aa-learning-trial","113","520736","0.0-9.0-2.0-1.20","3817","1","11","Female","approach_avoid_spark_v1","""event"",""trial"",""time""
""fullscreenenter"",""1"",""2387""
""fullscreenexit"",""2"",""5336""
","
","
","""event"",""trial"",""time""
""fullscreenenter"",""1"",""2387""
","""event"",""trial"",""time""
""fullscreenexit"",""2"",""5336""
","","","","","","232","images/apple1.png","","","learning","1","1","1","1","apple","fruit","1","0","","neutral","0"
"html-keyboard-response","114","521240","0.0-9.0-2.0-0.21","3817","1","11","Female","approach_avoid_spark_v1","""event"",""trial"",""time""
""fullscreenenter"",""1"",""2387""
""fullscreenexit"",""2"",""5336""
","
","
","""event"",""trial"",""time""
""fullscreenenter"",""1"",""2387""
","""event"",""trial"",""time""
""fullscreenexit"",""2"",""5336""
","","","","","","null","<div style=""font-size:60px;"">+</div>","null","","fixation","","","","","","","","","","",""
"aa-learning-trial","115","524249","0.0-9.0-2.0-1.21","3817","1","11","Female","approach_avoid_spark_v1","""event"",""trial"",""time""
""fullscreenenter"",""1"",""2387""
""fullscreenexit"",""2"",""5336""
","
","
","""event"",""trial"",""time""
""fullscreenenter"",""1"",""2387""
","""event"",""trial"",""time""
""fullscreenexit"",""2"",""5336""
","","","","","","304.19999999925494","images/apple1.png","","","learning","-3","-3","1","1","apple","fruit","1","0","","neutral","0"
"html-keyboard-response","116","524752","0.0-9.0-2.0-0.22","3817","1","11","Female","approach_avoid_spark_v1","""event"",""trial"",""time""
""fullscreenenter"",""1"",""2387""
""fullscreenexit"",""2"",""5336""
","
","
","""event"",""trial"",""time""
""fullscreenenter"",""1"",""2387""
","""event"",""trial"",""time""
""fullscreenexit"",""2"",""5336""
","","","","","","null","<div style=""font-size:60px;"">+</div>","null","","fixation","","","","","","","","","","",""
"aa-learning-trial","117","527760","0.0-9.0-2.0-1.22","3817","1","11","Female","approach_avoid_spark_v1","""event"",""trial"",""time""
""fullscreenenter"",""1"",""2387""
""fullscreenexit"",""2"",""5336""
","
","
","""event"",""trial"",""time""
""fullscreenenter"",""1"",""2387""
","""event"",""trial"",""time""
""fullscreenexit"",""2"",""5336""
","","","","","","545.0999999996275","images/banana3.png","","","learning","4","4","1","1","banana","fruit","1","0","","good","[3]"
"html-keyboard-response","118","528264","0.0-9.0-2.0-0.23","3817","1","11","Female","approach_avoid_spark_v1","""event"",""trial"",""time""
""fullscreenenter"",""1"",""2387""
""fullscreenexit"",""2"",""5336""
","
","
","""event"",""trial"",""time""
""fullscreenenter"",""1"",""2387""
","""event"",""trial"",""time""
""fullscreenexit"",""2"",""5336""
","","","","","","null","<div style=""font-size:60px;"">+</div>","null","","fixation","","","","","","","","","","",""
"aa-learning-trial","119","531272","0.0-9.0-2.0-1.23","3817","1","11","Female","approach_avoid_spark_v1","""event"",""trial"",""time""
""fullscreenenter"",""1"",""2387""
""fullscreenexit"",""2"",""5336""
","
","
","""event"",""trial"",""time""
""fullscreenenter"",""1"",""2387""
","""event"",""trial"",""time""
""fullscreenexit"",""2"",""5336""
","","","","","","393.19999999925494","images/orange2.png","","","learning","-3","-3","1","1","orange","fruit","1","0","","bad","[-3]"
"html-keyboard-response","120","531776","0.0-9.0-2.0-0.24","3817","1","11","Female","approach_avoid_spark_v1","""event"",""trial"",""time""
""fullscreenenter"",""1"",""2387""
""fullscreenexit"",""2"",""5336""
","
","
","""event"",""trial"",""time""
""fullscreenenter"",""1"",""2387""
","""event"",""trial"",""time""
""fullscreenexit"",""2"",""5336""
","","","","","","null","<div style=""font-size:60px;"">+</div>","null","","fixation","","","","","","","","","","",""
"aa-learning-trial","121","534784","0.0-9.0-2.0-1.24","3817","1","11","Female","approach_avoid_spark_v1","""event"",""trial"",""time""
""fullscreenenter"",""1"",""2387""
""fullscreenexit"",""2"",""5336""
","
","
","""event"",""trial"",""time""
""fullscreenenter"",""1"",""2387""
","""event"",""trial"",""time""
""fullscreenexit"",""2"",""5336""
","","","","","","411.69999999925494","images/apple3.png","","","learning","[-1]","-1","1","1","apple","fruit","1","0","","neutral","0"
"html-keyboard-response","122","535288","0.0-9.0-2.0-0.25","3817","1","11","Female","approach_avoid_spark_v1","""event"",""trial"",""time""
""fullscreenenter"",""1"",""2387""
""fullscreenexit"",""2"",""5336""
","
","
","""event"",""trial"",""time""
""fullscreenenter"",""1"",""2387""
","""event"",""trial"",""time""
""fullscreenexit"",""2"",""5336""
","","","","","","null","<div style=""font-size:60px;"">+</div>","null","","fixation","","","","","","","","","","",""
"aa-learning-trial","123","538296","0.0-9.0-2.0-1.25","3817","1","11","Female","approach_avoid_spark_v1","""event"",""trial"",""time""
""fullscreenenter"",""1"",""2387""
""fullscreenexit"",""2"",""5336""
","
","
","""event"",""trial"",""time""
""fullscreenenter"",""1"",""2387""
","""event"",""trial"",""time""
""fullscreenexit"",""2"",""5336""
","","","","","","942.5","images/banana1.png","","","learning","4","4","1","1","banana","fruit","1","0","","good","[3]"
"html-keyboard-response","124","538800","0.0-9.0-2.0-0.26","3817","1","11","Female","approach_avoid_spark_v1","""event"",""trial"",""time""
""fullscreenenter"",""1"",""2387""
""fullscreenexit"",""2"",""5336""
","
","
","""event"",""trial"",""time""
""fullscreenenter"",""1"",""2387""
","""event"",""trial"",""time""
""fullscreenexit"",""2"",""5336""
","","","","","","null","<div style=""font-size:60px;"">+</div>","null","","fixation","","","","","","","","","","",""
"aa-learning-trial","125","541808","0.0-9.0-2.0-1.26","3817","1","11","Female","approach_avoid_spark_v1","""event"",""trial"",""time""
""fullscreenenter"",""1"",""2387""
""fullscreenexit"",""2"",""5336""
","
","
","""event"",""trial"",""time""
""fullscreenenter"",""1"",""2387""
","""event"",""trial"",""time""
""fullscreenexit"",""2"",""5336""
","","","","","","419.40000000037253","images/banana1.png","","","learning","2","2","1","1","banana","fruit","1","0","","good","[3]"
"html-keyboard-response","126","542312","0.0-9.0-2.0-0.27","3817","1","11","Female","approach_avoid_spark_v1","""event"",""trial"",""time""
""fullscreenenter"",""1"",""2387""
""fullscreenexit"",""2"",""5336""
","
","
","""event"",""trial"",""time""
""fullscreenenter"",""1"",""2387""
","""event"",""trial"",""time""
""fullscreenexit"",""2"",""5336""
","","","","","","null","<div style=""font-size:60px;"">+</div>","null","","fixation","","","","","","","","","","",""
"aa-learning-trial","127","545320","0.0-9.0-2.0-1.27","3817","1","11","Female","approach_avoid_spark_v1","""event"",""trial"",""time""
""fullscreenenter"",""1"",""2387""
""fullscreenexit"",""2"",""5336""
","
","
","""event"",""trial"",""time""
""fullscreenenter"",""1"",""2387""
","""event"",""trial"",""time""
""fullscreenexit"",""2"",""5336""
","","","","","","581.2999999988824","images/banana3.png","","","learning","3","3","1","1","banana","fruit","1","0","","good","[3]"
"html-keyboard-response","128","545824","0.0-9.0-2.0-0.28","3817","1","11","Female","approach_avoid_spark_v1","""event"",""trial"",""time""
""fullscreenenter"",""1"",""2387""
""fullscreenexit"",""2"",""5336""
","
","
","""event"",""trial"",""time""
""fullscreenenter"",""1"",""2387""
","""event"",""trial"",""time""
""fullscreenexit"",""2"",""5336""
","","","","","","null","<div style=""font-size:60px;"">+</div>","null","","fixation","","","","","","","","","","",""
"aa-learning-trial","129","548832","0.0-9.0-2.0-1.28","3817","1","11","Female","approach_avoid_spark_v1","""event"",""trial"",""time""
""fullscreenenter"",""1"",""2387""
""fullscreenexit"",""2"",""5336""
","
","
","""event"",""trial"",""time""
""fullscreenenter"",""1"",""2387""
","""event"",""trial"",""time""
""fullscreenexit"",""2"",""5336""
","","","","","","934.3000000007451","images/orange4.png","","","learning","-5","-5","1","1","orange","fruit","1","0","","bad","[-3]"
"html-keyboard-response","130","549336","0.0-9.0-2.0-0.29","3817","1","11","Female","approach_avoid_spark_v1","""event"",""trial"",""time""
""fullscreenenter"",""1"",""2387""
""fullscreenexit"",""2"",""5336""
","
","
","""event"",""trial"",""time""
""fullscreenenter"",""1"",""2387""
","""event"",""trial"",""time""
""fullscreenexit"",""2"",""5336""
","","","","","","null","<div style=""font-size:60px;"">+</div>","null","","fixation","","","","","","","","","","",""
"aa-learning-trial","131","552344","0.0-9.0-2.0-1.29","3817","1","11","Female","approach_avoid_spark_v1","""event"",""trial"",""time""
""fullscreenenter"",""1"",""2387""
""fullscreenexit"",""2"",""5336""
","
","
","""event"",""trial"",""time""
""fullscreenenter"",""1"",""2387""
","""event"",""trial"",""time""
""fullscreenexit"",""2"",""5336""
","","","","","","406.09999999962747","images/banana1.png","","","learning","3","3","1","1","banana","fruit","1","0","","good","[3]"
"html-keyboard-response","132","552848","0.0-9.0-2.0-0.30","3817","1","11","Female","approach_avoid_spark_v1","""event"",""trial"",""time""
""fullscreenenter"",""1"",""2387""
""fullscreenexit"",""2"",""5336""
","
","
","""event"",""trial"",""time""
""fullscreenenter"",""1"",""2387""
","""event"",""trial"",""time""
""fullscreenexit"",""2"",""5336""
","","","","","","null","<div style=""font-size:60px;"">+</div>","null","","fixation","","","","","","","","","","",""
"aa-learning-trial","133","555856","0.0-9.0-2.0-1.30","3817","1","11","Female","approach_avoid_spark_v1","""event"",""trial"",""time""
""fullscreenenter"",""1"",""2387""
""fullscreenexit"",""2"",""5336""
","
","
","""event"",""trial"",""time""
""fullscreenenter"",""1"",""2387""
","""event"",""trial"",""time""
""fullscreenexit"",""2"",""5336""
","","","","","","588.0999999996275","images/apple5.png","","","learning","-1","-1","1","1","apple","fruit","1","0","","neutral","0"
"html-keyboard-response","134","556360","0.0-9.0-2.0-0.31","3817","1","11","Female","approach_avoid_spark_v1","""event"",""trial"",""time""
""fullscreenenter"",""1"",""2387""
""fullscreenexit"",""2"",""5336""
","
","
","""event"",""trial"",""time""
""fullscreenenter"",""1"",""2387""
","""event"",""trial"",""time""
""fullscreenexit"",""2"",""5336""
","","","","","","null","<div style=""font-size:60px;"">+</div>","null","","fixation","","","","","","","","","","",""
"aa-learning-trial","135","559368","0.0-9.0-2.0-1.31","3817","1","11","Female","approach_avoid_spark_v1","""event"",""trial"",""time""
""fullscreenenter"",""1"",""2387""
""fullscreenexit"",""2"",""5336""
","
","
","""event"",""trial"",""time""
""fullscreenenter"",""1"",""2387""
","""event"",""trial"",""time""
""fullscreenexit"",""2"",""5336""
","","","","","","500.69999999925494","images/banana2.png","","","learning","3","3","1","1","banana","fruit","1","0","","good","[3]"
"html-keyboard-response","136","559872","0.0-9.0-2.0-0.32","3817","1","11","Female","approach_avoid_spark_v1","""event"",""trial"",""time""
""fullscreenenter"",""1"",""2387""
""fullscreenexit"",""2"",""5336""
","
","
","""event"",""trial"",""time""
""fullscreenenter"",""1"",""2387""
","""event"",""trial"",""time""
""fullscreenexit"",""2"",""5336""
","","","","","","null","<div style=""font-size:60px;"">+</div>","null","","fixation","","","","","","","","","","",""
"aa-learning-trial","137","562880","0.0-9.0-2.0-1.32","3817","1","11","Female","approach_avoid_spark_v1","""event"",""trial"",""time""
""fullscreenenter"",""1"",""2387""
""fullscreenexit"",""2"",""5336""
","
","
","""event"",""trial"",""time""
""fullscreenenter"",""1"",""2387""
","""event"",""trial"",""time""
""fullscreenexit"",""2"",""5336""
","","","","","","360.7999999988824","images/banana7.png","","","learning","2","0","0","0","banana","fruit","1","0","","good","[3]"
"html-keyboard-response","138","563384","0.0-9.0-2.0-0.33","3817","1","11","Female","approach_avoid_spark_v1","""event"",""trial"",""time""
""fullscreenenter"",""1"",""2387""
""fullscreenexit"",""2"",""5336""
","
","
","""event"",""trial"",""time""
""fullscreenenter"",""1"",""2387""
","""event"",""trial"",""time""
""fullscreenexit"",""2"",""5336""
","","","","","","null","<div style=""font-size:60px;"">+</div>","null","","fixation","","","","","","","","","","",""
"aa-learning-trial","139","566392","0.0-9.0-2.0-1.33","3817","1","11","Female","approach_avoid_spark_v1","""event"",""trial"",""time""
""fullscreenenter"",""1"",""2387""
""fullscreenexit"",""2"",""5336""
","
","
","""event"",""trial"",""time""
""fullscreenenter"",""1"",""2387""
","""event"",""trial"",""time""
""fullscreenexit"",""2"",""5336""
","","","","","","521.8000000007451","images/banana2.png","","","learning","2","2","1","1","banana","fruit","1","0","","good","[3]"
"html-keyboard-response","140","566896","0.0-9.0-2.0-0.34","3817","1","11","Female","approach_avoid_spark_v1","""event"",""trial"",""time""
""fullscreenenter"",""1"",""2387""
""fullscreenexit"",""2"",""5336""
","
","
","""event"",""trial"",""time""
""fullscreenenter"",""1"",""2387""
","""event"",""trial"",""time""
""fullscreenexit"",""2"",""5336""
","","","","","","null","<div style=""font-size:60px;"">+</div>","null","","fixation","","","","","","","","","","",""
"aa-learning-trial","141","569904","0.0-9.0-2.0-1.34","3817","1","11","Female","approach_avoid_spark_v1","""event"",""trial"",""time""
""fullscreenenter"",""1"",""2387""
""fullscreenexit"",""2"",""5336""
","
","
","""event"",""trial"",""time""
""fullscreenenter"",""1"",""2387""
","""event"",""trial"",""time""
""fullscreenexit"",""2"",""5336""
","","","","","","398.30000000074506","images/banana2.png","","","learning","3","3","1","1","banana","fruit","1","0","","good","[3]"
"html-keyboard-response","142","570408","0.0-9.0-2.0-0.35","3817","1","11","Female","approach_avoid_spark_v1","""event"",""trial"",""time""
""fullscreenenter"",""1"",""2387""
""fullscreenexit"",""2"",""5336""
","
","
","""event"",""trial"",""time""
""fullscreenenter"",""1"",""2387""
","""event"",""trial"",""time""
""fullscreenexit"",""2"",""5336""
","","","","","","null","<div style=""font-size:60px;"">+</div>","null","","fixation","","","","","","","","","","",""
"aa-learning-trial","143","573416","0.0-9.0-2.0-1.35","3817","1","11","Female","approach_avoid_spark_v1","""event"",""trial"",""time""
""fullscreenenter"",""1"",""2387""
""fullscreenexit"",""2"",""5336""
","
","
","""event"",""trial"",""time""
""fullscreenenter"",""1"",""2387""
","""event"",""trial"",""time""
""fullscreenexit"",""2"",""5336""
","","","","","","305.30000000074506","images/apple3.png","","","learning","-1","-1","1","1","apple","fruit","1","0","","neutral","0"
"html-keyboard-response","144","573920","0.0-9.0-2.0-0.36","3817","1","11","Female","approach_avoid_spark_v1","""event"",""trial"",""time""
""fullscreenenter"",""1"",""2387""
""fullscreenexit"",""2"",""5336""
","
","
","""event"",""trial"",""time""
""fullscreenenter"",""1"",""2387""
","""event"",""trial"",""time""
""fullscreenexit"",""2"",""5336""
","","","","","","null","<div style=""font-size:60px;"">+</div>","null","","fixation","","","","","","","","","","",""
"aa-learning-trial","145","576928","0.0-9.0-2.0-1.36","3817","1","11","Female","approach_avoid_spark_v1","""event"",""trial"",""time""
""fullscreenenter"",""1"",""2387""
""fullscreenexit"",""2"",""5336""
","
","
","""event"",""trial"",""time""
""fullscreenenter"",""1"",""2387""
","""event"",""trial"",""time""
""fullscreenexit"",""2"",""5336""
","","","","","","519.5","images/apple6.png","","","learning","2","2","1","1","apple","fruit","1","0","","neutral","0"
"html-keyboard-response","146","577432","0.0-9.0-2.0-0.37","3817","1","11","Female","approach_avoid_spark_v1","""event"",""trial"",""time""
""fullscreenenter"",""1"",""2387""
""fullscreenexit"",""2"",""5336""
","
","
","""event"",""trial"",""time""
""fullscreenenter"",""1"",""2387""
","""event"",""trial"",""time""
""fullscreenexit"",""2"",""5336""
","","","","","","null","<div style=""font-size:60px;"">+</div>","null","","fixation","","","","","","","","","","",""
"aa-learning-trial","147","580440","0.0-9.0-2.0-1.37","3817","1","11","Female","approach_avoid_spark_v1","""event"",""trial"",""time""
""fullscreenenter"",""1"",""2387""
""fullscreenexit"",""2"",""5336""
","
","
","""event"",""trial"",""time""
""fullscreenenter"",""1"",""2387""
","""event"",""trial"",""time""
""fullscreenexit"",""2"",""5336""
","","","","","","499.69999999925494","images/orange3.png","","","learning","-4","-4","1","1","orange","fruit","1","0","","bad","[-3]"
"html-keyboard-response","148","580944","0.0-9.0-2.0-0.38","3817","1","11","Female","approach_avoid_spark_v1","""event"",""trial"",""time""
""fullscreenenter"",""1"",""2387""
""fullscreenexit"",""2"",""5336""
","
","
","""event"",""trial"",""time""
""fullscreenenter"",""1"",""2387""
","""event"",""trial"",""time""
""fullscreenexit"",""2"",""5336""
","","","","","","null","<div style=""font-size:60px;"">+</div>","null","","fixation","","","","","","","","","","",""
"aa-learning-trial","149","583952","0.0-9.0-2.0-1.38","3817","1","11","Female","approach_avoid_spark_v1","""event"",""trial"",""time""
""fullscreenenter"",""1"",""2387""
""fullscreenexit"",""2"",""5336""
","
","
","""event"",""trial"",""time""
""fullscreenenter"",""1"",""2387""
","""event"",""trial"",""time""
""fullscreenexit"",""2"",""5336""
","","","","","","368.7000000011176","images/apple1.png","","","learning","-3","-3","1","1","apple","fruit","1","0","","neutral","0"
"html-keyboard-response","150","584456","0.0-9.0-2.0-0.39","3817","1","11","Female","approach_avoid_spark_v1","""event"",""trial"",""time""
""fullscreenenter"",""1"",""2387""
""fullscreenexit"",""2"",""5336""
","
","
","""event"",""trial"",""time""
""fullscreenenter"",""1"",""2387""
","""event"",""trial"",""time""
""fullscreenexit"",""2"",""5336""
","","","","","","null","<div style=""font-size:60px;"">+</div>","null","","fixation","","","","","","","","","","",""
"aa-learning-trial","151","587464","0.0-9.0-2.0-1.39","3817","1","11","Female","approach_avoid_spark_v1","""event"",""trial"",""time""
""fullscreenenter"",""1"",""2387""
""fullscreenexit"",""2"",""5336""
","
","
","""event"",""trial"",""time""
""fullscreenenter"",""1"",""2387""
","""event"",""trial"",""time""
""fullscreenexit"",""2"",""5336""
","","","","","","620.2999999988824","images/orange4.png","","","learning","-4","-4","1","1","orange","fruit","1","0","","bad","[-3]"
"html-keyboard-response","152","587968","0.0-9.0-2.0-0.40","3817","1","11","Female","approach_avoid_spark_v1","""event"",""trial"",""time""
""fullscreenenter"",""1"",""2387""
""fullscreenexit"",""2"",""5336""
","
","
","""event"",""trial"",""time""
""fullscreenenter"",""1"",""2387""
","""event"",""trial"",""time""
""fullscreenexit"",""2"",""5336""
","","","","","","null","<div style=""font-size:60px;"">+</div>","null","","fixation","","","","","","","","","","",""
"aa-learning-trial","153","590976","0.0-9.0-2.0-1.40","3817","1","11","Female","approach_avoid_spark_v1","""event"",""trial"",""time""
""fullscreenenter"",""1"",""2387""
""fullscreenexit"",""2"",""5336""
","
","
","""event"",""trial"",""time""
""fullscreenenter"",""1"",""2387""
","""event"",""trial"",""time""
""fullscreenexit"",""2"",""5336""
","","","","","","314.3999999985099","images/orange3.png","","","learning","-3","0","0","0","orange","fruit","1","0","","bad","[-3]"
"html-keyboard-response","154","591480","0.0-9.0-2.0-0.41","3817","1","11","Female","approach_avoid_spark_v1","""event"",""trial"",""time""
""fullscreenenter"",""1"",""2387""
""fullscreenexit"",""2"",""5336""
","
","
","""event"",""trial"",""time""
""fullscreenenter"",""1"",""2387""
","""event"",""trial"",""time""
""fullscreenexit"",""2"",""5336""
","","","","","","null","<div style=""font-size:60px;"">+</div>","null","","fixation","","","","","","","","","","",""
"aa-learning-trial","155","594488","0.0-9.0-2.0-1.41","3817","1","11","Female","approach_avoid_spark_v1","""event"",""trial"",""time""
""fullscreenenter"",""1"",""2387""
""fullscreenexit"",""2"",""5336""
","
","
","""event"",""trial"",""time""
""fullscreenenter"",""1"",""2387""
","""event"",""trial"",""time""
""fullscreenexit"",""2"",""5336""
","","","","","","396.19999999925494","images/orange3.png","","","learning","-4","0","0","0","orange","fruit","1","0","","bad","[-3]"
"html-keyboard-response","156","594992","0.0-9.0-2.0-0.42","3817","1","11","Female","approach_avoid_spark_v1","""event"",""trial"",""time""
""fullscreenenter"",""1"",""2387""
""fullscreenexit"",""2"",""5336""
","
","
","""event"",""trial"",""time""
""fullscreenenter"",""1"",""2387""
","""event"",""trial"",""time""
""fullscreenexit"",""2"",""5336""
","","","","","","null","<div style=""font-size:60px;"">+</div>","null","","fixation","","","","","","","","","","",""
"aa-learning-trial","157","598000","0.0-9.0-2.0-1.42","3817","1","11","Female","approach_avoid_spark_v1","""event"",""trial"",""time""
""fullscreenenter"",""1"",""2387""
""fullscreenexit"",""2"",""5336""
","
","
","""event"",""trial"",""time""
""fullscreenenter"",""1"",""2387""
","""event"",""trial"",""time""
""fullscreenexit"",""2"",""5336""
","","","","","","264.1000000014901","images/orange1.png","","","learning","-5","0","0","0","orange","fruit","1","0","","bad","[-3]"
"html-keyboard-response","158","598504","0.0-9.0-2.0-0.43","3817","1","11","Female","approach_avoid_spark_v1","""event"",""trial"",""time""
""fullscreenenter"",""1"",""2387""
""fullscreenexit"",""2"",""5336""
","
","
","""event"",""trial"",""time""
""fullscreenenter"",""1"",""2387""
","""event"",""trial"",""time""
""fullscreenexit"",""2"",""5336""
","","","","","","null","<div style=""font-size:60px;"">+</div>","null","","fixation","","","","","","","","","","",""
"aa-learning-trial","159","601512","0.0-9.0-2.0-1.43","3817","1","11","Female","approach_avoid_spark_v1","""event"",""trial"",""time""
""fullscreenenter"",""1"",""2387""
""fullscreenexit"",""2"",""5336""
","
","
","""event"",""trial"",""time""
""fullscreenenter"",""1"",""2387""
","""event"",""trial"",""time""
""fullscreenexit"",""2"",""5336""
","","","","","","494.30000000074506","images/orange4.png","","","learning","-4","0","0","0","orange","fruit","1","0","","bad","[-3]"
"html-keyboard-response","160","602016","0.0-9.0-2.0-0.44","3817","1","11","Female","approach_avoid_spark_v1","""event"",""trial"",""time""
""fullscreenenter"",""1"",""2387""
""fullscreenexit"",""2"",""5336""
","
","
","""event"",""trial"",""time""
""fullscreenenter"",""1"",""2387""
","""event"",""trial"",""time""
""fullscreenexit"",""2"",""5336""
","","","","","","null","<div style=""font-size:60px;"">+</div>","null","","fixation","","","","","","","","","","",""
"aa-learning-trial","161","605024","0.0-9.0-2.0-1.44","3817","1","11","Female","approach_avoid_spark_v1","""event"",""trial"",""time""
""fullscreenenter"",""1"",""2387""
""fullscreenexit"",""2"",""5336""
","
","
","""event"",""trial"",""time""
""fullscreenenter"",""1"",""2387""
","""event"",""trial"",""time""
""fullscreenexit"",""2"",""5336""
","","","","","","370.2000000011176","images/banana2.png","","","learning","5","0","0","0","banana","fruit","1","0","","good","[3]"
"html-keyboard-response","162","605528","0.0-9.0-2.0-0.45","3817","1","11","Female","approach_avoid_spark_v1","""event"",""trial"",""time""
""fullscreenenter"",""1"",""2387""
""fullscreenexit"",""2"",""5336""
","
","
","""event"",""trial"",""time""
""fullscreenenter"",""1"",""2387""
","""event"",""trial"",""time""
""fullscreenexit"",""2"",""5336""
","","","","","","null","<div style=""font-size:60px;"">+</div>","null","","fixation","","","","","","","","","","",""
"aa-learning-trial","163","608536","0.0-9.0-2.0-1.45","3817","1","11","Female","approach_avoid_spark_v1","""event"",""trial"",""time""
""fullscreenenter"",""1"",""2387""
""fullscreenexit"",""2"",""5336""
","
","
","""event"",""trial"",""time""
""fullscreenenter"",""1"",""2387""
","""event"",""trial"",""time""
""fullscreenexit"",""2"",""5336""
","","","","","","566.2999999988824","images/orange3.png","","","learning","-1","0","0","0","orange","fruit","1","0","","bad","[-3]"
"html-keyboard-response","164","609040","0.0-9.0-2.0-0.46","3817","1","11","Female","approach_avoid_spark_v1","""event"",""trial"",""time""
""fullscreenenter"",""1"",""2387""
""fullscreenexit"",""2"",""5336""
","
","
","""event"",""trial"",""time""
""fullscreenenter"",""1"",""2387""
","""event"",""trial"",""time""
""fullscreenexit"",""2"",""5336""
","","","","","","null","<div style=""font-size:60px;"">+</div>","null","","fixation","","","","","","","","","","",""
"aa-learning-trial","165","612048","0.0-9.0-2.0-1.46","3817","1","11","Female","approach_avoid_spark_v1","""event"",""trial"",""time""
""fullscreenenter"",""1"",""2387""
""fullscreenexit"",""2"",""5336""
","
","
","""event"",""trial"",""time""
""fullscreenenter"",""1"",""2387""
","""event"",""trial"",""time""
""fullscreenexit"",""2"",""5336""
","","","","","","343.80000000074506","images/banana1.png","","","learning","3","3","1","1","banana","fruit","1","0","","good","[3]"
"html-keyboard-response","166","612552","0.0-9.0-2.0-0.47","3817","1","11","Female","approach_avoid_spark_v1","""event"",""trial"",""time""
""fullscreenenter"",""1"",""2387""
""fullscreenexit"",""2"",""5336""
","
","
","""event"",""trial"",""time""
""fullscreenenter"",""1"",""2387""
","""event"",""trial"",""time""
""fullscreenexit"",""2"",""5336""
","","","","","","null","<div style=""font-size:60px;"">+</div>","null","","fixation","","","","","","","","","","",""
"aa-learning-trial","167","615560","0.0-9.0-2.0-1.47","3817","1","11","Female","approach_avoid_spark_v1","""event"",""trial"",""time""
""fullscreenenter"",""1"",""2387""
""fullscreenexit"",""2"",""5336""
","
","
","""event"",""trial"",""time""
""fullscreenenter"",""1"",""2387""
","""event"",""trial"",""time""
""fullscreenexit"",""2"",""5336""
","","","","","","452.6000000014901","images/orange5.png","","","learning","-4","-4","1","1","orange","fruit","1","0","","bad","[-3]"
"html-keyboard-response","168","616064","0.0-9.0-2.0-0.48","3817","1","11","Female","approach_avoid_spark_v1","""event"",""trial"",""time""
""fullscreenenter"",""1"",""2387""
""fullscreenexit"",""2"",""5336""
","
","
","""event"",""trial"",""time""
""fullscreenenter"",""1"",""2387""
","""event"",""trial"",""time""
""fullscreenexit"",""2"",""5336""
","","","","","","null","<div style=""font-size:60px;"">+</div>","null","","fixation","","","","","","","","","","",""
"aa-learning-trial","169","619072","0.0-9.0-2.0-1.48","3817","1","11","Female","approach_avoid_spark_v1","""event"",""trial"",""time""
""fullscreenenter"",""1"",""2387""
""fullscreenexit"",""2"",""5336""
","
","
","""event"",""trial"",""time""
""fullscreenenter"",""1"",""2387""
","""event"",""trial"",""time""
""fullscreenexit"",""2"",""5336""
","","","","","","693.9000000003725","images/apple2.png","","","learning","3","3","1","1","apple","fruit","1","0","","neutral","0"
"html-keyboard-response","170","619576","0.0-9.0-2.0-0.49","3817","1","11","Female","approach_avoid_spark_v1","""event"",""trial"",""time""
""fullscreenenter"",""1"",""2387""
""fullscreenexit"",""2"",""5336""
","
","
","""event"",""trial"",""time""
""fullscreenenter"",""1"",""2387""
","""event"",""trial"",""time""
""fullscreenexit"",""2"",""5336""
","","","","","","null","<div style=""font-size:60px;"">+</div>","null","","fixation","","","","","","","","","","",""
"aa-learning-trial","171","622584","0.0-9.0-2.0-1.49","3817","1","11","Female","approach_avoid_spark_v1","""event"",""trial"",""time""
""fullscreenenter"",""1"",""2387""
""fullscreenexit"",""2"",""5336""
","
","
","""event"",""trial"",""time""
""fullscreenenter"",""1"",""2387""
","""event"",""trial"",""time""
""fullscreenexit"",""2"",""5336""
","","","","","","555.1999999992549","images/apple6.png","","","learning","2","2","1","1","apple","fruit","1","0","","neutral","0"
"html-keyboard-response","172","623088","0.0-9.0-2.0-0.50","3817","1","11","Female","approach_avoid_spark_v1","""event"",""trial"",""time""
""fullscreenenter"",""1"",""2387""
""fullscreenexit"",""2"",""5336""
","
","
","""event"",""trial"",""time""
""fullscreenenter"",""1"",""2387""
","""event"",""trial"",""time""
""fullscreenexit"",""2"",""5336""
","","","","","","null","<div style=""font-size:60px;"">+</div>","null","","fixation","","","","","","","","","","",""
"aa-learning-trial","173","626096","0.0-9.0-2.0-1.50","3817","1","11","Female","approach_avoid_spark_v1","""event"",""trial"",""time""
""fullscreenenter"",""1"",""2387""
""fullscreenexit"",""2"",""5336""
","
","
","""event"",""trial"",""time""
""fullscreenenter"",""1"",""2387""
","""event"",""trial"",""time""
""fullscreenexit"",""2"",""5336""
","","","","","","525.5999999996275","images/orange1.png","","","learning","-3","-3","1","1","orange","fruit","1","0","","bad","[-3]"
"html-button-response","174","630014","0.0-9.0-3.0","3817","1","11","Female","approach_avoid_spark_v1","""event"",""trial"",""time""
""fullscreenenter"",""1"",""2387""
""fullscreenexit"",""2"",""5336""
","
","
","""event"",""trial"",""time""
""fullscreenenter"",""1"",""2387""
","""event"",""trial"",""time""
""fullscreenexit"",""2"",""5336""
","","","","","","3916.7000000011176","<p> You have completed the round! <p> In this round, you earned 12 points! </p>","0","","break","","","","","","","","","","",""
"html-button-response","175","631253","0.0-10.0","3817","1","11","Female","approach_avoid_spark_v1","""event"",""trial"",""time""
""fullscreenenter"",""1"",""2387""
""fullscreenexit"",""2"",""5336""
","
","
","""event"",""trial"",""time""
""fullscreenenter"",""1"",""2387""
","""event"",""trial"",""time""
""fullscreenexit"",""2"",""5336""
","","","","","","1235.699999999255","<p> Now it's time to play another round. </p>","0","","transition_screen","","","","","","","","","","",""
"preload","176","631391","0.0-11.0-0.0","3817","1","11","Female","approach_avoid_spark_v1","""event"",""trial"",""time""
""fullscreenenter"",""1"",""2387""
""fullscreenexit"",""2"",""5336""
","
","
","""event"",""trial"",""time""
""fullscreenenter"",""1"",""2387""
","""event"",""trial"",""time""
""fullscreenexit"",""2"",""5336""
","true","false","[]","[]","[]","","","","","","","","","","","","","","","",""
"learning-instructions","177","637812","0.0-11.0-1.0-0.0","3817","1","11","Female","approach_avoid_spark_v1","""event"",""trial"",""time""
""fullscreenenter"",""1"",""2387""
""fullscreenexit"",""2"",""5336""
","
","
","""event"",""trial"",""time""
""fullscreenenter"",""1"",""2387""
","""event"",""trial"",""time""
""fullscreenexit"",""2"",""5336""
","","","","","","1463","<p> Your goal in this round is to take care of lots of farm animals. </p></div>","","0","instructions","","","","","","","","","","",""
"learning-instructions","178","650475","0.0-11.0-1.0-0.1","3817","1","11","Female","approach_avoid_spark_v1","""event"",""trial"",""time""
""fullscreenenter"",""1"",""2387""
""fullscreenexit"",""2"",""5336""
","
","
","""event"",""trial"",""time""
""fullscreenenter"",""1"",""2387""
","""event"",""trial"",""time""
""fullscreenexit"",""2"",""5336""
","","","","","","1454.2999999988824","<p> Some farm animals are hungry, while other farm animals are already full.  </p><p> On each turn, you will see a farm animal.   </p><p> You need to decide whether to feed it or not.  </p>","","0","instructions","","","","","","","","","","",""
"learning-instructions","179","658373","0.0-11.0-1.0-0.2","3817","1","11","Female","approach_avoid_spark_v1","""event"",""trial"",""time""
""fullscreenenter"",""1"",""2387""
""fullscreenexit"",""2"",""5336""
","
","
","""event"",""trial"",""time""
""fullscreenenter"",""1"",""2387""
","""event"",""trial"",""time""
""fullscreenexit"",""2"",""5336""
","","","","","","1063.699999999255","<p> You can feed the farm animal by pressing 1 and leave the farm animal alone by pressing 0. </p><br><div class=""choice-instructions-grid""> <div class=""choice-option""><img src=""images/approach.png"" class=""choice-option-img"" stage=""instructions"" position=""0"" ><div class=""choice-option-text""> Press ""1."" </div></div><div class=""choice-option""><img src=""images/avoid.png"" class=""choice-option-img"" stage=""instructions"" position=""1"" ><div class=""choice-option-text""> Press ""0."" </div></div>","","0","instructions","","","","","","","","","","",""
"learning-instructions","180","669826","0.0-11.0-1.0-0.3","3817","1","11","Female","approach_avoid_spark_v1","""event"",""trial"",""time""
""fullscreenenter"",""1"",""2387""
""fullscreenexit"",""2"",""5336""
","
","
","""event"",""trial"",""time""
""fullscreenenter"",""1"",""2387""
","""event"",""trial"",""time""
""fullscreenexit"",""2"",""5336""
","","","","","","517.2999999988824","<p> If you feed a hungry farm animal, you will make it feel satisfied! </p><p> But if you feed the farm animal and it was already full, you will make it feel sick. </p>","","0","instructions","","","","","","","","","","",""
"learning-instructions","181","684691","0.0-11.0-1.0-0.4","3817","1","11","Female","approach_avoid_spark_v1","""event"",""trial"",""time""
""fullscreenenter"",""1"",""2387""
""fullscreenexit"",""2"",""5336""
","
","
","""event"",""trial"",""time""
""fullscreenenter"",""1"",""2387""
","""event"",""trial"",""time""
""fullscreenexit"",""2"",""5336""
","","","","","","929","<p> You will earn points based on how you made the farm animal feel. </p><p> If you made it satisfied, you will WIN anywhere from 1 - 9 points, </p><p> but if you made it sick, you will LOSE anywhere from 1 - 9 points. </p>","","0","instructions","","","","","","","","","","",""
"learning-instructions","182","691777","0.0-11.0-1.0-0.5","3817","1","11","Female","approach_avoid_spark_v1","""event"",""trial"",""time""
""fullscreenenter"",""1"",""2387""
""fullscreenexit"",""2"",""5336""
","
","
","""event"",""trial"",""time""
""fullscreenenter"",""1"",""2387""
","""event"",""trial"",""time""
""fullscreenexit"",""2"",""5336""
","","","","","","430.40000000037253","<p> You will see how many points you won or lost in the center of the screen. </p><p> Here is what you would see if you won 5 points: </p><p style=""color:green;font-size:50px;font-weight:bolder"">5</p>","","0","instructions","","","","","","","","","","",""
"learning-instructions","183","694992","0.0-11.0-1.0-0.6","3817","1","11","Female","approach_avoid_spark_v1","""event"",""trial"",""time""
""fullscreenenter"",""1"",""2387""
""fullscreenexit"",""2"",""5336""
","
","
","""event"",""trial"",""time""
""fullscreenenter"",""1"",""2387""
","""event"",""trial"",""time""
""fullscreenexit"",""2"",""5336""
","","","","","","381","<p> And here is what you would see if you lost 3 points: </p><p style=""color:red;font-size:50px;font-weight:bolder"">-3</p>","","0","instructions","","","","","","","","","","",""
"learning-instructions","184","714718","0.0-11.0-1.0-0.7","3817","1","11","Female","approach_avoid_spark_v1","""event"",""trial"",""time""
""fullscreenenter"",""1"",""2387""
""fullscreenexit"",""2"",""5336""
","
","
","""event"",""trial"",""time""
""fullscreenenter"",""1"",""2387""
","""event"",""trial"",""time""
""fullscreenexit"",""2"",""5336""
","","","","","","2795.7000000011176","<p> Some farm animals will become very satisfied or very sick. </p><p> These farm animals will make you win or lose LOTS of points. </p><p> Other farm animals have less strong feelings. </p><p> These farm animals will make you win or lose small amounts of points. </p>","","0","instructions","","","","","","","","","","",""
"learning-instructions","185","729204","0.0-11.0-1.0-0.8","3817","1","11","Female","approach_avoid_spark_v1","""event"",""trial"",""time""
""fullscreenenter"",""1"",""2387""
""fullscreenexit"",""2"",""5336""
","
","
","""event"",""trial"",""time""
""fullscreenenter"",""1"",""2387""
","""event"",""trial"",""time""
""fullscreenexit"",""2"",""5336""
","","","","","","1132.0999999996275","<p> If you choose to leave the farm animal alone, you will not win or lose any points. </p><p>  However, in the center of the screen, you will see the number of points you WOULD HAVE won or lost if you had fed the farm animal. </p>","","0","instructions","","","","","","","","","","",""
"learning-instructions","186","743039","0.0-11.0-1.0-0.9","3817","1","11","Female","approach_avoid_spark_v1","""event"",""trial"",""time""
""fullscreenenter"",""1"",""2387""
""fullscreenexit"",""2"",""5336""
","
","
","""event"",""trial"",""time""
""fullscreenenter"",""1"",""2387""
","""event"",""trial"",""time""
""fullscreenexit"",""2"",""5336""
","","","","","","1164.6000000014901","<p> Here is what you might see if you did not feed the farm animal but the animal was hungry: </p><p style=""color:grey; font-size:50px; display: inline-block; border-spacing: 15px; border-width:3px; border-style:solid; border-color:red"">  &nbsp; 6 &nbsp; </p><p> Remember, in this case, you would not win or lose ANY points because you did not feed the farm animal.  </p>","","0","instructions","","","","","","","","","","",""
"learning-instructions","187","753019","0.0-11.0-1.0-0.10","3817","1","11","Female","approach_avoid_spark_v1","""event"",""trial"",""time""
""fullscreenenter"",""1"",""2387""
""fullscreenexit"",""2"",""5336""
","
","
","""event"",""trial"",""time""
""fullscreenenter"",""1"",""2387""
","""event"",""trial"",""time""
""fullscreenexit"",""2"",""5336""
","","","","","","1118","<p> Try to make the best choice for each farm animal because </p><p> at the end of the game, you will earn bonus money based on how many points you earned. </p>","","0","instructions","","","","","","","","","","",""
"learning-instructions","188","762494","0.0-11.0-1.0-0.11","3817","1","11","Female","approach_avoid_spark_v1","""event"",""trial"",""time""
""fullscreenenter"",""1"",""2387""
""fullscreenexit"",""2"",""5336""
","
","
","""event"",""trial"",""time""
""fullscreenenter"",""1"",""2387""
","""event"",""trial"",""time""
""fullscreenexit"",""2"",""5336""
