"trial_type","trial_index","time_elapsed","internal_node_id","subject_id","task_condition","age","gender","task_version","interactions","blur_events","focus_events","fullscreenenter_events","fullscreenexit_events","success","timeout","failed_images","failed_audio","failed_video","rt","stimulus","response","button_pressed","task_part","approach_reward","points","key_press","option_selected","stim_cat","task_block","block_condition","block_number","correct","cat_type","mean_cat_reward"
"pavlovia","0","3","0.0-0.0","4306","1","21","Female","approach_avoid_spark_v1","""event"",""trial"",""time""
""fullscreenenter"",""1"",""1837""
","
","
","""event"",""trial"",""time""
""fullscreenenter"",""1"",""1837""
","
","","","","","","","","","","","","","","","","","","","","",""
"fullscreen","1","2831","0.0-1.0","4306","1","21","Female","approach_avoid_spark_v1","""event"",""trial"",""time""
""fullscreenenter"",""1"",""1837""
","
","
","""event"",""trial"",""time""
""fullscreenenter"",""1"",""1837""
","
","true","","","","","","","","","","","","","","","","","","","",""
"preload","2","85911","0.0-2.0","4306","1","21","Female","approach_avoid_spark_v1","""event"",""trial"",""time""
""fullscreenenter"",""1"",""1837""
","
","
","""event"",""trial"",""time""
""fullscreenenter"",""1"",""1837""
","
","true","false","[]","[]","[]","","","","","","","","","","","","","","","",""
"audio-keyboard-response","3","90039","0.0-3.0","4306","1","21","Female","approach_avoid_spark_v1","""event"",""trial"",""time""
""fullscreenenter"",""1"",""1837""
","
","
","""event"",""trial"",""time""
""fullscreenenter"",""1"",""1837""
","
","","","","","","4064.0000000000073","audio/beep_loop.wav"," ","","","","","","","","","","","","",""
"audio-button-response","4","92658","0.0-4.0","4306","1","21","Female","approach_avoid_spark_v1","""event"",""trial"",""time""
""fullscreenenter"",""1"",""1837""
","
","
","""event"",""trial"",""time""
""fullscreenenter"",""1"",""1837""
","
","","","","","","2619","audio/shark.wav","4","","","","","","","","","","","","",""
"audio-button-response","5","95701","0.0-5.0","4306","1","21","Female","approach_avoid_spark_v1","""event"",""trial"",""time""
""fullscreenenter"",""1"",""1837""
","
","
","""event"",""trial"",""time""
""fullscreenenter"",""1"",""1837""
","
","","","","","","2037","audio/turtle.wav","1","","","","","","","","","","","","",""
"preload","6","114059","0.0-6.0","4306","1","21","Female","approach_avoid_spark_v1","""event"",""trial"",""time""
""fullscreenenter"",""1"",""1837""
","
","
","""event"",""trial"",""time""
""fullscreenenter"",""1"",""1837""
","
","true","false","[]","[]","[]","","","","","","","","","","","","","","","",""
"html-keyboard-response","7","116258","0.0-7.0","4306","1","21","Female","approach_avoid_spark_v1","""event"",""trial"",""time""
""fullscreenenter"",""1"",""1837""
","
","
","""event"",""trial"",""time""
""fullscreenenter"",""1"",""1837""
","
","","","","","","2198","Welcome to the experiment. Press any key to begin and to advance the instructions."," ","","","","","","","","","","","","",""
"learning-instructions","8","124268","0.0-8.0-0.0-0.0","4306","1","21","Female","approach_avoid_spark_v1","""event"",""trial"",""time""
""fullscreenenter"",""1"",""1837""
","
","
","""event"",""trial"",""time""
""fullscreenenter"",""1"",""1837""
","
","","","","","","1057.2999999821186","<p> Welcome! Today you are going to play 6 different rounds of a decision-making game. </p><p> Use the mouse to click next to continue. </p>","","0","instructions","","","","","","","","","","",""
"learning-instructions","9","129821","0.0-8.0-0.0-0.1","4306","1","21","Female","approach_avoid_spark_v1","""event"",""trial"",""time""
""fullscreenenter"",""1"",""1837""
","
","
","""event"",""trial"",""time""
""fullscreenenter"",""1"",""1837""
","
","","","","","","2823.600000023842","<p> You will start with a practice round to learn the rules. </p>","","0","instructions","","","","","","","","","","",""
"learning-instructions","10","134181","0.0-8.0-0.0-0.2","4306","1","21","Female","approach_avoid_spark_v1","""event"",""trial"",""time""
""fullscreenenter"",""1"",""1837""
","
","
","""event"",""trial"",""time""
""fullscreenenter"",""1"",""1837""
","
","","","","","","906.2999999821186","<p> Your goal in this round is to give out sports equipment to kids. </p></div>","","0","instructions","","","","","","","","","","",""
"learning-instructions","11","142773","0.0-8.0-0.0-0.3","4306","1","21","Female","approach_avoid_spark_v1","""event"",""trial"",""time""
""fullscreenenter"",""1"",""1837""
","
","
","""event"",""trial"",""time""
""fullscreenenter"",""1"",""1837""
","
","","","","","","951.6999999880791","<p> The kids only like some of the equipment.  </p><p> On each turn, you will see a piece of sports equipment.   </p><p> You need to decide whether to give it to the kids or not.  </p>","","0","instructions","","","","","","","","","","",""
"learning-instructions","12","148378","0.0-8.0-0.0-0.4","4306","1","21","Female","approach_avoid_spark_v1","""event"",""trial"",""time""
""fullscreenenter"",""1"",""1837""
","
","
","""event"",""trial"",""time""
""fullscreenenter"",""1"",""1837""
","
","","","","","","849.0999999940395","<p> You can give them the equipment by pressing 1 and choose not to give it to them by pressing 0. </p><br><div class=""choice-instructions-grid""> <div class=""choice-option""><img src=""images/approach.png"" class=""choice-option-img"" stage=""instructions"" position=""0"" ><div class=""choice-option-text""> Press ""1."" </div></div><div class=""choice-option""><img src=""images/avoid.png"" class=""choice-option-img"" stage=""instructions"" position=""1"" ><div class=""choice-option-text""> Press ""0."" </div></div>","","0","instructions","","","","","","","","","","",""
"learning-instructions","13","156954","0.0-8.0-0.0-0.5","4306","1","21","Female","approach_avoid_spark_v1","""event"",""trial"",""time""
""fullscreenenter"",""1"",""1837""
","
","
","""event"",""trial"",""time""
""fullscreenenter"",""1"",""1837""
","
","","","","","","1195.9000000059605","<p> If you give them a piece of equipment they like, they will be happy! </p><p> But if you give them a piece of equipment they do not like, they will be sad. </p>","","0","instructions","","","","","","","","","","",""
"learning-instructions","14","169349","0.0-8.0-0.0-0.6","4306","1","21","Female","approach_avoid_spark_v1","""event"",""trial"",""time""
""fullscreenenter"",""1"",""1837""
","
","
","""event"",""trial"",""time""
""fullscreenenter"",""1"",""1837""
","
","","","","","","1884.0999999940395","<p> You will earn points based on how you make kids feel. </p><p> If you make them happy, you will WIN anywhere from 1 - 9 points, </p><p> but if you make them sad, you will LOSE anywhere from 1 - 9 points. </p>","","0","instructions","","","","","","","","","","",""
"learning-instructions","15","181668","0.0-8.0-0.0-0.7","4306","1","21","Female","approach_avoid_spark_v1","""event"",""trial"",""time""
""fullscreenenter"",""1"",""1837""
","
","
","""event"",""trial"",""time""
""fullscreenenter"",""1"",""1837""
","
","","","","","","2758.300000011921","<p> You will see how many points you won or lost in the center of the screen. </p><p> Here is what you would see if you won 6 points: </p><p style=""color:green;font-size:50px;font-weight:bolder"">6</p><p style=""color:green"">The text is GREEN because you WON points.</p>","","0","instructions","","","","","","","","","","",""
"learning-instructions","16","189834","0.0-8.0-0.0-0.8","4306","1","21","Female","approach_avoid_spark_v1","""event"",""trial"",""time""
""fullscreenenter"",""1"",""1837""
","
","
","""event"",""trial"",""time""
""fullscreenenter"",""1"",""1837""
","
","","","","","","2662.0999999940395","<p> And here is what you would see if you lost 4 points: </p><p style=""color:red;font-size:50px;font-weight:bolder"">-4</p><p style=""color:red"">The text is RED because you LOST points. </p>","","0","instructions","","","","","","","","","","",""
"learning-instructions","17","206804","0.0-8.0-0.0-0.9","4306","1","21","Female","approach_avoid_spark_v1","""event"",""trial"",""time""
""fullscreenenter"",""1"",""1837""
","
","
","""event"",""trial"",""time""
""fullscreenenter"",""1"",""1837""
","
","","","","","","2256.600000023842","<p> Some of the equipment will make the kids VERY happy or sad. </p><p> These pieces of equipment will make you win or lose LOTS of points. </p><p> Other pieces of equipment will only make the kids a little happy or sad. </p><p> These pieces of equipment will make you win or lose small amounts of points. </p>","","0","instructions","","","","","","","","","","",""
"learning-instructions","18","220643","0.0-8.0-0.0-0.10","4306","1","21","Female","approach_avoid_spark_v1","""event"",""trial"",""time""
""fullscreenenter"",""1"",""1837""
","
","
","""event"",""trial"",""time""
""fullscreenenter"",""1"",""1837""
","
","","","","","","3215.2999999821186","<p> If you choose not to give them the equipment, you will not win or lose any points. </p><p>  However, in the center of the screen, you will see the number of points you WOULD HAVE won or lost if you had given them the equipment. </p>","","0","instructions","","","","","","","","","","",""
"learning-instructions","19","243295","0.0-8.0-0.0-0.11","4306","1","21","Female","approach_avoid_spark_v1","""event"",""trial"",""time""
""fullscreenenter"",""1"",""1837""
","
","
","""event"",""trial"",""time""
""fullscreenenter"",""1"",""1837""
","
","","","","","","1125.4000000059605","<p> Here is what you might see if you did not give the equipment to the kids but it would have made them happy: </p><p style=""color:grey; font-size:50px; display: inline-block; border-spacing: 15px; border-width:3px; border-style:solid; border-color:red"">  &nbsp; 7 &nbsp; </p><p> Remember, in this case, you would not win or lose ANY points because you did not give them the equipment.  </p><p style=""color:grey"">The text is GREY because you earned ZERO points. </p><p style=""color:red"">However, choosing to give the kids the equipment would have made you win points. The box around the text is RED because you chose the worse option. </p>","","0","instructions","","","","","","","","","","",""
"learning-instructions","20","268273","0.0-8.0-0.0-0.12","4306","1","21","Female","approach_avoid_spark_v1","""event"",""trial"",""time""
""fullscreenenter"",""1"",""1837""
","
","
","""event"",""trial"",""time""
""fullscreenenter"",""1"",""1837""
","
","","","","","","3901.199999988079","<p> Here is what you might see if you did not give the equipment to the kids but it would have made them sad: </p><p style=""color:grey;font-size:50px; display: inline-block; border-spacing: 15px; border-width:3px; border-style:solid; border-color:green"">  &nbsp; -8 &nbsp; </p><p> Remember, in this case, you would not win or lose ANY points because you did not give them the equipment.  </p><p style=""color:grey"">The text is GREY because you earned ZERO points. </p><p  style=""color:green""> Choosing to give the kids the equipment would have made you lose points. The box around the text is GREEN because you chose the better option.</p>","","0","instructions","","","","","","","","","","",""
"learning-instructions","21","278862","0.0-8.0-0.0-0.13","4306","1","21","Female","approach_avoid_spark_v1","""event"",""trial"",""time""
""fullscreenenter"",""1"",""1837""
","
","
","""event"",""trial"",""time""
""fullscreenenter"",""1"",""1837""
","
","","","","","","777.7999999821186","<p> You will have 3 seconds to make each choice. Try to respond before time runs out! </p><p> You will lose 5 points each time you do not make a response. </p>","","0","instructions","","","","","","","","","","",""
"learning-instructions","22","284883","0.0-8.0-0.0-0.14","4306","1","21","Female","approach_avoid_spark_v1","""event"",""trial"",""time""
""fullscreenenter"",""1"",""1837""
","
","
","""event"",""trial"",""time""
""fullscreenenter"",""1"",""1837""
","
","","","","","","612","<p> This is just a practice round, but in the real game, your bonus payment will depend on your total number of points.","","0","instructions","","","","","","","","","","",""
"learning-instructions","23","291505","0.0-8.0-0.0-0.15","4306","1","21","Female","approach_avoid_spark_v1","""event"",""trial"",""time""
""fullscreenenter"",""1"",""1837""
","
","
","""event"",""trial"",""time""
""fullscreenenter"",""1"",""1837""
","
","","","","","","854.5999999940395","<p> Remember, you can give them the equipment by pressing 1 and choose not to give it to them by pressing 0. </p><br><div class=""choice-instructions-grid""> <div class=""choice-option""><img src=""images/approach.png"" class=""choice-option-img"" stage=""instructions"" position=""0"" ><div class=""choice-option-text""> Press ""1."" </div></div><div class=""choice-option""><img src=""images/avoid.png"" class=""choice-option-img"" stage=""instructions"" position=""1"" ><div class=""choice-option-text""> Press ""0."" </div></div>","","0","instructions","","","","","","","","","","",""
"html-button-response","24","292819","0.0-8.0-1.0","4306","1","21","Female","approach_avoid_spark_v1","""event"",""trial"",""time""
""fullscreenenter"",""1"",""1837""
","
","
","""event"",""trial"",""time""
""fullscreenenter"",""1"",""1837""
","
","","","","","","1202.7000000178814","<p> Ready to practice? </p>","0","","","","","","","","","","","","",""
"html-keyboard-response","25","293429","0.0-8.0-2.0-0.0","4306","1","21","Female","approach_avoid_spark_v1","""event"",""trial"",""time""
""fullscreenenter"",""1"",""1837""
","
","
","""event"",""trial"",""time""
""fullscreenenter"",""1"",""1837""
","
","","","","","","null","<div style=""font-size:60px;"">+</div>","null","","fixation","","","","","","","","","","",""
"aa-learning-trial","26","296436","0.0-8.0-2.0-1.0","4306","1","21","Female","approach_avoid_spark_v1","""event"",""trial"",""time""
""fullscreenenter"",""1"",""1837""
","
","
","""event"",""trial"",""time""
""fullscreenenter"",""1"",""1837""
","
","","","","","","2885.5","images/racket3.png","","","learning","2","2","1","1","practice","practice","practice","-1","","",""
"html-keyboard-response","27","296942","0.0-8.0-2.0-0.1","4306","1","21","Female","approach_avoid_spark_v1","""event"",""trial"",""time""
""fullscreenenter"",""1"",""1837""
","
","
","""event"",""trial"",""time""
""fullscreenenter"",""1"",""1837""
","
","","","","","","null","<div style=""font-size:60px;"">+</div>","null","","fixation","","","","","","","","","","",""
"aa-learning-trial","28","299948","0.0-8.0-2.0-1.1","4306","1","21","Female","approach_avoid_spark_v1","""event"",""trial"",""time""
""fullscreenenter"",""1"",""1837""
","
","
","""event"",""trial"",""time""
""fullscreenenter"",""1"",""1837""
","
","","","","","","2491.7000000178814","images/racket2.png","","","learning","8","8","1","1","practice","practice","practice","-1","","",""
"html-keyboard-response","29","300449","0.0-8.0-2.0-0.2","4306","1","21","Female","approach_avoid_spark_v1","""event"",""trial"",""time""
""fullscreenenter"",""1"",""1837""
","
","
","""event"",""trial"",""time""
""fullscreenenter"",""1"",""1837""
","
","","","","","","null","<div style=""font-size:60px;"">+</div>","null","","fixation","","","","","","","","","","",""
"aa-learning-trial","30","303459","0.0-8.0-2.0-1.2","4306","1","21","Female","approach_avoid_spark_v1","""event"",""trial"",""time""
""fullscreenenter"",""1"",""1837""
","
","
","""event"",""trial"",""time""
""fullscreenenter"",""1"",""1837""
","
","","","","","","2757.2000000178814","images/racket1.png","","","learning","-9","-9","1","1","practice","practice","practice","-1","","",""
"html-keyboard-response","31","303967","0.0-8.0-2.0-0.3","4306","1","21","Female","approach_avoid_spark_v1","""event"",""trial"",""time""
""fullscreenenter"",""1"",""1837""
","
","
","""event"",""trial"",""time""
""fullscreenenter"",""1"",""1837""
","
","","","","","","null","<div style=""font-size:60px;"">+</div>","null","","fixation","","","","","","","","","","",""
"aa-learning-trial","32","306973","0.0-8.0-2.0-1.3","4306","1","21","Female","approach_avoid_spark_v1","""event"",""trial"",""time""
""fullscreenenter"",""1"",""1837""
","
","
","""event"",""trial"",""time""
""fullscreenenter"",""1"",""1837""
","
","","","","","","2001.9000000059605","images/ball3.png","","","learning","-5","-5","1","1","practice","practice","practice","-1","","",""
"html-keyboard-response","33","307477","0.0-8.0-2.0-0.4","4306","1","21","Female","approach_avoid_spark_v1","""event"",""trial"",""time""
""fullscreenenter"",""1"",""1837""
","
","
","""event"",""trial"",""time""
""fullscreenenter"",""1"",""1837""
","
","","","","","","null","<div style=""font-size:60px;"">+</div>","null","","fixation","","","","","","","","","","",""
"aa-learning-trial","34","310490","0.0-8.0-2.0-1.4","4306","1","21","Female","approach_avoid_spark_v1","""event"",""trial"",""time""
""fullscreenenter"",""1"",""1837""
","
","
","""event"",""trial"",""time""
""fullscreenenter"",""1"",""1837""
","
","","","","","","1925.199999988079","images/racket3.png","","","learning","-5","-5","1","1","practice","practice","practice","-1","","",""
"html-keyboard-response","35","310998","0.0-8.0-2.0-0.5","4306","1","21","Female","approach_avoid_spark_v1","""event"",""trial"",""time""
""fullscreenenter"",""1"",""1837""
","
","
","""event"",""trial"",""time""
""fullscreenenter"",""1"",""1837""
","
","","","","","","null","<div style=""font-size:60px;"">+</div>","null","","fixation","","","","","","","","","","",""
"aa-learning-trial","36","314007","0.0-8.0-2.0-1.5","4306","1","21","Female","approach_avoid_spark_v1","""event"",""trial"",""time""
""fullscreenenter"",""1"",""1837""
","
","
","""event"",""trial"",""time""
""fullscreenenter"",""1"",""1837""
","
","","","","","","1117.199999988079","images/ball2.png","","","learning","-2","0","0","0","practice","practice","practice","-1","","",""
"html-keyboard-response","37","314518","0.0-8.0-2.0-0.6","4306","1","21","Female","approach_avoid_spark_v1","""event"",""trial"",""time""
""fullscreenenter"",""1"",""1837""
","
","
","""event"",""trial"",""time""
""fullscreenenter"",""1"",""1837""
","
","","","","","","null","<div style=""font-size:60px;"">+</div>","null","","fixation","","","","","","","","","","",""
"aa-learning-trial","38","317530","0.0-8.0-2.0-1.6","4306","1","21","Female","approach_avoid_spark_v1","""event"",""trial"",""time""
""fullscreenenter"",""1"",""1837""
","
","
","""event"",""trial"",""time""
""fullscreenenter"",""1"",""1837""
","
","","","","","","1143.5999999940395","images/ball4.png","","","learning","1","0","0","0","practice","practice","practice","-1","","",""
"html-keyboard-response","39","318041","0.0-8.0-2.0-0.7","4306","1","21","Female","approach_avoid_spark_v1","""event"",""trial"",""time""
""fullscreenenter"",""1"",""1837""
","
","
","""event"",""trial"",""time""
""fullscreenenter"",""1"",""1837""
","
","","","","","","null","<div style=""font-size:60px;"">+</div>","null","","fixation","","","","","","","","","","",""
"aa-learning-trial","40","321046","0.0-8.0-2.0-1.7","4306","1","21","Female","approach_avoid_spark_v1","""event"",""trial"",""time""
""fullscreenenter"",""1"",""1837""
","
","
","""event"",""trial"",""time""
""fullscreenenter"",""1"",""1837""
","
","","","","","","688.6999999880791","images/racket4.png","","","learning","-1","-1","1","1","practice","practice","practice","-1","","",""
"html-keyboard-response","41","321549","0.0-8.0-2.0-0.8","4306","1","21","Female","approach_avoid_spark_v1","""event"",""trial"",""time""
""fullscreenenter"",""1"",""1837""
","
","
","""event"",""trial"",""time""
""fullscreenenter"",""1"",""1837""
","
","","","","","","null","<div style=""font-size:60px;"">+</div>","null","","fixation","","","","","","","","","","",""
"aa-learning-trial","42","324558","0.0-8.0-2.0-1.8","4306","1","21","Female","approach_avoid_spark_v1","""event"",""trial"",""time""
""fullscreenenter"",""1"",""1837""
","
","
","""event"",""trial"",""time""
""fullscreenenter"",""1"",""1837""
","
","","","","","","1216.7999999821186","images/racket2.png","","","learning","9","9","1","1","practice","practice","practice","-1","","",""
"html-keyboard-response","43","325062","0.0-8.0-2.0-0.9","4306","1","21","Female","approach_avoid_spark_v1","""event"",""trial"",""time""
""fullscreenenter"",""1"",""1837""
","
","
","""event"",""trial"",""time""
""fullscreenenter"",""1"",""1837""
","
","","","","","","null","<div style=""font-size:60px;"">+</div>","null","","fixation","","","","","","","","","","",""
"aa-learning-trial","44","328070","0.0-8.0-2.0-1.9","4306","1","21","Female","approach_avoid_spark_v1","""event"",""trial"",""time""
""fullscreenenter"",""1"",""1837""
","
","
","""event"",""trial"",""time""
""fullscreenenter"",""1"",""1837""
","
","","","","","","1568.2000000178814","images/ball4.png","","","learning","-8","0","0","0","practice","practice","practice","-1","","",""
"html-keyboard-response","45","328574","0.0-8.0-2.0-0.10","4306","1","21","Female","approach_avoid_spark_v1","""event"",""trial"",""time""
""fullscreenenter"",""1"",""1837""
","
","
","""event"",""trial"",""time""
""fullscreenenter"",""1"",""1837""
","
","","","","","","null","<div style=""font-size:60px;"">+</div>","null","","fixation","","","","","","","","","","",""
"aa-learning-trial","46","331582","0.0-8.0-2.0-1.10","4306","1","21","Female","approach_avoid_spark_v1","""event"",""trial"",""time""
""fullscreenenter"",""1"",""1837""
","
","
","""event"",""trial"",""time""
""fullscreenenter"",""1"",""1837""
","
","","","","","","682.7000000178814","images/ball3.png","","","learning","-9","-9","1","1","practice","practice","practice","-1","","",""
"html-keyboard-response","47","332086","0.0-8.0-2.0-0.11","4306","1","21","Female","approach_avoid_spark_v1","""event"",""trial"",""time""
""fullscreenenter"",""1"",""1837""
","
","
","""event"",""trial"",""time""
""fullscreenenter"",""1"",""1837""
","
","","","","","","null","<div style=""font-size:60px;"">+</div>","null","","fixation","","","","","","","","","","",""
"aa-learning-trial","48","335094","0.0-8.0-2.0-1.11","4306","1","21","Female","approach_avoid_spark_v1","""event"",""trial"",""time""
""fullscreenenter"",""1"",""1837""
","
","
","""event"",""trial"",""time""
""fullscreenenter"",""1"",""1837""
","
","","","","","","732.8000000119209","images/racket2.png","","","learning","-8","-8","1","1","practice","practice","practice","-1","","",""
"html-button-response","49","336664","0.0-8.0-3.0","4306","1","21","Female","approach_avoid_spark_v1","""event"",""trial"",""time""
""fullscreenenter"",""1"",""1837""
","
","
","""event"",""trial"",""time""
""fullscreenenter"",""1"",""1837""
","
","","","","","","1565.2999999821186","<p> You earned -18 points in the practice round! </p>","0","","break","","","","","","","","","","",""
"learning-instructions","50","343985","0.0-8.0-4.0-0.0","4306","1","21","Female","approach_avoid_spark_v1","""event"",""trial"",""time""
""fullscreenenter"",""1"",""1837""
","
","
","""event"",""trial"",""time""
""fullscreenenter"",""1"",""1837""
","
","","","","","","1299.4000000059605","<p> It's almost time to start the real game. </p><p> Before you start, we're going to ask you a few questions about how the game works. </p>","","0","instructions","","","","","","","","","","",""
"preload","51","350348","0.0-8.0-5.0","4306","1","21","Female","approach_avoid_spark_v1","""event"",""trial"",""time""
""fullscreenenter"",""1"",""1837""
","
","
","""event"",""trial"",""time""
""fullscreenenter"",""1"",""1837""
","
","true","false","[]","[]","[]","","","","","","","","","","","","","","","",""
"comp-q","52","356739","0.0-8.0-6.0-0.0","4306","1","21","Female","approach_avoid_spark_v1","""event"",""trial"",""time""
""fullscreenenter"",""1"",""1837""
","
","
","""event"",""trial"",""time""
""fullscreenenter"",""1"",""1837""
","
","","","","","","1391.5999999940395","<p> <b> True or False? </b> </p><p> If you see a number in GREY, that means you earned that many points. </p>","","1","comp_question","","","","","","","","","true","",""
"comp-q","53","366693","0.0-8.0-6.0-1.0","4306","1","21","Female","approach_avoid_spark_v1","""event"",""trial"",""time""
""fullscreenenter"",""1"",""1837""
","
","
","""event"",""trial"",""time""
""fullscreenenter"",""1"",""1837""
","
","","","","","","1592.4000000059605","<p><b> That's right! </b> If you see a grey number, it means you earned ZERO points. <br> The grey numbers show the points you WOULD HAVE earned if you had made the other choice. </p>","","0","comp_answer","","","","","","","","","","",""
"comp-q","54","372989","0.0-8.0-7.0-0.0","4306","1","21","Female","approach_avoid_spark_v1","""event"",""trial"",""time""
""fullscreenenter"",""1"",""1837""
","
","
","""event"",""trial"",""time""
""fullscreenenter"",""1"",""1837""
","
","","","","","","1599.5999999940395","<p> <b> True or False? </b> </p><p> You will have as much time as you want to make each choice. </p>","","1","comp_question","","","","","","","","","true","",""
"comp-q","55","378607","0.0-8.0-7.0-1.0","4306","1","21","Female","approach_avoid_spark_v1","""event"",""trial"",""time""
""fullscreenenter"",""1"",""1837""
","
","
","""event"",""trial"",""time""
""fullscreenenter"",""1"",""1837""
","
","","","","","","1580.5999999940395","<p> <b> That's right! </b> You will only have 3 seconds to make each choice. </p>","","0","comp_answer","","","","","","","","","","",""
"comp-q","56","384087","0.0-8.0-8.0-0.0","4306","1","21","Female","approach_avoid_spark_v1","""event"",""trial"",""time""
""fullscreenenter"",""1"",""1837""
","
","
","""event"",""trial"",""time""
""fullscreenenter"",""1"",""1837""
","
","","","","","","820","<p> <b> True or False? </b> </p><p> You should use the '1' and '0' keys to make your choices. </p>","","0","comp_question","","","","","","","","","true","",""
"comp-q","57","389854","0.0-8.0-8.0-1.0","4306","1","21","Female","approach_avoid_spark_v1","""event"",""trial"",""time""
""fullscreenenter"",""1"",""1837""
","
","
","""event"",""trial"",""time""
""fullscreenenter"",""1"",""1837""
","
","","","","","","1152.3999999761581","<p> <b> That's right! </b> You should use the '1' and '0' keys to make each choice. </p>","","0","comp_answer","","","","","","","","","","",""
"learning-instructions","58","397725","0.0-8.0-9.0-0.0","4306","1","21","Female","approach_avoid_spark_v1","""event"",""trial"",""time""
""fullscreenenter"",""1"",""1837""
","
","
","""event"",""trial"",""time""
""fullscreenenter"",""1"",""1837""
","
","","","","","","1599.300000011921","<p> It's now time to start the real game. </p>Do your best, because the points you earn in the next rounds will influence your bonus payment. </p>","","0","instructions","","","","","","","","","","",""
"preload","59","397850","0.0-9.0-0.0","4306","1","21","Female","approach_avoid_spark_v1","""event"",""trial"",""time""
""fullscreenenter"",""1"",""1837""
","
","
","""event"",""trial"",""time""
""fullscreenenter"",""1"",""1837""
","
","true","false","[]","[]","[]","","","","","","","","","","","","","","","",""
"learning-instructions","60","401640","0.0-9.0-1.0-0.0","4306","1","21","Female","approach_avoid_spark_v1","""event"",""trial"",""time""
""fullscreenenter"",""1"",""1837""
","
","
","""event"",""trial"",""time""
""fullscreenenter"",""1"",""1837""
","
","","","","","","660.6999999880791","<p> Your goal in this round is to eat tasty fruit. </p></div>","","0","instructions","","","","","","","","","","",""
"learning-instructions","61","413623","0.0-9.0-1.0-0.1","4306","1","21","Female","approach_avoid_spark_v1","""event"",""trial"",""time""
""fullscreenenter"",""1"",""1837""
","
","
","""event"",""trial"",""time""
""fullscreenenter"",""1"",""1837""
","
","","","","","","2392.7999999821186","<p> Some of the fruits you will see are tasty. Others are rotten on the inside.  </p><p> On each turn, you will see a fruit.   </p><p> You need to decide whether to eat it or not.  </p>","","0","instructions","","","","","","","","","","",""
"learning-instructions","62","419192","0.0-9.0-1.0-0.2","4306","1","21","Female","approach_avoid_spark_v1","""event"",""trial"",""time""
""fullscreenenter"",""1"",""1837""
","
","
","""event"",""trial"",""time""
""fullscreenenter"",""1"",""1837""
","
","","","","","","825.7000000178814","<p> You can eat the fruit by pressing 1 and choose not to eat it by pressing 0. </p><br><div class=""choice-instructions-grid""> <div class=""choice-option""><img src=""images/approach.png"" class=""choice-option-img"" stage=""instructions"" position=""0"" ><div class=""choice-option-text""> Press ""1."" </div></div><div class=""choice-option""><img src=""images/avoid.png"" class=""choice-option-img"" stage=""instructions"" position=""1"" ><div class=""choice-option-text""> Press ""0."" </div></div>","","0","instructions","","","","","","","","","","",""
"learning-instructions","63","427071","0.0-9.0-1.0-0.3","4306","1","21","Female","approach_avoid_spark_v1","""event"",""trial"",""time""
""fullscreenenter"",""1"",""1837""
","
","
","""event"",""trial"",""time""
""fullscreenenter"",""1"",""1837""
","
","","","","","","684","<p> If you eat the fruit and it was tasty, you will win points! </p><p> But if you eat the fruit and it was rotten, you will lose points. </p>","","0","instructions","","","","","","","","","","",""
"learning-instructions","64","439075","0.0-9.0-1.0-0.4","4306","1","21","Female","approach_avoid_spark_v1","""event"",""trial"",""time""
""fullscreenenter"",""1"",""1837""
","
","
","""event"",""trial"",""time""
""fullscreenenter"",""1"",""1837""
","
","","","","","","842.4000000059605","<p> You will earn points based on how tasty or rotten the fruit was. </p><p> If it was tasty, you will WIN anywhere from 1 - 9 points, </p><p> but if it was rotten, you will LOSE anywhere from 1 - 9 points. </p>","","0","instructions","","","","","","","","","","",""
"learning-instructions","65","447130","0.0-9.0-1.0-0.5","4306","1","21","Female","approach_avoid_spark_v1","""event"",""trial"",""time""
""fullscreenenter"",""1"",""1837""
","
","
","""event"",""trial"",""time""
""fullscreenenter"",""1"",""1837""
","
","","","","","","646.5","<p> You will see how many points you won or lost in the center of the screen. </p><p> Here is what you would see if you earned 5 points: </p><p style=""color:green;font-size:50px;font-weight:bolder"">5</p>","","0","instructions","","","","","","","","","","",""
"learning-instructions","66","451676","0.0-9.0-1.0-0.6","4306","1","21","Female","approach_avoid_spark_v1","""event"",""trial"",""time""
""fullscreenenter"",""1"",""1837""
","
","
","""event"",""trial"",""time""
""fullscreenenter"",""1"",""1837""
","
","","","","","","526.1000000238419","<p> And here is what you would see if you lost 3 points: </p><p style=""color:red;font-size:50px;font-weight:bolder"">-3</p>","","0","instructions","","","","","","","","","","",""
"learning-instructions","67","466440","0.0-9.0-1.0-0.7","4306","1","21","Female","approach_avoid_spark_v1","""event"",""trial"",""time""
""fullscreenenter"",""1"",""1837""
","
","
","""event"",""trial"",""time""
""fullscreenenter"",""1"",""1837""
","
","","","","","","1284.2999999821186","<p> Some fruit is very tasty or very rotten. </p><p> These fruits will make you win or lose LOTS of points. </p><p> Other fruits are only kind of tasty or kind of rotten. </p><p> These fruits will make you win or lose small amounts of points. </p>","","0","instructions","","","","","","","","","","",""
"learning-instructions","68","480175","0.0-9.0-1.0-0.8","4306","1","21","Female","approach_avoid_spark_v1","""event"",""trial"",""time""
""fullscreenenter"",""1"",""1837""
","
","
","""event"",""trial"",""time""
""fullscreenenter"",""1"",""1837""
","
","","","","","","1669.5999999940395","<p> If you choose to not eat the fruit, you will not win or lose any points. </p><p>  However, in the center of the screen, you will see the number of points you WOULD HAVE earned if you had eaten the fruit. </p>","","0","instructions","","","","","","","","","","",""
"learning-instructions","69","494145","0.0-9.0-1.0-0.9","4306","1","21","Female","approach_avoid_spark_v1","""event"",""trial"",""time""
""fullscreenenter"",""1"",""1837""
","
","
","""event"",""trial"",""time""
""fullscreenenter"",""1"",""1837""
","
","","","","","","1314.300000011921","<p> Here is what you might see if you did not eat the fruit but the fruit was tasty: </p><p style=""color:grey; font-size:50px; display: inline-block; border-spacing: 15px; border-width:3px; border-style:solid; border-color:red"">  &nbsp; 6 &nbsp; </p><p> Remember, in this case, you would not win or lose ANY points because you did not eat the fruit.  </p>","","0","instructions","","","","","","","","","","",""
"learning-instructions","70","504232","0.0-9.0-1.0-0.10","4306","1","21","Female","approach_avoid_spark_v1","""event"",""trial"",""time""
""fullscreenenter"",""1"",""1837""
","
","
","""event"",""trial"",""time""
""fullscreenenter"",""1"",""1837""
","
","","","","","","1097.3999999761581","<p> Try to make the best choice for each fruit because </p><p> at the end of the game, you will earn bonus money based on how many points you earned. </p>","","0","instructions","","","","","","","","","","",""
"learning-instructions","71","513307","0.0-9.0-1.0-0.11","4306","1","21","Female","approach_avoid_spark_v1","""event"",""trial"",""time""
""fullscreenenter"",""1"",""1837""
","
","
","""event"",""trial"",""time""
""fullscreenenter"",""1"",""1837""
","
","","","","","","876.5","<p> You will have 3 seconds to make each choice. Try to respond before time runs out! </p><p> You will lose 5 points each time you do not make a response. </p>","","0","instructions","","","","","","","","","","",""
"html-keyboard-response","72","513928","0.0-9.0-2.0-0.0","4306","1","21","Female","approach_avoid_spark_v1","""event"",""trial"",""time""
""fullscreenenter"",""1"",""1837""
","
","
","""event"",""trial"",""time""
""fullscreenenter"",""1"",""1837""
","
","","","","","","null","<div style=""font-size:60px;"">+</div>","null","","fixation","","","","","","","","","","",""
"aa-learning-trial","73","516942","0.0-9.0-2.0-1.0","4306","1","21","Female","approach_avoid_spark_v1","""event"",""trial"",""time""
""fullscreenenter"",""1"",""1837""
","
","
","""event"",""trial"",""time""
""fullscreenenter"",""1"",""1837""
","
","","","","","","1537.7999999821186","images/banana3.png","","","learning","-2","-2","1","1","banana","fruit","1","0","","neutral","0"
"html-keyboard-response","74","517456","0.0-9.0-2.0-0.1","4306","1","21","Female","approach_avoid_spark_v1","""event"",""trial"",""time""
""fullscreenenter"",""1"",""1837""
","
","
","""event"",""trial"",""time""
""fullscreenenter"",""1"",""1837""
","
","","","","","","null","<div style=""font-size:60px;"">+</div>","null","","fixation","","","","","","","","","","",""
"aa-learning-trial","75","520468","0.0-9.0-2.0-1.1","4306","1","21","Female","approach_avoid_spark_v1","""event"",""trial"",""time""
""fullscreenenter"",""1"",""1837""
","
","
","""event"",""trial"",""time""
""fullscreenenter"",""1"",""1837""
","
","","","","","","1175.6000000238419","images/straw5.png","","","learning","-7","-7","1","1","straw","fruit","1","0","","bad","[-6]"
"html-keyboard-response","76","520974","0.0-9.0-2.0-0.2","4306","1","21","Female","approach_avoid_spark_v1","""event"",""trial"",""time""
""fullscreenenter"",""1"",""1837""
","
","
","""event"",""trial"",""time""
""fullscreenenter"",""1"",""1837""
","
","","","","","","null","<div style=""font-size:60px;"">+</div>","null","","fixation","","","","","","","","","","",""
"aa-learning-trial","77","523982","0.0-9.0-2.0-1.2","4306","1","21","Female","approach_avoid_spark_v1","""event"",""trial"",""time""
""fullscreenenter"",""1"",""1837""
","
","
","""event"",""trial"",""time""
""fullscreenenter"",""1"",""1837""
","
","","","","","","910.0999999940395","images/orange7.png","","","learning","5","5","1","1","orange","fruit","1","0","","good","[4]"
"html-keyboard-response","78","524492","0.0-9.0-2.0-0.3","4306","1","21","Female","approach_avoid_spark_v1","""event"",""trial"",""time""
""fullscreenenter"",""1"",""1837""
","
","
","""event"",""trial"",""time""
""fullscreenenter"",""1"",""1837""
","
","","","","","","null","<div style=""font-size:60px;"">+</div>","null","","fixation","","","","","","","","","","",""
"aa-learning-trial","79","527502","0.0-9.0-2.0-1.3","4306","1","21","Female","approach_avoid_spark_v1","""event"",""trial"",""time""
""fullscreenenter"",""1"",""1837""
","
","
","""event"",""trial"",""time""
""fullscreenenter"",""1"",""1837""
","
","","","","","","2289","images/straw8.png","","","learning","-8","0","0","0","straw","fruit","1","0","","bad","[-6]"
"html-keyboard-response","80","528016","0.0-9.0-2.0-0.4","4306","1","21","Female","approach_avoid_spark_v1","""event"",""trial"",""time""
""fullscreenenter"",""1"",""1837""
","
","
","""event"",""trial"",""time""
""fullscreenenter"",""1"",""1837""
","
","","","","","","null","<div style=""font-size:60px;"">+</div>","null","","fixation","","","","","","","","","","",""
"aa-learning-trial","81","531022","0.0-9.0-2.0-1.4","4306","1","21","Female","approach_avoid_spark_v1","""event"",""trial"",""time""
""fullscreenenter"",""1"",""1837""
","
","
","""event"",""trial"",""time""
""fullscreenenter"",""1"",""1837""
","
","","","","","","1222.300000011921","images/straw2.png","","","learning","-6","0","0","0","straw","fruit","1","0","","bad","[-6]"
"html-keyboard-response","82","531536","0.0-9.0-2.0-0.5","4306","1","21","Female","approach_avoid_spark_v1","""event"",""trial"",""time""
""fullscreenenter"",""1"",""1837""
","
","
","""event"",""trial"",""time""
""fullscreenenter"",""1"",""1837""
","
","","","","","","null","<div style=""font-size:60px;"">+</div>","null","","fixation","","","","","","","","","","",""
"aa-learning-trial","83","534542","0.0-9.0-2.0-1.5","4306","1","21","Female","approach_avoid_spark_v1","""event"",""trial"",""time""
""fullscreenenter"",""1"",""1837""
","
","
","""event"",""trial"",""time""
""fullscreenenter"",""1"",""1837""
","
","","","","","","622","images/straw2.png","","","learning","-6","0","0","0","straw","fruit","1","0","","bad","[-6]"
"html-keyboard-response","84","535054","0.0-9.0-2.0-0.6","4306","1","21","Female","approach_avoid_spark_v1","""event"",""trial"",""time""
""fullscreenenter"",""1"",""1837""
","
","
","""event"",""trial"",""time""
""fullscreenenter"",""1"",""1837""
","
","","","","","","null","<div style=""font-size:60px;"">+</div>","null","","fixation","","","","","","","","","","",""
"aa-learning-trial","85","538064","0.0-9.0-2.0-1.6","4306","1","21","Female","approach_avoid_spark_v1","""event"",""trial"",""time""
""fullscreenenter"",""1"",""1837""
","
","
","""event"",""trial"",""time""
""fullscreenenter"",""1"",""1837""
","
","","","","","","766.4000000059605","images/banana1.png","","","learning","-2","0","0","0","banana","fruit","1","0","","neutral","0"
"html-keyboard-response","86","538574","0.0-9.0-2.0-0.7","4306","1","21","Female","approach_avoid_spark_v1","""event"",""trial"",""time""
""fullscreenenter"",""1"",""1837""
","
","
","""event"",""trial"",""time""
""fullscreenenter"",""1"",""1837""
","
","","","","","","null","<div style=""font-size:60px;"">+</div>","null","","fixation","","","","","","","","","","",""
"aa-learning-trial","87","541581","0.0-9.0-2.0-1.7","4306","1","21","Female","approach_avoid_spark_v1","""event"",""trial"",""time""
""fullscreenenter"",""1"",""1837""
","
","
","""event"",""trial"",""time""
""fullscreenenter"",""1"",""1837""
","
","","","","","","458","images/orange3.png","","","learning","3","3","1","1","orange","fruit","1","0","","good","[4]"
"html-keyboard-response","88","542084","0.0-9.0-2.0-0.8","4306","1","21","Female","approach_avoid_spark_v1","""event"",""trial"",""time""
""fullscreenenter"",""1"",""1837""
","
","
","""event"",""trial"",""time""
""fullscreenenter"",""1"",""1837""
","
","","","","","","null","<div style=""font-size:60px;"">+</div>","null","","fixation","","","","","","","","","","",""
"aa-learning-trial","89","545093","0.0-9.0-2.0-1.8","4306","1","21","Female","approach_avoid_spark_v1","""event"",""trial"",""time""
""fullscreenenter"",""1"",""1837""
","
","
","""event"",""trial"",""time""
""fullscreenenter"",""1"",""1837""
","
","","","","","","992.8000000119209","images/banana6.png","","","learning","1","0","0","0","banana","fruit","1","0","","neutral","0"
"html-keyboard-response","90","545596","0.0-9.0-2.0-0.9","4306","1","21","Female","approach_avoid_spark_v1","""event"",""trial"",""time""
""fullscreenenter"",""1"",""1837""
","
","
","""event"",""trial"",""time""
""fullscreenenter"",""1"",""1837""
","
","","","","","","null","<div style=""font-size:60px;"">+</div>","null","","fixation","","","","","","","","","","",""
"aa-learning-trial","91","548605","0.0-9.0-2.0-1.9","4306","1","21","Female","approach_avoid_spark_v1","""event"",""trial"",""time""
""fullscreenenter"",""1"",""1837""
","
","
","""event"",""trial"",""time""
""fullscreenenter"",""1"",""1837""
","
","","","","","","810.7000000178814","images/straw8.png","","","learning","-4","0","0","0","straw","fruit","1","0","","bad","[-6]"
"html-keyboard-response","92","549109","0.0-9.0-2.0-0.10","4306","1","21","Female","approach_avoid_spark_v1","""event"",""trial"",""time""
""fullscreenenter"",""1"",""1837""
","
","
","""event"",""trial"",""time""
""fullscreenenter"",""1"",""1837""
","
","","","","","","null","<div style=""font-size:60px;"">+</div>","null","","fixation","","","","","","","","","","",""
"aa-learning-trial","93","552116","0.0-9.0-2.0-1.10","4306","1","21","Female","approach_avoid_spark_v1","""event"",""trial"",""time""
""fullscreenenter"",""1"",""1837""
","
","
","""event"",""trial"",""time""
""fullscreenenter"",""1"",""1837""
","
","","","","","","549.7000000178814","images/orange7.png","","","learning","5","5","1","1","orange","fruit","1","0","","good","[4]"
"html-keyboard-response","94","552621","0.0-9.0-2.0-0.11","4306","1","21","Female","approach_avoid_spark_v1","""event"",""trial"",""time""
""fullscreenenter"",""1"",""1837""
","
","
","""event"",""trial"",""time""
""fullscreenenter"",""1"",""1837""
","
","","","","","","null","<div style=""font-size:60px;"">+</div>","null","","fixation","","","","","","","","","","",""
"aa-learning-trial","95","555629","0.0-9.0-2.0-1.11","4306","1","21","Female","approach_avoid_spark_v1","""event"",""trial"",""time""
""fullscreenenter"",""1"",""1837""
","
","
","""event"",""trial"",""time""
""fullscreenenter"",""1"",""1837""
","
","","","","","","529.2000000178814","images/orange5.png","","","learning","6","6","1","1","orange","fruit","1","0","","good","[4]"
"html-keyboard-response","96","556133","0.0-9.0-2.0-0.12","4306","1","21","Female","approach_avoid_spark_v1","""event"",""trial"",""time""
""fullscreenenter"",""1"",""1837""
","
","
","""event"",""trial"",""time""
""fullscreenenter"",""1"",""1837""
","
","","","","","","null","<div style=""font-size:60px;"">+</div>","null","","fixation","","","","","","","","","","",""
"aa-learning-trial","97","559141","0.0-9.0-2.0-1.12","4306","1","21","Female","approach_avoid_spark_v1","""event"",""trial"",""time""
""fullscreenenter"",""1"",""1837""
","
","
","""event"",""trial"",""time""
""fullscreenenter"",""1"",""1837""
","
","","","","","","642","images/banana3.png","","","learning","[1]","0","0","0","banana","fruit","1","0","","neutral","0"
"html-keyboard-response","98","559645","0.0-9.0-2.0-0.13","4306","1","21","Female","approach_avoid_spark_v1","""event"",""trial"",""time""
""fullscreenenter"",""1"",""1837""
","
","
","""event"",""trial"",""time""
""fullscreenenter"",""1"",""1837""
","
","","","","","","null","<div style=""font-size:60px;"">+</div>","null","","fixation","","","","","","","","","","",""
"aa-learning-trial","99","562653","0.0-9.0-2.0-1.13","4306","1","21","Female","approach_avoid_spark_v1","""event"",""trial"",""time""
""fullscreenenter"",""1"",""1837""
","
","
","""event"",""trial"",""time""
""fullscreenenter"",""1"",""1837""
","
","","","","","","846.0999999940395","images/banana1.png","","","learning","2","0","0","0","banana","fruit","1","0","","neutral","0"
"html-keyboard-response","100","563157","0.0-9.0-2.0-0.14","4306","1","21","Female","approach_avoid_spark_v1","""event"",""trial"",""time""
""fullscreenenter"",""1"",""1837""
","
","
","""event"",""trial"",""time""
""fullscreenenter"",""1"",""1837""
","
","","","","","","null","<div style=""font-size:60px;"">+</div>","null","","fixation","","","","","","","","","","",""
"aa-learning-trial","101","566165","0.0-9.0-2.0-1.14","4306","1","21","Female","approach_avoid_spark_v1","""event"",""trial"",""time""
""fullscreenenter"",""1"",""1837""
","
","
","""event"",""trial"",""time""
""fullscreenenter"",""1"",""1837""
","
","","","","","","473.10000002384186","images/orange3.png","","","learning","3","3","1","1","orange","fruit","1","0","","good","[4]"
"html-keyboard-response","102","566669","0.0-9.0-2.0-0.15","4306","1","21","Female","approach_avoid_spark_v1","""event"",""trial"",""time""
""fullscreenenter"",""1"",""1837""
","
","
","""event"",""trial"",""time""
""fullscreenenter"",""1"",""1837""
","
","","","","","","null","<div style=""font-size:60px;"">+</div>","null","","fixation","","","","","","","","","","",""
"aa-learning-trial","103","569677","0.0-9.0-2.0-1.15","4306","1","21","Female","approach_avoid_spark_v1","""event"",""trial"",""time""
""fullscreenenter"",""1"",""1837""
","
","
","""event"",""trial"",""time""
""fullscreenenter"",""1"",""1837""
","
","","","","","","573.5","images/banana1.png","","","learning","2","2","1","1","banana","fruit","1","0","","neutral","0"
"html-keyboard-response","104","570181","0.0-9.0-2.0-0.16","4306","1","21","Female","approach_avoid_spark_v1","""event"",""trial"",""time""
""fullscreenenter"",""1"",""1837""
","
","
","""event"",""trial"",""time""
""fullscreenenter"",""1"",""1837""
","
","","","","","","null","<div style=""font-size:60px;"">+</div>","null","","fixation","","","","","","","","","","",""
"aa-learning-trial","105","573188","0.0-9.0-2.0-1.16","4306","1","21","Female","approach_avoid_spark_v1","""event"",""trial"",""time""
""fullscreenenter"",""1"",""1837""
","
","
","""event"",""trial"",""time""
""fullscreenenter"",""1"",""1837""
","
","","","","","","1213","images/straw6.png","","","learning","-6","0","0","0","straw","fruit","1","0","","bad","[-6]"
"html-keyboard-response","106","573693","0.0-9.0-2.0-0.17","4306","1","21","Female","approach_avoid_spark_v1","""event"",""trial"",""time""
""fullscreenenter"",""1"",""1837""
","
","
","""event"",""trial"",""time""
""fullscreenenter"",""1"",""1837""
","
","","","","","","null","<div style=""font-size:60px;"">+</div>","null","","fixation","","","","","","","","","","",""
"aa-learning-trial","107","576702","0.0-9.0-2.0-1.17","4306","1","21","Female","approach_avoid_spark_v1","""event"",""trial"",""time""
""fullscreenenter"",""1"",""1837""
","
","
","""event"",""trial"",""time""
""fullscreenenter"",""1"",""1837""
","
","","","","","","1486.300000011921","images/banana3.png","","","learning","1","0","0","0","banana","fruit","1","0","","neutral","0"
"html-keyboard-response","108","577205","0.0-9.0-2.0-0.18","4306","1","21","Female","approach_avoid_spark_v1","""event"",""trial"",""time""
""fullscreenenter"",""1"",""1837""
","
","
","""event"",""trial"",""time""
""fullscreenenter"",""1"",""1837""
","
","","","","","","null","<div style=""font-size:60px;"">+</div>","null","","fixation","","","","","","","","","","",""
"aa-learning-trial","109","580214","0.0-9.0-2.0-1.18","4306","1","21","Female","approach_avoid_spark_v1","""event"",""trial"",""time""
""fullscreenenter"",""1"",""1837""
","
","
","""event"",""trial"",""time""
""fullscreenenter"",""1"",""1837""
","
","","","","","","813.3000000119209","images/straw8.png","","","learning","-7","0","0","0","straw","fruit","1","0","","bad","[-6]"
"html-keyboard-response","110","580718","0.0-9.0-2.0-0.19","4306","1","21","Female","approach_avoid_spark_v1","""event"",""trial"",""time""
""fullscreenenter"",""1"",""1837""
","
","
","""event"",""trial"",""time""
""fullscreenenter"",""1"",""1837""
","
","","","","","","null","<div style=""font-size:60px;"">+</div>","null","","fixation","","","","","","","","","","",""
"aa-learning-trial","111","583726","0.0-9.0-2.0-1.19","4306","1","21","Female","approach_avoid_spark_v1","""event"",""trial"",""time""
""fullscreenenter"",""1"",""1837""
","
","
","""event"",""trial"",""time""
""fullscreenenter"",""1"",""1837""
","
","","","","","","718.2000000178814","images/banana2.png","","","learning","[-1]","0","0","0","banana","fruit","1","0","","neutral","0"
"html-keyboard-response","112","584230","0.0-9.0-2.0-0.20","4306","1","21","Female","approach_avoid_spark_v1","""event"",""trial"",""time""
""fullscreenenter"",""1"",""1837""
","
","
","""event"",""trial"",""time""
""fullscreenenter"",""1"",""1837""
","
","","","","","","null","<div style=""font-size:60px;"">+</div>","null","","fixation","","","","","","","","","","",""
"aa-learning-trial","113","587238","0.0-9.0-2.0-1.20","4306","1","21","Female","approach_avoid_spark_v1","""event"",""trial"",""time""
""fullscreenenter"",""1"",""1837""
","
","
","""event"",""trial"",""time""
""fullscreenenter"",""1"",""1837""
","
","","","","","","551.5","images/straw5.png","","","learning","-5","0","0","0","straw","fruit","1","0","","bad","[-6]"
"html-keyboard-response","114","587742","0.0-9.0-2.0-0.21","4306","1","21","Female","approach_avoid_spark_v1","""event"",""trial"",""time""
""fullscreenenter"",""1"",""1837""
","
","
","""event"",""trial"",""time""
""fullscreenenter"",""1"",""1837""
","
","","","","","","null","<div style=""font-size:60px;"">+</div>","null","","fixation","","","","","","","","","","",""
"aa-learning-trial","115","590750","0.0-9.0-2.0-1.21","4306","1","21","Female","approach_avoid_spark_v1","""event"",""trial"",""time""
""fullscreenenter"",""1"",""1837""
","
","
","""event"",""trial"",""time""
""fullscreenenter"",""1"",""1837""
","
","","","","","","1118.5","images/straw8.png","","","learning","-7","0","0","0","straw","fruit","1","0","","bad","[-6]"
"html-keyboard-response","116","591254","0.0-9.0-2.0-0.22","4306","1","21","Female","approach_avoid_spark_v1","""event"",""trial"",""time""
""fullscreenenter"",""1"",""1837""
","
","
","""event"",""trial"",""time""
""fullscreenenter"",""1"",""1837""
","
","","","","","","null","<div style=""font-size:60px;"">+</div>","null","","fixation","","","","","","","","","","",""
"aa-learning-trial","117","594262","0.0-9.0-2.0-1.22","4306","1","21","Female","approach_avoid_spark_v1","""event"",""trial"",""time""
""fullscreenenter"",""1"",""1837""
","
","
","""event"",""trial"",""time""
""fullscreenenter"",""1"",""1837""
","
","","","","","","547.6999999880791","images/straw2.png","","","learning","-7","0","0","0","straw","fruit","1","0","","bad","[-6]"
"html-keyboard-response","118","594765","0.0-9.0-2.0-0.23","4306","1","21","Female","approach_avoid_spark_v1","""event"",""trial"",""time""
""fullscreenenter"",""1"",""1837""
","
","
","""event"",""trial"",""time""
""fullscreenenter"",""1"",""1837""
","
","","","","","","null","<div style=""font-size:60px;"">+</div>","null","","fixation","","","","","","","","","","",""
"aa-learning-trial","119","597774","0.0-9.0-2.0-1.23","4306","1","21","Female","approach_avoid_spark_v1","""event"",""trial"",""time""
""fullscreenenter"",""1"",""1837""
","
","
","""event"",""trial"",""time""
""fullscreenenter"",""1"",""1837""
","
","","","","","","550.5999999940395","images/straw2.png","","","learning","-5","0","0","0","straw","fruit","1","0","","bad","[-6]"
"html-keyboard-response","120","598278","0.0-9.0-2.0-0.24","4306","1","21","Female","approach_avoid_spark_v1","""event"",""trial"",""time""
""fullscreenenter"",""1"",""1837""
","
","
","""event"",""trial"",""time""
""fullscreenenter"",""1"",""1837""
","
","","","","","","null","<div style=""font-size:60px;"">+</div>","null","","fixation","","","","","","","","","","",""
"aa-learning-trial","121","601286","0.0-9.0-2.0-1.24","4306","1","21","Female","approach_avoid_spark_v1","""event"",""trial"",""time""
""fullscreenenter"",""1"",""1837""
","
","
","""event"",""trial"",""time""
""fullscreenenter"",""1"",""1837""
","
","","","","","","550","images/orange3.png","","","learning","4","4","1","1","orange","fruit","1","0","","good","[4]"
"html-keyboard-response","122","601790","0.0-9.0-2.0-0.25","4306","1","21","Female","approach_avoid_spark_v1","""event"",""trial"",""time""
""fullscreenenter"",""1"",""1837""
","
","
","""event"",""trial"",""time""
""fullscreenenter"",""1"",""1837""
","
","","","","","","null","<div style=""font-size:60px;"">+</div>","null","","fixation","","","","","","","","","","",""
"aa-learning-trial","123","604798","0.0-9.0-2.0-1.25","4306","1","21","Female","approach_avoid_spark_v1","""event"",""trial"",""time""
""fullscreenenter"",""1"",""1837""
","
","
","""event"",""trial"",""time""
""fullscreenenter"",""1"",""1837""
","
","","","","","","722.3000000119209","images/banana6.png","","","learning","2","2","1","1","banana","fruit","1","0","","neutral","0"
"html-keyboard-response","124","605302","0.0-9.0-2.0-0.26","4306","1","21","Female","approach_avoid_spark_v1","""event"",""trial"",""time""
""fullscreenenter"",""1"",""1837""
","
","
","""event"",""trial"",""time""
""fullscreenenter"",""1"",""1837""
","
","","","","","","null","<div style=""font-size:60px;"">+</div>","null","","fixation","","","","","","","","","","",""
"aa-learning-trial","125","608311","0.0-9.0-2.0-1.26","4306","1","21","Female","approach_avoid_spark_v1","""event"",""trial"",""time""
""fullscreenenter"",""1"",""1837""
","
","
","""event"",""trial"",""time""
""fullscreenenter"",""1"",""1837""
","
","","","","","","644.5999999940395","images/banana1.png","","","learning","[-1]","-1","1","1","banana","fruit","1","0","","neutral","0"
"html-keyboard-response","126","608814","0.0-9.0-2.0-0.27","4306","1","21","Female","approach_avoid_spark_v1","""event"",""trial"",""time""
""fullscreenenter"",""1"",""1837""
","
","
","""event"",""trial"",""time""
""fullscreenenter"",""1"",""1837""
","
","","","","","","null","<div style=""font-size:60px;"">+</div>","null","","fixation","","","","","","","","","","",""
"aa-learning-trial","127","611823","0.0-9.0-2.0-1.27","4306","1","21","Female","approach_avoid_spark_v1","""event"",""trial"",""time""
""fullscreenenter"",""1"",""1837""
","
","
","""event"",""trial"",""time""
""fullscreenenter"",""1"",""1837""
","
","","","","","","563.7000000178814","images/orange3.png","","","learning","4","4","1","1","orange","fruit","1","0","","good","[4]"
"html-keyboard-response","128","612327","0.0-9.0-2.0-0.28","4306","1","21","Female","approach_avoid_spark_v1","""event"",""trial"",""time""
""fullscreenenter"",""1"",""1837""
","
","
","""event"",""trial"",""time""
""fullscreenenter"",""1"",""1837""
","
","","","","","","null","<div style=""font-size:60px;"">+</div>","null","","fixation","","","","","","","","","","",""
"aa-learning-trial","129","615335","0.0-9.0-2.0-1.28","4306","1","21","Female","approach_avoid_spark_v1","""event"",""trial"",""time""
""fullscreenenter"",""1"",""1837""
","
","
","""event"",""trial"",""time""
""fullscreenenter"",""1"",""1837""
","
","","","","","","495.59999999403954","images/banana4.png","","","learning","2","2","1","1","banana","fruit","1","0","","neutral","0"
"html-keyboard-response","130","615839","0.0-9.0-2.0-0.29","4306","1","21","Female","approach_avoid_spark_v1","""event"",""trial"",""time""
""fullscreenenter"",""1"",""1837""
","
","
","""event"",""trial"",""time""
""fullscreenenter"",""1"",""1837""
","
","","","","","","null","<div style=""font-size:60px;"">+</div>","null","","fixation","","","","","","","","","","",""
"aa-learning-trial","131","618847","0.0-9.0-2.0-1.29","4306","1","21","Female","approach_avoid_spark_v1","""event"",""trial"",""time""
""fullscreenenter"",""1"",""1837""
","
","
","""event"",""trial"",""time""
""fullscreenenter"",""1"",""1837""
","
","","","","","","529.5","images/straw8.png","","","learning","-6","0","0","0","straw","fruit","1","0","","bad","[-6]"
"html-keyboard-response","132","619351","0.0-9.0-2.0-0.30","4306","1","21","Female","approach_avoid_spark_v1","""event"",""trial"",""time""
""fullscreenenter"",""1"",""1837""
","
","
","""event"",""trial"",""time""
""fullscreenenter"",""1"",""1837""
","
","","","","","","null","<div style=""font-size:60px;"">+</div>","null","","fixation","","","","","","","","","","",""
"aa-learning-trial","133","622359","0.0-9.0-2.0-1.30","4306","1","21","Female","approach_avoid_spark_v1","""event"",""trial"",""time""
""fullscreenenter"",""1"",""1837""
","
","
","""event"",""trial"",""time""
""fullscreenenter"",""1"",""1837""
","
","","","","","","578.5","images/straw2.png","","","learning","-4","0","0","0","straw","fruit","1","0","","bad","[-6]"
"html-keyboard-response","134","622863","0.0-9.0-2.0-0.31","4306","1","21","Female","approach_avoid_spark_v1","""event"",""trial"",""time""
""fullscreenenter"",""1"",""1837""
","
","
","""event"",""trial"",""time""
""fullscreenenter"",""1"",""1837""
","
","","","","","","null","<div style=""font-size:60px;"">+</div>","null","","fixation","","","","","","","","","","",""
"aa-learning-trial","135","625871","0.0-9.0-2.0-1.31","4306","1","21","Female","approach_avoid_spark_v1","""event"",""trial"",""time""
""fullscreenenter"",""1"",""1837""
","
","
","""event"",""trial"",""time""
""fullscreenenter"",""1"",""1837""
","
","","","","","","758","images/banana3.png","","","learning","1","0","0","0","banana","fruit","1","0","","neutral","0"
"html-keyboard-response","136","626375","0.0-9.0-2.0-0.32","4306","1","21","Female","approach_avoid_spark_v1","""event"",""trial"",""time""
""fullscreenenter"",""1"",""1837""
","
","
","""event"",""trial"",""time""
""fullscreenenter"",""1"",""1837""
","
","","","","","","null","<div style=""font-size:60px;"">+</div>","null","","fixation","","","","","","","","","","",""
"aa-learning-trial","137","629383","0.0-9.0-2.0-1.32","4306","1","21","Female","approach_avoid_spark_v1","""event"",""trial"",""time""
""fullscreenenter"",""1"",""1837""
","
","
","""event"",""trial"",""time""
""fullscreenenter"",""1"",""1837""
","
","","","","","","642.0999999940395","images/orange5.png","","","learning","5","5","1","1","orange","fruit","1","0","","good","[4]"
"html-keyboard-response","138","629887","0.0-9.0-2.0-0.33","4306","1","21","Female","approach_avoid_spark_v1","""event"",""trial"",""time""
""fullscreenenter"",""1"",""1837""
","
","
","""event"",""trial"",""time""
""fullscreenenter"",""1"",""1837""
","
","","","","","","null","<div style=""font-size:60px;"">+</div>","null","","fixation","","","","","","","","","","",""
"aa-learning-trial","139","632895","0.0-9.0-2.0-1.33","4306","1","21","Female","approach_avoid_spark_v1","""event"",""trial"",""time""
""fullscreenenter"",""1"",""1837""
","
","
","""event"",""trial"",""time""
""fullscreenenter"",""1"",""1837""
","
","","","","","","546","images/orange7.png","","","learning","2","2","1","1","orange","fruit","1","0","","good","[4]"
"html-keyboard-response","140","633399","0.0-9.0-2.0-0.34","4306","1","21","Female","approach_avoid_spark_v1","""event"",""trial"",""time""
""fullscreenenter"",""1"",""1837""
","
","
","""event"",""trial"",""time""
""fullscreenenter"",""1"",""1837""
","
","","","","","","null","<div style=""font-size:60px;"">+</div>","null","","fixation","","","","","","","","","","",""
"aa-learning-trial","141","636407","0.0-9.0-2.0-1.34","4306","1","21","Female","approach_avoid_spark_v1","""event"",""trial"",""time""
""fullscreenenter"",""1"",""1837""
","
","
","""event"",""trial"",""time""
""fullscreenenter"",""1"",""1837""
","
","","","","","","509.7999999821186","images/orange5.png","","","learning","1","1","1","1","orange","fruit","1","0","","good","[4]"
"html-keyboard-response","142","636911","0.0-9.0-2.0-0.35","4306","1","21","Female","approach_avoid_spark_v1","""event"",""trial"",""time""
""fullscreenenter"",""1"",""1837""
","
","
","""event"",""trial"",""time""
""fullscreenenter"",""1"",""1837""
","
","","","","","","null","<div style=""font-size:60px;"">+</div>","null","","fixation","","","","","","","","","","",""
"aa-learning-trial","143","639920","0.0-9.0-2.0-1.35","4306","1","21","Female","approach_avoid_spark_v1","""event"",""trial"",""time""
""fullscreenenter"",""1"",""1837""
","
","
","""event"",""trial"",""time""
""fullscreenenter"",""1"",""1837""
","
","","","","","","900.0999999940395","images/orange7.png","","","learning","4","4","1","1","orange","fruit","1","0","","good","[4]"
"html-keyboard-response","144","640423","0.0-9.0-2.0-0.36","4306","1","21","Female","approach_avoid_spark_v1","""event"",""trial"",""time""
""fullscreenenter"",""1"",""1837""
","
","
","""event"",""trial"",""time""
""fullscreenenter"",""1"",""1837""
","
","","","","","","null","<div style=""font-size:60px;"">+</div>","null","","fixation","","","","","","","","","","",""
"aa-learning-trial","145","643432","0.0-9.0-2.0-1.36","4306","1","21","Female","approach_avoid_spark_v1","""event"",""trial"",""time""
""fullscreenenter"",""1"",""1837""
","
","
","""event"",""trial"",""time""
""fullscreenenter"",""1"",""1837""
","
","","","","","","1356","images/banana3.png","","","learning","-1","-1","1","1","banana","fruit","1","0","","neutral","0"
"html-keyboard-response","146","643935","0.0-9.0-2.0-0.37","4306","1","21","Female","approach_avoid_spark_v1","""event"",""trial"",""time""
""fullscreenenter"",""1"",""1837""
","
","
","""event"",""trial"",""time""
""fullscreenenter"",""1"",""1837""
","
","","","","","","null","<div style=""font-size:60px;"">+</div>","null","","fixation","","","","","","","","","","",""
"aa-learning-trial","147","646946","0.0-9.0-2.0-1.37","4306","1","21","Female","approach_avoid_spark_v1","""event"",""trial"",""time""
""fullscreenenter"",""1"",""1837""
","
","
","""event"",""trial"",""time""
""fullscreenenter"",""1"",""1837""
","
","","","","","","610","images/straw5.png","","","learning","-6","0","0","0","straw","fruit","1","0","","bad","[-6]"
"html-keyboard-response","148","647456","0.0-9.0-2.0-0.38","4306","1","21","Female","approach_avoid_spark_v1","""event"",""trial"",""time""
""fullscreenenter"",""1"",""1837""
","
","
","""event"",""trial"",""time""
""fullscreenenter"",""1"",""1837""
","
","","","","","","null","<div style=""font-size:60px;"">+</div>","null","","fixation","","","","","","","","","","",""
"aa-learning-trial","149","650464","0.0-9.0-2.0-1.38","4306","1","21","Female","approach_avoid_spark_v1","""event"",""trial"",""time""
""fullscreenenter"",""1"",""1837""
","
","
","""event"",""trial"",""time""
""fullscreenenter"",""1"",""1837""
","
","","","","","","626.4000000059605","images/orange7.png","","","learning","3","3","1","1","orange","fruit","1","0","","good","[4]"
"html-keyboard-response","150","650968","0.0-9.0-2.0-0.39","4306","1","21","Female","approach_avoid_spark_v1","""event"",""trial"",""time""
""fullscreenenter"",""1"",""1837""
","
","
","""event"",""trial"",""time""
""fullscreenenter"",""1"",""1837""
","
","","","","","","null","<div style=""font-size:60px;"">+</div>","null","","fixation","","","","","","","","","","",""
"aa-learning-trial","151","653976","0.0-9.0-2.0-1.39","4306","1","21","Female","approach_avoid_spark_v1","""event"",""trial"",""time""
""fullscreenenter"",""1"",""1837""
","
","
","""event"",""trial"",""time""
""fullscreenenter"",""1"",""1837""
","
","","","","","","1346.5","images/straw2.png","","","learning","-6","0","0","0","straw","fruit","1","0","","bad","[-6]"
"html-keyboard-response","152","654480","0.0-9.0-2.0-0.40","4306","1","21","Female","approach_avoid_spark_v1","""event"",""trial"",""time""
""fullscreenenter"",""1"",""1837""
","
","
","""event"",""trial"",""time""
""fullscreenenter"",""1"",""1837""
","
","","","","","","null","<div style=""font-size:60px;"">+</div>","null","","fixation","","","","","","","","","","",""
"aa-learning-trial","153","657488","0.0-9.0-2.0-1.40","4306","1","21","Female","approach_avoid_spark_v1","""event"",""trial"",""time""
""fullscreenenter"",""1"",""1837""
","
","
","""event"",""trial"",""time""
""fullscreenenter"",""1"",""1837""
","
","","","","","","1046.3999999761581","images/orange4.png","","","learning","5","5","1","1","orange","fruit","1","0","","good","[4]"
"html-keyboard-response","154","657992","0.0-9.0-2.0-0.41","4306","1","21","Female","approach_avoid_spark_v1","""event"",""trial"",""time""
""fullscreenenter"",""1"",""1837""
","
","
","""event"",""trial"",""time""
""fullscreenenter"",""1"",""1837""
","
","","","","","","null","<div style=""font-size:60px;"">+</div>","null","","fixation","","","","","","","","","","",""
"aa-learning-trial","155","661000","0.0-9.0-2.0-1.41","4306","1","21","Female","approach_avoid_spark_v1","""event"",""trial"",""time""
""fullscreenenter"",""1"",""1837""
","
","
","""event"",""trial"",""time""
""fullscreenenter"",""1"",""1837""
","
","","","","","","1096.199999988079","images/orange7.png","","","learning","5","5","1","1","orange","fruit","1","0","","good","[4]"
"html-keyboard-response","156","661504","0.0-9.0-2.0-0.42","4306","1","21","Female","approach_avoid_spark_v1","""event"",""trial"",""time""
""fullscreenenter"",""1"",""1837""
","
","
","""event"",""trial"",""time""
""fullscreenenter"",""1"",""1837""
","
","","","","","","null","<div style=""font-size:60px;"">+</div>","null","","fixation","","","","","","","","","","",""
"aa-learning-trial","157","664512","0.0-9.0-2.0-1.42","4306","1","21","Female","approach_avoid_spark_v1","""event"",""trial"",""time""
""fullscreenenter"",""1"",""1837""
","
","
","""event"",""trial"",""time""
""fullscreenenter"",""1"",""1837""
","
","","","","","","506.09999999403954","images/orange1.png","","","learning","8","8","1","1","orange","fruit","1","0","","good","[4]"
"html-keyboard-response","158","665016","0.0-9.0-2.0-0.43","4306","1","21","Female","approach_avoid_spark_v1","""event"",""trial"",""time""
""fullscreenenter"",""1"",""1837""
","
","
","""event"",""trial"",""time""
""fullscreenenter"",""1"",""1837""
","
","","","","","","null","<div style=""font-size:60px;"">+</div>","null","","fixation","","","","","","","","","","",""
"aa-learning-trial","159","668024","0.0-9.0-2.0-1.43","4306","1","21","Female","approach_avoid_spark_v1","""event"",""trial"",""time""
""fullscreenenter"",""1"",""1837""
","
","
","""event"",""trial"",""time""
""fullscreenenter"",""1"",""1837""
","
","","","","","","1721.9000000059605","images/banana3.png","","","learning","2","0","0","0","banana","fruit","1","0","","neutral","0"
"html-keyboard-response","160","668528","0.0-9.0-2.0-0.44","4306","1","21","Female","approach_avoid_spark_v1","""event"",""trial"",""time""
""fullscreenenter"",""1"",""1837""
","
","
","""event"",""trial"",""time""
""fullscreenenter"",""1"",""1837""
","
","","","","","","null","<div style=""font-size:60px;"">+</div>","null","","fixation","","","","","","","","","","",""
"aa-learning-trial","161","671536","0.0-9.0-2.0-1.44","4306","1","21","Female","approach_avoid_spark_v1","""event"",""trial"",""time""
""fullscreenenter"",""1"",""1837""
","
","
","""event"",""trial"",""time""
""fullscreenenter"",""1"",""1837""
","
","","","","","","579.2000000178814","images/straw8.png","","","learning","-5","0","0","0","straw","fruit","1","0","","bad","[-6]"
"html-keyboard-response","162","672040","0.0-9.0-2.0-0.45","4306","1","21","Female","approach_avoid_spark_v1","""event"",""trial"",""time""
""fullscreenenter"",""1"",""1837""
","
","
","""event"",""trial"",""time""
""fullscreenenter"",""1"",""1837""
","
","","","","","","null","<div style=""font-size:60px;"">+</div>","null","","fixation","","","","","","","","","","",""
"aa-learning-trial","163","675048","0.0-9.0-2.0-1.45","4306","1","21","Female","approach_avoid_spark_v1","""event"",""trial"",""time""
""fullscreenenter"",""1"",""1837""
","
","
","""event"",""trial"",""time""
""fullscreenenter"",""1"",""1837""
","
","","","","","","491.40000000596046","images/banana1.png","","","learning","-2","-2","1","1","banana","fruit","1","0","","neutral","0"
"html-keyboard-response","164","675552","0.0-9.0-2.0-0.46","4306","1","21","Female","approach_avoid_spark_v1","""event"",""trial"",""time""
""fullscreenenter"",""1"",""1837""
","
","
","""event"",""trial"",""time""
""fullscreenenter"",""1"",""1837""
","
","","","","","","null","<div style=""font-size:60px;"">+</div>","null","","fixation","","","","","","","","","","",""
"aa-learning-trial","165","678561","0.0-9.0-2.0-1.46","4306","1","21","Female","approach_avoid_spark_v1","""event"",""trial"",""time""
""fullscreenenter"",""1"",""1837""
","
","
","""event"",""trial"",""time""
""fullscreenenter"",""1"",""1837""
","
","","","","","","956.9000000059605","images/banana1.png","","","learning","1","0","0","0","banana","fruit","1","0","","neutral","0"
"html-keyboard-response","166","679065","0.0-9.0-2.0-0.47","4306","1","21","Female","approach_avoid_spark_v1","""event"",""trial"",""time""
""fullscreenenter"",""1"",""1837""
","
","
","""event"",""trial"",""time""
""fullscreenenter"",""1"",""1837""
","
","","","","","","null","<div style=""font-size:60px;"">+</div>","null","","fixation","","","","","","","","","","",""
"aa-learning-trial","167","682073","0.0-9.0-2.0-1.47","4306","1","21","Female","approach_avoid_spark_v1","""event"",""trial"",""time""
""fullscreenenter"",""1"",""1837""
","
","
","""event"",""trial"",""time""
""fullscreenenter"",""1"",""1837""
","
","","","","","","503.59999999403954","images/orange3.png","","","learning","3","3","1","1","orange","fruit","1","0","","good","[4]"
"html-keyboard-response","168","682577","0.0-9.0-2.0-0.48","4306","1","21","Female","approach_avoid_spark_v1","""event"",""trial"",""time""
""fullscreenenter"",""1"",""1837""
","
","
","""event"",""trial"",""time""
""fullscreenenter"",""1"",""1837""
","
","","","","","","null","<div style=""font-size:60px;"">+</div>","null","","fixation","","","","","","","","","","",""
"aa-learning-trial","169","685585","0.0-9.0-2.0-1.48","4306","1","21","Female","approach_avoid_spark_v1","""event"",""trial"",""time""
""fullscreenenter"",""1"",""1837""
","
","
","""event"",""trial"",""time""
""fullscreenenter"",""1"",""1837""
","
","","","","","","415.90000000596046","images/orange3.png","","","learning","5","5","1","1","orange","fruit","1","0","","good","[4]"
"html-keyboard-response","170","686089","0.0-9.0-2.0-0.49","4306","1","21","Female","approach_avoid_spark_v1","""event"",""trial"",""time""
""fullscreenenter"",""1"",""1837""
","
","
","""event"",""trial"",""time""
""fullscreenenter"",""1"",""1837""
","
","","","","","","null","<div style=""font-size:60px;"">+</div>","null","","fixation","","","","","","","","","","",""
"aa-learning-trial","171","689097","0.0-9.0-2.0-1.49","4306","1","21","Female","approach_avoid_spark_v1","""event"",""trial"",""time""
""fullscreenenter"",""1"",""1837""
","
","
","""event"",""trial"",""time""
""fullscreenenter"",""1"",""1837""
","
","","","","","","765.6000000238419","images/banana6.png","","","learning","-1","-1","1","1","banana","fruit","1","0","","neutral","0"
"html-keyboard-response","172","689601","0.0-9.0-2.0-0.50","4306","1","21","Female","approach_avoid_spark_v1","""event"",""trial"",""time""
""fullscreenenter"",""1"",""1837""
","
","
","""event"",""trial"",""time""
""fullscreenenter"",""1"",""1837""
","
","","","","","","null","<div style=""font-size:60px;"">+</div>","null","","fixation","","","","","","","","","","",""
"aa-learning-trial","173","692609","0.0-9.0-2.0-1.50","4306","1","21","Female","approach_avoid_spark_v1","""event"",""trial"",""time""
""fullscreenenter"",""1"",""1837""
","
","
","""event"",""trial"",""time""
""fullscreenenter"",""1"",""1837""
","
","","","","","","584.2000000178814","images/straw1.png","","","learning","-8","0","0","0","straw","fruit","1","0","","bad","[-6]"
"html-button-response","174","694730","0.0-9.0-3.0","4306","1","21","Female","approach_avoid_spark_v1","""event"",""trial"",""time""
""fullscreenenter"",""1"",""1837""
","
","
","""event"",""trial"",""time""
""fullscreenenter"",""1"",""1837""
","
","","","","","","2119.7000000178814","<p> You have completed the round! <p> In this round, you earned 63 points! </p>","0","","break","","","","","","","","","","",""
"html-button-response","175","696006","0.0-10.0","4306","1","21","Female","approach_avoid_spark_v1","""event"",""trial"",""time""
""fullscreenenter"",""1"",""1837""
","
","
","""event"",""trial"",""time""
""fullscreenenter"",""1"",""1837""
","
","","","","","","1274.300000011921","<p> Now it's time to play another round. </p>","0","","transition_screen","","","","","","","","","","",""
"preload","176","696131","0.0-11.0-0.0","4306","1","21","Female","approach_avoid_spark_v1","""event"",""trial"",""time""
""fullscreenenter"",""1"",""1837""
","
","
","""event"",""trial"",""time""
""fullscreenenter"",""1"",""1837""
","
","true","false","[]","[]","[]","","","","","","","","","","","","","","","",""
"learning-instructions","177","709663","0.0-11.0-1.0-0.0","4306","1","21","Female","approach_avoid_spark_v1","""event"",""trial"",""time""
""fullscreenenter"",""1"",""1837""
","
","
","""event"",""trial"",""time""
""fullscreenenter"",""1"",""1837""
","
","","","","","","7709.100000023842","<p> Your goal in this round is to take your friend for rides in different vehicles. </p></div>","","0","instructions","","","","","","","","","","",""
"learning-instructions","178","722417","0.0-11.0-1.0-0.1","4306","1","21","Female","approach_avoid_spark_v1","""event"",""trial"",""time""
""fullscreenenter"",""1"",""1837""
","
","
","""event"",""trial"",""time""
""fullscreenenter"",""1"",""1837""
","
","","","","","","1849.9000000059605","<p> Your friend enjoys riding in some vehicles but not in others.  </p><p> On each turn, you will see a vehicle.   </p><p> You need to decide whether to take your friend for a ride or not.  </p>","","0","instructions","","","","","","","","","","",""
"learning-instructions","179","730854","0.0-11.0-1.0-0.2","4306","1","21","Female","approach_avoid_spark_v1","""event"",""trial"",""time""
""fullscreenenter"",""1"",""1837""
","
","
","""event"",""trial"",""time""
""fullscreenenter"",""1"",""1837""
","
","","","","","","1465.0999999940395","<p> You can take your friend for a ride in the vehicle by pressing 1 and skip the ride by pressing 0. </p><br><div class=""choice-instructions-grid""> <div class=""choice-option""><img src=""images/approach.png"" class=""choice-option-img"" stage=""instructions"" position=""0"" ><div class=""choice-option-text""> Press ""1."" </div></div><div class=""choice-option""><img src=""images/avoid.png"" class=""choice-option-img"" stage=""instructions"" position=""1"" ><div class=""choice-option-text""> Press ""0."" </div></div>","","0","instructions","","","","","","","","","","",""
"learning-instructions","180","741892","0.0-11.0-1.0-0.3","4306","1","21","Female","approach_avoid_spark_v1","""event"",""trial"",""time""
""fullscreenenter"",""1"",""1837""
","
","
","""event"",""trial"",""time""
""fullscreenenter"",""1"",""1837""
","
","","","","","","1185.9000000059605","<p> If you take them for a ride in a vehicle they like, they will be thrilled! </p><p> But if you take them for a ride in a vehicle they do not like, they will be upset. </p>","","0","instructions","","","","","","","","","","",""
"learning-instructions","181","758216","0.0-11.0-1.0-0.4","4306","1","21","Female","approach_avoid_spark_v1","""event"",""trial"",""time""
""fullscreenenter"",""1"",""1837""
","
","
","""event"",""trial"",""time""
""fullscreenenter"",""1"",""1837""
","
","","","","","","854.0999999940395","<p> You will earn points based on how you made your friend feel. </p><p> If you made him thrilled, you will WIN anywhere from 1 - 9 points, </p><p> but if you made him upset, you will LOSE anywhere from 1 - 9 points. </p>","","0","instructions","","","","","","","","","","",""
"learning-instructions","182","766373","0.0-11.0-1.0-0.5","4306","1","21","Female","approach_avoid_spark_v1","""event"",""trial"",""time""
""fullscreenenter"",""1"",""1837""
","
","
","""event"",""trial"",""time""
""fullscreenenter"",""1"",""1837""
","
","","","","","","1495.7000000178814","<p> You will see how many points you won or lost in the center of the screen. </p><p> Here is what you would see if you won 5 points: </p><p style=""color:green;font-size:50px;font-weight:bolder"">5</p>","","0","instructions","","","","","","","","","","",""
"learning-instructions","183","776028","0.0-11.0-1.0-0.6","4306","1","21","Female","approach_avoid_spark_v1","""event"",""trial"",""time""
""fullscreenenter"",""1"",""1837""
","
","
","""event"",""trial"",""time""
""fullscreenenter"",""1"",""1837""
","
","","","","","","6820.200000017881","<p> And here is what you would see if you lost 3 points: </p><p style=""color:red;font-size:50px;font-weight:bolder"">-3</p>","","0","instructions","","","","","","","","","","",""
"learning-instructions","184","800528","0.0-11.0-1.0-0.7","4306","1","21","Female","approach_avoid_spark_v1","""event"",""trial"",""time""
""fullscreenenter"",""1"",""1837""
","
","
","""event"",""trial"",""time""
""fullscreenenter"",""1"",""1837""
","
","","","","","","5021.799999982119","<p> Some vehicles will make your friend REALLY thrilled or upset. </p><p> These vehicles will make you win or lose LOTS of points. </p><p> Other vehicles will only make him feel a little thrilled or upset. </p><p> These vehicles will make you win or lose small amounts of points. </p>","","0","instructions","","","","","","","","","","",""
"learning-instructions","185","818058","0.0-11.0-1.0-0.8","4306","1","21","Female","approach_avoid_spark_v1","""event"",""trial"",""time""
""fullscreenenter"",""1"",""1837""
","
","
","""event"",""trial"",""time""
""fullscreenenter"",""1"",""1837""
","
","","","","","","3430.5999999940395","<p> If you choose to skip the ride, you will not win or lose any points. </p><p>  However, in the center of the screen, you will see the number of points you WOULD HAVE won or lost if you had taken your friend for a ride. </p>","","0","instructions","","","","","","","","","","",""
"learning-instructions","186","833361","0.0-11.0-1.0-0.9","4306","1","21","Female","approach_avoid_spark_v1","""event"",""trial"",""time""
""fullscreenenter"",""1"",""1837""
","
","
","""event"",""trial"",""time""
""fullscreenenter"",""1"",""1837""
","
","","","","","","3016.7000000178814","<p> Here is what you might see if you did not take your friend for a ride but he would have enjoyed it: </p><p style=""color:grey; font-size:50px; display: inline-block; border-spacing: 15px; border-width:3px; border-style:solid; border-color:red"">  &nbsp; 6 &nbsp; </p><p> Remember, in this case, you would not win or lose ANY points because you skipped the ride.  </p>","","0","instructions","","","","","","","","","","",""
"learning-instructions","187","842903","0.0-11.0-1.0-0.10","4306","1","21","Female","approach_avoid_spark_v1","""event"",""trial"",""time""
""fullscreenenter"",""1"",""1837""
","
","
","""event"",""trial"",""time""
""fullscreenenter"",""1"",""1837""
","
","","","","","","1129.5","<p> Try to make the best choice for each vehicle because </p><p> at the end of the game, you will earn bonus money based on how many points you earned. </p>","","0","instructions","","","","","","","","","","",""
"learning-instructions","188","852058","0.0-11.0-1.0-0.11","4306","1","21","Female","approach_avoid_spark_v1","""event"",""trial"",""time""
""fullscreenenter"",""1"",""1837""
","
","
","""event"",""trial"",""time""
""fullscreenenter"",""1"",""1837""
","
","","","","","","967","<p> You will have 3 seconds to make each choice. Try to respond before time runs out! </p><p> You will lose 5 points each time you do not make a response. </p>","","0","instructions","","","","","","","","","","",""
"html-keyboard-response","189","852680","0.0-11.0-2.0-0.0","4306","1","21","Female","approach_avoid_spark_v1","""event"",""trial"",""time""
""fullscreenenter"",""1"",""1837""
","
","
","""event"",""trial"",""time""
""fullscreenenter"",""1"",""1837""
","
","","","","","","null","<div style=""font-size:60px;"">+</div>","null","","fixation","","","","","","","","","","",""
"aa-learning-trial","190","855685","0.0-11.0-2.0-1.0","4306","1","21","Female","approach_avoid_spark_v1","""event"",""trial"",""time""
""fullscreenenter"",""1"",""1837""
","
","
","""event"",""trial"",""time""
""fullscreenenter"",""1"",""1837""
","
","","","","","","2356.5","images/plane4.png","","","learning","2","2","1","1","plane","vehicles","2","1","","neutral","0"
"html-keyboard-response","191","856194","0.0-11.0-2.0-0.1","4306","1","21","Female","approach_avoid_spark_v1","""event"",""trial"",""time""
""fullscreenenter"",""1"",""1837""
","
","
","""event"",""trial"",""time""
""fullscreenenter"",""1"",""1837""
","
","","","","","","null","<div style=""font-size:60px;"">+</div>","null","","fixation","","","","","","","","","","",""
"aa-learning-trial","192","859197","0.0-11.0-2.0-1.1","4306","1","21","Female","approach_avoid_spark_v1","""event"",""trial"",""time""
""fullscreenenter"",""1"",""1837""
","
","
","""event"",""trial"",""time""
""fullscreenenter"",""1"",""1837""
","
","","","","","","863.0999999940395","images/plane2.png","","","learning","-6","-6","1","1","plane","vehicles","2","1","","neutral","0"
"html-keyboard-response","193","859706","0.0-11.0-2.0-0.2","4306","1","21","Female","approach_avoid_spark_v1","""event"",""trial"",""time""
""fullscreenenter"",""1"",""1837""
","
","
","""event"",""trial"",""time""
""fullscreenenter"",""1"",""1837""
","
","","","","","","null","<div style=""font-size:60px;"">+</div>","null","","fixation","","","","","","","","","","",""
"aa-learning-trial","194","862722","0.0-11.0-2.0-1.2","4306","1","21","Female","approach_avoid_spark_v1","""event"",""trial"",""time""
""fullscreenenter"",""1"",""1837""
","
","
","""event"",""trial"",""time""
""fullscreenenter"",""1"",""1837""
","
","","","","","","865.6999999880791","images/truck7.png","","","learning","7","7","1","1","truck","vehicles","2","1","","bad","[-6]"
"html-keyboard-response","195","863234","0.0-11.0-2.0-0.3","4306","1","21","Female","approach_avoid_spark_v1","""event"",""trial"",""time""
""fullscreenenter"",""1"",""1837""
","
","
","""event"",""trial"",""time""
""fullscreenenter"",""1"",""1837""
","
","","","","","","null","<div style=""font-size:60px;"">+</div>","null","","fixation","","","","","","","","","","",""
"aa-learning-trial","196","866248","0.0-11.0-2.0-1.3","4306","1","21","Female","approach_avoid_spark_v1","""event"",""trial"",""time""
""fullscreenenter"",""1"",""1837""
","
","
","""event"",""trial"",""time""
""fullscreenenter"",""1"",""1837""
","
","","","","","","710.4000000059605","images/boat8.png","","","learning","8","8","1","1","boat","vehicles","2","1","","good","[6]"
"html-keyboard-response","197","866760","0.0-11.0-2.0-0.4","4306","1","21","Female","approach_avoid_spark_v1","""event"",""trial"",""time""
""fullscreenenter"",""1"",""1837""
","
","
","""event"",""trial"",""time""
""fullscreenenter"",""1"",""1837""
","
","","","","","","null","<div style=""font-size:60px;"">+</div>","null","","fixation","","","","","","","","","","",""
"aa-learning-trial","198","869767","0.0-11.0-2.0-1.4","4306","1","21","Female","approach_avoid_spark_v1","""event"",""trial"",""time""
""fullscreenenter"",""1"",""1837""
","
","
","""event"",""trial"",""time""
""fullscreenenter"",""1"",""1837""
","
","","","","","","699.3000000119209","images/plane2.png","","","learning","-6","0","0","0","plane","vehicles","2","1","","neutral","0"
"html-keyboard-response","199","870270","0.0-11.0-2.0-0.5","4306","1","21","Female","approach_avoid_spark_v1","""event"",""trial"",""time""
""fullscreenenter"",""1"",""1837""
","
","
","""event"",""trial"",""time""
""fullscreenenter"",""1"",""1837""
","
","","","","","","null","<div style=""font-size:60px;"">+</div>","null","","fixation","","","","","","","","","","",""
"aa-learning-trial","200","873278","0.0-11.0-2.0-1.5","4306","1","21","Female","approach_avoid_spark_v1","""event"",""trial"",""time""
""fullscreenenter"",""1"",""1837""
","
","
","""event"",""trial"",""time""
""fullscreenenter"",""1"",""1837""
","
","","","","","","745","images/boat8.png","","","learning","8","8","1","1","boat","vehicles","2","1","","good","[6]"
"html-keyboard-response","201","873782","0.0-11.0-2.0-0.6","4306","1","21","Female","approach_avoid_spark_v1","""event"",""trial"",""time""
""fullscreenenter"",""1"",""1837""
","
","
","""event"",""trial"",""time""
""fullscreenenter"",""1"",""1837""
","
","","","","","","null","<div style=""font-size:60px;"">+</div>","null","","fixation","","","","","","","","","","",""
"aa-learning-trial","202","876792","0.0-11.0-2.0-1.6","4306","1","21","Female","approach_avoid_spark_v1","""event"",""trial"",""time""
""fullscreenenter"",""1"",""1837""
","
","
","""event"",""trial"",""time""
""fullscreenenter"",""1"",""1837""
","
","","","","","","599","images/plane6.png","","","learning","9","9","1","1","plane","vehicles","2","1","","neutral","0"
"html-keyboard-response","203","877299","0.0-11.0-2.0-0.7","4306","1","21","Female","approach_avoid_spark_v1","""event"",""trial"",""time""
""fullscreenenter"",""1"",""1837""
","
","
","""event"",""trial"",""time""
""fullscreenenter"",""1"",""1837""
","
","","","","","","null","<div style=""font-size:60px;"">+</div>","null","","fixation","","","","","","","","","","",""
"aa-learning-trial","204","880310","0.0-11.0-2.0-1.7","4306","1","21","Female","approach_avoid_spark_v1","""event"",""trial"",""time""
""fullscreenenter"",""1"",""1837""
","
","
","""event"",""trial"",""time""
""fullscreenenter"",""1"",""1837""
","
","","","","","","686.4000000059605","images/truck7.png","","","learning","7","7","1","1","truck","vehicles","2","1","","bad","[-6]"
"html-keyboard-response","205","880819","0.0-11.0-2.0-0.8","4306","1","21","Female","approach_avoid_spark_v1","""event"",""trial"",""time""
""fullscreenenter"",""1"",""1837""
","
","
","""event"",""trial"",""time""
""fullscreenenter"",""1"",""1837""
","
","","","","","","null","<div style=""font-size:60px;"">+</div>","null","","fixation","","","","","","","","","","",""
"aa-learning-trial","206","883831","0.0-11.0-2.0-1.8","4306","1","21","Female","approach_avoid_spark_v1","""event"",""trial"",""time""
""fullscreenenter"",""1"",""1837""
","
","
","""event"",""trial"",""time""
""fullscreenenter"",""1"",""1837""
","
","","","","","","590.0999999940395","images/boat6.png","","","learning","-9","-9","1","1","boat","vehicles","2","1","","good","[6]"
"html-keyboard-response","207","884335","0.0-11.0-2.0-0.9","4306","1","21","Female","approach_avoid_spark_v1","""event"",""trial"",""time""
""fullscreenenter"",""1"",""1837""
","
","
","""event"",""trial"",""time""
""fullscreenenter"",""1"",""1837""
","
","","","","","","null","<div style=""font-size:60px;"">+</div>","null","","fixation","","","","","","","","","","",""
"aa-learning-trial","208","887343","0.0-11.0-2.0-1.9","4306","1","21","Female","approach_avoid_spark_v1","""event"",""trial"",""time""
""fullscreenenter"",""1"",""1837""
","
","
","""event"",""trial"",""time""
""fullscreenenter"",""1"",""1837""
","
","","","","","","505.2000000178814","images/plane6.png","","","learning","9","9","1","1","plane","vehicles","2","1","","neutral","0"
"html-keyboard-response","209","887847","0.0-11.0-2.0-0.10","4306","1","21","Female","approach_avoid_spark_v1","""event"",""trial"",""time""
""fullscreenenter"",""1"",""1837""
","
","
","""event"",""trial"",""time""
""fullscreenenter"",""1"",""1837""
","
","","","","","","null","<div style=""font-size:60px;"">+</div>","null","","fixation","","","","","","","","","","",""
"aa-learning-trial","210","890855","0.0-11.0-2.0-1.10","4306","1","21","Female","approach_avoid_spark_v1","""event"",""trial"",""time""
""fullscreenenter"",""1"",""1837""
","
","
","""event"",""trial"",""time""
""fullscreenenter"",""1"",""1837""
","
","","","","","","844.9000000059605","images/truck1.png","","","learning","-3","-3","1","1","truck","vehicles","2","1","","bad","[-6]"
"html-keyboard-response","211","891359","0.0-11.0-2.0-0.11","4306","1","21","Female","approach_avoid_spark_v1","""event"",""trial"",""time""
""fullscreenenter"",""1"",""1837""
","
","
","""event"",""trial"",""time""
""fullscreenenter"",""1"",""1837""
","
","","","","","","null","<div style=""font-size:60px;"">+</div>","null","","fixation","","","","","","","","","","",""
"aa-learning-trial","212","894367","0.0-11.0-2.0-1.11","4306","1","21","Female","approach_avoid_spark_v1","""event"",""trial"",""time""
""fullscreenenter"",""1"",""1837""
","
","
","""event"",""trial"",""time""
""fullscreenenter"",""1"",""1837""
","
","","","","","","1119.9000000059605","images/truck4.png","","","learning","5","5","1","1","truck","vehicles","2","1","","bad","[-6]"
"html-keyboard-response","213","894871","0.0-11.0-2.0-0.12","4306","1","21","Female","approach_avoid_spark_v1","""event"",""trial"",""time""
""fullscreenenter"",""1"",""1837""
","
","
","""event"",""trial"",""time""
""fullscreenenter"",""1"",""1837""
","
","","","","","","null","<div style=""font-size:60px;"">+</div>","null","","fixation","","","","","","","","","","",""
"aa-learning-trial","214","897879","0.0-11.0-2.0-1.12","4306","1","21","Female","approach_avoid_spark_v1","""event"",""trial"",""time""
""fullscreenenter"",""1"",""1837""
","
","
","""event"",""trial"",""time""
""fullscreenenter"",""1"",""1837""
","
","","","","","","1170.699999988079","images/boat5.png","","","learning","-5","0","0","0","boat","vehicles","2","1","","good","[6]"
"html-keyboard-response","215","898383","0.0-11.0-2.0-0.13","4306","1","21","Female","approach_avoid_spark_v1","""event"",""trial"",""time""
""fullscreenenter"",""1"",""1837""
","
","
","""event"",""trial"",""time""
""fullscreenenter"",""1"",""1837""
","
","","","","","","null","<div style=""font-size:60px;"">+</div>","null","","fixation","","","","","","","","","","",""
"aa-learning-trial","216","901391","0.0-11.0-2.0-1.13","4306","1","21","Female","approach_avoid_spark_v1","""event"",""trial"",""time""
""fullscreenenter"",""1"",""1837""
","
","
","""event"",""trial"",""time""
""fullscreenenter"",""1"",""1837""
","
","","","","","","739.6999999880791","images/truck1.png","","","learning","-3","-3","1","1","truck","vehicles","2","1","","bad","[-6]"
"html-keyboard-response","217","901895","0.0-11.0-2.0-0.14","4306","1","21","Female","approach_avoid_spark_v1","""event"",""trial"",""time""
""fullscreenenter"",""1"",""1837""
","
","
","""event"",""trial"",""time""
""fullscreenenter"",""1"",""1837""
","
","","","","","","null","<div style=""font-size:60px;"">+</div>","null","","fixation","","","","","","","","","","",""
"aa-learning-trial","218","904904","0.0-11.0-2.0-1.14","4306","1","21","Female","approach_avoid_spark_v1","""event"",""trial"",""time""
""fullscreenenter"",""1"",""1837""
","
","
","""event"",""trial"",""time""
""fullscreenenter"",""1"",""1837""
","
","","","","","","663.2000000178814","images/boat5.png","","","learning","-5","0","0","0","boat","vehicles","2","1","","good","[6]"
"html-keyboard-response","219","905407","0.0-11.0-2.0-0.15","4306","1","21","Female","approach_avoid_spark_v1","""event"",""trial"",""time""
""fullscreenenter"",""1"",""1837""
","
","
","""event"",""trial"",""time""
""fullscreenenter"",""1"",""1837""
","
","","","","","","null","<div style=""font-size:60px;"">+</div>","null","","fixation","","","","","","","","","","",""
"aa-learning-trial","220","908416","0.0-11.0-2.0-1.15","4306","1","21","Female","approach_avoid_spark_v1","""event"",""trial"",""time""
""fullscreenenter"",""1"",""1837""
","
","
","""event"",""trial"",""time""
""fullscreenenter"",""1"",""1837""
","
","","","","","","832","images/boat6.png","","","learning","-9","-9","1","1","boat","vehicles","2","1","","good","[6]"
"html-keyboard-response","221","908920","0.0-11.0-2.0-0.16","4306","1","21","Female","approach_avoid_spark_v1","""event"",""trial"",""time""
""fullscreenenter"",""1"",""1837""
","
","
","""event"",""trial"",""time""
""fullscreenenter"",""1"",""1837""
","
","","","","","","null","<div style=""font-size:60px;"">+</div>","null","","fixation","","","","","","","","","","",""
"aa-learning-trial","222","911928","0.0-11.0-2.0-1.16","4306","1","21","Female","approach_avoid_spark_v1","""event"",""trial"",""time""
""fullscreenenter"",""1"",""1837""
","
","
","""event"",""trial"",""time""
""fullscreenenter"",""1"",""1837""
","
","","","","","","937.6999999880791","images/boat5.png","","","learning","-5","0","0","0","boat","vehicles","2","1","","good","[6]"
"html-keyboard-response","223","912432","0.0-11.0-2.0-0.17","4306","1","21","Female","approach_avoid_spark_v1","""event"",""trial"",""time""
""fullscreenenter"",""1"",""1837""
","
","
","""event"",""trial"",""time""
""fullscreenenter"",""1"",""1837""
","
","","","","","","null","<div style=""font-size:60px;"">+</div>","null","","fixation","","","","","","","","","","",""
"aa-learning-trial","224","915435","0.0-11.0-2.0-1.17","4306","1","21","Female","approach_avoid_spark_v1","""event"",""trial"",""time""
""fullscreenenter"",""1"",""1837""
","
","
","""event"",""trial"",""time""
""fullscreenenter"",""1"",""1837""
","
","","","","","","1634.9000000059605","images/plane6.png","","","learning","9","9","1","1","plane","vehicles","2","1","","neutral","0"
"html-keyboard-response","225","915944","0.0-11.0-2.0-0.18","4306","1","21","Female","approach_avoid_spark_v1","""event"",""trial"",""time""
""fullscreenenter"",""1"",""1837""
","
","
","""event"",""trial"",""time""
""fullscreenenter"",""1"",""1837""
","
","","","","","","null","<div style=""font-size:60px;"">+</div>","null","","fixation","","","","","","","","","","",""
"aa-learning-trial","226","918954","0.0-11.0-2.0-1.18","4306","1","21","Female","approach_avoid_spark_v1","""event"",""trial"",""time""
""fullscreenenter"",""1"",""1837""
","
","
","""event"",""trial"",""time""
""fullscreenenter"",""1"",""1837""
","
","","","","","","925.1999999880791","images/plane1.png","","","learning","4","0","0","0","plane","vehicles","2","1","","neutral","0"
"html-keyboard-response","227","919464","0.0-11.0-2.0-0.19","4306","1","21","Female","approach_avoid_spark_v1","""event"",""trial"",""time""
""fullscreenenter"",""1"",""1837""
","
","
","""event"",""trial"",""time""
""fullscreenenter"",""1"",""1837""
","
","","","","","","null","<div style=""font-size:60px;"">+</div>","null","","fixation","","","","","","","","","","",""
"aa-learning-trial","228","922472","0.0-11.0-2.0-1.19","4306","1","21","Female","approach_avoid_spark_v1","""event"",""trial"",""time""
""fullscreenenter"",""1"",""1837""
","
","
","""event"",""trial"",""time""
""fullscreenenter"",""1"",""1837""
","
","","","","","","695","images/boat8.png","","","learning","8","8","1","1","boat","vehicles","2","1","","good","[6]"
"html-keyboard-response","229","922976","0.0-11.0-2.0-0.20","4306","1","21","Female","approach_avoid_spark_v1","""event"",""trial"",""time""
""fullscreenenter"",""1"",""1837""
","
","
","""event"",""trial"",""time""
""fullscreenenter"",""1"",""1837""
","
","","","","","","null","<div style=""font-size:60px;"">+</div>","null","","fixation","","","","","","","","","","",""
"aa-learning-trial","230","925984","0.0-11.0-2.0-1.20","4306","1","21","Female","approach_avoid_spark_v1","""event"",""trial"",""time""
""fullscreenenter"",""1"",""1837""
","
","
","""event"",""trial"",""time""
""fullscreenenter"",""1"",""1837""
","
","","","","","","730.2000000178814","images/plane2.png","","","learning","-6","0","0","0","plane","vehicles","2","1","","neutral","0"
"html-keyboard-response","231","926488","0.0-11.0-2.0-0.21","4306","1","21","Female","approach_avoid_spark_v1","""event"",""trial"",""time""
""fullscreenenter"",""1"",""1837""
","
","
","""event"",""trial"",""time""
""fullscreenenter"",""1"",""1837""
","
","","","","","","null","<div style=""font-size:60px;"">+</div>","null","","fixation","","","","","","","","","","",""
"aa-learning-trial","232","929496","0.0-11.0-2.0-1.21","4306","1","21","Female","approach_avoid_spark_v1","""event"",""trial"",""time""
""fullscreenenter"",""1"",""1837""
","
","
","""event"",""trial"",""time""
""fullscreenenter"",""1"",""1837""
","
","","","","","","1604.800000011921","images/boat8.png","","","learning","8","8","1","1","boat","vehicles","2","1","","good","[6]"
"html-keyboard-response","233","930000","0.0-11.0-2.0-0.22","4306","1","21","Female","approach_avoid_spark_v1","""event"",""trial"",""time""
""fullscreenenter"",""1"",""1837""
","
","
","""event"",""trial"",""time""
""fullscreenenter"",""1"",""1837""
","
","","","","","","null","<div style=""font-size:60px;"">+</div>","null","","fixation","","","","","","","","","","",""
"aa-learning-trial","234","933008","0.0-11.0-2.0-1.22","4306","1","21","Female","approach_avoid_spark_v1","""event"",""trial"",""time""
""fullscreenenter"",""1"",""1837""
","
","
","""event"",""trial"",""time""
""fullscreenenter"",""1"",""1837""
","
","","","","","","654.4000000059605","images/boat5.png","","","learning","-5","0","0","0","boat","vehicles","2","1","","good","[6]"
"html-keyboard-response","235","933512","0.0-11.0-2.0-0.23","4306","1","21","Female","approach_avoid_spark_v1","""event"",""trial"",""time""
""fullscreenenter"",""1"",""1837""
","
","
","""event"",""trial"",""time""
""fullscreenenter"",""1"",""1837""
","
","","","","","","null","<div style=""font-size:60px;"">+</div>","null","","fixation","","","","","","","","","","",""
"aa-learning-trial","236","936520","0.0-11.0-2.0-1.23","4306","1","21","Female","approach_avoid_spark_v1","""event"",""trial"",""time""
""fullscreenenter"",""1"",""1837""
","
","
","""event"",""trial"",""time""
""fullscreenenter"",""1"",""1837""
","
