"trial_type","trial_index","time_elapsed","internal_node_id","subject_id","task_condition","age","gender","task_version","interactions","blur_events","focus_events","fullscreenenter_events","fullscreenexit_events","success","timeout","failed_images","failed_audio","failed_video","rt","stimulus","response","button_pressed","task_part","approach_reward","points","key_press","option_selected","stim_cat","task_block","block_condition","block_number","correct","cat_type","mean_cat_reward"
"pavlovia","0","3","0.0-0.0","4008","1","13","Male","approach_avoid_spark_v1","""event"",""trial"",""time""
""fullscreenenter"",""1"",""3430""
","
","
","""event"",""trial"",""time""
""fullscreenenter"",""1"",""3430""
","
","","","","","","","","","","","","","","","","","","","","",""
"fullscreen","1","4418","0.0-1.0","4008","1","13","Male","approach_avoid_spark_v1","""event"",""trial"",""time""
""fullscreenenter"",""1"",""3430""
","
","
","""event"",""trial"",""time""
""fullscreenenter"",""1"",""3430""
","
","true","","","","","","","","","","","","","","","","","","","",""
"preload","2","15498","0.0-2.0","4008","1","13","Male","approach_avoid_spark_v1","""event"",""trial"",""time""
""fullscreenenter"",""1"",""3430""
","
","
","""event"",""trial"",""time""
""fullscreenenter"",""1"",""3430""
","
","true","false","[]","[]","[]","","","","","","","","","","","","","","","",""
"audio-keyboard-response","3","18709","0.0-3.0","4008","1","13","Male","approach_avoid_spark_v1","""event"",""trial"",""time""
""fullscreenenter"",""1"",""3430""
","
","
","""event"",""trial"",""time""
""fullscreenenter"",""1"",""3430""
","
","","","","","","3210.6666666666665","audio/beep_loop.wav"," ","","","","","","","","","","","","",""
"audio-button-response","4","20938","0.0-4.0","4008","1","13","Male","approach_avoid_spark_v1","""event"",""trial"",""time""
""fullscreenenter"",""1"",""3430""
","
","
","""event"",""trial"",""time""
""fullscreenenter"",""1"",""3430""
","
","","","","","","2219","audio/shark.wav","4","","","","","","","","","","","","",""
"audio-button-response","5","23330","0.0-5.0","4008","1","13","Male","approach_avoid_spark_v1","""event"",""trial"",""time""
""fullscreenenter"",""1"",""3430""
","
","
","""event"",""trial"",""time""
""fullscreenenter"",""1"",""3430""
","
","","","","","","1389","audio/turtle.wav","1","","","","","","","","","","","","",""
"preload","6","26812","0.0-6.0","4008","1","13","Male","approach_avoid_spark_v1","""event"",""trial"",""time""
""fullscreenenter"",""1"",""3430""
","
","
","""event"",""trial"",""time""
""fullscreenenter"",""1"",""3430""
","
","true","false","[]","[]","[]","","","","","","","","","","","","","","","",""
"html-keyboard-response","7","29750","0.0-7.0","4008","1","13","Male","approach_avoid_spark_v1","""event"",""trial"",""time""
""fullscreenenter"",""1"",""3430""
","
","
","""event"",""trial"",""time""
""fullscreenenter"",""1"",""3430""
","
","","","","","","2937.199999809265","Welcome to the experiment. Press any key to begin and to advance the instructions."," ","","","","","","","","","","","","",""
"learning-instructions","8","38995","0.0-8.0-0.0-0.0","4008","1","13","Male","approach_avoid_spark_v1","""event"",""trial"",""time""
""fullscreenenter"",""1"",""3430""
","
","
","""event"",""trial"",""time""
""fullscreenenter"",""1"",""3430""
","
","","","","","","2283.800000190735","<p> Welcome! Today you are going to play 6 different rounds of a decision-making game. </p><p> Use the mouse to click next to continue. </p>","","0","instructions","","","","","","","","","","",""
"learning-instructions","9","44939","0.0-8.0-0.0-0.1","4008","1","13","Male","approach_avoid_spark_v1","""event"",""trial"",""time""
""fullscreenenter"",""1"",""3430""
","
","
","""event"",""trial"",""time""
""fullscreenenter"",""1"",""3430""
","
","","","","","","3209.199999809265","<p> You will start with a practice round to learn the rules. </p>","","0","instructions","","","","","","","","","","",""
"learning-instructions","10","49795","0.0-8.0-0.0-0.2","4008","1","13","Male","approach_avoid_spark_v1","""event"",""trial"",""time""
""fullscreenenter"",""1"",""3430""
","
","
","""event"",""trial"",""time""
""fullscreenenter"",""1"",""3430""
","
","","","","","","1405","<p> Your goal in this round is to give out sports equipment to kids. </p></div>","","0","instructions","","","","","","","","","","",""
"learning-instructions","11","58130","0.0-8.0-0.0-0.3","4008","1","13","Male","approach_avoid_spark_v1","""event"",""trial"",""time""
""fullscreenenter"",""1"",""3430""
","
","
","""event"",""trial"",""time""
""fullscreenenter"",""1"",""3430""
","
","","","","","","770.5999999046326","<p> The kids only like some of the equipment.  </p><p> On each turn, you will see a piece of sports equipment.   </p><p> You need to decide whether to give it to the kids or not.  </p>","","0","instructions","","","","","","","","","","",""
"learning-instructions","12","66843","0.0-8.0-0.0-0.4","4008","1","13","Male","approach_avoid_spark_v1","""event"",""trial"",""time""
""fullscreenenter"",""1"",""3430""
","
","
","""event"",""trial"",""time""
""fullscreenenter"",""1"",""3430""
","
","","","","","","3962.4000000953674","<p> You can give them the equipment by pressing 1 and choose not to give it to them by pressing 0. </p><br><div class=""choice-instructions-grid""> <div class=""choice-option""><img src=""images/approach.png"" class=""choice-option-img"" stage=""instructions"" position=""0"" ><div class=""choice-option-text""> Press ""1."" </div></div><div class=""choice-option""><img src=""images/avoid.png"" class=""choice-option-img"" stage=""instructions"" position=""1"" ><div class=""choice-option-text""> Press ""0."" </div></div>","","0","instructions","","","","","","","","","","",""
"learning-instructions","13","74875","0.0-8.0-0.0-0.5","4008","1","13","Male","approach_avoid_spark_v1","""event"",""trial"",""time""
""fullscreenenter"",""1"",""3430""
","
","
","""event"",""trial"",""time""
""fullscreenenter"",""1"",""3430""
","
","","","","","","633.5999999046326","<p> If you give them a piece of equipment they like, they will be happy! </p><p> But if you give them a piece of equipment they do not like, they will be sad. </p>","","0","instructions","","","","","","","","","","",""
"learning-instructions","14","85996","0.0-8.0-0.0-0.6","4008","1","13","Male","approach_avoid_spark_v1","""event"",""trial"",""time""
""fullscreenenter"",""1"",""3430""
","
","
","""event"",""trial"",""time""
""fullscreenenter"",""1"",""3430""
","
","","","","","","605.2999997138977","<p> You will earn points based on how you make kids feel. </p><p> If you make them happy, you will WIN anywhere from 1 - 9 points, </p><p> but if you make them sad, you will LOSE anywhere from 1 - 9 points. </p>","","0","instructions","","","","","","","","","","",""
"learning-instructions","15","96531","0.0-8.0-0.0-0.7","4008","1","13","Male","approach_avoid_spark_v1","""event"",""trial"",""time""
""fullscreenenter"",""1"",""3430""
","
","
","""event"",""trial"",""time""
""fullscreenenter"",""1"",""3430""
","
","","","","","","979.7000002861023","<p> You will see how many points you won or lost in the center of the screen. </p><p> Here is what you would see if you won 6 points: </p><p style=""color:green;font-size:50px;font-weight:bolder"">6</p><p style=""color:green"">The text is GREEN because you WON points.</p>","","0","instructions","","","","","","","","","","",""
"learning-instructions","16","103091","0.0-8.0-0.0-0.8","4008","1","13","Male","approach_avoid_spark_v1","""event"",""trial"",""time""
""fullscreenenter"",""1"",""3430""
","
","
","""event"",""trial"",""time""
""fullscreenenter"",""1"",""3430""
","
","","","","","","1059.5999999046326","<p> And here is what you would see if you lost 4 points: </p><p style=""color:red;font-size:50px;font-weight:bolder"">-4</p><p style=""color:red"">The text is RED because you LOST points. </p>","","0","instructions","","","","","","","","","","",""
"learning-instructions","17","119507","0.0-8.0-0.0-0.9","4008","1","13","Male","approach_avoid_spark_v1","""event"",""trial"",""time""
""fullscreenenter"",""1"",""3430""
","
","
","""event"",""trial"",""time""
""fullscreenenter"",""1"",""3430""
","
","","","","","","1706.7999997138977","<p> Some of the equipment will make the kids VERY happy or sad. </p><p> These pieces of equipment will make you win or lose LOTS of points. </p><p> Other pieces of equipment will only make the kids a little happy or sad. </p><p> These pieces of equipment will make you win or lose small amounts of points. </p>","","0","instructions","","","","","","","","","","",""
"learning-instructions","18","130954","0.0-8.0-0.0-0.10","4008","1","13","Male","approach_avoid_spark_v1","""event"",""trial"",""time""
""fullscreenenter"",""1"",""3430""
","
","
","""event"",""trial"",""time""
""fullscreenenter"",""1"",""3430""
","
","","","","","","824.1000003814697","<p> If you choose not to give them the equipment, you will not win or lose any points. </p><p>  However, in the center of the screen, you will see the number of points you WOULD HAVE won or lost if you had given them the equipment. </p>","","0","instructions","","","","","","","","","","",""
"learning-instructions","19","153650","0.0-8.0-0.0-0.11","4008","1","13","Male","approach_avoid_spark_v1","""event"",""trial"",""time""
""fullscreenenter"",""1"",""3430""
","
","
","""event"",""trial"",""time""
""fullscreenenter"",""1"",""3430""
","
","","","","","","1160","<p> Here is what you might see if you did not give the equipment to the kids but it would have made them happy: </p><p style=""color:grey; font-size:50px; display: inline-block; border-spacing: 15px; border-width:3px; border-style:solid; border-color:red"">  &nbsp; 7 &nbsp; </p><p> Remember, in this case, you would not win or lose ANY points because you did not give them the equipment.  </p><p style=""color:grey"">The text is GREY because you earned ZERO points. </p><p style=""color:red"">However, choosing to give the kids the equipment would have made you win points. The box around the text is RED because you chose the worse option. </p>","","0","instructions","","","","","","","","","","",""
"learning-instructions","20","175556","0.0-8.0-0.0-0.12","4008","1","13","Male","approach_avoid_spark_v1","""event"",""trial"",""time""
""fullscreenenter"",""1"",""3430""
","
","
","""event"",""trial"",""time""
""fullscreenenter"",""1"",""3430""
","
","","","","","","835.0999999046326","<p> Here is what you might see if you did not give the equipment to the kids but it would have made them sad: </p><p style=""color:grey;font-size:50px; display: inline-block; border-spacing: 15px; border-width:3px; border-style:solid; border-color:green"">  &nbsp; -8 &nbsp; </p><p> Remember, in this case, you would not win or lose ANY points because you did not give them the equipment.  </p><p style=""color:grey"">The text is GREY because you earned ZERO points. </p><p  style=""color:green""> Choosing to give the kids the equipment would have made you lose points. The box around the text is GREEN because you chose the better option.</p>","","0","instructions","","","","","","","","","","",""
"learning-instructions","21","185283","0.0-8.0-0.0-0.13","4008","1","13","Male","approach_avoid_spark_v1","""event"",""trial"",""time""
""fullscreenenter"",""1"",""3430""
","
","
","""event"",""trial"",""time""
""fullscreenenter"",""1"",""3430""
","
","","","","","","622.5","<p> You will have 3 seconds to make each choice. Try to respond before time runs out! </p><p> You will lose 5 points each time you do not make a response. </p>","","0","instructions","","","","","","","","","","",""
"learning-instructions","22","191220","0.0-8.0-0.0-0.14","4008","1","13","Male","approach_avoid_spark_v1","""event"",""trial"",""time""
""fullscreenenter"",""1"",""3430""
","
","
","""event"",""trial"",""time""
""fullscreenenter"",""1"",""3430""
","
","","","","","","519.5","<p> This is just a practice round, but in the real game, your bonus payment will depend on your total number of points.","","0","instructions","","","","","","","","","","",""
"learning-instructions","23","198099","0.0-8.0-0.0-0.15","4008","1","13","Male","approach_avoid_spark_v1","""event"",""trial"",""time""
""fullscreenenter"",""1"",""3430""
","
","
","""event"",""trial"",""time""
""fullscreenenter"",""1"",""3430""
","
","","","","","","1118","<p> Remember, you can give them the equipment by pressing 1 and choose not to give it to them by pressing 0. </p><br><div class=""choice-instructions-grid""> <div class=""choice-option""><img src=""images/approach.png"" class=""choice-option-img"" stage=""instructions"" position=""0"" ><div class=""choice-option-text""> Press ""1."" </div></div><div class=""choice-option""><img src=""images/avoid.png"" class=""choice-option-img"" stage=""instructions"" position=""1"" ><div class=""choice-option-text""> Press ""0."" </div></div>","","0","instructions","","","","","","","","","","",""
"html-button-response","24","200491","0.0-8.0-1.0","4008","1","13","Male","approach_avoid_spark_v1","""event"",""trial"",""time""
""fullscreenenter"",""1"",""3430""
","
","
","""event"",""trial"",""time""
""fullscreenenter"",""1"",""3430""
","
","","","","","","2281","<p> Ready to practice? </p>","0","","","","","","","","","","","","",""
"html-keyboard-response","25","201110","0.0-8.0-2.0-0.0","4008","1","13","Male","approach_avoid_spark_v1","""event"",""trial"",""time""
""fullscreenenter"",""1"",""3430""
","
","
","""event"",""trial"",""time""
""fullscreenenter"",""1"",""3430""
","
","","","","","","null","<div style=""font-size:60px;"">+</div>","null","","fixation","","","","","","","","","","",""
"aa-learning-trial","26","204118","0.0-8.0-2.0-1.0","4008","1","13","Male","approach_avoid_spark_v1","""event"",""trial"",""time""
""fullscreenenter"",""1"",""3430""
","
","
","""event"",""trial"",""time""
""fullscreenenter"",""1"",""3430""
","
","","","","","","2682.5999999046326","images/ball1.png","","","learning","4","4","1","1","practice","practice","practice","-1","","",""
"html-keyboard-response","27","204631","0.0-8.0-2.0-0.1","4008","1","13","Male","approach_avoid_spark_v1","""event"",""trial"",""time""
""fullscreenenter"",""1"",""3430""
","
","
","""event"",""trial"",""time""
""fullscreenenter"",""1"",""3430""
","
","","","","","","null","<div style=""font-size:60px;"">+</div>","null","","fixation","","","","","","","","","","",""
"aa-learning-trial","28","207635","0.0-8.0-2.0-1.1","4008","1","13","Male","approach_avoid_spark_v1","""event"",""trial"",""time""
""fullscreenenter"",""1"",""3430""
","
","
","""event"",""trial"",""time""
""fullscreenenter"",""1"",""3430""
","
","","","","","","1493.2000002861023","images/ball1.png","","","learning","9","9","1","1","practice","practice","practice","-1","","",""
"html-keyboard-response","29","208149","0.0-8.0-2.0-0.2","4008","1","13","Male","approach_avoid_spark_v1","""event"",""trial"",""time""
""fullscreenenter"",""1"",""3430""
","
","
","""event"",""trial"",""time""
""fullscreenenter"",""1"",""3430""
","
","","","","","","null","<div style=""font-size:60px;"">+</div>","null","","fixation","","","","","","","","","","",""
"aa-learning-trial","30","211172","0.0-8.0-2.0-1.2","4008","1","13","Male","approach_avoid_spark_v1","""event"",""trial"",""time""
""fullscreenenter"",""1"",""3430""
","
","
","""event"",""trial"",""time""
""fullscreenenter"",""1"",""3430""
","
","","","","","","1629.0999999046326","images/ball2.png","","","learning","-2","0","0","0","practice","practice","practice","-1","","",""
"html-keyboard-response","31","211684","0.0-8.0-2.0-0.3","4008","1","13","Male","approach_avoid_spark_v1","""event"",""trial"",""time""
""fullscreenenter"",""1"",""3430""
","
","
","""event"",""trial"",""time""
""fullscreenenter"",""1"",""3430""
","
","","","","","","null","<div style=""font-size:60px;"">+</div>","null","","fixation","","","","","","","","","","",""
"aa-learning-trial","32","214703","0.0-8.0-2.0-1.3","4008","1","13","Male","approach_avoid_spark_v1","""event"",""trial"",""time""
""fullscreenenter"",""1"",""3430""
","
","
","""event"",""trial"",""time""
""fullscreenenter"",""1"",""3430""
","
","","","","","","823.2999997138977","images/racket3.png","","","learning","-1","-1","1","1","practice","practice","practice","-1","","",""
"html-keyboard-response","33","215217","0.0-8.0-2.0-0.4","4008","1","13","Male","approach_avoid_spark_v1","""event"",""trial"",""time""
""fullscreenenter"",""1"",""3430""
","
","
","""event"",""trial"",""time""
""fullscreenenter"",""1"",""3430""
","
","","","","","","null","<div style=""font-size:60px;"">+</div>","null","","fixation","","","","","","","","","","",""
"aa-learning-trial","34","218223","0.0-8.0-2.0-1.4","4008","1","13","Male","approach_avoid_spark_v1","""event"",""trial"",""time""
""fullscreenenter"",""1"",""3430""
","
","
","""event"",""trial"",""time""
""fullscreenenter"",""1"",""3430""
","
","","","","","","1241.1999998092651","images/racket1.png","","","learning","4","4","1","1","practice","practice","practice","-1","","",""
"html-keyboard-response","35","218737","0.0-8.0-2.0-0.5","4008","1","13","Male","approach_avoid_spark_v1","""event"",""trial"",""time""
""fullscreenenter"",""1"",""3430""
","
","
","""event"",""trial"",""time""
""fullscreenenter"",""1"",""3430""
","
","","","","","","null","<div style=""font-size:60px;"">+</div>","null","","fixation","","","","","","","","","","",""
"aa-learning-trial","36","221745","0.0-8.0-2.0-1.5","4008","1","13","Male","approach_avoid_spark_v1","""event"",""trial"",""time""
""fullscreenenter"",""1"",""3430""
","
","
","""event"",""trial"",""time""
""fullscreenenter"",""1"",""3430""
","
","","","","","","668.2999997138977","images/racket1.png","","","learning","-3","-3","1","1","practice","practice","practice","-1","","",""
"html-keyboard-response","37","222258","0.0-8.0-2.0-0.6","4008","1","13","Male","approach_avoid_spark_v1","""event"",""trial"",""time""
""fullscreenenter"",""1"",""3430""
","
","
","""event"",""trial"",""time""
""fullscreenenter"",""1"",""3430""
","
","","","","","","null","<div style=""font-size:60px;"">+</div>","null","","fixation","","","","","","","","","","",""
"aa-learning-trial","38","225273","0.0-8.0-2.0-1.6","4008","1","13","Male","approach_avoid_spark_v1","""event"",""trial"",""time""
""fullscreenenter"",""1"",""3430""
","
","
","""event"",""trial"",""time""
""fullscreenenter"",""1"",""3430""
","
","","","","","","1318.3000001907349","images/ball4.png","","","learning","1","1","1","1","practice","practice","practice","-1","","",""
"html-keyboard-response","39","225785","0.0-8.0-2.0-0.7","4008","1","13","Male","approach_avoid_spark_v1","""event"",""trial"",""time""
""fullscreenenter"",""1"",""3430""
","
","
","""event"",""trial"",""time""
""fullscreenenter"",""1"",""3430""
","
","","","","","","null","<div style=""font-size:60px;"">+</div>","null","","fixation","","","","","","","","","","",""
"aa-learning-trial","40","228790","0.0-8.0-2.0-1.7","4008","1","13","Male","approach_avoid_spark_v1","""event"",""trial"",""time""
""fullscreenenter"",""1"",""3430""
","
","
","""event"",""trial"",""time""
""fullscreenenter"",""1"",""3430""
","
","","","","","","906.1999998092651","images/racket3.png","","","learning","-2","0","0","0","practice","practice","practice","-1","","",""
"html-keyboard-response","41","229292","0.0-8.0-2.0-0.8","4008","1","13","Male","approach_avoid_spark_v1","""event"",""trial"",""time""
""fullscreenenter"",""1"",""3430""
","
","
","""event"",""trial"",""time""
""fullscreenenter"",""1"",""3430""
","
","","","","","","null","<div style=""font-size:60px;"">+</div>","null","","fixation","","","","","","","","","","",""
"aa-learning-trial","42","232301","0.0-8.0-2.0-1.8","4008","1","13","Male","approach_avoid_spark_v1","""event"",""trial"",""time""
""fullscreenenter"",""1"",""3430""
","
","
","""event"",""trial"",""time""
""fullscreenenter"",""1"",""3430""
","
","","","","","","1391.3000001907349","images/racket4.png","","","learning","8","0","0","0","practice","practice","practice","-1","","",""
"html-keyboard-response","43","232805","0.0-8.0-2.0-0.9","4008","1","13","Male","approach_avoid_spark_v1","""event"",""trial"",""time""
""fullscreenenter"",""1"",""3430""
","
","
","""event"",""trial"",""time""
""fullscreenenter"",""1"",""3430""
","
","","","","","","null","<div style=""font-size:60px;"">+</div>","null","","fixation","","","","","","","","","","",""
"aa-learning-trial","44","235812","0.0-8.0-2.0-1.9","4008","1","13","Male","approach_avoid_spark_v1","""event"",""trial"",""time""
""fullscreenenter"",""1"",""3430""
","
","
","""event"",""trial"",""time""
""fullscreenenter"",""1"",""3430""
","
","","","","","","678.3999996185303","images/ball4.png","","","learning","3","3","1","1","practice","practice","practice","-1","","",""
"html-keyboard-response","45","236317","0.0-8.0-2.0-0.10","4008","1","13","Male","approach_avoid_spark_v1","""event"",""trial"",""time""
""fullscreenenter"",""1"",""3430""
","
","
","""event"",""trial"",""time""
""fullscreenenter"",""1"",""3430""
","
","","","","","","null","<div style=""font-size:60px;"">+</div>","null","","fixation","","","","","","","","","","",""
"aa-learning-trial","46","239324","0.0-8.0-2.0-1.10","4008","1","13","Male","approach_avoid_spark_v1","""event"",""trial"",""time""
""fullscreenenter"",""1"",""3430""
","
","
","""event"",""trial"",""time""
""fullscreenenter"",""1"",""3430""
","
","","","","","","1046.0999999046326","images/ball1.png","","","learning","-3","-3","1","1","practice","practice","practice","-1","","",""
"html-keyboard-response","47","239828","0.0-8.0-2.0-0.11","4008","1","13","Male","approach_avoid_spark_v1","""event"",""trial"",""time""
""fullscreenenter"",""1"",""3430""
","
","
","""event"",""trial"",""time""
""fullscreenenter"",""1"",""3430""
","
","","","","","","null","<div style=""font-size:60px;"">+</div>","null","","fixation","","","","","","","","","","",""
"aa-learning-trial","48","242836","0.0-8.0-2.0-1.11","4008","1","13","Male","approach_avoid_spark_v1","""event"",""trial"",""time""
""fullscreenenter"",""1"",""3430""
","
","
","""event"",""trial"",""time""
""fullscreenenter"",""1"",""3430""
","
","","","","","","1469.5","images/racket2.png","","","learning","-2","-2","1","1","practice","practice","practice","-1","","",""
"html-button-response","49","244955","0.0-8.0-3.0","4008","1","13","Male","approach_avoid_spark_v1","""event"",""trial"",""time""
""fullscreenenter"",""1"",""3430""
","
","
","""event"",""trial"",""time""
""fullscreenenter"",""1"",""3430""
","
","","","","","","2116.9000000953674","<p> You earned 12 points in the practice round! </p>","0","","break","","","","","","","","","","",""
"learning-instructions","50","253107","0.0-8.0-4.0-0.0","4008","1","13","Male","approach_avoid_spark_v1","""event"",""trial"",""time""
""fullscreenenter"",""1"",""3430""
","
","
","""event"",""trial"",""time""
""fullscreenenter"",""1"",""3430""
","
","","","","","","2033.7999997138977","<p> It's almost time to start the real game. </p><p> Before you start, we're going to ask you a few questions about how the game works. </p>","","0","instructions","","","","","","","","","","",""
"preload","51","254461","0.0-8.0-5.0","4008","1","13","Male","approach_avoid_spark_v1","""event"",""trial"",""time""
""fullscreenenter"",""1"",""3430""
","
","
","""event"",""trial"",""time""
""fullscreenenter"",""1"",""3430""
","
","true","false","[]","[]","[]","","","","","","","","","","","","","","","",""
"comp-q","52","260811","0.0-8.0-6.0-0.0","4008","1","13","Male","approach_avoid_spark_v1","""event"",""trial"",""time""
""fullscreenenter"",""1"",""3430""
","
","
","""event"",""trial"",""time""
""fullscreenenter"",""1"",""3430""
","
","","","","","","1349","<p> <b> True or False? </b> </p><p> If you see a number in GREY, that means you earned that many points. </p>","","1","comp_question","","","","","","","","","true","",""
"comp-q","53","270380","0.0-8.0-6.0-1.0","4008","1","13","Male","approach_avoid_spark_v1","""event"",""trial"",""time""
""fullscreenenter"",""1"",""3430""
","
","
","""event"",""trial"",""time""
""fullscreenenter"",""1"",""3430""
","
","","","","","","1207.2000002861023","<p><b> That's right! </b> If you see a grey number, it means you earned ZERO points. <br> The grey numbers show the points you WOULD HAVE earned if you had made the other choice. </p>","","0","comp_answer","","","","","","","","","","",""
"comp-q","54","275740","0.0-8.0-7.0-0.0","4008","1","13","Male","approach_avoid_spark_v1","""event"",""trial"",""time""
""fullscreenenter"",""1"",""3430""
","
","
","""event"",""trial"",""time""
""fullscreenenter"",""1"",""3430""
","
","","","","","","668.0999999046326","<p> <b> True or False? </b> </p><p> You will have as much time as you want to make each choice. </p>","","1","comp_question","","","","","","","","","true","",""
"comp-q","55","280652","0.0-8.0-7.0-1.0","4008","1","13","Male","approach_avoid_spark_v1","""event"",""trial"",""time""
""fullscreenenter"",""1"",""3430""
","
","
","""event"",""trial"",""time""
""fullscreenenter"",""1"",""3430""
","
","","","","","","869.6999998092651","<p> <b> That's right! </b> You will only have 3 seconds to make each choice. </p>","","0","comp_answer","","","","","","","","","","",""
"comp-q","56","285922","0.0-8.0-8.0-0.0","4008","1","13","Male","approach_avoid_spark_v1","""event"",""trial"",""time""
""fullscreenenter"",""1"",""3430""
","
","
","""event"",""trial"",""time""
""fullscreenenter"",""1"",""3430""
","
","","","","","","620.2999997138977","<p> <b> True or False? </b> </p><p> You should use the '1' and '0' keys to make your choices. </p>","","1","comp_question","","","","","","","","","false","",""
"comp-q","57","291987","0.0-8.0-8.0-1.0","4008","1","13","Male","approach_avoid_spark_v1","""event"",""trial"",""time""
""fullscreenenter"",""1"",""3430""
","
","
","""event"",""trial"",""time""
""fullscreenenter"",""1"",""3430""
","
","","","","","","1513.3999996185303","<p> <b>Incorrect.</b> You <i>should</i> use the '1' and '0' keys to make each choice. </p>","","0","comp_answer","","","","","","","","","","",""
"comp-q","58","297092","0.0-8.0-8.1-0.1","4008","1","13","Male","approach_avoid_spark_v1","""event"",""trial"",""time""
""fullscreenenter"",""1"",""3430""
","
","
","""event"",""trial"",""time""
""fullscreenenter"",""1"",""3430""
","
","","","","","","439.09999990463257","<p> <b> True or False? </b> </p><p> You should use the '1' and '0' keys to make your choices. </p>","","0","comp_question","","","","","","","","","true","",""
"comp-q","59","303683","0.0-8.0-8.1-1.1","4008","1","13","Male","approach_avoid_spark_v1","""event"",""trial"",""time""
""fullscreenenter"",""1"",""3430""
","
","
","""event"",""trial"",""time""
""fullscreenenter"",""1"",""3430""
","
","","","","","","1980.0999999046326","<p> <b> That's right! </b> You should use the '1' and '0' keys to make each choice. </p>","","0","comp_answer","","","","","","","","","","",""
"learning-instructions","60","312842","0.0-8.0-9.0-0.0","4008","1","13","Male","approach_avoid_spark_v1","""event"",""trial"",""time""
""fullscreenenter"",""1"",""3430""
","
","
","""event"",""trial"",""time""
""fullscreenenter"",""1"",""3430""
","
","","","","","","2869.0999999046326","<p> It's now time to start the real game. </p>Do your best, because the points you earn in the next rounds will influence your bonus payment. </p>","","0","instructions","","","","","","","","","","",""
"preload","61","312961","0.0-9.0-0.0","4008","1","13","Male","approach_avoid_spark_v1","""event"",""trial"",""time""
""fullscreenenter"",""1"",""3430""
","
","
","""event"",""trial"",""time""
""fullscreenenter"",""1"",""3430""
","
","true","false","[]","[]","[]","","","","","","","","","","","","","","","",""
"learning-instructions","62","320029","0.0-9.0-1.0-0.0","4008","1","13","Male","approach_avoid_spark_v1","""event"",""trial"",""time""
""fullscreenenter"",""1"",""3430""
","
","
","""event"",""trial"",""time""
""fullscreenenter"",""1"",""3430""
","
","","","","","","2885.8999996185303","<p> Your goal in this round is to take care of lots of farm animals. </p></div>","","0","instructions","","","","","","","","","","",""
"learning-instructions","63","331155","0.0-9.0-1.0-0.1","4008","1","13","Male","approach_avoid_spark_v1","""event"",""trial"",""time""
""fullscreenenter"",""1"",""3430""
","
","
","""event"",""trial"",""time""
""fullscreenenter"",""1"",""3430""
","
","","","","","","1552.1000003814697","<p> Some farm animals are hungry, while other farm animals are already full.  </p><p> On each turn, you will see a farm animal.   </p><p> You need to decide whether to feed it or not.  </p>","","0","instructions","","","","","","","","","","",""
"learning-instructions","64","338659","0.0-9.0-1.0-0.2","4008","1","13","Male","approach_avoid_spark_v1","""event"",""trial"",""time""
""fullscreenenter"",""1"",""3430""
","
","
","""event"",""trial"",""time""
""fullscreenenter"",""1"",""3430""
","
","","","","","","1665.4000000953674","<p> You can feed the farm animal by pressing 1 and leave the farm animal alone by pressing 0. </p><br><div class=""choice-instructions-grid""> <div class=""choice-option""><img src=""images/approach.png"" class=""choice-option-img"" stage=""instructions"" position=""0"" ><div class=""choice-option-text""> Press ""1."" </div></div><div class=""choice-option""><img src=""images/avoid.png"" class=""choice-option-img"" stage=""instructions"" position=""1"" ><div class=""choice-option-text""> Press ""0."" </div></div>","","0","instructions","","","","","","","","","","",""
"learning-instructions","65","349573","0.0-9.0-1.0-0.3","4008","1","13","Male","approach_avoid_spark_v1","""event"",""trial"",""time""
""fullscreenenter"",""1"",""3430""
","
","
","""event"",""trial"",""time""
""fullscreenenter"",""1"",""3430""
","
","","","","","","1560.5999999046326","<p> If you feed a hungry farm animal, you will make it feel satisfied! </p><p> But if you feed the farm animal and it was already full, you will make it feel sick. </p>","","0","instructions","","","","","","","","","","",""
"learning-instructions","66","364467","0.0-9.0-1.0-0.4","4008","1","13","Male","approach_avoid_spark_v1","""event"",""trial"",""time""
""fullscreenenter"",""1"",""3430""
","
","
","""event"",""trial"",""time""
""fullscreenenter"",""1"",""3430""
","
","","","","","","2944.4000000953674","<p> You will earn points based on how you made the farm animal feel. </p><p> If you made it satisfied, you will WIN anywhere from 1 - 9 points, </p><p> but if you made it sick, you will LOSE anywhere from 1 - 9 points. </p>","","0","instructions","","","","","","","","","","",""
"learning-instructions","67","374075","0.0-9.0-1.0-0.5","4008","1","13","Male","approach_avoid_spark_v1","""event"",""trial"",""time""
""fullscreenenter"",""1"",""3430""
","
","
","""event"",""trial"",""time""
""fullscreenenter"",""1"",""3430""
","
","","","","","","2132.2999997138977","<p> You will see how many points you won or lost in the center of the screen. </p><p> Here is what you would see if you won 5 points: </p><p style=""color:green;font-size:50px;font-weight:bolder"">5</p>","","0","instructions","","","","","","","","","","",""
"learning-instructions","68","377995","0.0-9.0-1.0-0.6","4008","1","13","Male","approach_avoid_spark_v1","""event"",""trial"",""time""
""fullscreenenter"",""1"",""3430""
","
","
","""event"",""trial"",""time""
""fullscreenenter"",""1"",""3430""
","
","","","","","","752.5999999046326","<p> And here is what you would see if you lost 3 points: </p><p style=""color:red;font-size:50px;font-weight:bolder"">-3</p>","","0","instructions","","","","","","","","","","",""
"learning-instructions","69","394467","0.0-9.0-1.0-0.7","4008","1","13","Male","approach_avoid_spark_v1","""event"",""trial"",""time""
""fullscreenenter"",""1"",""3430""
","
","
","""event"",""trial"",""time""
""fullscreenenter"",""1"",""3430""
","
","","","","","","1464.0999999046326","<p> Some farm animals will become very satisfied or very sick. </p><p> These farm animals will make you win or lose LOTS of points. </p><p> Other farm animals have less strong feelings. </p><p> These farm animals will make you win or lose small amounts of points. </p>","","0","instructions","","","","","","","","","","",""
"learning-instructions","70","407739","0.0-9.0-1.0-0.8","4008","1","13","Male","approach_avoid_spark_v1","""event"",""trial"",""time""
""fullscreenenter"",""1"",""3430""
","
","
","""event"",""trial"",""time""
""fullscreenenter"",""1"",""3430""
","
","","","","","","1467.0999999046326","<p> If you choose to leave the farm animal alone, you will not win or lose any points. </p><p>  However, in the center of the screen, you will see the number of points you WOULD HAVE won or lost if you had fed the farm animal. </p>","","0","instructions","","","","","","","","","","",""
"learning-instructions","71","419835","0.0-9.0-1.0-0.9","4008","1","13","Male","approach_avoid_spark_v1","""event"",""trial"",""time""
""fullscreenenter"",""1"",""3430""
","
","
","""event"",""trial"",""time""
""fullscreenenter"",""1"",""3430""
","
","","","","","","1032.7000002861023","<p> Here is what you might see if you did not feed the farm animal but the animal was hungry: </p><p style=""color:grey; font-size:50px; display: inline-block; border-spacing: 15px; border-width:3px; border-style:solid; border-color:red"">  &nbsp; 6 &nbsp; </p><p> Remember, in this case, you would not win or lose ANY points because you did not feed the farm animal.  </p>","","0","instructions","","","","","","","","","","",""
"learning-instructions","72","428196","0.0-9.0-1.0-0.10","4008","1","13","Male","approach_avoid_spark_v1","""event"",""trial"",""time""
""fullscreenenter"",""1"",""3430""
","
","
","""event"",""trial"",""time""
""fullscreenenter"",""1"",""3430""
","
","","","","","","623.5","<p> Try to make the best choice for each farm animal because </p><p> at the end of the game, you will earn bonus money based on how many points you earned. </p>","","0","instructions","","","","","","","","","","",""
"learning-instructions","73","436954","0.0-9.0-1.0-0.11","4008","1","13","Male","approach_avoid_spark_v1","""event"",""trial"",""time""
""fullscreenenter"",""1"",""3430""
","
","
","""event"",""trial"",""time""
""fullscreenenter"",""1"",""3430""
","
","","","","","","562","<p> You will have 3 seconds to make each choice. Try to respond before time runs out! </p><p> You will lose 5 points each time you do not make a response. </p>","","0","instructions","","","","","","","","","","",""
"html-keyboard-response","74","437578","0.0-9.0-2.0-0.0","4008","1","13","Male","approach_avoid_spark_v1","""event"",""trial"",""time""
""fullscreenenter"",""1"",""3430""
","
","
","""event"",""trial"",""time""
""fullscreenenter"",""1"",""3430""
","
","","","","","","null","<div style=""font-size:60px;"">+</div>","null","","fixation","","","","","","","","","","",""
"aa-learning-trial","75","440596","0.0-9.0-2.0-1.0","4008","1","13","Male","approach_avoid_spark_v1","""event"",""trial"",""time""
""fullscreenenter"",""1"",""3430""
","
","
","""event"",""trial"",""time""
""fullscreenenter"",""1"",""3430""
","
","","","","","","1854.6999998092651","images/horse1.png","","","learning","6","0","0","0","horse","animals","1","0","","good","[6]"
"html-keyboard-response","76","441111","0.0-9.0-2.0-0.1","4008","1","13","Male","approach_avoid_spark_v1","""event"",""trial"",""time""
""fullscreenenter"",""1"",""3430""
","
","
","""event"",""trial"",""time""
""fullscreenenter"",""1"",""3430""
","
","","","","","","null","<div style=""font-size:60px;"">+</div>","null","","fixation","","","","","","","","","","",""
"aa-learning-trial","77","444130","0.0-9.0-2.0-1.1","4008","1","13","Male","approach_avoid_spark_v1","""event"",""trial"",""time""
""fullscreenenter"",""1"",""3430""
","
","
","""event"",""trial"",""time""
""fullscreenenter"",""1"",""3430""
","
","","","","","","954.7999997138977","images/cow5.png","","","learning","-6","0","0","0","cow","animals","1","0","","bad","[-5]"
"html-keyboard-response","78","444645","0.0-9.0-2.0-0.2","4008","1","13","Male","approach_avoid_spark_v1","""event"",""trial"",""time""
""fullscreenenter"",""1"",""3430""
","
","
","""event"",""trial"",""time""
""fullscreenenter"",""1"",""3430""
","
","","","","","","null","<div style=""font-size:60px;"">+</div>","null","","fixation","","","","","","","","","","",""
"aa-learning-trial","79","447658","0.0-9.0-2.0-1.2","4008","1","13","Male","approach_avoid_spark_v1","""event"",""trial"",""time""
""fullscreenenter"",""1"",""3430""
","
","
","""event"",""trial"",""time""
""fullscreenenter"",""1"",""3430""
","
","","","","","","733","images/horse8.png","","","learning","8","8","1","1","horse","animals","1","0","","good","[6]"
"html-keyboard-response","80","448172","0.0-9.0-2.0-0.3","4008","1","13","Male","approach_avoid_spark_v1","""event"",""trial"",""time""
""fullscreenenter"",""1"",""3430""
","
","
","""event"",""trial"",""time""
""fullscreenenter"",""1"",""3430""
","
","","","","","","null","<div style=""font-size:60px;"">+</div>","null","","fixation","","","","","","","","","","",""
"aa-learning-trial","81","451185","0.0-9.0-2.0-1.3","4008","1","13","Male","approach_avoid_spark_v1","""event"",""trial"",""time""
""fullscreenenter"",""1"",""3430""
","
","
","""event"",""trial"",""time""
""fullscreenenter"",""1"",""3430""
","
","","","","","","1017.1000003814697","images/sheep3.png","","","learning","1","0","0","0","sheep","animals","1","0","","neutral","0"
"html-keyboard-response","82","451698","0.0-9.0-2.0-0.4","4008","1","13","Male","approach_avoid_spark_v1","""event"",""trial"",""time""
""fullscreenenter"",""1"",""3430""
","
","
","""event"",""trial"",""time""
""fullscreenenter"",""1"",""3430""
","
","","","","","","null","<div style=""font-size:60px;"">+</div>","null","","fixation","","","","","","","","","","",""
"aa-learning-trial","83","454719","0.0-9.0-2.0-1.4","4008","1","13","Male","approach_avoid_spark_v1","""event"",""trial"",""time""
""fullscreenenter"",""1"",""3430""
","
","
","""event"",""trial"",""time""
""fullscreenenter"",""1"",""3430""
","
","","","","","","1081","images/cow1.png","","","learning","-6","0","0","0","cow","animals","1","0","","bad","[-5]"
"html-keyboard-response","84","455231","0.0-9.0-2.0-0.5","4008","1","13","Male","approach_avoid_spark_v1","""event"",""trial"",""time""
""fullscreenenter"",""1"",""3430""
","
","
","""event"",""trial"",""time""
""fullscreenenter"",""1"",""3430""
","
","","","","","","null","<div style=""font-size:60px;"">+</div>","null","","fixation","","","","","","","","","","",""
"aa-learning-trial","85","458240","0.0-9.0-2.0-1.5","4008","1","13","Male","approach_avoid_spark_v1","""event"",""trial"",""time""
""fullscreenenter"",""1"",""3430""
","
","
","""event"",""trial"",""time""
""fullscreenenter"",""1"",""3430""
","
","","","","","","1436.2000002861023","images/horse3.png","","","learning","8","0","0","0","horse","animals","1","0","","good","[6]"
"html-keyboard-response","86","458754","0.0-9.0-2.0-0.6","4008","1","13","Male","approach_avoid_spark_v1","""event"",""trial"",""time""
""fullscreenenter"",""1"",""3430""
","
","
","""event"",""trial"",""time""
""fullscreenenter"",""1"",""3430""
","
","","","","","","null","<div style=""font-size:60px;"">+</div>","null","","fixation","","","","","","","","","","",""
"aa-learning-trial","87","461764","0.0-9.0-2.0-1.6","4008","1","13","Male","approach_avoid_spark_v1","""event"",""trial"",""time""
""fullscreenenter"",""1"",""3430""
","
","
","""event"",""trial"",""time""
""fullscreenenter"",""1"",""3430""
","
","","","","","","891","images/horse8.png","","","learning","6","6","1","1","horse","animals","1","0","","good","[6]"
"html-keyboard-response","88","462277","0.0-9.0-2.0-0.7","4008","1","13","Male","approach_avoid_spark_v1","""event"",""trial"",""time""
""fullscreenenter"",""1"",""3430""
","
","
","""event"",""trial"",""time""
""fullscreenenter"",""1"",""3430""
","
","","","","","","null","<div style=""font-size:60px;"">+</div>","null","","fixation","","","","","","","","","","",""
"aa-learning-trial","89","465287","0.0-9.0-2.0-1.7","4008","1","13","Male","approach_avoid_spark_v1","""event"",""trial"",""time""
""fullscreenenter"",""1"",""3430""
","
","
","""event"",""trial"",""time""
""fullscreenenter"",""1"",""3430""
","
","","","","","","1796.6000003814697","images/cow1.png","","","learning","-2","0","0","0","cow","animals","1","0","","bad","[-5]"
"html-keyboard-response","90","465798","0.0-9.0-2.0-0.8","4008","1","13","Male","approach_avoid_spark_v1","""event"",""trial"",""time""
""fullscreenenter"",""1"",""3430""
","
","
","""event"",""trial"",""time""
""fullscreenenter"",""1"",""3430""
","
","","","","","","null","<div style=""font-size:60px;"">+</div>","null","","fixation","","","","","","","","","","",""
"aa-learning-trial","91","468805","0.0-9.0-2.0-1.8","4008","1","13","Male","approach_avoid_spark_v1","""event"",""trial"",""time""
""fullscreenenter"",""1"",""3430""
","
","
","""event"",""trial"",""time""
""fullscreenenter"",""1"",""3430""
","
","","","","","","1395.1999998092651","images/cow5.png","","","learning","-3","0","0","0","cow","animals","1","0","","bad","[-5]"
"html-keyboard-response","92","469308","0.0-9.0-2.0-0.9","4008","1","13","Male","approach_avoid_spark_v1","""event"",""trial"",""time""
""fullscreenenter"",""1"",""3430""
","
","
","""event"",""trial"",""time""
""fullscreenenter"",""1"",""3430""
","
","","","","","","null","<div style=""font-size:60px;"">+</div>","null","","fixation","","","","","","","","","","",""
"aa-learning-trial","93","472317","0.0-9.0-2.0-1.9","4008","1","13","Male","approach_avoid_spark_v1","""event"",""trial"",""time""
""fullscreenenter"",""1"",""3430""
","
","
","""event"",""trial"",""time""
""fullscreenenter"",""1"",""3430""
","
","","","","","","1711.5","images/horse1.png","","","learning","8","0","0","0","horse","animals","1","0","","good","[6]"
"html-keyboard-response","94","472820","0.0-9.0-2.0-0.10","4008","1","13","Male","approach_avoid_spark_v1","""event"",""trial"",""time""
""fullscreenenter"",""1"",""3430""
","
","
","""event"",""trial"",""time""
""fullscreenenter"",""1"",""3430""
","
","","","","","","null","<div style=""font-size:60px;"">+</div>","null","","fixation","","","","","","","","","","",""
"aa-learning-trial","95","475828","0.0-9.0-2.0-1.10","4008","1","13","Male","approach_avoid_spark_v1","""event"",""trial"",""time""
""fullscreenenter"",""1"",""3430""
","
","
","""event"",""trial"",""time""
""fullscreenenter"",""1"",""3430""
","
","","","","","","1188.5999999046326","images/sheep1.png","","","learning","[1]","1","1","1","sheep","animals","1","0","","neutral","0"
"html-keyboard-response","96","476332","0.0-9.0-2.0-0.11","4008","1","13","Male","approach_avoid_spark_v1","""event"",""trial"",""time""
""fullscreenenter"",""1"",""3430""
","
","
","""event"",""trial"",""time""
""fullscreenenter"",""1"",""3430""
","
","","","","","","null","<div style=""font-size:60px;"">+</div>","null","","fixation","","","","","","","","","","",""
"aa-learning-trial","97","479340","0.0-9.0-2.0-1.11","4008","1","13","Male","approach_avoid_spark_v1","""event"",""trial"",""time""
""fullscreenenter"",""1"",""3430""
","
","
","""event"",""trial"",""time""
""fullscreenenter"",""1"",""3430""
","
","","","","","","928.2000002861023","images/sheep3.png","","","learning","[-1]","-1","1","1","sheep","animals","1","0","","neutral","0"
"html-keyboard-response","98","479844","0.0-9.0-2.0-0.12","4008","1","13","Male","approach_avoid_spark_v1","""event"",""trial"",""time""
""fullscreenenter"",""1"",""3430""
","
","
","""event"",""trial"",""time""
""fullscreenenter"",""1"",""3430""
","
","","","","","","null","<div style=""font-size:60px;"">+</div>","null","","fixation","","","","","","","","","","",""
"aa-learning-trial","99","482852","0.0-9.0-2.0-1.12","4008","1","13","Male","approach_avoid_spark_v1","""event"",""trial"",""time""
""fullscreenenter"",""1"",""3430""
","
","
","""event"",""trial"",""time""
""fullscreenenter"",""1"",""3430""
","
","","","","","","1686.2000002861023","images/sheep7.png","","","learning","1","0","0","0","sheep","animals","1","0","","neutral","0"
"html-keyboard-response","100","483356","0.0-9.0-2.0-0.13","4008","1","13","Male","approach_avoid_spark_v1","""event"",""trial"",""time""
""fullscreenenter"",""1"",""3430""
","
","
","""event"",""trial"",""time""
""fullscreenenter"",""1"",""3430""
","
","","","","","","null","<div style=""font-size:60px;"">+</div>","null","","fixation","","","","","","","","","","",""
"aa-learning-trial","101","486364","0.0-9.0-2.0-1.13","4008","1","13","Male","approach_avoid_spark_v1","""event"",""trial"",""time""
""fullscreenenter"",""1"",""3430""
","
","
","""event"",""trial"",""time""
""fullscreenenter"",""1"",""3430""
","
","","","","","","2125.800000190735","images/cow6.png","","","learning","-6","0","0","0","cow","animals","1","0","","bad","[-5]"
"html-keyboard-response","102","486868","0.0-9.0-2.0-0.14","4008","1","13","Male","approach_avoid_spark_v1","""event"",""trial"",""time""
""fullscreenenter"",""1"",""3430""
","
","
","""event"",""trial"",""time""
""fullscreenenter"",""1"",""3430""
","
","","","","","","null","<div style=""font-size:60px;"">+</div>","null","","fixation","","","","","","","","","","",""
"aa-learning-trial","103","489876","0.0-9.0-2.0-1.14","4008","1","13","Male","approach_avoid_spark_v1","""event"",""trial"",""time""
""fullscreenenter"",""1"",""3430""
","
","
","""event"",""trial"",""time""
""fullscreenenter"",""1"",""3430""
","
","","","","","","1621","images/sheep7.png","","","learning","-2","-2","1","1","sheep","animals","1","0","","neutral","0"
"html-keyboard-response","104","490381","0.0-9.0-2.0-0.15","4008","1","13","Male","approach_avoid_spark_v1","""event"",""trial"",""time""
""fullscreenenter"",""1"",""3430""
","
","
","""event"",""trial"",""time""
""fullscreenenter"",""1"",""3430""
","
","","","","","","null","<div style=""font-size:60px;"">+</div>","null","","fixation","","","","","","","","","","",""
"aa-learning-trial","105","493388","0.0-9.0-2.0-1.15","4008","1","13","Male","approach_avoid_spark_v1","""event"",""trial"",""time""
""fullscreenenter"",""1"",""3430""
","
","
","""event"",""trial"",""time""
""fullscreenenter"",""1"",""3430""
","
","","","","","","880.6999998092651","images/cow5.png","","","learning","-1","0","0","0","cow","animals","1","0","","bad","[-5]"
"html-keyboard-response","106","493893","0.0-9.0-2.0-0.16","4008","1","13","Male","approach_avoid_spark_v1","""event"",""trial"",""time""
""fullscreenenter"",""1"",""3430""
","
","
","""event"",""trial"",""time""
""fullscreenenter"",""1"",""3430""
","
","","","","","","null","<div style=""font-size:60px;"">+</div>","null","","fixation","","","","","","","","","","",""
"aa-learning-trial","107","496901","0.0-9.0-2.0-1.16","4008","1","13","Male","approach_avoid_spark_v1","""event"",""trial"",""time""
""fullscreenenter"",""1"",""3430""
","
","
","""event"",""trial"",""time""
""fullscreenenter"",""1"",""3430""
","
","","","","","","700.9000000953674","images/horse8.png","","","learning","6","6","1","1","horse","animals","1","0","","good","[6]"
"html-keyboard-response","108","497404","0.0-9.0-2.0-0.17","4008","1","13","Male","approach_avoid_spark_v1","""event"",""trial"",""time""
""fullscreenenter"",""1"",""3430""
","
","
","""event"",""trial"",""time""
""fullscreenenter"",""1"",""3430""
","
","","","","","","null","<div style=""font-size:60px;"">+</div>","null","","fixation","","","","","","","","","","",""
"aa-learning-trial","109","500413","0.0-9.0-2.0-1.17","4008","1","13","Male","approach_avoid_spark_v1","""event"",""trial"",""time""
""fullscreenenter"",""1"",""3430""
","
","
","""event"",""trial"",""time""
""fullscreenenter"",""1"",""3430""
","
","","","","","","1511.7999997138977","images/sheep7.png","","","learning","-2","0","0","0","sheep","animals","1","0","","neutral","0"
"html-keyboard-response","110","500917","0.0-9.0-2.0-0.18","4008","1","13","Male","approach_avoid_spark_v1","""event"",""trial"",""time""
""fullscreenenter"",""1"",""3430""
","
","
","""event"",""trial"",""time""
""fullscreenenter"",""1"",""3430""
","
","","","","","","null","<div style=""font-size:60px;"">+</div>","null","","fixation","","","","","","","","","","",""
"aa-learning-trial","111","503926","0.0-9.0-2.0-1.18","4008","1","13","Male","approach_avoid_spark_v1","""event"",""trial"",""time""
""fullscreenenter"",""1"",""3430""
","
","
","""event"",""trial"",""time""
""fullscreenenter"",""1"",""3430""
","
","","","","","","1092.4000000953674","images/cow3.png","","","learning","-7","0","0","0","cow","animals","1","0","","bad","[-5]"
"html-keyboard-response","112","504428","0.0-9.0-2.0-0.19","4008","1","13","Male","approach_avoid_spark_v1","""event"",""trial"",""time""
""fullscreenenter"",""1"",""3430""
","
","
","""event"",""trial"",""time""
""fullscreenenter"",""1"",""3430""
","
","","","","","","null","<div style=""font-size:60px;"">+</div>","null","","fixation","","","","","","","","","","",""
"aa-learning-trial","113","507436","0.0-9.0-2.0-1.19","4008","1","13","Male","approach_avoid_spark_v1","""event"",""trial"",""time""
""fullscreenenter"",""1"",""3430""
","
","
","""event"",""trial"",""time""
""fullscreenenter"",""1"",""3430""
","
","","","","","","753","images/cow1.png","","","learning","-4","0","0","0","cow","animals","1","0","","bad","[-5]"
"html-keyboard-response","114","507941","0.0-9.0-2.0-0.20","4008","1","13","Male","approach_avoid_spark_v1","""event"",""trial"",""time""
""fullscreenenter"",""1"",""3430""
","
","
","""event"",""trial"",""time""
""fullscreenenter"",""1"",""3430""
","
","","","","","","null","<div style=""font-size:60px;"">+</div>","null","","fixation","","","","","","","","","","",""
"aa-learning-trial","115","510948","0.0-9.0-2.0-1.20","4008","1","13","Male","approach_avoid_spark_v1","""event"",""trial"",""time""
""fullscreenenter"",""1"",""3430""
","
","
","""event"",""trial"",""time""
""fullscreenenter"",""1"",""3430""
","
","","","","","","1309.0999999046326","images/sheep1.png","","","learning","[1]","1","1","1","sheep","animals","1","0","","neutral","0"
"html-keyboard-response","116","511453","0.0-9.0-2.0-0.21","4008","1","13","Male","approach_avoid_spark_v1","""event"",""trial"",""time""
""fullscreenenter"",""1"",""3430""
","
","
","""event"",""trial"",""time""
""fullscreenenter"",""1"",""3430""
","
","","","","","","null","<div style=""font-size:60px;"">+</div>","null","","fixation","","","","","","","","","","",""
"aa-learning-trial","117","514462","0.0-9.0-2.0-1.21","4008","1","13","Male","approach_avoid_spark_v1","""event"",""trial"",""time""
""fullscreenenter"",""1"",""3430""
","
","
","""event"",""trial"",""time""
""fullscreenenter"",""1"",""3430""
","
","","","","","","717.0999999046326","images/cow1.png","","","learning","-5","0","0","0","cow","animals","1","0","","bad","[-5]"
"html-keyboard-response","118","514964","0.0-9.0-2.0-0.22","4008","1","13","Male","approach_avoid_spark_v1","""event"",""trial"",""time""
""fullscreenenter"",""1"",""3430""
","
","
","""event"",""trial"",""time""
""fullscreenenter"",""1"",""3430""
","
","","","","","","null","<div style=""font-size:60px;"">+</div>","null","","fixation","","","","","","","","","","",""
"aa-learning-trial","119","517972","0.0-9.0-2.0-1.22","4008","1","13","Male","approach_avoid_spark_v1","""event"",""trial"",""time""
""fullscreenenter"",""1"",""3430""
","
","
","""event"",""trial"",""time""
""fullscreenenter"",""1"",""3430""
","
","","","","","","1293.9000000953674","images/sheep4.png","","","learning","1","1","1","1","sheep","animals","1","0","","neutral","0"
"html-keyboard-response","120","518477","0.0-9.0-2.0-0.23","4008","1","13","Male","approach_avoid_spark_v1","""event"",""trial"",""time""
""fullscreenenter"",""1"",""3430""
","
","
","""event"",""trial"",""time""
""fullscreenenter"",""1"",""3430""
","
","","","","","","null","<div style=""font-size:60px;"">+</div>","null","","fixation","","","","","","","","","","",""
"aa-learning-trial","121","521485","0.0-9.0-2.0-1.23","4008","1","13","Male","approach_avoid_spark_v1","""event"",""trial"",""time""
""fullscreenenter"",""1"",""3430""
","
","
","""event"",""trial"",""time""
""fullscreenenter"",""1"",""3430""
","
","","","","","","720.1999998092651","images/horse3.png","","","learning","7","7","1","1","horse","animals","1","0","","good","[6]"
"html-keyboard-response","122","521989","0.0-9.0-2.0-0.24","4008","1","13","Male","approach_avoid_spark_v1","""event"",""trial"",""time""
""fullscreenenter"",""1"",""3430""
","
","
","""event"",""trial"",""time""
""fullscreenenter"",""1"",""3430""
","
","","","","","","null","<div style=""font-size:60px;"">+</div>","null","","fixation","","","","","","","","","","",""
"aa-learning-trial","123","524997","0.0-9.0-2.0-1.24","4008","1","13","Male","approach_avoid_spark_v1","""event"",""trial"",""time""
""fullscreenenter"",""1"",""3430""
","
","
","""event"",""trial"",""time""
""fullscreenenter"",""1"",""3430""
","
","","","","","","764.3000001907349","images/horse3.png","","","learning","5","5","1","1","horse","animals","1","0","","good","[6]"
"html-keyboard-response","124","525501","0.0-9.0-2.0-0.25","4008","1","13","Male","approach_avoid_spark_v1","""event"",""trial"",""time""
""fullscreenenter"",""1"",""3430""
","
","
","""event"",""trial"",""time""
""fullscreenenter"",""1"",""3430""
","
","","","","","","null","<div style=""font-size:60px;"">+</div>","null","","fixation","","","","","","","","","","",""
"aa-learning-trial","125","528508","0.0-9.0-2.0-1.25","4008","1","13","Male","approach_avoid_spark_v1","""event"",""trial"",""time""
""fullscreenenter"",""1"",""3430""
","
","
","""event"",""trial"",""time""
""fullscreenenter"",""1"",""3430""
","
","","","","","","1357.5","images/sheep7.png","","","learning","-1","-1","1","1","sheep","animals","1","0","","neutral","0"
"html-keyboard-response","126","529012","0.0-9.0-2.0-0.26","4008","1","13","Male","approach_avoid_spark_v1","""event"",""trial"",""time""
""fullscreenenter"",""1"",""3430""
","
","
","""event"",""trial"",""time""
""fullscreenenter"",""1"",""3430""
","
","","","","","","null","<div style=""font-size:60px;"">+</div>","null","","fixation","","","","","","","","","","",""
"aa-learning-trial","127","532020","0.0-9.0-2.0-1.26","4008","1","13","Male","approach_avoid_spark_v1","""event"",""trial"",""time""
""fullscreenenter"",""1"",""3430""
","
","
","""event"",""trial"",""time""
""fullscreenenter"",""1"",""3430""
","
","","","","","","1582.6999998092651","images/horse6.png","","","learning","4","4","1","1","horse","animals","1","0","","good","[6]"
"html-keyboard-response","128","532525","0.0-9.0-2.0-0.27","4008","1","13","Male","approach_avoid_spark_v1","""event"",""trial"",""time""
""fullscreenenter"",""1"",""3430""
","
","
","""event"",""trial"",""time""
""fullscreenenter"",""1"",""3430""
","
","","","","","","null","<div style=""font-size:60px;"">+</div>","null","","fixation","","","","","","","","","","",""
"aa-learning-trial","129","535533","0.0-9.0-2.0-1.27","4008","1","13","Male","approach_avoid_spark_v1","""event"",""trial"",""time""
""fullscreenenter"",""1"",""3430""
","
","
","""event"",""trial"",""time""
""fullscreenenter"",""1"",""3430""
","
","","","","","","1536.4000000953674","images/sheep7.png","","","learning","1","0","0","0","sheep","animals","1","0","","neutral","0"
"html-keyboard-response","130","536036","0.0-9.0-2.0-0.28","4008","1","13","Male","approach_avoid_spark_v1","""event"",""trial"",""time""
""fullscreenenter"",""1"",""3430""
","
","
","""event"",""trial"",""time""
""fullscreenenter"",""1"",""3430""
","
","","","","","","null","<div style=""font-size:60px;"">+</div>","null","","fixation","","","","","","","","","","",""
"aa-learning-trial","131","539044","0.0-9.0-2.0-1.28","4008","1","13","Male","approach_avoid_spark_v1","""event"",""trial"",""time""
""fullscreenenter"",""1"",""3430""
","
","
","""event"",""trial"",""time""
""fullscreenenter"",""1"",""3430""
","
","","","","","","1079.9000000953674","images/cow6.png","","","learning","-5","0","0","0","cow","animals","1","0","","bad","[-5]"
"html-keyboard-response","132","539548","0.0-9.0-2.0-0.29","4008","1","13","Male","approach_avoid_spark_v1","""event"",""trial"",""time""
""fullscreenenter"",""1"",""3430""
","
","
","""event"",""trial"",""time""
""fullscreenenter"",""1"",""3430""
","
","","","","","","null","<div style=""font-size:60px;"">+</div>","null","","fixation","","","","","","","","","","",""
"aa-learning-trial","133","542557","0.0-9.0-2.0-1.29","4008","1","13","Male","approach_avoid_spark_v1","""event"",""trial"",""time""
""fullscreenenter"",""1"",""3430""
","
","
","""event"",""trial"",""time""
""fullscreenenter"",""1"",""3430""
","
","","","","","","648.9000000953674","images/horse1.png","","","learning","8","8","1","1","horse","animals","1","0","","good","[6]"
"html-keyboard-response","134","543060","0.0-9.0-2.0-0.30","4008","1","13","Male","approach_avoid_spark_v1","""event"",""trial"",""time""
""fullscreenenter"",""1"",""3430""
","
","
","""event"",""trial"",""time""
""fullscreenenter"",""1"",""3430""
","
","","","","","","null","<div style=""font-size:60px;"">+</div>","null","","fixation","","","","","","","","","","",""
"aa-learning-trial","135","546070","0.0-9.0-2.0-1.30","4008","1","13","Male","approach_avoid_spark_v1","""event"",""trial"",""time""
""fullscreenenter"",""1"",""3430""
","
","
","""event"",""trial"",""time""
""fullscreenenter"",""1"",""3430""
","
","","","","","","614.3999996185303","images/horse8.png","","","learning","5","5","1","1","horse","animals","1","0","","good","[6]"
"html-keyboard-response","136","546572","0.0-9.0-2.0-0.31","4008","1","13","Male","approach_avoid_spark_v1","""event"",""trial"",""time""
""fullscreenenter"",""1"",""3430""
","
","
","""event"",""trial"",""time""
""fullscreenenter"",""1"",""3430""
","
","","","","","","null","<div style=""font-size:60px;"">+</div>","null","","fixation","","","","","","","","","","",""
"aa-learning-trial","137","549580","0.0-9.0-2.0-1.31","4008","1","13","Male","approach_avoid_spark_v1","""event"",""trial"",""time""
""fullscreenenter"",""1"",""3430""
","
","
","""event"",""trial"",""time""
""fullscreenenter"",""1"",""3430""
","
","","","","","","1079.1000003814697","images/sheep3.png","","","learning","-3","0","0","0","sheep","animals","1","0","","neutral","0"
"html-keyboard-response","138","550084","0.0-9.0-2.0-0.32","4008","1","13","Male","approach_avoid_spark_v1","""event"",""trial"",""time""
""fullscreenenter"",""1"",""3430""
","
","
","""event"",""trial"",""time""
""fullscreenenter"",""1"",""3430""
","
","","","","","","null","<div style=""font-size:60px;"">+</div>","null","","fixation","","","","","","","","","","",""
"aa-learning-trial","139","553093","0.0-9.0-2.0-1.32","4008","1","13","Male","approach_avoid_spark_v1","""event"",""trial"",""time""
""fullscreenenter"",""1"",""3430""
","
","
","""event"",""trial"",""time""
""fullscreenenter"",""1"",""3430""
","
","","","","","","703.7000002861023","images/horse1.png","","","learning","4","4","1","1","horse","animals","1","0","","good","[6]"
"html-keyboard-response","140","553596","0.0-9.0-2.0-0.33","4008","1","13","Male","approach_avoid_spark_v1","""event"",""trial"",""time""
""fullscreenenter"",""1"",""3430""
","
","
","""event"",""trial"",""time""
""fullscreenenter"",""1"",""3430""
","
","","","","","","null","<div style=""font-size:60px;"">+</div>","null","","fixation","","","","","","","","","","",""
"aa-learning-trial","141","556605","0.0-9.0-2.0-1.33","4008","1","13","Male","approach_avoid_spark_v1","""event"",""trial"",""time""
""fullscreenenter"",""1"",""3430""
","
","
","""event"",""trial"",""time""
""fullscreenenter"",""1"",""3430""
","
","","","","","","790.8000001907349","images/horse8.png","","","learning","7","7","1","1","horse","animals","1","0","","good","[6]"
"html-keyboard-response","142","557108","0.0-9.0-2.0-0.34","4008","1","13","Male","approach_avoid_spark_v1","""event"",""trial"",""time""
""fullscreenenter"",""1"",""3430""
","
","
","""event"",""trial"",""time""
""fullscreenenter"",""1"",""3430""
","
","","","","","","null","<div style=""font-size:60px;"">+</div>","null","","fixation","","","","","","","","","","",""
"aa-learning-trial","143","560116","0.0-9.0-2.0-1.34","4008","1","13","Male","approach_avoid_spark_v1","""event"",""trial"",""time""
""fullscreenenter"",""1"",""3430""
","
","
","""event"",""trial"",""time""
""fullscreenenter"",""1"",""3430""
","
","","","","","","1016.6999998092651","images/sheep7.png","","","learning","2","2","1","1","sheep","animals","1","0","","neutral","0"
"html-keyboard-response","144","560621","0.0-9.0-2.0-0.35","4008","1","13","Male","approach_avoid_spark_v1","""event"",""trial"",""time""
""fullscreenenter"",""1"",""3430""
","
","
","""event"",""trial"",""time""
""fullscreenenter"",""1"",""3430""
","
","","","","","","null","<div style=""font-size:60px;"">+</div>","null","","fixation","","","","","","","","","","",""
"aa-learning-trial","145","563628","0.0-9.0-2.0-1.35","4008","1","13","Male","approach_avoid_spark_v1","""event"",""trial"",""time""
""fullscreenenter"",""1"",""3430""
","
","
","""event"",""trial"",""time""
""fullscreenenter"",""1"",""3430""
","
","","","","","","813.6999998092651","images/cow5.png","","","learning","-5","0","0","0","cow","animals","1","0","","bad","[-5]"
"html-keyboard-response","146","564132","0.0-9.0-2.0-0.36","4008","1","13","Male","approach_avoid_spark_v1","""event"",""trial"",""time""
""fullscreenenter"",""1"",""3430""
","
","
","""event"",""trial"",""time""
""fullscreenenter"",""1"",""3430""
","
","","","","","","null","<div style=""font-size:60px;"">+</div>","null","","fixation","","","","","","","","","","",""
"aa-learning-trial","147","567140","0.0-9.0-2.0-1.36","4008","1","13","Male","approach_avoid_spark_v1","""event"",""trial"",""time""
""fullscreenenter"",""1"",""3430""
","
","
","""event"",""trial"",""time""
""fullscreenenter"",""1"",""3430""
","
","","","","","","725.7000002861023","images/cow1.png","","","learning","-7","0","0","0","cow","animals","1","0","","bad","[-5]"
"html-keyboard-response","148","567644","0.0-9.0-2.0-0.37","4008","1","13","Male","approach_avoid_spark_v1","""event"",""trial"",""time""
""fullscreenenter"",""1"",""3430""
","
","
","""event"",""trial"",""time""
""fullscreenenter"",""1"",""3430""
","
","","","","","","null","<div style=""font-size:60px;"">+</div>","null","","fixation","","","","","","","","","","",""
"aa-learning-trial","149","570653","0.0-9.0-2.0-1.37","4008","1","13","Male","approach_avoid_spark_v1","""event"",""trial"",""time""
""fullscreenenter"",""1"",""3430""
","
","
","""event"",""trial"",""time""
""fullscreenenter"",""1"",""3430""
","
","","","","","","670.6999998092651","images/horse1.png","","","learning","7","7","1","1","horse","animals","1","0","","good","[6]"
"html-keyboard-response","150","571162","0.0-9.0-2.0-0.38","4008","1","13","Male","approach_avoid_spark_v1","""event"",""trial"",""time""
""fullscreenenter"",""1"",""3430""
","
","
","""event"",""trial"",""time""
""fullscreenenter"",""1"",""3430""
","
","","","","","","null","<div style=""font-size:60px;"">+</div>","null","","fixation","","","","","","","","","","",""
"aa-learning-trial","151","574173","0.0-9.0-2.0-1.38","4008","1","13","Male","approach_avoid_spark_v1","""event"",""trial"",""time""
""fullscreenenter"",""1"",""3430""
","
","
","""event"",""trial"",""time""
""fullscreenenter"",""1"",""3430""
","
","","","","","","873.9000000953674","images/cow5.png","","","learning","-5","0","0","0","cow","animals","1","0","","bad","[-5]"
"html-keyboard-response","152","574676","0.0-9.0-2.0-0.39","4008","1","13","Male","approach_avoid_spark_v1","""event"",""trial"",""time""
""fullscreenenter"",""1"",""3430""
","
","
","""event"",""trial"",""time""
""fullscreenenter"",""1"",""3430""
","
","","","","","","null","<div style=""font-size:60px;"">+</div>","null","","fixation","","","","","","","","","","",""
"aa-learning-trial","153","577685","0.0-9.0-2.0-1.39","4008","1","13","Male","approach_avoid_spark_v1","""event"",""trial"",""time""
""fullscreenenter"",""1"",""3430""
","
","
","""event"",""trial"",""time""
""fullscreenenter"",""1"",""3430""
","
","","","","","","2039.8000001907349","images/cow1.png","","","learning","-4","0","0","0","cow","animals","1","0","","bad","[-5]"
"html-keyboard-response","154","578189","0.0-9.0-2.0-0.40","4008","1","13","Male","approach_avoid_spark_v1","""event"",""trial"",""time""
""fullscreenenter"",""1"",""3430""
","
","
","""event"",""trial"",""time""
""fullscreenenter"",""1"",""3430""
","
","","","","","","null","<div style=""font-size:60px;"">+</div>","null","","fixation","","","","","","","","","","",""
"aa-learning-trial","155","581196","0.0-9.0-2.0-1.40","4008","1","13","Male","approach_avoid_spark_v1","""event"",""trial"",""time""
""fullscreenenter"",""1"",""3430""
","
","
","""event"",""trial"",""time""
""fullscreenenter"",""1"",""3430""
","
","","","","","","1823","images/sheep6.png","","","learning","4","4","1","1","sheep","animals","1","0","","neutral","0"
"html-keyboard-response","156","581699","0.0-9.0-2.0-0.41","4008","1","13","Male","approach_avoid_spark_v1","""event"",""trial"",""time""
""fullscreenenter"",""1"",""3430""
","
","
","""event"",""trial"",""time""
""fullscreenenter"",""1"",""3430""
","
","","","","","","null","<div style=""font-size:60px;"">+</div>","null","","fixation","","","","","","","","","","",""
"aa-learning-trial","157","584708","0.0-9.0-2.0-1.41","4008","1","13","Male","approach_avoid_spark_v1","""event"",""trial"",""time""
""fullscreenenter"",""1"",""3430""
","
","
","""event"",""trial"",""time""
""fullscreenenter"",""1"",""3430""
","
","","","","","","926.0999999046326","images/horse8.png","","","learning","6","6","1","1","horse","animals","1","0","","good","[6]"
"html-keyboard-response","158","585213","0.0-9.0-2.0-0.42","4008","1","13","Male","approach_avoid_spark_v1","""event"",""trial"",""time""
""fullscreenenter"",""1"",""3430""
","
","
","""event"",""trial"",""time""
""fullscreenenter"",""1"",""3430""
","
","","","","","","null","<div style=""font-size:60px;"">+</div>","null","","fixation","","","","","","","","","","",""
"aa-learning-trial","159","588220","0.0-9.0-2.0-1.42","4008","1","13","Male","approach_avoid_spark_v1","""event"",""trial"",""time""
""fullscreenenter"",""1"",""3430""
","
","
","""event"",""trial"",""time""
""fullscreenenter"",""1"",""3430""
","
","","","","","","1317.5","images/sheep3.png","","","learning","2","0","0","0","sheep","animals","1","0","","neutral","0"
"html-keyboard-response","160","588725","0.0-9.0-2.0-0.43","4008","1","13","Male","approach_avoid_spark_v1","""event"",""trial"",""time""
""fullscreenenter"",""1"",""3430""
","
","
","""event"",""trial"",""time""
""fullscreenenter"",""1"",""3430""
","
","","","","","","null","<div style=""font-size:60px;"">+</div>","null","","fixation","","","","","","","","","","",""
"aa-learning-trial","161","591732","0.0-9.0-2.0-1.43","4008","1","13","Male","approach_avoid_spark_v1","""event"",""trial"",""time""
""fullscreenenter"",""1"",""3430""
","
","
","""event"",""trial"",""time""
""fullscreenenter"",""1"",""3430""
","
","","","","","","1101.2999997138977","images/cow2.png","","","learning","-6","0","0","0","cow","animals","1","0","","bad","[-5]"
"html-keyboard-response","162","592236","0.0-9.0-2.0-0.44","4008","1","13","Male","approach_avoid_spark_v1","""event"",""trial"",""time""
""fullscreenenter"",""1"",""3430""
","
","
","""event"",""trial"",""time""
""fullscreenenter"",""1"",""3430""
","
","","","","","","null","<div style=""font-size:60px;"">+</div>","null","","fixation","","","","","","","","","","",""
"aa-learning-trial","163","595244","0.0-9.0-2.0-1.44","4008","1","13","Male","approach_avoid_spark_v1","""event"",""trial"",""time""
""fullscreenenter"",""1"",""3430""
","
","
","""event"",""trial"",""time""
""fullscreenenter"",""1"",""3430""
","
","","","","","","678.5","images/cow6.png","","","learning","-5","0","0","0","cow","animals","1","0","","bad","[-5]"
"html-keyboard-response","164","595748","0.0-9.0-2.0-0.45","4008","1","13","Male","approach_avoid_spark_v1","""event"",""trial"",""time""
""fullscreenenter"",""1"",""3430""
","
","
","""event"",""trial"",""time""
""fullscreenenter"",""1"",""3430""
","
","","","","","","null","<div style=""font-size:60px;"">+</div>","null","","fixation","","","","","","","","","","",""
"aa-learning-trial","165","598756","0.0-9.0-2.0-1.45","4008","1","13","Male","approach_avoid_spark_v1","""event"",""trial"",""time""
""fullscreenenter"",""1"",""3430""
","
","
","""event"",""trial"",""time""
""fullscreenenter"",""1"",""3430""
","
","","","","","","720.8000001907349","images/horse1.png","","","learning","6","6","1","1","horse","animals","1","0","","good","[6]"
"html-keyboard-response","166","599260","0.0-9.0-2.0-0.46","4008","1","13","Male","approach_avoid_spark_v1","""event"",""trial"",""time""
""fullscreenenter"",""1"",""3430""
","
","
","""event"",""trial"",""time""
""fullscreenenter"",""1"",""3430""
","
","","","","","","null","<div style=""font-size:60px;"">+</div>","null","","fixation","","","","","","","","","","",""
"aa-learning-trial","167","602268","0.0-9.0-2.0-1.46","4008","1","13","Male","approach_avoid_spark_v1","""event"",""trial"",""time""
""fullscreenenter"",""1"",""3430""
","
","
","""event"",""trial"",""time""
""fullscreenenter"",""1"",""3430""
","
","","","","","","848.4000000953674","images/cow5.png","","","learning","-7","0","0","0","cow","animals","1","0","","bad","[-5]"
"html-keyboard-response","168","602772","0.0-9.0-2.0-0.47","4008","1","13","Male","approach_avoid_spark_v1","""event"",""trial"",""time""
""fullscreenenter"",""1"",""3430""
","
","
","""event"",""trial"",""time""
""fullscreenenter"",""1"",""3430""
","
","","","","","","null","<div style=""font-size:60px;"">+</div>","null","","fixation","","","","","","","","","","",""
"aa-learning-trial","169","605780","0.0-9.0-2.0-1.47","4008","1","13","Male","approach_avoid_spark_v1","""event"",""trial"",""time""
""fullscreenenter"",""1"",""3430""
","
","
","""event"",""trial"",""time""
""fullscreenenter"",""1"",""3430""
","
","","","","","","832.6999998092651","images/sheep1.png","","","learning","-2","-2","1","1","sheep","animals","1","0","","neutral","0"
"html-keyboard-response","170","606284","0.0-9.0-2.0-0.48","4008","1","13","Male","approach_avoid_spark_v1","""event"",""trial"",""time""
""fullscreenenter"",""1"",""3430""
","
","
","""event"",""trial"",""time""
""fullscreenenter"",""1"",""3430""
","
","","","","","","null","<div style=""font-size:60px;"">+</div>","null","","fixation","","","","","","","","","","",""
"aa-learning-trial","171","609292","0.0-9.0-2.0-1.48","4008","1","13","Male","approach_avoid_spark_v1","""event"",""trial"",""time""
""fullscreenenter"",""1"",""3430""
","
","
","""event"",""trial"",""time""
""fullscreenenter"",""1"",""3430""
","
","","","","","","864.4000000953674","images/sheep3.png","","","learning","1","0","0","0","sheep","animals","1","0","","neutral","0"
"html-keyboard-response","172","609797","0.0-9.0-2.0-0.49","4008","1","13","Male","approach_avoid_spark_v1","""event"",""trial"",""time""
""fullscreenenter"",""1"",""3430""
","
","
","""event"",""trial"",""time""
""fullscreenenter"",""1"",""3430""
","
","","","","","","null","<div style=""font-size:60px;"">+</div>","null","","fixation","","","","","","","","","","",""
"aa-learning-trial","173","612804","0.0-9.0-2.0-1.49","4008","1","13","Male","approach_avoid_spark_v1","""event"",""trial"",""time""
""fullscreenenter"",""1"",""3430""
","
","
","""event"",""trial"",""time""
""fullscreenenter"",""1"",""3430""
","
","","","","","","744.7000002861023","images/sheep3.png","","","learning","-1","0","0","0","sheep","animals","1","0","","neutral","0"
"html-keyboard-response","174","613320","0.0-9.0-2.0-0.50","4008","1","13","Male","approach_avoid_spark_v1","""event"",""trial"",""time""
""fullscreenenter"",""1"",""3430""
","
","
","""event"",""trial"",""time""
""fullscreenenter"",""1"",""3430""
","
","","","","","","null","<div style=""font-size:60px;"">+</div>","null","","fixation","","","","","","","","","","",""
"aa-learning-trial","175","616325","0.0-9.0-2.0-1.50","4008","1","13","Male","approach_avoid_spark_v1","""event"",""trial"",""time""
""fullscreenenter"",""1"",""3430""
","
","
","""event"",""trial"",""time""
""fullscreenenter"",""1"",""3430""
","
","","","","","","1179.0999999046326","images/horse5.png","","","learning","7","7","1","1","horse","animals","1","0","","good","[6]"
"html-button-response","176","620059","0.0-9.0-3.0","4008","1","13","Male","approach_avoid_spark_v1","""event"",""trial"",""time""
""fullscreenenter"",""1"",""3430""
","
","
","""event"",""trial"",""time""
""fullscreenenter"",""1"",""3430""
","
","","","","","","3733.5","<p> You have completed the round! <p> In this round, you earned 89 points! </p>","0","","break","","","","","","","","","","",""
"html-button-response","177","621011","0.0-10.0","4008","1","13","Male","approach_avoid_spark_v1","""event"",""trial"",""time""
""fullscreenenter"",""1"",""3430""
","
","
","""event"",""trial"",""time""
""fullscreenenter"",""1"",""3430""
","
","","","","","","950.5999999046326","<p> Now it's time to play another round. </p>","0","","transition_screen","","","","","","","","","","",""
"preload","178","621127","0.0-11.0-0.0","4008","1","13","Male","approach_avoid_spark_v1","""event"",""trial"",""time""
""fullscreenenter"",""1"",""3430""
","
","
","""event"",""trial"",""time""
""fullscreenenter"",""1"",""3430""
","
","true","false","[]","[]","[]","","","","","","","","","","","","","","","",""
"learning-instructions","179","627899","0.0-11.0-1.0-0.0","4008","1","13","Male","approach_avoid_spark_v1","""event"",""trial"",""time""
""fullscreenenter"",""1"",""3430""
","
","
","""event"",""trial"",""time""
""fullscreenenter"",""1"",""3430""
","
","","","","","","1967.1000003814697","<p> Your goal in this round is to decorate your friend's new house with furniture. </p></div>","","0","instructions","","","","","","","","","","",""
"learning-instructions","180","639635","0.0-11.0-1.0-0.1","4008","1","13","Male","approach_avoid_spark_v1","""event"",""trial"",""time""
""fullscreenenter"",""1"",""3430""
","
","
","""event"",""trial"",""time""
""fullscreenenter"",""1"",""3430""
","
","","","","","","2292.5999999046326","<p> Your friend likes some pieces of furniture but not others.  </p><p> On each turn, you will see a piece of furniture.   </p><p> You need to decide whether to put it in your friend's house or not.  </p>","","0","instructions","","","","","","","","","","",""
"learning-instructions","181","646172","0.0-11.0-1.0-0.2","4008","1","13","Male","approach_avoid_spark_v1","""event"",""trial"",""time""
""fullscreenenter"",""1"",""3430""
","
","
","""event"",""trial"",""time""
""fullscreenenter"",""1"",""3430""
","
","","","","","","1220.7999997138977","<p> You can put the furniture in her house by pressing 1 and deliver it elsewhere by pressing 0. </p><br><div class=""choice-instructions-grid""> <div class=""choice-option""><img src=""images/approach.png"" class=""choice-option-img"" stage=""instructions"" position=""0"" ><div class=""choice-option-text""> Press ""1."" </div></div><div class=""choice-option""><img src=""images/avoid.png"" class=""choice-option-img"" stage=""instructions"" position=""1"" ><div class=""choice-option-text""> Press ""0."" </div></div>","","0","instructions","","","","","","","","","","",""
"learning-instructions","182","655075","0.0-11.0-1.0-0.3","4008","1","13","Male","approach_avoid_spark_v1","""event"",""trial"",""time""
""fullscreenenter"",""1"",""3430""
","
","
","""event"",""trial"",""time""
""fullscreenenter"",""1"",""3430""
","
","","","","","","603.3000001907349","<p> If you decorate your friend's house with furniture she likes, she will be happy! </p><p> But if you give her furniture that she does not like, she will be annoyed. </p>","","0","instructions","","","","","","","","","","",""
"learning-instructions","183","670098","0.0-11.0-1.0-0.4","4008","1","13","Male","approach_avoid_spark_v1","""event"",""trial"",""time""
""fullscreenenter"",""1"",""3430""
","
","
","""event"",""trial"",""time""
""fullscreenenter"",""1"",""3430""
","
","","","","","","3336.800000190735","<p> You will earn points based on how you made your friend feel. </p><p> If you made her happy, you will WIN anywhere from 1 - 9 points, </p><p> but if you made her annoyed you will LOSE anywhere from 1 - 9 points. </p>","","0","instructions","","","","","","","","","","",""
"learning-instructions","184","685250","0.0-11.0-1.0-0.5","4008","1","13","Male","approach_avoid_spark_v1","""event"",""trial"",""time""
""fullscreenenter"",""1"",""3430""
","
","
","""event"",""trial"",""time""
""fullscreenenter"",""1"",""3430""
","
","","","","","","8498.400000095367","<p> You will see how many points you won or lost in the center of the screen. </p><p> Here is what you would see if you won 5 points: </p><p style=""color:green;font-size:50px;font-weight:bolder"">5</p>","","0","instructions","","","","","","","","","","",""
"learning-instructions","185","689258","0.0-11.0-1.0-0.6","4008","1","13","Male","approach_avoid_spark_v1","""event"",""trial"",""time""
""fullscreenenter"",""1"",""3430""
","
","
","""event"",""trial"",""time""
""fullscreenenter"",""1"",""3430""
","
","","","","","","1177.5999999046326","<p> And here is what you would see if you lost 3 points: </p><p style=""color:red;font-size:50px;font-weight:bolder"">-3</p>","","0","instructions","","","","","","","","","","",""
"learning-instructions","186","707690","0.0-11.0-1.0-0.7","4008","1","13","Male","approach_avoid_spark_v1","""event"",""trial"",""time""
""fullscreenenter"",""1"",""3430""
","
","
","""event"",""trial"",""time""
""fullscreenenter"",""1"",""3430""
","
","","","","","","1368.8000001907349","<p> Some pieces of furniture will make her feel very happy or very annoyed. </p><p> These pieces of furniture will make you win or lose LOTS of points. </p><p> Other pieces of furniture will only make her feel a little happy or a little annoyed. </p><p> These pieces of furniture will make you win or lose small amounts of points. </p>","","0","instructions","","","","","","","","","","",""
"learning-instructions","187","721482","0.0-11.0-1.0-0.8","4008","1","13","Male","approach_avoid_spark_v1","""event"",""trial"",""time""
""fullscreenenter"",""1"",""3430""
","
","
","""event"",""trial"",""time""
""fullscreenenter"",""1"",""3430""
","
","","","","","","971.5","<p> If you choose to deliver a piece of furniture elsewhere, you will not win or lose any points. </p><p>  However, in the center of the screen, you will see the number of points you WOULD HAVE won or lost if you had given the furniture to your friend. </p>","","0","instructions","","","","","","","","","","",""
"learning-instructions","188","733340","0.0-11.0-1.0-0.9","4008","1","13","Male","approach_avoid_spark_v1","""event"",""trial"",""time""
""fullscreenenter"",""1"",""3430""
","
","
","""event"",""trial"",""time""
""fullscreenenter"",""1"",""3430""
","
","","","","","","819.1000003814697","<p> Here is what you might see if you did not give a piece of furniture to your friend that would have made her happy: </p><p style=""color:grey; font-size:50px; display: inline-block; border-spacing: 15px; border-width:3px; border-style:solid; border-color:red"">  &nbsp; 6 &nbsp; </p><p> Remember, in this case, you would not win or lose ANY points because you did not give her the furniture.  </p>","","0","instructions","","","","","","","","","","",""
"learning-instructions","189","741746","0.0-11.0-1.0-0.10","4008","1","13","Male","approach_avoid_spark_v1","""event"",""trial"",""time""
""fullscreenenter"",""1"",""3430""
","
","
","""event"",""trial"",""time""
""fullscreenenter"",""1"",""3430""
","
","","","","","","1085","<p> Try to make the best choice for each piece of furniture because </p><p> at the end of the game, you will earn bonus money based on how many points you earned. </p>","","0","instructions","","","","","","","","","","",""
"learning-instructions","190","750731","0.0-11.0-1.0-0.11","4008","1","13","Male","approach_avoid_spark_v1","""event"",""trial"",""time""
""fullscreenenter"",""1"",""3430""
","
","
","""event"",""trial"",""time""
""fullscreenenter"",""1"",""3430""
","
","","","","","","779.4000000953674","<p> You will have 3 seconds to make each choice. Try to respond before time runs out! </p><p> You will lose 5 points each time you do not make a response. </p>","","0","instructions","","","","","","","","","","",""
"html-keyboard-response","191","751359","0.0-11.0-2.0-0.0","4008","1","13","Male","approach_avoid_spark_v1","""event"",""trial"",""time""
""fullscreenenter"",""1"",""3430""
","
","
","""event"",""trial"",""time""
""fullscreenenter"",""1"",""3430""
","
","","","","","","null","<div style=""font-size:60px;"">+</div>","null","","fixation","","","","","","","","","","",""
"aa-learning-trial","192","754366","0.0-11.0-2.0-1.0","4008","1","13","Male","approach_avoid_spark_v1","""event"",""trial"",""time""
""fullscreenenter"",""1"",""3430""
","
","
","""event"",""trial"",""time""
""fullscreenenter"",""1"",""3430""
","
","","","","","","1762.4000000953674","images/bed5.png","","","learning","2","0","0","0","bed","furniture","2","1","","bad","[-3]"
"html-keyboard-response","193","754878","0.0-11.0-2.0-0.1","4008","1","13","Male","approach_avoid_spark_v1","""event"",""trial"",""time""
""fullscreenenter"",""1"",""3430""
","
","
","""event"",""trial"",""time""
""fullscreenenter"",""1"",""3430""
","
","","","","","","null","<div style=""font-size:60px;"">+</div>","null","","fixation","","","","","","","","","","",""
"aa-learning-trial","194","757889","0.0-11.0-2.0-1.1","4008","1","13","Male","approach_avoid_spark_v1","""event"",""trial"",""time""
""fullscreenenter"",""1"",""3430""
","
","
","""event"",""trial"",""time""
""fullscreenenter"",""1"",""3430""
","
","","","","","","1317.4000000953674","images/chair2.png","","","learning","-7","0","0","0","chair","furniture","2","1","","neutral","0"
"html-keyboard-response","195","758405","0.0-11.0-2.0-0.2","4008","1","13","Male","approach_avoid_spark_v1","""event"",""trial"",""time""
""fullscreenenter"",""1"",""3430""
","
","
","""event"",""trial"",""time""
""fullscreenenter"",""1"",""3430""
","
","","","","","","null","<div style=""font-size:60px;"">+</div>","null","","fixation","","","","","","","","","","",""
"aa-learning-trial","196","761413","0.0-11.0-2.0-1.2","4008","1","13","Male","approach_avoid_spark_v1","""event"",""trial"",""time""
""fullscreenenter"",""1"",""3430""
","
","
","""event"",""trial"",""time""
""fullscreenenter"",""1"",""3430""
","
","","","","","","956.2999997138977","images/bed8.png","","","learning","-3","-3","1","1","bed","furniture","2","1","","bad","[-3]"
"html-keyboard-response","197","761928","0.0-11.0-2.0-0.3","4008","1","13","Male","approach_avoid_spark_v1","""event"",""trial"",""time""
""fullscreenenter"",""1"",""3430""
","
","
","""event"",""trial"",""time""
""fullscreenenter"",""1"",""3430""
","
","","","","","","null","<div style=""font-size:60px;"">+</div>","null","","fixation","","","","","","","","","","",""
"aa-learning-trial","198","764935","0.0-11.0-2.0-1.3","4008","1","13","Male","approach_avoid_spark_v1","""event"",""trial"",""time""
""fullscreenenter"",""1"",""3430""
","
","
","""event"",""trial"",""time""
""fullscreenenter"",""1"",""3430""
","
","","","","","","1011.1999998092651","images/bed5.png","","","learning","2","2","1","1","bed","furniture","2","1","","bad","[-3]"
"html-keyboard-response","199","765449","0.0-11.0-2.0-0.4","4008","1","13","Male","approach_avoid_spark_v1","""event"",""trial"",""time""
""fullscreenenter"",""1"",""3430""
","
","
","""event"",""trial"",""time""
""fullscreenenter"",""1"",""3430""
","
","","","","","","null","<div style=""font-size:60px;"">+</div>","null","","fixation","","","","","","","","","","",""
"aa-learning-trial","200","768460","0.0-11.0-2.0-1.4","4008","1","13","Male","approach_avoid_spark_v1","""event"",""trial"",""time""
""fullscreenenter"",""1"",""3430""
","
","
","""event"",""trial"",""time""
""fullscreenenter"",""1"",""3430""
","
","","","","","","1189.0999999046326","images/table4.png","","","learning","-6","0","0","0","table","furniture","2","1","","good","[6]"
"html-keyboard-response","201","768972","0.0-11.0-2.0-0.5","4008","1","13","Male","approach_avoid_spark_v1","""event"",""trial"",""time""
""fullscreenenter"",""1"",""3430""
","
","
","""event"",""trial"",""time""
""fullscreenenter"",""1"",""3430""
","
","","","","","","null","<div style=""font-size:60px;"">+</div>","null","","fixation","","","","","","","","","","",""
"aa-learning-trial","202","771994","0.0-11.0-2.0-1.5","4008","1","13","Male","approach_avoid_spark_v1","""event"",""trial"",""time""
""fullscreenenter"",""1"",""3430""
","
","
","""event"",""trial"",""time""
""fullscreenenter"",""1"",""3430""
","
","","","","","","1110.4000000953674","images/table7.png","","","learning","-4","0","0","0","table","furniture","2","1","","good","[6]"
"html-keyboard-response","203","772507","0.0-11.0-2.0-0.6","4008","1","13","Male","approach_avoid_spark_v1","""event"",""trial"",""time""
""fullscreenenter"",""1"",""3430""
","
","
","""event"",""trial"",""time""
""fullscreenenter"",""1"",""3430""
","
","","","","","","null","<div style=""font-size:60px;"">+</div>","null","","fixation","","","","","","","","","","",""
"aa-learning-trial","204","775516","0.0-11.0-2.0-1.6","4008","1","13","Male","approach_avoid_spark_v1","""event"",""trial"",""time""
""fullscreenenter"",""1"",""3430""
","
","
","""event"",""trial"",""time""
""fullscreenenter"",""1"",""3430""
","
","","","","","","864","images/bed4.png","","","learning","5","5","1","1","bed","furniture","2","1","","bad","[-3]"
"html-keyboard-response","205","776031","0.0-11.0-2.0-0.7","4008","1","13","Male","approach_avoid_spark_v1","""event"",""trial"",""time""
""fullscreenenter"",""1"",""3430""
","
","
","""event"",""trial"",""time""
""fullscreenenter"",""1"",""3430""
","
","","","","","","null","<div style=""font-size:60px;"">+</div>","null","","fixation","","","","","","","","","","",""
"aa-learning-trial","206","779051","0.0-11.0-2.0-1.7","4008","1","13","Male","approach_avoid_spark_v1","""event"",""trial"",""time""
""fullscreenenter"",""1"",""3430""
","
","
","""event"",""trial"",""time""
""fullscreenenter"",""1"",""3430""
","
","","","","","","955.2999997138977","images/table8.png","","","learning","4","0","0","0","table","furniture","2","1","","good","[6]"
"html-keyboard-response","207","779562","0.0-11.0-2.0-0.8","4008","1","13","Male","approach_avoid_spark_v1","""event"",""trial"",""time""
""fullscreenenter"",""1"",""3430""
","
","
","""event"",""trial"",""time""
""fullscreenenter"",""1"",""3430""
","
","","","","","","null","<div style=""font-size:60px;"">+</div>","null","","fixation","","","","","","","","","","",""
"aa-learning-trial","208","782572","0.0-11.0-2.0-1.8","4008","1","13","Male","approach_avoid_spark_v1","""event"",""trial"",""time""
""fullscreenenter"",""1"",""3430""
","
","
","""event"",""trial"",""time""
""fullscreenenter"",""1"",""3430""
","
","","","","","","1040.9000000953674","images/bed8.png","","","learning","-3","-3","1","1","bed","furniture","2","1","","bad","[-3]"
"html-keyboard-response","209","783076","0.0-11.0-2.0-0.9","4008","1","13","Male","approach_avoid_spark_v1","""event"",""trial"",""time""
""fullscreenenter"",""1"",""3430""
","
","
","""event"",""trial"",""time""
""fullscreenenter"",""1"",""3430""
","
","","","","","","null","<div style=""font-size:60px;"">+</div>","null","","fixation","","","","","","","","","","",""
"aa-learning-trial","210","786084","0.0-11.0-2.0-1.9","4008","1","13","Male","approach_avoid_spark_v1","""event"",""trial"",""time""
""fullscreenenter"",""1"",""3430""
","
","
","""event"",""trial"",""time""
""fullscreenenter"",""1"",""3430""
","
","","","","","","953.0999999046326","images/chair2.png","","","learning","-7","0","0","0","chair","furniture","2","1","","neutral","0"
"html-keyboard-response","211","786587","0.0-11.0-2.0-0.10","4008","1","13","Male","approach_avoid_spark_v1","""event"",""trial"",""time""
""fullscreenenter"",""1"",""3430""
","
","
","""event"",""trial"",""time""
""fullscreenenter"",""1"",""3430""
","
","","","","","","null","<div style=""font-size:60px;"">+</div>","null","","fixation","","","","","","","","","","",""
"aa-learning-trial","212","789596","0.0-11.0-2.0-1.10","4008","1","13","Male","approach_avoid_spark_v1","""event"",""trial"",""time""
""fullscreenenter"",""1"",""3430""
","
","
","""event"",""trial"",""time""
""fullscreenenter"",""1"",""3430""
","
","","","","","","822.3000001907349","images/table4.png","","","learning","-6","0","0","0","table","furniture","2","1","","good","[6]"
"html-keyboard-response","213","790100","0.0-11.0-2.0-0.11","4008","1","13","Male","approach_avoid_spark_v1","""event"",""trial"",""time""
""fullscreenenter"",""1"",""3430""
","
","
","""event"",""trial"",""time""
""fullscreenenter"",""1"",""3430""
","
","","","","","","null","<div style=""font-size:60px;"">+</div>","null","","fixation","","","","","","","","","","",""
"aa-learning-trial","214","793115","0.0-11.0-2.0-1.11","4008","1","13","Male","approach_avoid_spark_v1","""event"",""trial"",""time""
""fullscreenenter"",""1"",""3430""
","
","
","""event"",""trial"",""time""
""fullscreenenter"",""1"",""3430""
","
","","","","","","1245.4000000953674","images/chair7.png","","","learning","9","0","0","0","chair","furniture","2","1","","neutral","0"
"html-keyboard-response","215","793621","0.0-11.0-2.0-0.12","4008","1","13","Male","approach_avoid_spark_v1","""event"",""trial"",""time""
""fullscreenenter"",""1"",""3430""
","
","
","""event"",""trial"",""time""
""fullscreenenter"",""1"",""3430""
","
","","","","","","null","<div style=""font-size:60px;"">+</div>","null","","fixation","","","","","","","","","","",""
"aa-learning-trial","216","796627","0.0-11.0-2.0-1.12","4008","1","13","Male","approach_avoid_spark_v1","""event"",""trial"",""time""
""fullscreenenter"",""1"",""3430""
","
","
","""event"",""trial"",""time""
""fullscreenenter"",""1"",""3430""
","
","","","","","","647.5999999046326","images/chair7.png","","","learning","9","9","1","1","chair","furniture","2","1","","neutral","0"
"html-keyboard-response","217","797132","0.0-11.0-2.0-0.13","4008","1","13","Male","approach_avoid_spark_v1","""event"",""trial"",""time""
""fullscreenenter"",""1"",""3430""
","
","
","""event"",""trial"",""time""
""fullscreenenter"",""1"",""3430""
","
","","","","","","null","<div style=""font-size:60px;"">+</div>","null","","fixation","","","","","","","","","","",""
"aa-learning-trial","218","800139","0.0-11.0-2.0-1.13","4008","1","13","Male","approach_avoid_spark_v1","""event"",""trial"",""time""
""fullscreenenter"",""1"",""3430""
","
","
","""event"",""trial"",""time""
""fullscreenenter"",""1"",""3430""
","
","","","","","","1144.0999999046326","images/table8.png","","","learning","4","4","1","1","table","furniture","2","1","","good","[6]"
"html-keyboard-response","219","800643","0.0-11.0-2.0-0.14","4008","1","13","Male","approach_avoid_spark_v1","""event"",""trial"",""time""
""fullscreenenter"",""1"",""3430""
","
","
","""event"",""trial"",""time""
""fullscreenenter"",""1"",""3430""
","
","","","","","","null","<div style=""font-size:60px;"">+</div>","null","","fixation","","","","","","","","","","",""
"aa-learning-trial","220","803646","0.0-11.0-2.0-1.14","4008","1","13","Male","approach_avoid_spark_v1","""event"",""trial"",""time""
""fullscreenenter"",""1"",""3430""
","
","
","""event"",""trial"",""time""
""fullscreenenter"",""1"",""3430""
","
","","","","","","1592.1999998092651","images/chair3.png","","","learning","3","3","1","1","chair","furniture","2","1","","neutral","0"
"html-keyboard-response","221","804156","0.0-11.0-2.0-0.15","4008","1","13","Male","approach_avoid_spark_v1","""event"",""trial"",""time""
""fullscreenenter"",""1"",""3430""
","
","
","""event"",""trial"",""time""
""fullscreenenter"",""1"",""3430""
","
","","","","","","null","<div style=""font-size:60px;"">+</div>","null","","fixation","","","","","","","","","","",""
"aa-learning-trial","222","807163","0.0-11.0-2.0-1.15","4008","1","13","Male","approach_avoid_spark_v1","""event"",""trial"",""time""
""fullscreenenter"",""1"",""3430""
","
","
","""event"",""trial"",""time""
""fullscreenenter"",""1"",""3430""
","
","","","","","","1039","images/bed8.png","","","learning","-3","0","0","0","bed","furniture","2","1","","bad","[-3]"
"html-keyboard-response","223","807668","0.0-11.0-2.0-0.16","4008","1","13","Male","approach_avoid_spark_v1","""event"",""trial"",""time""
""fullscreenenter"",""1"",""3430""
","
","
","""event"",""trial"",""time""
""fullscreenenter"",""1"",""3430""
","
","","","","","","null","<div style=""font-size:60px;"">+</div>","null","","fixation","","","","","","","","","","",""
"aa-learning-trial","224","810676","0.0-11.0-2.0-1.16","4008","1","13","Male","approach_avoid_spark_v1","""event"",""trial"",""time""
""fullscreenenter"",""1"",""3430""
","
","
","""event"",""trial"",""time""
""fullscreenenter"",""1"",""3430""
","
","","","","","","757.4000000953674","images/chair2.png","","","learning","-7","0","0","0","chair","furniture","2","1","","neutral","0"
"html-keyboard-response","225","811180","0.0-11.0-2.0-0.17","4008","1","13","Male","approach_avoid_spark_v1","""event"",""trial"",""time""
""fullscreenenter"",""1"",""3430""
","
","
","""event"",""trial"",""time""
""fullscreenenter"",""1"",""3430""
","
","","","","","","null","<div style=""font-size:60px;"">+</div>","null","","fixation","","","","","","","","","","",""
"aa-learning-trial","226","814189","0.0-11.0-2.0-1.17","4008","1","13","Male","approach_avoid_spark_v1","""event"",""trial"",""time""
""fullscreenenter"",""1"",""3430""
","
","
","""event"",""trial"",""time""
""fullscreenenter"",""1"",""3430""
","
","","","","","","800.5","images/chair7.png","","","learning","9","9","1","1","chair","furniture","2","1","","neutral","0"
"html-keyboard-response","227","814692","0.0-11.0-2.0-0.18","4008","1","13","Male","approach_avoid_spark_v1","""event"",""trial"",""time""
""fullscreenenter"",""1"",""3430""
","
","
","""event"",""trial"",""time""
""fullscreenenter"",""1"",""3430""
","
","","","","","","null","<div style=""font-size:60px;"">+</div>","null","","fixation","","","","","","","","","","",""
"aa-learning-trial","228","817700","0.0-11.0-2.0-1.18","4008","1","13","Male","approach_avoid_spark_v1","""event"",""trial"",""time""
""fullscreenenter"",""1"",""3430""
","
","
","""event"",""trial"",""time""
""fullscreenenter"",""1"",""3430""
","
","","","","","","646.5","images/chair7.png","","","learning","9","9","1","1","chair","furniture","2","1","","neutral","0"
"html-keyboard-response","229","818203","0.0-11.0-2.0-0.19","4008","1","13","Male","approach_avoid_spark_v1","""event"",""trial"",""time""
""fullscreenenter"",""1"",""3430""
","
","
","""event"",""trial"",""time""
""fullscreenenter"",""1"",""3430""
","
","","","","","","null","<div style=""font-size:60px;"">+</div>","null","","fixation","","","","","","","","","","",""
"aa-learning-trial","230","821212","0.0-11.0-2.0-1.19","4008","1","13","Male","approach_avoid_spark_v1","""event"",""trial"",""time""
""fullscreenenter"",""1"",""3430""
","
","
","""event"",""trial"",""time""
""fullscreenenter"",""1"",""3430""
","
","","","","","","664.4000000953674","images/bed8.png","","","learning","-3","0","0","0","bed","furniture","2","1","","bad","[-3]"
"html-keyboard-response","231","821715","0.0-11.0-2.0-0.20","4008","1","13","Male","approach_avoid_spark_v1","""event"",""trial"",""time""
""fullscreenenter"",""1"",""3430""
","
","
","""event"",""trial"",""time""
""fullscreenenter"",""1"",""3430""
","
","","","","","","null","<div style=""font-size:60px;"">+</div>","null","","fixation","","","","","","","","","","",""
"aa-learning-trial","232","824724","0.0-11.0-2.0-1.20","4008","1","13","Male","approach_avoid_spark_v1","""event"",""trial"",""time""
""fullscreenenter"",""1"",""3430""
","
","
","""event"",""trial"",""time""
""fullscreenenter"",""1"",""3430""
","
","","","","","","734","images/table7.png","","","learning","-4","0","0","0","table","furniture","2","1","","good","[6]"
"html-keyboard-response","233","825228","0.0-11.0-2.0-0.21","4008","1","13","Male","approach_avoid_spark_v1","""event"",""trial"",""time""
""fullscreenenter"",""1"",""3430""
","
","
","""event"",""trial"",""time""
""fullscreenenter"",""1"",""3430""
","
","","","","","","null","<div style=""font-size:60px;"">+</div>","null","","fixation","","","","","","","","","","",""
"aa-learning-trial","234","828236","0.0-11.0-2.0-1.21","4008","1","13","Male","approach_avoid_spark_v1","""event"",""trial"",""time""
""fullscreenenter"",""1"",""3430""
","
","
","""event"",""trial"",""time""
""fullscreenenter"",""1"",""3430""
","
","","","","","","678.8000001907349","images/chair3.png","","","learning","3","3","1","1","chair","furniture","2","1","","neutral","0"
"html-keyboard-response","235","828739","0.0-11.0-2.0-0.22","4008","1","13","Male","approach_avoid_spark_v1","""event"",""trial"",""time""
""fullscreenenter"",""1"",""3430""
","
","
","""event"",""trial"",""time""
""fullscreenenter"",""1"",""3430""
","
","","","","","","null","<div style=""font-size:60px;"">+</div>","null","","fixation","","","","","","","","","","",""
"aa-learning-trial","236","831749","0.0-11.0-2.0-1.22","4008","1","13","Male","approach_avoid_spark_v1","""event"",""trial"",""time""
""fullscreenenter"",""1"",""3430""
","
","
","""event"",""trial"",""time""
""fullscreenenter"",""1"",""3430""
","
","","","","","","670.2000002861023","images/table8.png","","","learning","4","4","1","1","table","furniture","2","1","","good","[6]"
