"trial_type","trial_index","time_elapsed","internal_node_id","subject_id","task_condition","age","gender","task_version","interactions","blur_events","focus_events","fullscreenenter_events","fullscreenexit_events","success","timeout","failed_images","failed_audio","failed_video","rt","stimulus","response","button_pressed","task_part","approach_reward","points","key_press","option_selected","stim_cat","task_block","block_condition","block_number","correct","cat_type","mean_cat_reward"
"pavlovia","0","3","0.0-0.0","5759","1","11","Female","approach_avoid_spark_v1","""event"",""trial"",""time""
""fullscreenenter"",""1"",""5529""
","
","
","""event"",""trial"",""time""
""fullscreenenter"",""1"",""5529""
","
","","","","","","","","","","","","","","","","","","","","",""
"fullscreen","1","6524","0.0-1.0","5759","1","11","Female","approach_avoid_spark_v1","""event"",""trial"",""time""
""fullscreenenter"",""1"",""5529""
","
","
","""event"",""trial"",""time""
""fullscreenenter"",""1"",""5529""
","
","true","","","","","","","","","","","","","","","","","","","",""
"preload","2","23731","0.0-2.0","5759","1","11","Female","approach_avoid_spark_v1","""event"",""trial"",""time""
""fullscreenenter"",""1"",""5529""
","
","
","""event"",""trial"",""time""
""fullscreenenter"",""1"",""5529""
","
","true","false","[]","[]","[]","","","","","","","","","","","","","","","",""
"audio-keyboard-response","3","28985","0.0-3.0","5759","1","11","Female","approach_avoid_spark_v1","""event"",""trial"",""time""
""fullscreenenter"",""1"",""5529""
","
","
","""event"",""trial"",""time""
""fullscreenenter"",""1"",""5529""
","
","","","","","","5258.666666666667","audio/beep_loop.wav"," ","","","","","","","","","","","","",""
"audio-button-response","4","35045","0.0-4.0","5759","1","11","Female","approach_avoid_spark_v1","""event"",""trial"",""time""
""fullscreenenter"",""1"",""5529""
","
","
","""event"",""trial"",""time""
""fullscreenenter"",""1"",""5529""
","
","","","","","","6061","audio/shark.wav","0","","","","","","","","","","","","",""
"audio-button-response","5","38925","0.0-5.0","5759","1","11","Female","approach_avoid_spark_v1","""event"",""trial"",""time""
""fullscreenenter"",""1"",""5529""
","
","
","""event"",""trial"",""time""
""fullscreenenter"",""1"",""5529""
","
","","","","","","2851","audio/turtle.wav","1","","","","","","","","","","","","",""
"preload","6","45386","0.0-6.0","5759","1","11","Female","approach_avoid_spark_v1","""event"",""trial"",""time""
""fullscreenenter"",""1"",""5529""
","
","
","""event"",""trial"",""time""
""fullscreenenter"",""1"",""5529""
","
","true","false","[]","[]","[]","","","","","","","","","","","","","","","",""
"html-keyboard-response","7","49777","0.0-7.0","5759","1","11","Female","approach_avoid_spark_v1","""event"",""trial"",""time""
""fullscreenenter"",""1"",""5529""
","
","
","""event"",""trial"",""time""
""fullscreenenter"",""1"",""5529""
","
","","","","","","4389.0999999940395","Welcome to the experiment. Press any key to begin and to advance the instructions."," ","","","","","","","","","","","","",""
"learning-instructions","8","60950","0.0-8.0-0.0-0.0","5759","1","11","Female","approach_avoid_spark_v1","""event"",""trial"",""time""
""fullscreenenter"",""1"",""5529""
","
","
","""event"",""trial"",""time""
""fullscreenenter"",""1"",""5529""
","
","","","","","","4213","<p> Welcome! Today you are going to play 6 different rounds of a decision-making game. </p><p> Use the mouse to click next to continue. </p>","","0","instructions","","","","","","","","","","",""
"learning-instructions","9","77310","0.0-8.0-0.0-0.1","5759","1","11","Female","approach_avoid_spark_v1","""event"",""trial"",""time""
""fullscreenenter"",""1"",""5529""
","
","
","""event"",""trial"",""time""
""fullscreenenter"",""1"",""5529""
","
","","","","","","13614","<p> You will start with a practice round to learn the rules. </p>","","0","instructions","","","","","","","","","","",""
"learning-instructions","10","85551","0.0-8.0-0.0-0.2","5759","1","11","Female","approach_avoid_spark_v1","""event"",""trial"",""time""
""fullscreenenter"",""1"",""5529""
","
","
","""event"",""trial"",""time""
""fullscreenenter"",""1"",""5529""
","
","","","","","","4793.5","<p> Your goal in this round is to give out sports equipment to kids. </p></div>","","0","instructions","","","","","","","","","","",""
"learning-instructions","11","94015","0.0-8.0-0.0-0.3","5759","1","11","Female","approach_avoid_spark_v1","""event"",""trial"",""time""
""fullscreenenter"",""1"",""5529""
","
","
","""event"",""trial"",""time""
""fullscreenenter"",""1"",""5529""
","
","","","","","","916.8999999761581","<p> The kids only like some of the equipment.  </p><p> On each turn, you will see a piece of sports equipment.   </p><p> You need to decide whether to give it to the kids or not.  </p>","","0","instructions","","","","","","","","","","",""
"learning-instructions","12","109000","0.0-8.0-0.0-0.4","5759","1","11","Female","approach_avoid_spark_v1","""event"",""trial"",""time""
""fullscreenenter"",""1"",""5529""
","
","
","""event"",""trial"",""time""
""fullscreenenter"",""1"",""5529""
","
","","","","","","10220.600000023842","<p> You can give them the equipment by pressing 1 and choose not to give it to them by pressing 0. </p><br><div class=""choice-instructions-grid""> <div class=""choice-option""><img src=""images/approach.png"" class=""choice-option-img"" stage=""instructions"" position=""0"" ><div class=""choice-option-text""> Press ""1."" </div></div><div class=""choice-option""><img src=""images/avoid.png"" class=""choice-option-img"" stage=""instructions"" position=""1"" ><div class=""choice-option-text""> Press ""0."" </div></div>","","0","instructions","","","","","","","","","","",""
"learning-instructions","13","118304","0.0-8.0-0.0-0.5","5759","1","11","Female","approach_avoid_spark_v1","""event"",""trial"",""time""
""fullscreenenter"",""1"",""5529""
","
","
","""event"",""trial"",""time""
""fullscreenenter"",""1"",""5529""
","
","","","","","","1914.9000000059605","<p> If you give them a piece of equipment they like, they will be happy! </p><p> But if you give them a piece of equipment they do not like, they will be sad. </p>","","0","instructions","","","","","","","","","","",""
"learning-instructions","14","129984","0.0-8.0-0.0-0.6","5759","1","11","Female","approach_avoid_spark_v1","""event"",""trial"",""time""
""fullscreenenter"",""1"",""5529""
","
","
","""event"",""trial"",""time""
""fullscreenenter"",""1"",""5529""
","
","","","","","","1155.5","<p> You will earn points based on how you make kids feel. </p><p> If you make them happy, you will WIN anywhere from 1 - 9 points, </p><p> but if you make them sad, you will LOSE anywhere from 1 - 9 points. </p>","","0","instructions","","","","","","","","","","",""
"learning-instructions","15","141728","0.0-8.0-0.0-0.7","5759","1","11","Female","approach_avoid_spark_v1","""event"",""trial"",""time""
""fullscreenenter"",""1"",""5529""
","
","
","""event"",""trial"",""time""
""fullscreenenter"",""1"",""5529""
","
","","","","","","2178.9000000059605","<p> You will see how many points you won or lost in the center of the screen. </p><p> Here is what you would see if you won 6 points: </p><p style=""color:green;font-size:50px;font-weight:bolder"">6</p><p style=""color:green"">The text is GREEN because you WON points.</p>","","0","instructions","","","","","","","","","","",""
"learning-instructions","16","147880","0.0-8.0-0.0-0.8","5759","1","11","Female","approach_avoid_spark_v1","""event"",""trial"",""time""
""fullscreenenter"",""1"",""5529""
","
","
","""event"",""trial"",""time""
""fullscreenenter"",""1"",""5529""
","
","","","","","","640.5999999940395","<p> And here is what you would see if you lost 4 points: </p><p style=""color:red;font-size:50px;font-weight:bolder"">-4</p><p style=""color:red"">The text is RED because you LOST points. </p>","","0","instructions","","","","","","","","","","",""
"learning-instructions","17","164393","0.0-8.0-0.0-0.9","5759","1","11","Female","approach_avoid_spark_v1","""event"",""trial"",""time""
""fullscreenenter"",""1"",""5529""
","
","
","""event"",""trial"",""time""
""fullscreenenter"",""1"",""5529""
","
","","","","","","1792.5999999940395","<p> Some of the equipment will make the kids VERY happy or sad. </p><p> These pieces of equipment will make you win or lose LOTS of points. </p><p> Other pieces of equipment will only make the kids a little happy or sad. </p><p> These pieces of equipment will make you win or lose small amounts of points. </p>","","0","instructions","","","","","","","","","","",""
"learning-instructions","18","176049","0.0-8.0-0.0-0.10","5759","1","11","Female","approach_avoid_spark_v1","""event"",""trial"",""time""
""fullscreenenter"",""1"",""5529""
","
","
","""event"",""trial"",""time""
""fullscreenenter"",""1"",""5529""
","
","","","","","","1018.5999999940395","<p> If you choose not to give them the equipment, you will not win or lose any points. </p><p>  However, in the center of the screen, you will see the number of points you WOULD HAVE won or lost if you had given them the equipment. </p>","","0","instructions","","","","","","","","","","",""
"learning-instructions","19","198787","0.0-8.0-0.0-0.11","5759","1","11","Female","approach_avoid_spark_v1","""event"",""trial"",""time""
""fullscreenenter"",""1"",""5529""
","
","
","""event"",""trial"",""time""
""fullscreenenter"",""1"",""5529""
","
","","","","","","1194.5","<p> Here is what you might see if you did not give the equipment to the kids but it would have made them happy: </p><p style=""color:grey; font-size:50px; display: inline-block; border-spacing: 15px; border-width:3px; border-style:solid; border-color:red"">  &nbsp; 7 &nbsp; </p><p> Remember, in this case, you would not win or lose ANY points because you did not give them the equipment.  </p><p style=""color:grey"">The text is GREY because you earned ZERO points. </p><p style=""color:red"">However, choosing to give the kids the equipment would have made you win points. The box around the text is RED because you chose the worse option. </p>","","0","instructions","","","","","","","","","","",""
"learning-instructions","20","220571","0.0-8.0-0.0-0.12","5759","1","11","Female","approach_avoid_spark_v1","""event"",""trial"",""time""
""fullscreenenter"",""1"",""5529""
","
","
","""event"",""trial"",""time""
""fullscreenenter"",""1"",""5529""
","
","","","","","","699","<p> Here is what you might see if you did not give the equipment to the kids but it would have made them sad: </p><p style=""color:grey;font-size:50px; display: inline-block; border-spacing: 15px; border-width:3px; border-style:solid; border-color:green"">  &nbsp; -8 &nbsp; </p><p> Remember, in this case, you would not win or lose ANY points because you did not give them the equipment.  </p><p style=""color:grey"">The text is GREY because you earned ZERO points. </p><p  style=""color:green""> Choosing to give the kids the equipment would have made you lose points. The box around the text is GREEN because you chose the better option.</p>","","0","instructions","","","","","","","","","","",""
"learning-instructions","21","233732","0.0-8.0-0.0-0.13","5759","1","11","Female","approach_avoid_spark_v1","""event"",""trial"",""time""
""fullscreenenter"",""1"",""5529""
","
","
","""event"",""trial"",""time""
""fullscreenenter"",""1"",""5529""
","
","","","","","","3909.4000000059605","<p> You will have 3 seconds to make each choice. Try to respond before time runs out! </p><p> You will lose 5 points each time you do not make a response. </p>","","0","instructions","","","","","","","","","","",""
"learning-instructions","22","239948","0.0-8.0-0.0-0.14","5759","1","11","Female","approach_avoid_spark_v1","""event"",""trial"",""time""
""fullscreenenter"",""1"",""5529""
","
","
","""event"",""trial"",""time""
""fullscreenenter"",""1"",""5529""
","
","","","","","","804.5999999940395","<p> This is just a practice round, but in the real game, your bonus payment will depend on your total number of points.","","0","instructions","","","","","","","","","","",""
"learning-instructions","23","247124","0.0-8.0-0.0-0.15","5759","1","11","Female","approach_avoid_spark_v1","""event"",""trial"",""time""
""fullscreenenter"",""1"",""5529""
","
","
","""event"",""trial"",""time""
""fullscreenenter"",""1"",""5529""
","
","","","","","","1409.9000000059605","<p> Remember, you can give them the equipment by pressing 1 and choose not to give it to them by pressing 0. </p><br><div class=""choice-instructions-grid""> <div class=""choice-option""><img src=""images/approach.png"" class=""choice-option-img"" stage=""instructions"" position=""0"" ><div class=""choice-option-text""> Press ""1."" </div></div><div class=""choice-option""><img src=""images/avoid.png"" class=""choice-option-img"" stage=""instructions"" position=""1"" ><div class=""choice-option-text""> Press ""0."" </div></div>","","0","instructions","","","","","","","","","","",""
"html-button-response","24","250668","0.0-8.0-1.0","5759","1","11","Female","approach_avoid_spark_v1","""event"",""trial"",""time""
""fullscreenenter"",""1"",""5529""
","
","
","""event"",""trial"",""time""
""fullscreenenter"",""1"",""5529""
","
","","","","","","3419.5999999940395","<p> Ready to practice? </p>","0","","","","","","","","","","","","",""
"html-keyboard-response","25","251288","0.0-8.0-2.0-0.0","5759","1","11","Female","approach_avoid_spark_v1","""event"",""trial"",""time""
""fullscreenenter"",""1"",""5529""
","
","
","""event"",""trial"",""time""
""fullscreenenter"",""1"",""5529""
","
","","","","","","null","<div style=""font-size:60px;"">+</div>","null","","fixation","","","","","","","","","","",""
"aa-learning-trial","26","254308","0.0-8.0-2.0-1.0","5759","1","11","Female","approach_avoid_spark_v1","""event"",""trial"",""time""
""fullscreenenter"",""1"",""5529""
","
","
","""event"",""trial"",""time""
""fullscreenenter"",""1"",""5529""
","
","","","","","","1737.699999988079","images/racket1.png","","","learning","-6","0","0","0","practice","practice","practice","-1","","",""
"html-keyboard-response","27","254827","0.0-8.0-2.0-0.1","5759","1","11","Female","approach_avoid_spark_v1","""event"",""trial"",""time""
""fullscreenenter"",""1"",""5529""
","
","
","""event"",""trial"",""time""
""fullscreenenter"",""1"",""5529""
","
","","","","","","null","<div style=""font-size:60px;"">+</div>","null","","fixation","","","","","","","","","","",""
"aa-learning-trial","28","257847","0.0-8.0-2.0-1.1","5759","1","11","Female","approach_avoid_spark_v1","""event"",""trial"",""time""
""fullscreenenter"",""1"",""5529""
","
","
","""event"",""trial"",""time""
""fullscreenenter"",""1"",""5529""
","
","","","","","","906.1999999880791","images/ball4.png","","","learning","-8","-8","1","1","practice","practice","practice","-1","","",""
"html-keyboard-response","29","258367","0.0-8.0-2.0-0.2","5759","1","11","Female","approach_avoid_spark_v1","""event"",""trial"",""time""
""fullscreenenter"",""1"",""5529""
","
","
","""event"",""trial"",""time""
""fullscreenenter"",""1"",""5529""
","
","","","","","","null","<div style=""font-size:60px;"">+</div>","null","","fixation","","","","","","","","","","",""
"aa-learning-trial","30","261388","0.0-8.0-2.0-1.2","5759","1","11","Female","approach_avoid_spark_v1","""event"",""trial"",""time""
""fullscreenenter"",""1"",""5529""
","
","
","""event"",""trial"",""time""
""fullscreenenter"",""1"",""5529""
","
","","","","","","467.7000000178814","images/racket2.png","","","learning","-8","0","0","0","practice","practice","practice","-1","","",""
"html-keyboard-response","31","261907","0.0-8.0-2.0-0.3","5759","1","11","Female","approach_avoid_spark_v1","""event"",""trial"",""time""
""fullscreenenter"",""1"",""5529""
","
","
","""event"",""trial"",""time""
""fullscreenenter"",""1"",""5529""
","
","","","","","","null","<div style=""font-size:60px;"">+</div>","null","","fixation","","","","","","","","","","",""
"aa-learning-trial","32","264927","0.0-8.0-2.0-1.3","5759","1","11","Female","approach_avoid_spark_v1","""event"",""trial"",""time""
""fullscreenenter"",""1"",""5529""
","
","
","""event"",""trial"",""time""
""fullscreenenter"",""1"",""5529""
","
","","","","","","690.2000000178814","images/racket3.png","","","learning","9","0","0","0","practice","practice","practice","-1","","",""
"html-keyboard-response","33","265447","0.0-8.0-2.0-0.4","5759","1","11","Female","approach_avoid_spark_v1","""event"",""trial"",""time""
""fullscreenenter"",""1"",""5529""
","
","
","""event"",""trial"",""time""
""fullscreenenter"",""1"",""5529""
","
","","","","","","null","<div style=""font-size:60px;"">+</div>","null","","fixation","","","","","","","","","","",""
"aa-learning-trial","34","268457","0.0-8.0-2.0-1.4","5759","1","11","Female","approach_avoid_spark_v1","""event"",""trial"",""time""
""fullscreenenter"",""1"",""5529""
","
","
","""event"",""trial"",""time""
""fullscreenenter"",""1"",""5529""
","
","","","","","","996.5999999940395","images/racket3.png","","","learning","-9","-9","1","1","practice","practice","practice","-1","","",""
"html-keyboard-response","35","268967","0.0-8.0-2.0-0.5","5759","1","11","Female","approach_avoid_spark_v1","""event"",""trial"",""time""
""fullscreenenter"",""1"",""5529""
","
","
","""event"",""trial"",""time""
""fullscreenenter"",""1"",""5529""
","
","","","","","","null","<div style=""font-size:60px;"">+</div>","null","","fixation","","","","","","","","","","",""
"aa-learning-trial","36","271988","0.0-8.0-2.0-1.5","5759","1","11","Female","approach_avoid_spark_v1","""event"",""trial"",""time""
""fullscreenenter"",""1"",""5529""
","
","
","""event"",""trial"",""time""
""fullscreenenter"",""1"",""5529""
","
","","","","","","630.5","images/ball2.png","","","learning","2","2","1","1","practice","practice","practice","-1","","",""
"html-keyboard-response","37","272508","0.0-8.0-2.0-0.6","5759","1","11","Female","approach_avoid_spark_v1","""event"",""trial"",""time""
""fullscreenenter"",""1"",""5529""
","
","
","""event"",""trial"",""time""
""fullscreenenter"",""1"",""5529""
","
","","","","","","null","<div style=""font-size:60px;"">+</div>","null","","fixation","","","","","","","","","","",""
"aa-learning-trial","38","275528","0.0-8.0-2.0-1.6","5759","1","11","Female","approach_avoid_spark_v1","""event"",""trial"",""time""
""fullscreenenter"",""1"",""5529""
","
","
","""event"",""trial"",""time""
""fullscreenenter"",""1"",""5529""
","
","","","","","","743.0999999940395","images/racket3.png","","","learning","9","0","0","0","practice","practice","practice","-1","","",""
"html-keyboard-response","39","276038","0.0-8.0-2.0-0.7","5759","1","11","Female","approach_avoid_spark_v1","""event"",""trial"",""time""
""fullscreenenter"",""1"",""5529""
","
","
","""event"",""trial"",""time""
""fullscreenenter"",""1"",""5529""
","
","","","","","","null","<div style=""font-size:60px;"">+</div>","null","","fixation","","","","","","","","","","",""
"aa-learning-trial","40","279043","0.0-8.0-2.0-1.7","5759","1","11","Female","approach_avoid_spark_v1","""event"",""trial"",""time""
""fullscreenenter"",""1"",""5529""
","
","
","""event"",""trial"",""time""
""fullscreenenter"",""1"",""5529""
","
","","","","","","1700.699999988079","images/ball1.png","","","learning","4","4","1","1","practice","practice","practice","-1","","",""
"html-keyboard-response","41","279547","0.0-8.0-2.0-0.8","5759","1","11","Female","approach_avoid_spark_v1","""event"",""trial"",""time""
""fullscreenenter"",""1"",""5529""
","
","
","""event"",""trial"",""time""
""fullscreenenter"",""1"",""5529""
","
","","","","","","null","<div style=""font-size:60px;"">+</div>","null","","fixation","","","","","","","","","","",""
"aa-learning-trial","42","282555","0.0-8.0-2.0-1.8","5759","1","11","Female","approach_avoid_spark_v1","""event"",""trial"",""time""
""fullscreenenter"",""1"",""5529""
","
","
","""event"",""trial"",""time""
""fullscreenenter"",""1"",""5529""
","
","","","","","","1262.7999999821186","images/racket2.png","","","learning","9","9","1","1","practice","practice","practice","-1","","",""
"html-keyboard-response","43","283060","0.0-8.0-2.0-0.9","5759","1","11","Female","approach_avoid_spark_v1","""event"",""trial"",""time""
""fullscreenenter"",""1"",""5529""
","
","
","""event"",""trial"",""time""
""fullscreenenter"",""1"",""5529""
","
","","","","","","null","<div style=""font-size:60px;"">+</div>","null","","fixation","","","","","","","","","","",""
"aa-learning-trial","44","286068","0.0-8.0-2.0-1.9","5759","1","11","Female","approach_avoid_spark_v1","""event"",""trial"",""time""
""fullscreenenter"",""1"",""5529""
","
","
","""event"",""trial"",""time""
""fullscreenenter"",""1"",""5529""
","
","","","","","","666.0999999940395","images/racket4.png","","","learning","-3","-3","1","1","practice","practice","practice","-1","","",""
"html-keyboard-response","45","286571","0.0-8.0-2.0-0.10","5759","1","11","Female","approach_avoid_spark_v1","""event"",""trial"",""time""
""fullscreenenter"",""1"",""5529""
","
","
","""event"",""trial"",""time""
""fullscreenenter"",""1"",""5529""
","
","","","","","","null","<div style=""font-size:60px;"">+</div>","null","","fixation","","","","","","","","","","",""
"aa-learning-trial","46","289580","0.0-8.0-2.0-1.10","5759","1","11","Female","approach_avoid_spark_v1","""event"",""trial"",""time""
""fullscreenenter"",""1"",""5529""
","
","
","""event"",""trial"",""time""
""fullscreenenter"",""1"",""5529""
","
","","","","","","656.1999999880791","images/racket2.png","","","learning","-6","0","0","0","practice","practice","practice","-1","","",""
"html-keyboard-response","47","290083","0.0-8.0-2.0-0.11","5759","1","11","Female","approach_avoid_spark_v1","""event"",""trial"",""time""
""fullscreenenter"",""1"",""5529""
","
","
","""event"",""trial"",""time""
""fullscreenenter"",""1"",""5529""
","
","","","","","","null","<div style=""font-size:60px;"">+</div>","null","","fixation","","","","","","","","","","",""
"aa-learning-trial","48","293091","0.0-8.0-2.0-1.11","5759","1","11","Female","approach_avoid_spark_v1","""event"",""trial"",""time""
""fullscreenenter"",""1"",""5529""
","
","
","""event"",""trial"",""time""
""fullscreenenter"",""1"",""5529""
","
","","","","","","953.8999999761581","images/ball4.png","","","learning","-2","-2","1","1","practice","practice","practice","-1","","",""
"html-button-response","49","296605","0.0-8.0-3.0","5759","1","11","Female","approach_avoid_spark_v1","""event"",""trial"",""time""
""fullscreenenter"",""1"",""5529""
","
","
","""event"",""trial"",""time""
""fullscreenenter"",""1"",""5529""
","
","","","","","","3513.2000000178814","<p> You earned -7 points in the practice round! </p>","0","","break","","","","","","","","","","",""
"learning-instructions","50","306582","0.0-8.0-4.0-0.0","5759","1","11","Female","approach_avoid_spark_v1","""event"",""trial"",""time""
""fullscreenenter"",""1"",""5529""
","
","
","""event"",""trial"",""time""
""fullscreenenter"",""1"",""5529""
","
","","","","","","3998.600000023842","<p> It's almost time to start the real game. </p><p> Before you start, we're going to ask you a few questions about how the game works. </p>","","0","instructions","","","","","","","","","","",""
"preload","51","309055","0.0-8.0-5.0","5759","1","11","Female","approach_avoid_spark_v1","""event"",""trial"",""time""
""fullscreenenter"",""1"",""5529""
","
","
","""event"",""trial"",""time""
""fullscreenenter"",""1"",""5529""
","
","true","false","[]","[]","[]","","","","","","","","","","","","","","","",""
"comp-q","52","317702","0.0-8.0-6.0-0.0","5759","1","11","Female","approach_avoid_spark_v1","""event"",""trial"",""time""
""fullscreenenter"",""1"",""5529""
","
","
","""event"",""trial"",""time""
""fullscreenenter"",""1"",""5529""
","
","","","","","","3649","<p> <b> True or False? </b> </p><p> If you see a number in GREY, that means you earned that many points. </p>","","1","comp_question","","","","","","","","","true","",""
"comp-q","53","328023","0.0-8.0-6.0-1.0","5759","1","11","Female","approach_avoid_spark_v1","""event"",""trial"",""time""
""fullscreenenter"",""1"",""5529""
","
","
","""event"",""trial"",""time""
""fullscreenenter"",""1"",""5529""
","
","","","","","","1938.9000000059605","<p><b> That's right! </b> If you see a grey number, it means you earned ZERO points. <br> The grey numbers show the points you WOULD HAVE earned if you had made the other choice. </p>","","0","comp_answer","","","","","","","","","","",""
"comp-q","54","337991","0.0-8.0-7.0-0.0","5759","1","11","Female","approach_avoid_spark_v1","""event"",""trial"",""time""
""fullscreenenter"",""1"",""5529""
","
","
","""event"",""trial"",""time""
""fullscreenenter"",""1"",""5529""
","
","","","","","","5266.4000000059605","<p> <b> True or False? </b> </p><p> You will have as much time as you want to make each choice. </p>","","1","comp_question","","","","","","","","","true","",""
"comp-q","55","344296","0.0-8.0-7.0-1.0","5759","1","11","Female","approach_avoid_spark_v1","""event"",""trial"",""time""
""fullscreenenter"",""1"",""5529""
","
","
","""event"",""trial"",""time""
""fullscreenenter"",""1"",""5529""
","
","","","","","","2250.199999988079","<p> <b> That's right! </b> You will only have 3 seconds to make each choice. </p>","","0","comp_answer","","","","","","","","","","",""
"comp-q","56","349976","0.0-8.0-8.0-0.0","5759","1","11","Female","approach_avoid_spark_v1","""event"",""trial"",""time""
""fullscreenenter"",""1"",""5529""
","
","
","""event"",""trial"",""time""
""fullscreenenter"",""1"",""5529""
","
","","","","","","1010","<p> <b> True or False? </b> </p><p> You should use the '1' and '0' keys to make your choices. </p>","","0","comp_question","","","","","","","","","true","",""
"comp-q","57","356064","0.0-8.0-8.0-1.0","5759","1","11","Female","approach_avoid_spark_v1","""event"",""trial"",""time""
""fullscreenenter"",""1"",""5529""
","
","
","""event"",""trial"",""time""
""fullscreenenter"",""1"",""5529""
","
","","","","","","1468.2000000178814","<p> <b> That's right! </b> You should use the '1' and '0' keys to make each choice. </p>","","0","comp_answer","","","","","","","","","","",""
"learning-instructions","58","364600","0.0-8.0-9.0-0.0","5759","1","11","Female","approach_avoid_spark_v1","""event"",""trial"",""time""
""fullscreenenter"",""1"",""5529""
","
","
","""event"",""trial"",""time""
""fullscreenenter"",""1"",""5529""
","
","","","","","","2244.0999999940395","<p> It's now time to start the real game. </p>Do your best, because the points you earn in the next rounds will influence your bonus payment. </p>","","0","instructions","","","","","","","","","","",""
"preload","59","364717","0.0-9.0-0.0","5759","1","11","Female","approach_avoid_spark_v1","""event"",""trial"",""time""
""fullscreenenter"",""1"",""5529""
","
","
","""event"",""trial"",""time""
""fullscreenenter"",""1"",""5529""
","
","true","false","[]","[]","[]","","","","","","","","","","","","","","","",""
"learning-instructions","60","371232","0.0-9.0-1.0-0.0","5759","1","11","Female","approach_avoid_spark_v1","""event"",""trial"",""time""
""fullscreenenter"",""1"",""5529""
","
","
","""event"",""trial"",""time""
""fullscreenenter"",""1"",""5529""
","
","","","","","","1226.0999999940395","<p> Your goal in this round is to take your friend for rides in different vehicles. </p></div>","","0","instructions","","","","","","","","","","",""
"learning-instructions","61","382873","0.0-9.0-1.0-0.1","5759","1","11","Female","approach_avoid_spark_v1","""event"",""trial"",""time""
""fullscreenenter"",""1"",""5529""
","
","
","""event"",""trial"",""time""
""fullscreenenter"",""1"",""5529""
","
","","","","","","1375.9000000059605","<p> Your friend enjoys riding in some vehicles but not in others.  </p><p> On each turn, you will see a vehicle.   </p><p> You need to decide whether to take your friend for a ride or not.  </p>","","0","instructions","","","","","","","","","","",""
"learning-instructions","62","392673","0.0-9.0-1.0-0.2","5759","1","11","Female","approach_avoid_spark_v1","""event"",""trial"",""time""
""fullscreenenter"",""1"",""5529""
","
","
","""event"",""trial"",""time""
""fullscreenenter"",""1"",""5529""
","
","","","","","","2995.2999999821186","<p> You can take your friend for a ride in the vehicle by pressing 1 and skip the ride by pressing 0. </p><br><div class=""choice-instructions-grid""> <div class=""choice-option""><img src=""images/approach.png"" class=""choice-option-img"" stage=""instructions"" position=""0"" ><div class=""choice-option-text""> Press ""1."" </div></div><div class=""choice-option""><img src=""images/avoid.png"" class=""choice-option-img"" stage=""instructions"" position=""1"" ><div class=""choice-option-text""> Press ""0."" </div></div>","","0","instructions","","","","","","","","","","",""
"learning-instructions","63","403874","0.0-9.0-1.0-0.3","5759","1","11","Female","approach_avoid_spark_v1","""event"",""trial"",""time""
""fullscreenenter"",""1"",""5529""
","
","
","""event"",""trial"",""time""
""fullscreenenter"",""1"",""5529""
","
","","","","","","2116","<p> If you take them for a ride in a vehicle they like, they will be thrilled! </p><p> But if you take them for a ride in a vehicle they do not like, they will be upset. </p>","","0","instructions","","","","","","","","","","",""
"learning-instructions","64","416914","0.0-9.0-1.0-0.4","5759","1","11","Female","approach_avoid_spark_v1","""event"",""trial"",""time""
""fullscreenenter"",""1"",""5529""
","
","
","""event"",""trial"",""time""
""fullscreenenter"",""1"",""5529""
","
","","","","","","905.9000000059605","<p> You will earn points based on how you made your friend feel. </p><p> If you made him thrilled, you will WIN anywhere from 1 - 9 points, </p><p> but if you made him upset, you will LOSE anywhere from 1 - 9 points. </p>","","0","instructions","","","","","","","","","","",""
"learning-instructions","65","425594","0.0-9.0-1.0-0.5","5759","1","11","Female","approach_avoid_spark_v1","""event"",""trial"",""time""
""fullscreenenter"",""1"",""5529""
","
","
","""event"",""trial"",""time""
""fullscreenenter"",""1"",""5529""
","
","","","","","","986.2999999821186","<p> You will see how many points you won or lost in the center of the screen. </p><p> Here is what you would see if you won 5 points: </p><p style=""color:green;font-size:50px;font-weight:bolder"">5</p>","","0","instructions","","","","","","","","","","",""
"learning-instructions","66","430011","0.0-9.0-1.0-0.6","5759","1","11","Female","approach_avoid_spark_v1","""event"",""trial"",""time""
""fullscreenenter"",""1"",""5529""
","
","
","""event"",""trial"",""time""
""fullscreenenter"",""1"",""5529""
","
","","","","","","871.9000000059605","<p> And here is what you would see if you lost 3 points: </p><p style=""color:red;font-size:50px;font-weight:bolder"">-3</p>","","0","instructions","","","","","","","","","","",""
"learning-instructions","67","447195","0.0-9.0-1.0-0.7","5759","1","11","Female","approach_avoid_spark_v1","""event"",""trial"",""time""
""fullscreenenter"",""1"",""5529""
","
","
","""event"",""trial"",""time""
""fullscreenenter"",""1"",""5529""
","
","","","","","","1466.5","<p> Some vehicles will make your friend REALLY thrilled or upset. </p><p> These vehicles will make you win or lose LOTS of points. </p><p> Other vehicles will only make him feel a little thrilled or upset. </p><p> These vehicles will make you win or lose small amounts of points. </p>","","0","instructions","","","","","","","","","","",""
"learning-instructions","68","460155","0.0-9.0-1.0-0.8","5759","1","11","Female","approach_avoid_spark_v1","""event"",""trial"",""time""
""fullscreenenter"",""1"",""5529""
","
","
","""event"",""trial"",""time""
""fullscreenenter"",""1"",""5529""
","
","","","","","","745.5","<p> If you choose to skip the ride, you will not win or lose any points. </p><p>  However, in the center of the screen, you will see the number of points you WOULD HAVE won or lost if you had taken your friend for a ride. </p>","","0","instructions","","","","","","","","","","",""
"learning-instructions","69","472107","0.0-9.0-1.0-0.9","5759","1","11","Female","approach_avoid_spark_v1","""event"",""trial"",""time""
""fullscreenenter"",""1"",""5529""
","
","
","""event"",""trial"",""time""
""fullscreenenter"",""1"",""5529""
","
","","","","","","817.5999999940395","<p> Here is what you might see if you did not take your friend for a ride but he would have enjoyed it: </p><p style=""color:grey; font-size:50px; display: inline-block; border-spacing: 15px; border-width:3px; border-style:solid; border-color:red"">  &nbsp; 6 &nbsp; </p><p> Remember, in this case, you would not win or lose ANY points because you skipped the ride.  </p>","","0","instructions","","","","","","","","","","",""
"learning-instructions","70","480548","0.0-9.0-1.0-0.10","5759","1","11","Female","approach_avoid_spark_v1","""event"",""trial"",""time""
""fullscreenenter"",""1"",""5529""
","
","
","""event"",""trial"",""time""
""fullscreenenter"",""1"",""5529""
","
","","","","","","597.7999999821186","<p> Try to make the best choice for each vehicle because </p><p> at the end of the game, you will earn bonus money based on how many points you earned. </p>","","0","instructions","","","","","","","","","","",""
"learning-instructions","71","489692","0.0-9.0-1.0-0.11","5759","1","11","Female","approach_avoid_spark_v1","""event"",""trial"",""time""
""fullscreenenter"",""1"",""5529""
","
","
","""event"",""trial"",""time""
""fullscreenenter"",""1"",""5529""
","
","","","","","","941.7000000178814","<p> You will have 3 seconds to make each choice. Try to respond before time runs out! </p><p> You will lose 5 points each time you do not make a response. </p>","","0","instructions","","","","","","","","","","",""
"html-keyboard-response","72","490324","0.0-9.0-2.0-0.0","5759","1","11","Female","approach_avoid_spark_v1","""event"",""trial"",""time""
""fullscreenenter"",""1"",""5529""
","
","
","""event"",""trial"",""time""
""fullscreenenter"",""1"",""5529""
","
","","","","","","null","<div style=""font-size:60px;"">+</div>","null","","fixation","","","","","","","","","","",""
"aa-learning-trial","73","493339","0.0-9.0-2.0-1.0","5759","1","11","Female","approach_avoid_spark_v1","""event"",""trial"",""time""
""fullscreenenter"",""1"",""5529""
","
","
","""event"",""trial"",""time""
""fullscreenenter"",""1"",""5529""
","
","","","","","","2285.800000011921","images/truck2.png","","","learning","-1","-1","1","1","truck","vehicles","1","0","","neutral","0"
"html-keyboard-response","74","493843","0.0-9.0-2.0-0.1","5759","1","11","Female","approach_avoid_spark_v1","""event"",""trial"",""time""
""fullscreenenter"",""1"",""5529""
","
","
","""event"",""trial"",""time""
""fullscreenenter"",""1"",""5529""
","
","","","","","","null","<div style=""font-size:60px;"">+</div>","null","","fixation","","","","","","","","","","",""
"aa-learning-trial","75","496854","0.0-9.0-2.0-1.1","5759","1","11","Female","approach_avoid_spark_v1","""event"",""trial"",""time""
""fullscreenenter"",""1"",""5529""
","
","
","""event"",""trial"",""time""
""fullscreenenter"",""1"",""5529""
","
","","","","","","826","images/plane5.png","","","learning","7","7","1","1","plane","vehicles","1","0","","good","[4]"
"html-keyboard-response","76","497374","0.0-9.0-2.0-0.2","5759","1","11","Female","approach_avoid_spark_v1","""event"",""trial"",""time""
""fullscreenenter"",""1"",""5529""
","
","
","""event"",""trial"",""time""
""fullscreenenter"",""1"",""5529""
","
","","","","","","null","<div style=""font-size:60px;"">+</div>","null","","fixation","","","","","","","","","","",""
"aa-learning-trial","77","500384","0.0-9.0-2.0-1.2","5759","1","11","Female","approach_avoid_spark_v1","""event"",""trial"",""time""
""fullscreenenter"",""1"",""5529""
","
","
","""event"",""trial"",""time""
""fullscreenenter"",""1"",""5529""
","
","","","","","","1062.300000011921","images/truck2.png","","","learning","-2","0","0","0","truck","vehicles","1","0","","neutral","0"
"html-keyboard-response","78","500894","0.0-9.0-2.0-0.3","5759","1","11","Female","approach_avoid_spark_v1","""event"",""trial"",""time""
""fullscreenenter"",""1"",""5529""
","
","
","""event"",""trial"",""time""
""fullscreenenter"",""1"",""5529""
","
","","","","","","null","<div style=""font-size:60px;"">+</div>","null","","fixation","","","","","","","","","","",""
"aa-learning-trial","79","503914","0.0-9.0-2.0-1.3","5759","1","11","Female","approach_avoid_spark_v1","""event"",""trial"",""time""
""fullscreenenter"",""1"",""5529""
","
","
","""event"",""trial"",""time""
""fullscreenenter"",""1"",""5529""
","
","","","","","","1037.4000000059605","images/boat4.png","","","learning","-6","0","0","0","boat","vehicles","1","0","","bad","[-6]"
"html-keyboard-response","80","504434","0.0-9.0-2.0-0.4","5759","1","11","Female","approach_avoid_spark_v1","""event"",""trial"",""time""
""fullscreenenter"",""1"",""5529""
","
","
","""event"",""trial"",""time""
""fullscreenenter"",""1"",""5529""
","
","","","","","","null","<div style=""font-size:60px;"">+</div>","null","","fixation","","","","","","","","","","",""
"aa-learning-trial","81","507454","0.0-9.0-2.0-1.4","5759","1","11","Female","approach_avoid_spark_v1","""event"",""trial"",""time""
""fullscreenenter"",""1"",""5529""
","
","
","""event"",""trial"",""time""
""fullscreenenter"",""1"",""5529""
","
","","","","","","1306.0999999940395","images/plane4.png","","","learning","1","0","0","0","plane","vehicles","1","0","","good","[4]"
"html-keyboard-response","82","507974","0.0-9.0-2.0-0.5","5759","1","11","Female","approach_avoid_spark_v1","""event"",""trial"",""time""
""fullscreenenter"",""1"",""5529""
","
","
","""event"",""trial"",""time""
""fullscreenenter"",""1"",""5529""
","
","","","","","","null","<div style=""font-size:60px;"">+</div>","null","","fixation","","","","","","","","","","",""
"aa-learning-trial","83","510995","0.0-9.0-2.0-1.5","5759","1","11","Female","approach_avoid_spark_v1","""event"",""trial"",""time""
""fullscreenenter"",""1"",""5529""
","
","
","""event"",""trial"",""time""
""fullscreenenter"",""1"",""5529""
","
","","","","","","1389","images/boat4.png","","","learning","-6","0","0","0","boat","vehicles","1","0","","bad","[-6]"
"html-keyboard-response","84","511514","0.0-9.0-2.0-0.6","5759","1","11","Female","approach_avoid_spark_v1","""event"",""trial"",""time""
""fullscreenenter"",""1"",""5529""
","
","
","""event"",""trial"",""time""
""fullscreenenter"",""1"",""5529""
","
","","","","","","null","<div style=""font-size:60px;"">+</div>","null","","fixation","","","","","","","","","","",""
"aa-learning-trial","85","514535","0.0-9.0-2.0-1.6","5759","1","11","Female","approach_avoid_spark_v1","""event"",""trial"",""time""
""fullscreenenter"",""1"",""5529""
","
","
","""event"",""trial"",""time""
""fullscreenenter"",""1"",""5529""
","
","","","","","","1094.699999988079","images/plane5.png","","","learning","6","6","1","1","plane","vehicles","1","0","","good","[4]"
"html-keyboard-response","86","515054","0.0-9.0-2.0-0.7","5759","1","11","Female","approach_avoid_spark_v1","""event"",""trial"",""time""
""fullscreenenter"",""1"",""5529""
","
","
","""event"",""trial"",""time""
""fullscreenenter"",""1"",""5529""
","
","","","","","","null","<div style=""font-size:60px;"">+</div>","null","","fixation","","","","","","","","","","",""
"aa-learning-trial","87","518075","0.0-9.0-2.0-1.7","5759","1","11","Female","approach_avoid_spark_v1","""event"",""trial"",""time""
""fullscreenenter"",""1"",""5529""
","
","
","""event"",""trial"",""time""
""fullscreenenter"",""1"",""5529""
","
","","","","","","980.5999999940395","images/plane2.png","","","learning","5","0","0","0","plane","vehicles","1","0","","good","[4]"
"html-keyboard-response","88","518594","0.0-9.0-2.0-0.8","5759","1","11","Female","approach_avoid_spark_v1","""event"",""trial"",""time""
""fullscreenenter"",""1"",""5529""
","
","
","""event"",""trial"",""time""
""fullscreenenter"",""1"",""5529""
","
","","","","","","null","<div style=""font-size:60px;"">+</div>","null","","fixation","","","","","","","","","","",""
"aa-learning-trial","89","521610","0.0-9.0-2.0-1.8","5759","1","11","Female","approach_avoid_spark_v1","""event"",""trial"",""time""
""fullscreenenter"",""1"",""5529""
","
","
","""event"",""trial"",""time""
""fullscreenenter"",""1"",""5529""
","
","","","","","","1001.0999999940395","images/plane4.png","","","learning","3","3","1","1","plane","vehicles","1","0","","good","[4]"
"html-keyboard-response","90","522114","0.0-9.0-2.0-0.9","5759","1","11","Female","approach_avoid_spark_v1","""event"",""trial"",""time""
""fullscreenenter"",""1"",""5529""
","
","
","""event"",""trial"",""time""
""fullscreenenter"",""1"",""5529""
","
","","","","","","null","<div style=""font-size:60px;"">+</div>","null","","fixation","","","","","","","","","","",""
"aa-learning-trial","91","525124","0.0-9.0-2.0-1.9","5759","1","11","Female","approach_avoid_spark_v1","""event"",""trial"",""time""
""fullscreenenter"",""1"",""5529""
","
","
","""event"",""trial"",""time""
""fullscreenenter"",""1"",""5529""
","
","","","","","","898.4000000059605","images/truck8.png","","","learning","-1","0","0","0","truck","vehicles","1","0","","neutral","0"
"html-keyboard-response","92","525627","0.0-9.0-2.0-0.10","5759","1","11","Female","approach_avoid_spark_v1","""event"",""trial"",""time""
""fullscreenenter"",""1"",""5529""
","
","
","""event"",""trial"",""time""
""fullscreenenter"",""1"",""5529""
","
","","","","","","null","<div style=""font-size:60px;"">+</div>","null","","fixation","","","","","","","","","","",""
"aa-learning-trial","93","528636","0.0-9.0-2.0-1.10","5759","1","11","Female","approach_avoid_spark_v1","""event"",""trial"",""time""
""fullscreenenter"",""1"",""5529""
","
","
","""event"",""trial"",""time""
""fullscreenenter"",""1"",""5529""
","
","","","","","","904.2000000178814","images/boat3.png","","","learning","-5","0","0","0","boat","vehicles","1","0","","bad","[-6]"
"html-keyboard-response","94","529139","0.0-9.0-2.0-0.11","5759","1","11","Female","approach_avoid_spark_v1","""event"",""trial"",""time""
""fullscreenenter"",""1"",""5529""
","
","
","""event"",""trial"",""time""
""fullscreenenter"",""1"",""5529""
","
","","","","","","null","<div style=""font-size:60px;"">+</div>","null","","fixation","","","","","","","","","","",""
"aa-learning-trial","95","532147","0.0-9.0-2.0-1.11","5759","1","11","Female","approach_avoid_spark_v1","""event"",""trial"",""time""
""fullscreenenter"",""1"",""5529""
","
","
","""event"",""trial"",""time""
""fullscreenenter"",""1"",""5529""
","
","","","","","","896.5","images/truck8.png","","","learning","-1","0","0","0","truck","vehicles","1","0","","neutral","0"
"html-keyboard-response","96","532651","0.0-9.0-2.0-0.12","5759","1","11","Female","approach_avoid_spark_v1","""event"",""trial"",""time""
""fullscreenenter"",""1"",""5529""
","
","
","""event"",""trial"",""time""
""fullscreenenter"",""1"",""5529""
","
","","","","","","null","<div style=""font-size:60px;"">+</div>","null","","fixation","","","","","","","","","","",""
"aa-learning-trial","97","535659","0.0-9.0-2.0-1.12","5759","1","11","Female","approach_avoid_spark_v1","""event"",""trial"",""time""
""fullscreenenter"",""1"",""5529""
","
","
","""event"",""trial"",""time""
""fullscreenenter"",""1"",""5529""
","
","","","","","","1217.5","images/boat3.png","","","learning","-7","-7","1","1","boat","vehicles","1","0","","bad","[-6]"
"html-keyboard-response","98","536163","0.0-9.0-2.0-0.13","5759","1","11","Female","approach_avoid_spark_v1","""event"",""trial"",""time""
""fullscreenenter"",""1"",""5529""
","
","
","""event"",""trial"",""time""
""fullscreenenter"",""1"",""5529""
","
","","","","","","null","<div style=""font-size:60px;"">+</div>","null","","fixation","","","","","","","","","","",""
"aa-learning-trial","99","539171","0.0-9.0-2.0-1.13","5759","1","11","Female","approach_avoid_spark_v1","""event"",""trial"",""time""
""fullscreenenter"",""1"",""5529""
","
","
","""event"",""trial"",""time""
""fullscreenenter"",""1"",""5529""
","
","","","","","","977.8999999761581","images/truck3.png","","","learning","[-1]","0","0","0","truck","vehicles","1","0","","neutral","0"
"html-keyboard-response","100","539675","0.0-9.0-2.0-0.14","5759","1","11","Female","approach_avoid_spark_v1","""event"",""trial"",""time""
""fullscreenenter"",""1"",""5529""
","
","
","""event"",""trial"",""time""
""fullscreenenter"",""1"",""5529""
","
","","","","","","null","<div style=""font-size:60px;"">+</div>","null","","fixation","","","","","","","","","","",""
"aa-learning-trial","101","542683","0.0-9.0-2.0-1.14","5759","1","11","Female","approach_avoid_spark_v1","""event"",""trial"",""time""
""fullscreenenter"",""1"",""5529""
","
","
","""event"",""trial"",""time""
""fullscreenenter"",""1"",""5529""
","
","","","","","","777","images/boat1.png","","","learning","-7","0","0","0","boat","vehicles","1","0","","bad","[-6]"
"html-keyboard-response","102","543187","0.0-9.0-2.0-0.15","5759","1","11","Female","approach_avoid_spark_v1","""event"",""trial"",""time""
""fullscreenenter"",""1"",""5529""
","
","
","""event"",""trial"",""time""
""fullscreenenter"",""1"",""5529""
","
","","","","","","null","<div style=""font-size:60px;"">+</div>","null","","fixation","","","","","","","","","","",""
"aa-learning-trial","103","546196","0.0-9.0-2.0-1.15","5759","1","11","Female","approach_avoid_spark_v1","""event"",""trial"",""time""
""fullscreenenter"",""1"",""5529""
","
","
","""event"",""trial"",""time""
""fullscreenenter"",""1"",""5529""
","
","","","","","","753.4000000059605","images/boat2.png","","","learning","-3","0","0","0","boat","vehicles","1","0","","bad","[-6]"
"html-keyboard-response","104","546699","0.0-9.0-2.0-0.16","5759","1","11","Female","approach_avoid_spark_v1","""event"",""trial"",""time""
""fullscreenenter"",""1"",""5529""
","
","
","""event"",""trial"",""time""
""fullscreenenter"",""1"",""5529""
","
","","","","","","null","<div style=""font-size:60px;"">+</div>","null","","fixation","","","","","","","","","","",""
"aa-learning-trial","105","549707","0.0-9.0-2.0-1.16","5759","1","11","Female","approach_avoid_spark_v1","""event"",""trial"",""time""
""fullscreenenter"",""1"",""5529""
","
","
","""event"",""trial"",""time""
""fullscreenenter"",""1"",""5529""
","
","","","","","","1697.7999999821186","images/boat4.png","","","learning","-3","-3","1","1","boat","vehicles","1","0","","bad","[-6]"
"html-keyboard-response","106","550211","0.0-9.0-2.0-0.17","5759","1","11","Female","approach_avoid_spark_v1","""event"",""trial"",""time""
""fullscreenenter"",""1"",""5529""
","
","
","""event"",""trial"",""time""
""fullscreenenter"",""1"",""5529""
","
","","","","","","null","<div style=""font-size:60px;"">+</div>","null","","fixation","","","","","","","","","","",""
"aa-learning-trial","107","553219","0.0-9.0-2.0-1.17","5759","1","11","Female","approach_avoid_spark_v1","""event"",""trial"",""time""
""fullscreenenter"",""1"",""5529""
","
","
","""event"",""trial"",""time""
""fullscreenenter"",""1"",""5529""
","
","","","","","","1562.9000000059605","images/truck2.png","","","learning","-2","0","0","0","truck","vehicles","1","0","","neutral","0"
"html-keyboard-response","108","553727","0.0-9.0-2.0-0.18","5759","1","11","Female","approach_avoid_spark_v1","""event"",""trial"",""time""
""fullscreenenter"",""1"",""5529""
","
","
","""event"",""trial"",""time""
""fullscreenenter"",""1"",""5529""
","
","","","","","","null","<div style=""font-size:60px;"">+</div>","null","","fixation","","","","","","","","","","",""
"aa-learning-trial","109","556740","0.0-9.0-2.0-1.18","5759","1","11","Female","approach_avoid_spark_v1","""event"",""trial"",""time""
""fullscreenenter"",""1"",""5529""
","
","
","""event"",""trial"",""time""
""fullscreenenter"",""1"",""5529""
","
","","","","","","933.9000000059605","images/plane4.png","","","learning","2","2","1","1","plane","vehicles","1","0","","good","[4]"
"html-keyboard-response","110","557244","0.0-9.0-2.0-0.19","5759","1","11","Female","approach_avoid_spark_v1","""event"",""trial"",""time""
""fullscreenenter"",""1"",""5529""
","
","
","""event"",""trial"",""time""
""fullscreenenter"",""1"",""5529""
","
","","","","","","null","<div style=""font-size:60px;"">+</div>","null","","fixation","","","","","","","","","","",""
"aa-learning-trial","111","560252","0.0-9.0-2.0-1.19","5759","1","11","Female","approach_avoid_spark_v1","""event"",""trial"",""time""
""fullscreenenter"",""1"",""5529""
","
","
","""event"",""trial"",""time""
""fullscreenenter"",""1"",""5529""
","
","","","","","","1143.699999988079","images/boat3.png","","","learning","-5","-5","1","1","boat","vehicles","1","0","","bad","[-6]"
"html-keyboard-response","112","560755","0.0-9.0-2.0-0.20","5759","1","11","Female","approach_avoid_spark_v1","""event"",""trial"",""time""
""fullscreenenter"",""1"",""5529""
","
","
","""event"",""trial"",""time""
""fullscreenenter"",""1"",""5529""
","
","","","","","","null","<div style=""font-size:60px;"">+</div>","null","","fixation","","","","","","","","","","",""
"aa-learning-trial","113","563763","0.0-9.0-2.0-1.20","5759","1","11","Female","approach_avoid_spark_v1","""event"",""trial"",""time""
""fullscreenenter"",""1"",""5529""
","
","
","""event"",""trial"",""time""
""fullscreenenter"",""1"",""5529""
","
","","","","","","688.5999999940395","images/plane2.png","","","learning","5","0","0","0","plane","vehicles","1","0","","good","[4]"
"html-keyboard-response","114","564267","0.0-9.0-2.0-0.21","5759","1","11","Female","approach_avoid_spark_v1","""event"",""trial"",""time""
""fullscreenenter"",""1"",""5529""
","
","
","""event"",""trial"",""time""
""fullscreenenter"",""1"",""5529""
","
","","","","","","null","<div style=""font-size:60px;"">+</div>","null","","fixation","","","","","","","","","","",""
"aa-learning-trial","115","567276","0.0-9.0-2.0-1.21","5759","1","11","Female","approach_avoid_spark_v1","""event"",""trial"",""time""
""fullscreenenter"",""1"",""5529""
","
","
","""event"",""trial"",""time""
""fullscreenenter"",""1"",""5529""
","
","","","","","","796.8000000119209","images/plane4.png","","","learning","3","3","1","1","plane","vehicles","1","0","","good","[4]"
"html-keyboard-response","116","567780","0.0-9.0-2.0-0.22","5759","1","11","Female","approach_avoid_spark_v1","""event"",""trial"",""time""
""fullscreenenter"",""1"",""5529""
","
","
","""event"",""trial"",""time""
""fullscreenenter"",""1"",""5529""
","
","","","","","","null","<div style=""font-size:60px;"">+</div>","null","","fixation","","","","","","","","","","",""
"aa-learning-trial","117","570789","0.0-9.0-2.0-1.22","5759","1","11","Female","approach_avoid_spark_v1","""event"",""trial"",""time""
""fullscreenenter"",""1"",""5529""
","
","
","""event"",""trial"",""time""
""fullscreenenter"",""1"",""5529""
","
","","","","","","860.5","images/plane4.png","","","learning","6","6","1","1","plane","vehicles","1","0","","good","[4]"
"html-keyboard-response","118","571292","0.0-9.0-2.0-0.23","5759","1","11","Female","approach_avoid_spark_v1","""event"",""trial"",""time""
""fullscreenenter"",""1"",""5529""
","
","
","""event"",""trial"",""time""
""fullscreenenter"",""1"",""5529""
","
","","","","","","null","<div style=""font-size:60px;"">+</div>","null","","fixation","","","","","","","","","","",""
"aa-learning-trial","119","574300","0.0-9.0-2.0-1.23","5759","1","11","Female","approach_avoid_spark_v1","""event"",""trial"",""time""
""fullscreenenter"",""1"",""5529""
","
","
","""event"",""trial"",""time""
""fullscreenenter"",""1"",""5529""
","
","","","","","","1066.0999999940395","images/plane5.png","","","learning","3","3","1","1","plane","vehicles","1","0","","good","[4]"
"html-keyboard-response","120","574815","0.0-9.0-2.0-0.24","5759","1","11","Female","approach_avoid_spark_v1","""event"",""trial"",""time""
""fullscreenenter"",""1"",""5529""
","
","
","""event"",""trial"",""time""
""fullscreenenter"",""1"",""5529""
","
","","","","","","null","<div style=""font-size:60px;"">+</div>","null","","fixation","","","","","","","","","","",""
"aa-learning-trial","121","577819","0.0-9.0-2.0-1.24","5759","1","11","Female","approach_avoid_spark_v1","""event"",""trial"",""time""
""fullscreenenter"",""1"",""5529""
","
","
","""event"",""trial"",""time""
""fullscreenenter"",""1"",""5529""
","
","","","","","","863.0999999940395","images/truck3.png","","","learning","-4","0","0","0","truck","vehicles","1","0","","neutral","0"
"html-keyboard-response","122","578324","0.0-9.0-2.0-0.25","5759","1","11","Female","approach_avoid_spark_v1","""event"",""trial"",""time""
""fullscreenenter"",""1"",""5529""
","
","
","""event"",""trial"",""time""
""fullscreenenter"",""1"",""5529""
","
","","","","","","null","<div style=""font-size:60px;"">+</div>","null","","fixation","","","","","","","","","","",""
"aa-learning-trial","123","581332","0.0-9.0-2.0-1.25","5759","1","11","Female","approach_avoid_spark_v1","""event"",""trial"",""time""
""fullscreenenter"",""1"",""5529""
","
","
","""event"",""trial"",""time""
""fullscreenenter"",""1"",""5529""
","
","","","","","","835.1000000238419","images/boat4.png","","","learning","-8","0","0","0","boat","vehicles","1","0","","bad","[-6]"
"html-keyboard-response","124","581836","0.0-9.0-2.0-0.26","5759","1","11","Female","approach_avoid_spark_v1","""event"",""trial"",""time""
""fullscreenenter"",""1"",""5529""
","
","
","""event"",""trial"",""time""
""fullscreenenter"",""1"",""5529""
","
","","","","","","null","<div style=""font-size:60px;"">+</div>","null","","fixation","","","","","","","","","","",""
"aa-learning-trial","125","584844","0.0-9.0-2.0-1.26","5759","1","11","Female","approach_avoid_spark_v1","""event"",""trial"",""time""
""fullscreenenter"",""1"",""5529""
","
","
","""event"",""trial"",""time""
""fullscreenenter"",""1"",""5529""
","
","","","","","","1128.6000000238419","images/plane5.png","","","learning","4","4","1","1","plane","vehicles","1","0","","good","[4]"
"html-keyboard-response","126","585348","0.0-9.0-2.0-0.27","5759","1","11","Female","approach_avoid_spark_v1","""event"",""trial"",""time""
""fullscreenenter"",""1"",""5529""
","
","
","""event"",""trial"",""time""
""fullscreenenter"",""1"",""5529""
","
","","","","","","null","<div style=""font-size:60px;"">+</div>","null","","fixation","","","","","","","","","","",""
"aa-learning-trial","127","588355","0.0-9.0-2.0-1.27","5759","1","11","Female","approach_avoid_spark_v1","""event"",""trial"",""time""
""fullscreenenter"",""1"",""5529""
","
","
","""event"",""trial"",""time""
""fullscreenenter"",""1"",""5529""
","
","","","","","","1072.9000000059605","images/plane4.png","","","learning","3","3","1","1","plane","vehicles","1","0","","good","[4]"
"html-keyboard-response","128","588860","0.0-9.0-2.0-0.28","5759","1","11","Female","approach_avoid_spark_v1","""event"",""trial"",""time""
""fullscreenenter"",""1"",""5529""
","
","
","""event"",""trial"",""time""
""fullscreenenter"",""1"",""5529""
","
","","","","","","null","<div style=""font-size:60px;"">+</div>","null","","fixation","","","","","","","","","","",""
"aa-learning-trial","129","591868","0.0-9.0-2.0-1.28","5759","1","11","Female","approach_avoid_spark_v1","""event"",""trial"",""time""
""fullscreenenter"",""1"",""5529""
","
","
","""event"",""trial"",""time""
""fullscreenenter"",""1"",""5529""
","
","","","","","","1057.5","images/plane1.png","","","learning","4","0","0","0","plane","vehicles","1","0","","good","[4]"
"html-keyboard-response","130","592372","0.0-9.0-2.0-0.29","5759","1","11","Female","approach_avoid_spark_v1","""event"",""trial"",""time""
""fullscreenenter"",""1"",""5529""
","
","
","""event"",""trial"",""time""
""fullscreenenter"",""1"",""5529""
","
","","","","","","null","<div style=""font-size:60px;"">+</div>","null","","fixation","","","","","","","","","","",""
"aa-learning-trial","131","595380","0.0-9.0-2.0-1.29","5759","1","11","Female","approach_avoid_spark_v1","""event"",""trial"",""time""
""fullscreenenter"",""1"",""5529""
","
","
","""event"",""trial"",""time""
""fullscreenenter"",""1"",""5529""
","
","","","","","","909.6999999880791","images/truck3.png","","","learning","2","0","0","0","truck","vehicles","1","0","","neutral","0"
"html-keyboard-response","132","595893","0.0-9.0-2.0-0.30","5759","1","11","Female","approach_avoid_spark_v1","""event"",""trial"",""time""
""fullscreenenter"",""1"",""5529""
","
","
","""event"",""trial"",""time""
""fullscreenenter"",""1"",""5529""
","
","","","","","","null","<div style=""font-size:60px;"">+</div>","null","","fixation","","","","","","","","","","",""
"aa-learning-trial","133","598900","0.0-9.0-2.0-1.30","5759","1","11","Female","approach_avoid_spark_v1","""event"",""trial"",""time""
""fullscreenenter"",""1"",""5529""
","
","
","""event"",""trial"",""time""
""fullscreenenter"",""1"",""5529""
","
","","","","","","874.2000000178814","images/plane5.png","","","learning","7","7","1","1","plane","vehicles","1","0","","good","[4]"
"html-keyboard-response","134","599404","0.0-9.0-2.0-0.31","5759","1","11","Female","approach_avoid_spark_v1","""event"",""trial"",""time""
""fullscreenenter"",""1"",""5529""
","
","
","""event"",""trial"",""time""
""fullscreenenter"",""1"",""5529""
","
","","","","","","null","<div style=""font-size:60px;"">+</div>","null","","fixation","","","","","","","","","","",""
"aa-learning-trial","135","602411","0.0-9.0-2.0-1.31","5759","1","11","Female","approach_avoid_spark_v1","""event"",""trial"",""time""
""fullscreenenter"",""1"",""5529""
","
","
","""event"",""trial"",""time""
""fullscreenenter"",""1"",""5529""
","
","","","","","","1084.8999999761581","images/truck8.png","","","learning","1","0","0","0","truck","vehicles","1","0","","neutral","0"
"html-keyboard-response","136","602916","0.0-9.0-2.0-0.32","5759","1","11","Female","approach_avoid_spark_v1","""event"",""trial"",""time""
""fullscreenenter"",""1"",""5529""
","
","
","""event"",""trial"",""time""
""fullscreenenter"",""1"",""5529""
","
","","","","","","null","<div style=""font-size:60px;"">+</div>","null","","fixation","","","","","","","","","","",""
"aa-learning-trial","137","605924","0.0-9.0-2.0-1.32","5759","1","11","Female","approach_avoid_spark_v1","""event"",""trial"",""time""
""fullscreenenter"",""1"",""5529""
","
","
","""event"",""trial"",""time""
""fullscreenenter"",""1"",""5529""
","
","","","","","","788","images/truck8.png","","","learning","-1","0","0","0","truck","vehicles","1","0","","neutral","0"
"html-keyboard-response","138","606428","0.0-9.0-2.0-0.33","5759","1","11","Female","approach_avoid_spark_v1","""event"",""trial"",""time""
""fullscreenenter"",""1"",""5529""
","
","
","""event"",""trial"",""time""
""fullscreenenter"",""1"",""5529""
","
","","","","","","null","<div style=""font-size:60px;"">+</div>","null","","fixation","","","","","","","","","","",""
"aa-learning-trial","139","609436","0.0-9.0-2.0-1.33","5759","1","11","Female","approach_avoid_spark_v1","""event"",""trial"",""time""
""fullscreenenter"",""1"",""5529""
","
","
","""event"",""trial"",""time""
""fullscreenenter"",""1"",""5529""
","
","","","","","","1541.5999999940395","images/boat4.png","","","learning","-3","0","0","0","boat","vehicles","1","0","","bad","[-6]"
"html-keyboard-response","140","609939","0.0-9.0-2.0-0.34","5759","1","11","Female","approach_avoid_spark_v1","""event"",""trial"",""time""
""fullscreenenter"",""1"",""5529""
","
","
","""event"",""trial"",""time""
""fullscreenenter"",""1"",""5529""
","
","","","","","","null","<div style=""font-size:60px;"">+</div>","null","","fixation","","","","","","","","","","",""
"aa-learning-trial","141","612954","0.0-9.0-2.0-1.34","5759","1","11","Female","approach_avoid_spark_v1","""event"",""trial"",""time""
""fullscreenenter"",""1"",""5529""
","
","
","""event"",""trial"",""time""
""fullscreenenter"",""1"",""5529""
","
","","","","","","883.6999999880791","images/plane5.png","","","learning","4","4","1","1","plane","vehicles","1","0","","good","[4]"
"html-keyboard-response","142","613459","0.0-9.0-2.0-0.35","5759","1","11","Female","approach_avoid_spark_v1","""event"",""trial"",""time""
""fullscreenenter"",""1"",""5529""
","
","
","""event"",""trial"",""time""
""fullscreenenter"",""1"",""5529""
","
","","","","","","null","<div style=""font-size:60px;"">+</div>","null","","fixation","","","","","","","","","","",""
"aa-learning-trial","143","616468","0.0-9.0-2.0-1.35","5759","1","11","Female","approach_avoid_spark_v1","""event"",""trial"",""time""
""fullscreenenter"",""1"",""5529""
","
","
","""event"",""trial"",""time""
""fullscreenenter"",""1"",""5529""
","
","","","","","","837.5","images/boat3.png","","","learning","-4","-4","1","1","boat","vehicles","1","0","","bad","[-6]"
"html-keyboard-response","144","616972","0.0-9.0-2.0-0.36","5759","1","11","Female","approach_avoid_spark_v1","""event"",""trial"",""time""
""fullscreenenter"",""1"",""5529""
","
","
","""event"",""trial"",""time""
""fullscreenenter"",""1"",""5529""
","
","","","","","","null","<div style=""font-size:60px;"">+</div>","null","","fixation","","","","","","","","","","",""
"aa-learning-trial","145","619980","0.0-9.0-2.0-1.36","5759","1","11","Female","approach_avoid_spark_v1","""event"",""trial"",""time""
""fullscreenenter"",""1"",""5529""
","
","
","""event"",""trial"",""time""
""fullscreenenter"",""1"",""5529""
","
","","","","","","1331.699999988079","images/boat1.png","","","learning","-5","-5","1","1","boat","vehicles","1","0","","bad","[-6]"
"html-keyboard-response","146","620484","0.0-9.0-2.0-0.37","5759","1","11","Female","approach_avoid_spark_v1","""event"",""trial"",""time""
""fullscreenenter"",""1"",""5529""
","
","
","""event"",""trial"",""time""
""fullscreenenter"",""1"",""5529""
","
","","","","","","null","<div style=""font-size:60px;"">+</div>","null","","fixation","","","","","","","","","","",""
"aa-learning-trial","147","623492","0.0-9.0-2.0-1.37","5759","1","11","Female","approach_avoid_spark_v1","""event"",""trial"",""time""
""fullscreenenter"",""1"",""5529""
","
","
","""event"",""trial"",""time""
""fullscreenenter"",""1"",""5529""
","
","","","","","","963.7000000178814","images/boat3.png","","","learning","-5","-5","1","1","boat","vehicles","1","0","","bad","[-6]"
"html-keyboard-response","148","623996","0.0-9.0-2.0-0.38","5759","1","11","Female","approach_avoid_spark_v1","""event"",""trial"",""time""
""fullscreenenter"",""1"",""5529""
","
","
","""event"",""trial"",""time""
""fullscreenenter"",""1"",""5529""
","
","","","","","","null","<div style=""font-size:60px;"">+</div>","null","","fixation","","","","","","","","","","",""
"aa-learning-trial","149","627004","0.0-9.0-2.0-1.38","5759","1","11","Female","approach_avoid_spark_v1","""event"",""trial"",""time""
""fullscreenenter"",""1"",""5529""
","
","
","""event"",""trial"",""time""
""fullscreenenter"",""1"",""5529""
","
","","","","","","851.6999999880791","images/truck4.png","","","learning","-1","0","0","0","truck","vehicles","1","0","","neutral","0"
"html-keyboard-response","150","627507","0.0-9.0-2.0-0.39","5759","1","11","Female","approach_avoid_spark_v1","""event"",""trial"",""time""
""fullscreenenter"",""1"",""5529""
","
","
","""event"",""trial"",""time""
""fullscreenenter"",""1"",""5529""
","
","","","","","","null","<div style=""font-size:60px;"">+</div>","null","","fixation","","","","","","","","","","",""
"aa-learning-trial","151","630517","0.0-9.0-2.0-1.39","5759","1","11","Female","approach_avoid_spark_v1","""event"",""trial"",""time""
""fullscreenenter"",""1"",""5529""
","
","
","""event"",""trial"",""time""
""fullscreenenter"",""1"",""5529""
","
","","","","","","1084.2999999821186","images/truck2.png","","","learning","-1","0","0","0","truck","vehicles","1","0","","neutral","0"
"html-keyboard-response","152","631020","0.0-9.0-2.0-0.40","5759","1","11","Female","approach_avoid_spark_v1","""event"",""trial"",""time""
""fullscreenenter"",""1"",""5529""
","
","
","""event"",""trial"",""time""
""fullscreenenter"",""1"",""5529""
","
","","","","","","null","<div style=""font-size:60px;"">+</div>","null","","fixation","","","","","","","","","","",""
"aa-learning-trial","153","634028","0.0-9.0-2.0-1.40","5759","1","11","Female","approach_avoid_spark_v1","""event"",""trial"",""time""
""fullscreenenter"",""1"",""5529""
","
","
","""event"",""trial"",""time""
""fullscreenenter"",""1"",""5529""
","
","","","","","","1323.4000000059605","images/boat1.png","","","learning","-5","-5","1","1","boat","vehicles","1","0","","bad","[-6]"
"html-keyboard-response","154","634531","0.0-9.0-2.0-0.41","5759","1","11","Female","approach_avoid_spark_v1","""event"",""trial"",""time""
""fullscreenenter"",""1"",""5529""
","
","
","""event"",""trial"",""time""
""fullscreenenter"",""1"",""5529""
","
","","","","","","null","<div style=""font-size:60px;"">+</div>","null","","fixation","","","","","","","","","","",""
"aa-learning-trial","155","637540","0.0-9.0-2.0-1.41","5759","1","11","Female","approach_avoid_spark_v1","""event"",""trial"",""time""
""fullscreenenter"",""1"",""5529""
","
","
","""event"",""trial"",""time""
""fullscreenenter"",""1"",""5529""
","
","","","","","","796.9000000059605","images/boat6.png","","","learning","-5","-5","1","1","boat","vehicles","1","0","","bad","[-6]"
"html-keyboard-response","156","638044","0.0-9.0-2.0-0.42","5759","1","11","Female","approach_avoid_spark_v1","""event"",""trial"",""time""
""fullscreenenter"",""1"",""5529""
","
","
","""event"",""trial"",""time""
""fullscreenenter"",""1"",""5529""
","
","","","","","","null","<div style=""font-size:60px;"">+</div>","null","","fixation","","","","","","","","","","",""
"aa-learning-trial","157","641052","0.0-9.0-2.0-1.42","5759","1","11","Female","approach_avoid_spark_v1","""event"",""trial"",""time""
""fullscreenenter"",""1"",""5529""
","
","
","""event"",""trial"",""time""
""fullscreenenter"",""1"",""5529""
","
","","","","","","867.6999999880791","images/plane8.png","","","learning","4","4","1","1","plane","vehicles","1","0","","good","[4]"
"html-keyboard-response","158","641556","0.0-9.0-2.0-0.43","5759","1","11","Female","approach_avoid_spark_v1","""event"",""trial"",""time""
""fullscreenenter"",""1"",""5529""
","
","
","""event"",""trial"",""time""
""fullscreenenter"",""1"",""5529""
","
","","","","","","null","<div style=""font-size:60px;"">+</div>","null","","fixation","","","","","","","","","","",""
"aa-learning-trial","159","644564","0.0-9.0-2.0-1.43","5759","1","11","Female","approach_avoid_spark_v1","""event"",""trial"",""time""
""fullscreenenter"",""1"",""5529""
","
","
","""event"",""trial"",""time""
""fullscreenenter"",""1"",""5529""
","
","","","","","","843.6000000238419","images/truck2.png","","","learning","[1]","0","0","0","truck","vehicles","1","0","","neutral","0"
"html-keyboard-response","160","645068","0.0-9.0-2.0-0.44","5759","1","11","Female","approach_avoid_spark_v1","""event"",""trial"",""time""
""fullscreenenter"",""1"",""5529""
","
","
","""event"",""trial"",""time""
""fullscreenenter"",""1"",""5529""
","
","","","","","","null","<div style=""font-size:60px;"">+</div>","null","","fixation","","","","","","","","","","",""
"aa-learning-trial","161","648075","0.0-9.0-2.0-1.44","5759","1","11","Female","approach_avoid_spark_v1","""event"",""trial"",""time""
""fullscreenenter"",""1"",""5529""
","
","
","""event"",""trial"",""time""
""fullscreenenter"",""1"",""5529""
","
","","","","","","804.2000000178814","images/plane2.png","","","learning","4","0","0","0","plane","vehicles","1","0","","good","[4]"
"html-keyboard-response","162","648580","0.0-9.0-2.0-0.45","5759","1","11","Female","approach_avoid_spark_v1","""event"",""trial"",""time""
""fullscreenenter"",""1"",""5529""
","
","
","""event"",""trial"",""time""
""fullscreenenter"",""1"",""5529""
","
","","","","","","null","<div style=""font-size:60px;"">+</div>","null","","fixation","","","","","","","","","","",""
"aa-learning-trial","163","651588","0.0-9.0-2.0-1.45","5759","1","11","Female","approach_avoid_spark_v1","""event"",""trial"",""time""
""fullscreenenter"",""1"",""5529""
","
","
","""event"",""trial"",""time""
""fullscreenenter"",""1"",""5529""
","
","","","","","","884.6999999880791","images/truck8.png","","","learning","1","0","0","0","truck","vehicles","1","0","","neutral","0"
"html-keyboard-response","164","652092","0.0-9.0-2.0-0.46","5759","1","11","Female","approach_avoid_spark_v1","""event"",""trial"",""time""
""fullscreenenter"",""1"",""5529""
","
","
","""event"",""trial"",""time""
""fullscreenenter"",""1"",""5529""
","
","","","","","","null","<div style=""font-size:60px;"">+</div>","null","","fixation","","","","","","","","","","",""
"aa-learning-trial","165","655100","0.0-9.0-2.0-1.46","5759","1","11","Female","approach_avoid_spark_v1","""event"",""trial"",""time""
""fullscreenenter"",""1"",""5529""
","
","
","""event"",""trial"",""time""
""fullscreenenter"",""1"",""5529""
","
","","","","","","876.1999999880791","images/boat3.png","","","learning","-7","-7","1","1","boat","vehicles","1","0","","bad","[-6]"
"html-keyboard-response","166","655605","0.0-9.0-2.0-0.47","5759","1","11","Female","approach_avoid_spark_v1","""event"",""trial"",""time""
""fullscreenenter"",""1"",""5529""
","
","
","""event"",""trial"",""time""
""fullscreenenter"",""1"",""5529""
","
","","","","","","null","<div style=""font-size:60px;"">+</div>","null","","fixation","","","","","","","","","","",""
"aa-learning-trial","167","658612","0.0-9.0-2.0-1.47","5759","1","11","Female","approach_avoid_spark_v1","""event"",""trial"",""time""
""fullscreenenter"",""1"",""5529""
","
","
","""event"",""trial"",""time""
""fullscreenenter"",""1"",""5529""
","
","","","","","","1267.5999999940395","images/boat4.png","","","learning","-4","-4","1","1","boat","vehicles","1","0","","bad","[-6]"
"html-keyboard-response","168","659116","0.0-9.0-2.0-0.48","5759","1","11","Female","approach_avoid_spark_v1","""event"",""trial"",""time""
""fullscreenenter"",""1"",""5529""
","
","
","""event"",""trial"",""time""
""fullscreenenter"",""1"",""5529""
","
","","","","","","null","<div style=""font-size:60px;"">+</div>","null","","fixation","","","","","","","","","","",""
"aa-learning-trial","169","662124","0.0-9.0-2.0-1.48","5759","1","11","Female","approach_avoid_spark_v1","""event"",""trial"",""time""
""fullscreenenter"",""1"",""5529""
","
","
","""event"",""trial"",""time""
""fullscreenenter"",""1"",""5529""
","
","","","","","","940.6999999880791","images/truck6.png","","","learning","-2","0","0","0","truck","vehicles","1","0","","neutral","0"
"html-keyboard-response","170","662627","0.0-9.0-2.0-0.49","5759","1","11","Female","approach_avoid_spark_v1","""event"",""trial"",""time""
""fullscreenenter"",""1"",""5529""
","
","
","""event"",""trial"",""time""
""fullscreenenter"",""1"",""5529""
","
","","","","","","null","<div style=""font-size:60px;"">+</div>","null","","fixation","","","","","","","","","","",""
"aa-learning-trial","171","665636","0.0-9.0-2.0-1.49","5759","1","11","Female","approach_avoid_spark_v1","""event"",""trial"",""time""
""fullscreenenter"",""1"",""5529""
","
","
","""event"",""trial"",""time""
""fullscreenenter"",""1"",""5529""
","
","","","","","","1486.4000000059605","images/truck2.png","","","learning","-1","-1","1","1","truck","vehicles","1","0","","neutral","0"
"html-keyboard-response","172","666140","0.0-9.0-2.0-0.50","5759","1","11","Female","approach_avoid_spark_v1","""event"",""trial"",""time""
""fullscreenenter"",""1"",""5529""
","
","
","""event"",""trial"",""time""
""fullscreenenter"",""1"",""5529""
","
","","","","","","null","<div style=""font-size:60px;"">+</div>","null","","fixation","","","","","","","","","","",""
"aa-learning-trial","173","669147","0.0-9.0-2.0-1.50","5759","1","11","Female","approach_avoid_spark_v1","""event"",""trial"",""time""
""fullscreenenter"",""1"",""5529""
","
","
","""event"",""trial"",""time""
""fullscreenenter"",""1"",""5529""
","
","","","","","","1267.3999999761581","images/truck8.png","","","learning","3","0","0","0","truck","vehicles","1","0","","neutral","0"
"html-button-response","174","676210","0.0-9.0-3.0","5759","1","11","Female","approach_avoid_spark_v1","""event"",""trial"",""time""
""fullscreenenter"",""1"",""5529""
","
","
","""event"",""trial"",""time""
""fullscreenenter"",""1"",""5529""
","
","","","","","","7060.5","<p> You have completed the round! <p> In this round, you earned 0 points! </p>","0","","break","","","","","","","","","","",""
"html-button-response","175","678522","0.0-10.0","5759","1","11","Female","approach_avoid_spark_v1","""event"",""trial"",""time""
""fullscreenenter"",""1"",""5529""
","
","
","""event"",""trial"",""time""
""fullscreenenter"",""1"",""5529""
","
","","","","","","2311.5","<p> Now it's time to play another round. </p>","0","","transition_screen","","","","","","","","","","",""
"preload","176","678664","0.0-11.0-0.0","5759","1","11","Female","approach_avoid_spark_v1","""event"",""trial"",""time""
""fullscreenenter"",""1"",""5529""
","
","
","""event"",""trial"",""time""
""fullscreenenter"",""1"",""5529""
","
","true","false","[]","[]","[]","","","","","","","","","","","","","","","",""
"learning-instructions","177","686411","0.0-11.0-1.0-0.0","5759","1","11","Female","approach_avoid_spark_v1","""event"",""trial"",""time""
""fullscreenenter"",""1"",""5529""
","
","
","""event"",""trial"",""time""
""fullscreenenter"",""1"",""5529""
","
","","","","","","2971.2999999821186","<p> Your goal in this round is to take care of lots of farm animals. </p></div>","","0","instructions","","","","","","","","","","",""
"learning-instructions","178","699715","0.0-11.0-1.0-0.1","5759","1","11","Female","approach_avoid_spark_v1","""event"",""trial"",""time""
""fullscreenenter"",""1"",""5529""
","
","
","""event"",""trial"",""time""
""fullscreenenter"",""1"",""5529""
","
","","","","","","3195.4000000059605","<p> Some farm animals are hungry, while other farm animals are already full.  </p><p> On each turn, you will see a farm animal.   </p><p> You need to decide whether to feed it or not.  </p>","","0","instructions","","","","","","","","","","",""
"learning-instructions","179","707332","0.0-11.0-1.0-0.2","5759","1","11","Female","approach_avoid_spark_v1","""event"",""trial"",""time""
""fullscreenenter"",""1"",""5529""
","
","
","""event"",""trial"",""time""
""fullscreenenter"",""1"",""5529""
","
","","","","","","1560.2999999821186","<p> You can feed the farm animal by pressing 1 and leave the farm animal alone by pressing 0. </p><br><div class=""choice-instructions-grid""> <div class=""choice-option""><img src=""images/approach.png"" class=""choice-option-img"" stage=""instructions"" position=""0"" ><div class=""choice-option-text""> Press ""1."" </div></div><div class=""choice-option""><img src=""images/avoid.png"" class=""choice-option-img"" stage=""instructions"" position=""1"" ><div class=""choice-option-text""> Press ""0."" </div></div>","","0","instructions","","","","","","","","","","",""
"learning-instructions","180","718740","0.0-11.0-1.0-0.3","5759","1","11","Female","approach_avoid_spark_v1","""event"",""trial"",""time""
""fullscreenenter"",""1"",""5529""
","
","
","""event"",""trial"",""time""
""fullscreenenter"",""1"",""5529""
","
","","","","","","1688.9000000059605","<p> If you feed a hungry farm animal, you will make it feel satisfied! </p><p> But if you feed the farm animal and it was already full, you will make it feel sick. </p>","","0","instructions","","","","","","","","","","",""
"learning-instructions","181","733380","0.0-11.0-1.0-0.4","5759","1","11","Female","approach_avoid_spark_v1","""event"",""trial"",""time""
""fullscreenenter"",""1"",""5529""
","
","
","""event"",""trial"",""time""
""fullscreenenter"",""1"",""5529""
","
","","","","","","1399","<p> You will earn points based on how you made the farm animal feel. </p><p> If you made it satisfied, you will WIN anywhere from 1 - 9 points, </p><p> but if you made it sick, you will LOSE anywhere from 1 - 9 points. </p>","","0","instructions","","","","","","","","","","",""
"learning-instructions","182","743941","0.0-11.0-1.0-0.5","5759","1","11","Female","approach_avoid_spark_v1","""event"",""trial"",""time""
""fullscreenenter"",""1"",""5529""
","
","
","""event"",""trial"",""time""
""fullscreenenter"",""1"",""5529""
","
","","","","","","3898.7999999821186","<p> You will see how many points you won or lost in the center of the screen. </p><p> Here is what you would see if you won 5 points: </p><p style=""color:green;font-size:50px;font-weight:bolder"">5</p>","","0","instructions","","","","","","","","","","",""
"learning-instructions","183","747340","0.0-11.0-1.0-0.6","5759","1","11","Female","approach_avoid_spark_v1","""event"",""trial"",""time""
""fullscreenenter"",""1"",""5529""
","
","
","""event"",""trial"",""time""
""fullscreenenter"",""1"",""5529""
","
","","","","","","558.9000000059605","<p> And here is what you would see if you lost 3 points: </p><p style=""color:red;font-size:50px;font-weight:bolder"">-3</p>","","0","instructions","","","","","","","","","","",""
"learning-instructions","184","772653","0.0-11.0-1.0-0.7","5759","1","11","Female","approach_avoid_spark_v1","""event"",""trial"",""time""
""fullscreenenter"",""1"",""5529""
","
","
","""event"",""trial"",""time""
""fullscreenenter"",""1"",""5529""
","
","","","","","","4150.699999988079","<p> Some farm animals will become very satisfied or very sick. </p><p> These farm animals will make you win or lose LOTS of points. </p><p> Other farm animals have less strong feelings. </p><p> These farm animals will make you win or lose small amounts of points. </p>","","0","instructions","","","","","","","","","","",""
"learning-instructions","185","786205","0.0-11.0-1.0-0.8","5759","1","11","Female","approach_avoid_spark_v1","""event"",""trial"",""time""
""fullscreenenter"",""1"",""5529""
","
","
","""event"",""trial"",""time""
""fullscreenenter"",""1"",""5529""
","
","","","","","","702.6999999880791","<p> If you choose to leave the farm animal alone, you will not win or lose any points. </p><p>  However, in the center of the screen, you will see the number of points you WOULD HAVE won or lost if you had fed the farm animal. </p>","","0","instructions","","","","","","","","","","",""
"learning-instructions","186","799486","0.0-11.0-1.0-0.9","5759","1","11","Female","approach_avoid_spark_v1","""event"",""trial"",""time""
""fullscreenenter"",""1"",""5529""
","
","
","""event"",""trial"",""time""
""fullscreenenter"",""1"",""5529""
","
","","","","","","1552.5999999940395","<p> Here is what you might see if you did not feed the farm animal but the animal was hungry: </p><p style=""color:grey; font-size:50px; display: inline-block; border-spacing: 15px; border-width:3px; border-style:solid; border-color:red"">  &nbsp; 6 &nbsp; </p><p> Remember, in this case, you would not win or lose ANY points because you did not feed the farm animal.  </p>","","0","instructions","","","","","","","","","","",""
"learning-instructions","187","808070","0.0-11.0-1.0-0.10","5759","1","11","Female","approach_avoid_spark_v1","""event"",""trial"",""time""
""fullscreenenter"",""1"",""5529""
","
","
","""event"",""trial"",""time""
""fullscreenenter"",""1"",""5529""
","
","","","","","","576.3999999761581","<p> Try to make the best choice for each farm animal because </p><p> at the end of the game, you will earn bonus money based on how many points you earned. </p>","","0","instructions","","","","","","","","","","",""
"learning-instructions","188","816886","0.0-11.0-1.0-0.11","5759","1","11","Female","approach_avoid_spark_v1","""event"",""trial"",""time""
""fullscreenenter"",""1"",""5529""
","
","
","""event"",""trial"",""time""
""fullscreenenter"",""1"",""5529""
","
","","","","","","622.7000000178814","<p> You will have 3 seconds to make each choice. Try to respond before time runs out! </p><p> You will lose 5 points each time you do not make a response. </p>","","0","instructions","","","","","","","","","","",""
"html-keyboard-response","189","817528","0.0-11.0-2.0-0.0","5759","1","11","Female","approach_avoid_spark_v1","""event"",""trial"",""time""
""fullscreenenter"",""1"",""5529""
","
","
","""event"",""trial"",""time""
""fullscreenenter"",""1"",""5529""
","
","","","","","","null","<div style=""font-size:60px;"">+</div>","null","","fixation","","","","","","","","","","",""
"aa-learning-trial","190","820559","0.0-11.0-2.0-1.0","5759","1","11","Female","approach_avoid_spark_v1","""event"",""trial"",""time""
""fullscreenenter"",""1"",""5529""
","
","
","""event"",""trial"",""time""
""fullscreenenter"",""1"",""5529""
","
","","","","","","923.1999999880791","images/cow6.png","","","learning","1","1","1","1","cow","animals","2","1","","neutral","0"
"html-keyboard-response","191","821077","0.0-11.0-2.0-0.1","5759","1","11","Female","approach_avoid_spark_v1","""event"",""trial"",""time""
""fullscreenenter"",""1"",""5529""
","
","
","""event"",""trial"",""time""
""fullscreenenter"",""1"",""5529""
","
","","","","","","null","<div style=""font-size:60px;"">+</div>","null","","fixation","","","","","","","","","","",""
"aa-learning-trial","192","824098","0.0-11.0-2.0-1.1","5759","1","11","Female","approach_avoid_spark_v1","""event"",""trial"",""time""
""fullscreenenter"",""1"",""5529""
","
","
","""event"",""trial"",""time""
""fullscreenenter"",""1"",""5529""
","
","","","","","","562.5","images/sheep4.png","","","learning","-2","0","0","0","sheep","animals","2","1","","bad","[-3]"
"html-keyboard-response","193","824618","0.0-11.0-2.0-0.2","5759","1","11","Female","approach_avoid_spark_v1","""event"",""trial"",""time""
""fullscreenenter"",""1"",""5529""
","
","
","""event"",""trial"",""time""
""fullscreenenter"",""1"",""5529""
","
","","","","","","null","<div style=""font-size:60px;"">+</div>","null","","fixation","","","","","","","","","","",""
"aa-learning-trial","194","827638","0.0-11.0-2.0-1.2","5759","1","11","Female","approach_avoid_spark_v1","""event"",""trial"",""time""
""fullscreenenter"",""1"",""5529""
","
","
","""event"",""trial"",""time""
""fullscreenenter"",""1"",""5529""
","
","","","","","","611.6999999880791","images/goat7.png","","","learning","6","0","0","0","goat","animals","2","1","","good","[5]"
"html-keyboard-response","195","828158","0.0-11.0-2.0-0.3","5759","1","11","Female","approach_avoid_spark_v1","""event"",""trial"",""time""
""fullscreenenter"",""1"",""5529""
","
","
","""event"",""trial"",""time""
""fullscreenenter"",""1"",""5529""
","
","","","","","","null","<div style=""font-size:60px;"">+</div>","null","","fixation","","","","","","","","","","",""
"aa-learning-trial","196","831178","0.0-11.0-2.0-1.3","5759","1","11","Female","approach_avoid_spark_v1","""event"",""trial"",""time""
""fullscreenenter"",""1"",""5529""
","
","
","""event"",""trial"",""time""
""fullscreenenter"",""1"",""5529""
","
","","","","","","648.2000000178814","images/cow8.png","","","learning","-9","-9","1","1","cow","animals","2","1","","neutral","0"
"html-keyboard-response","197","831698","0.0-11.0-2.0-0.4","5759","1","11","Female","approach_avoid_spark_v1","""event"",""trial"",""time""
""fullscreenenter"",""1"",""5529""
","
","
","""event"",""trial"",""time""
""fullscreenenter"",""1"",""5529""
","
","","","","","","null","<div style=""font-size:60px;"">+</div>","null","","fixation","","","","","","","","","","",""
"aa-learning-trial","198","834708","0.0-11.0-2.0-1.4","5759","1","11","Female","approach_avoid_spark_v1","""event"",""trial"",""time""
""fullscreenenter"",""1"",""5529""
","
","
","""event"",""trial"",""time""
""fullscreenenter"",""1"",""5529""
","
","","","","","","684.5","images/cow1.png","","","learning","9","9","1","1","cow","animals","2","1","","neutral","0"
"html-keyboard-response","199","835228","0.0-11.0-2.0-0.5","5759","1","11","Female","approach_avoid_spark_v1","""event"",""trial"",""time""
""fullscreenenter"",""1"",""5529""
","
","
","""event"",""trial"",""time""
""fullscreenenter"",""1"",""5529""
","
","","","","","","null","<div style=""font-size:60px;"">+</div>","null","","fixation","","","","","","","","","","",""
"aa-learning-trial","200","838249","0.0-11.0-2.0-1.5","5759","1","11","Female","approach_avoid_spark_v1","""event"",""trial"",""time""
""fullscreenenter"",""1"",""5529""
","
","
","""event"",""trial"",""time""
""fullscreenenter"",""1"",""5529""
","
","","","","","","625.2999999821186","images/goat7.png","","","learning","6","0","0","0","goat","animals","2","1","","good","[5]"
"html-keyboard-response","201","838768","0.0-11.0-2.0-0.6","5759","1","11","Female","approach_avoid_spark_v1","""event"",""trial"",""time""
""fullscreenenter"",""1"",""5529""
","
","
","""event"",""trial"",""time""
""fullscreenenter"",""1"",""5529""
","
","","","","","","null","<div style=""font-size:60px;"">+</div>","null","","fixation","","","","","","","","","","",""
"aa-learning-trial","202","841788","0.0-11.0-2.0-1.6","5759","1","11","Female","approach_avoid_spark_v1","""event"",""trial"",""time""
""fullscreenenter"",""1"",""5529""
","
","
","""event"",""trial"",""time""
""fullscreenenter"",""1"",""5529""
","
","","","","","","640.4000000059605","images/sheep7.png","","","learning","8","0","0","0","sheep","animals","2","1","","bad","[-3]"
"html-keyboard-response","203","842308","0.0-11.0-2.0-0.7","5759","1","11","Female","approach_avoid_spark_v1","""event"",""trial"",""time""
""fullscreenenter"",""1"",""5529""
","
","
","""event"",""trial"",""time""
""fullscreenenter"",""1"",""5529""
","
","","","","","","null","<div style=""font-size:60px;"">+</div>","null","","fixation","","","","","","","","","","",""
"aa-learning-trial","204","845329","0.0-11.0-2.0-1.7","5759","1","11","Female","approach_avoid_spark_v1","""event"",""trial"",""time""
""fullscreenenter"",""1"",""5529""
","
","
","""event"",""trial"",""time""
""fullscreenenter"",""1"",""5529""
","
","","","","","","495.69999998807907","images/sheep2.png","","","learning","3","3","1","1","sheep","animals","2","1","","bad","[-3]"
"html-keyboard-response","205","845849","0.0-11.0-2.0-0.8","5759","1","11","Female","approach_avoid_spark_v1","""event"",""trial"",""time""
""fullscreenenter"",""1"",""5529""
","
","
","""event"",""trial"",""time""
""fullscreenenter"",""1"",""5529""
","
","","","","","","null","<div style=""font-size:60px;"">+</div>","null","","fixation","","","","","","","","","","",""
"aa-learning-trial","206","848874","0.0-11.0-2.0-1.8","5759","1","11","Female","approach_avoid_spark_v1","""event"",""trial"",""time""
""fullscreenenter"",""1"",""5529""
","
","
","""event"",""trial"",""time""
""fullscreenenter"",""1"",""5529""
","
","","","","","","565","images/goat8.png","","","learning","-8","-8","1","1","goat","animals","2","1","","good","[5]"
"html-keyboard-response","207","849379","0.0-11.0-2.0-0.9","5759","1","11","Female","approach_avoid_spark_v1","""event"",""trial"",""time""
""fullscreenenter"",""1"",""5529""
","
","
","""event"",""trial"",""time""
""fullscreenenter"",""1"",""5529""
","
","","","","","","null","<div style=""font-size:60px;"">+</div>","null","","fixation","","","","","","","","","","",""
"aa-learning-trial","208","852388","0.0-11.0-2.0-1.9","5759","1","11","Female","approach_avoid_spark_v1","""event"",""trial"",""time""
""fullscreenenter"",""1"",""5529""
","
","
","""event"",""trial"",""time""
""fullscreenenter"",""1"",""5529""
","
","","","","","","731.9000000059605","images/sheep2.png","","","learning","3","0","0","0","sheep","animals","2","1","","bad","[-3]"
"html-keyboard-response","209","852892","0.0-11.0-2.0-0.10","5759","1","11","Female","approach_avoid_spark_v1","""event"",""trial"",""time""
""fullscreenenter"",""1"",""5529""
","
","
","""event"",""trial"",""time""
""fullscreenenter"",""1"",""5529""
","
","","","","","","null","<div style=""font-size:60px;"">+</div>","null","","fixation","","","","","","","","","","",""
"aa-learning-trial","210","855899","0.0-11.0-2.0-1.10","5759","1","11","Female","approach_avoid_spark_v1","""event"",""trial"",""time""
""fullscreenenter"",""1"",""5529""
","
","
","""event"",""trial"",""time""
""fullscreenenter"",""1"",""5529""
","
","","","","","","594.0999999940395","images/cow8.png","","","learning","-9","-9","1","1","cow","animals","2","1","","neutral","0"
"html-keyboard-response","211","856403","0.0-11.0-2.0-0.11","5759","1","11","Female","approach_avoid_spark_v1","""event"",""trial"",""time""
""fullscreenenter"",""1"",""5529""
","
","
","""event"",""trial"",""time""
""fullscreenenter"",""1"",""5529""
","
","","","","","","null","<div style=""font-size:60px;"">+</div>","null","","fixation","","","","","","","","","","",""
"aa-learning-trial","212","859412","0.0-11.0-2.0-1.11","5759","1","11","Female","approach_avoid_spark_v1","""event"",""trial"",""time""
""fullscreenenter"",""1"",""5529""
","
","
","""event"",""trial"",""time""
""fullscreenenter"",""1"",""5529""
","
","","","","","","611.3000000119209","images/goat8.png","","","learning","-8","0","0","0","goat","animals","2","1","","good","[5]"
"html-keyboard-response","213","859919","0.0-11.0-2.0-0.12","5759","1","11","Female","approach_avoid_spark_v1","""event"",""trial"",""time""
""fullscreenenter"",""1"",""5529""
","
","
","""event"",""trial"",""time""
""fullscreenenter"",""1"",""5529""
","
","","","","","","null","<div style=""font-size:60px;"">+</div>","null","","fixation","","","","","","","","","","",""
"aa-learning-trial","214","862923","0.0-11.0-2.0-1.12","5759","1","11","Female","approach_avoid_spark_v1","""event"",""trial"",""time""
""fullscreenenter"",""1"",""5529""
","
","
","""event"",""trial"",""time""
""fullscreenenter"",""1"",""5529""
","
","","","","","","696.6000000238419","images/goat2.png","","","learning","-1","0","0","0","goat","animals","2","1","","good","[5]"
"html-keyboard-response","215","863428","0.0-11.0-2.0-0.13","5759","1","11","Female","approach_avoid_spark_v1","""event"",""trial"",""time""
""fullscreenenter"",""1"",""5529""
","
","
","""event"",""trial"",""time""
""fullscreenenter"",""1"",""5529""
","
","","","","","","null","<div style=""font-size:60px;"">+</div>","null","","fixation","","","","","","","","","","",""
"aa-learning-trial","216","866435","0.0-11.0-2.0-1.13","5759","1","11","Female","approach_avoid_spark_v1","""event"",""trial"",""time""
""fullscreenenter"",""1"",""5529""
","
","
","""event"",""trial"",""time""
""fullscreenenter"",""1"",""5529""
","
","","","","","","685.5","images/sheep4.png","","","learning","-2","0","0","0","sheep","animals","2","1","","bad","[-3]"
"html-keyboard-response","217","866938","0.0-11.0-2.0-0.14","5759","1","11","Female","approach_avoid_spark_v1","""event"",""trial"",""time""
""fullscreenenter"",""1"",""5529""
","
","
","""event"",""trial"",""time""
""fullscreenenter"",""1"",""5529""
","
","","","","","","null","<div style=""font-size:60px;"">+</div>","null","","fixation","","","","","","","","","","",""
"aa-learning-trial","218","869949","0.0-11.0-2.0-1.14","5759","1","11","Female","approach_avoid_spark_v1","""event"",""trial"",""time""
""fullscreenenter"",""1"",""5529""
","
","
","""event"",""trial"",""time""
""fullscreenenter"",""1"",""5529""
","
","","","","","","523.7999999821186","images/cow1.png","","","learning","9","9","1","1","cow","animals","2","1","","neutral","0"
"html-keyboard-response","219","870452","0.0-11.0-2.0-0.15","5759","1","11","Female","approach_avoid_spark_v1","""event"",""trial"",""time""
""fullscreenenter"",""1"",""5529""
","
","
","""event"",""trial"",""time""
""fullscreenenter"",""1"",""5529""
","
","","","","","","null","<div style=""font-size:60px;"">+</div>","null","","fixation","","","","","","","","","","",""
"aa-learning-trial","220","873459","0.0-11.0-2.0-1.15","5759","1","11","Female","approach_avoid_spark_v1","""event"",""trial"",""time""
""fullscreenenter"",""1"",""5529""
","
","
","""event"",""trial"",""time""
""fullscreenenter"",""1"",""5529""
","
","","","","","","954.4000000059605","images/cow1.png","","","learning","9","9","1","1","cow","animals","2","1","","neutral","0"
"html-keyboard-response","221","873964","0.0-11.0-2.0-0.16","5759","1","11","Female","approach_avoid_spark_v1","""event"",""trial"",""time""
""fullscreenenter"",""1"",""5529""
","
","
","""event"",""trial"",""time""
""fullscreenenter"",""1"",""5529""
","
","","","","","","null","<div style=""font-size:60px;"">+</div>","null","","fixation","","","","","","","","","","",""
"aa-learning-trial","222","876972","0.0-11.0-2.0-1.16","5759","1","11","Female","approach_avoid_spark_v1","""event"",""trial"",""time""
""fullscreenenter"",""1"",""5529""
","
","
","""event"",""trial"",""time""
""fullscreenenter"",""1"",""5529""
","
","","","","","","1140.800000011921","images/cow6.png","","","learning","1","0","0","0","cow","animals","2","1","","neutral","0"
"html-keyboard-response","223","877487","0.0-11.0-2.0-0.17","5759","1","11","Female","approach_avoid_spark_v1","""event"",""trial"",""time""
""fullscreenenter"",""1"",""5529""
","
","
","""event"",""trial"",""time""
""fullscreenenter"",""1"",""5529""
","
","","","","","","null","<div style=""font-size:60px;"">+</div>","null","","fixation","","","","","","","","","","",""
"aa-learning-trial","224","880492","0.0-11.0-2.0-1.17","5759","1","11","Female","approach_avoid_spark_v1","""event"",""trial"",""time""
""fullscreenenter"",""1"",""5529""
","
","
","""event"",""trial"",""time""
""fullscreenenter"",""1"",""5529""
","
","","","","","","695.1999999880791","images/goat2.png","","","learning","-1","0","0","0","goat","animals","2","1","","good","[5]"
"html-keyboard-response","225","880996","0.0-11.0-2.0-0.18","5759","1","11","Female","approach_avoid_spark_v1","""event"",""trial"",""time""
""fullscreenenter"",""1"",""5529""
","
","
","""event"",""trial"",""time""
""fullscreenenter"",""1"",""5529""
","
","","","","","","null","<div style=""font-size:60px;"">+</div>","null","","fixation","","","","","","","","","","",""
"aa-learning-trial","226","884005","0.0-11.0-2.0-1.18","5759","1","11","Female","approach_avoid_spark_v1","""event"",""trial"",""time""
""fullscreenenter"",""1"",""5529""
","
","
","""event"",""trial"",""time""
""fullscreenenter"",""1"",""5529""
","
","","","","","","1100.199999988079","images/goat1.png","","","learning","-3","-3","1","1","goat","animals","2","1","","good","[5]"
"html-keyboard-response","227","884508","0.0-11.0-2.0-0.19","5759","1","11","Female","approach_avoid_spark_v1","""event"",""trial"",""time""
""fullscreenenter"",""1"",""5529""
","
","
","""event"",""trial"",""time""
""fullscreenenter"",""1"",""5529""
","
","","","","","","null","<div style=""font-size:60px;"">+</div>","null","","fixation","","","","","","","","","","",""
"aa-learning-trial","228","887515","0.0-11.0-2.0-1.19","5759","1","11","Female","approach_avoid_spark_v1","""event"",""trial"",""time""
""fullscreenenter"",""1"",""5529""
","
","
","""event"",""trial"",""time""
""fullscreenenter"",""1"",""5529""
","
","","","","","","738.6000000238419","images/goat5.png","","","learning","5","0","0","0","goat","animals","2","1","","good","[5]"
"html-keyboard-response","229","888020","0.0-11.0-2.0-0.20","5759","1","11","Female","approach_avoid_spark_v1","""event"",""trial"",""time""
""fullscreenenter"",""1"",""5529""
","
","
","""event"",""trial"",""time""
""fullscreenenter"",""1"",""5529""
","
","","","","","","null","<div style=""font-size:60px;"">+</div>","null","","fixation","","","","","","","","","","",""
"aa-learning-trial","230","891028","0.0-11.0-2.0-1.20","5759","1","11","Female","approach_avoid_spark_v1","""event"",""trial"",""time""
""fullscreenenter"",""1"",""5529""
","
","
","""event"",""trial"",""time""
""fullscreenenter"",""1"",""5529""
","
","","","","","","803.5999999940395","images/goat7.png","","","learning","6","6","1","1","goat","animals","2","1","","good","[5]"
"html-keyboard-response","231","891532","0.0-11.0-2.0-0.21","5759","1","11","Female","approach_avoid_spark_v1","""event"",""trial"",""time""
""fullscreenenter"",""1"",""5529""
","
","
","""event"",""trial"",""time""
""fullscreenenter"",""1"",""5529""
","
","","","","","","null","<div style=""font-size:60px;"">+</div>","null","","fixation","","","","","","","","","","",""
"aa-learning-trial","232","894540","0.0-11.0-2.0-1.21","5759","1","11","Female","approach_avoid_spark_v1","""event"",""trial"",""time""
""fullscreenenter"",""1"",""5529""
","
","
","""event"",""trial"",""time""
""fullscreenenter"",""1"",""5529""
","
","","","","","","1236.300000011921","images/cow8.png","","","learning","-9","0","0","0","cow","animals","2","1","","neutral","0"
"html-keyboard-response","233","895044","0.0-11.0-2.0-0.22","5759","1","11","Female","approach_avoid_spark_v1","""event"",""trial"",""time""
""fullscreenenter"",""1"",""5529""
","
","
","""event"",""trial"",""time""
""fullscreenenter"",""1"",""5529""
","
","","","","","","null","<div style=""font-size:60px;"">+</div>","null","","fixation","","","","","","","","","","",""
"aa-learning-trial","234","898052","0.0-11.0-2.0-1.22","5759","1","11","Female","approach_avoid_spark_v1","""event"",""trial"",""time""
""fullscreenenter"",""1"",""5529""
","
","
","""event"",""trial"",""time""
""fullscreenenter"",""1"",""5529""
","
","","","","","","1275.9000000059605","images/cow7.png","","","learning","-4","-4","1","1","cow","animals","2","1","","neutral","0"
"html-keyboard-response","235","898557","0.0-11.0-2.0-0.23","5759","1","11","Female","approach_avoid_spark_v1","""event"",""trial"",""time""
""fullscreenenter"",""1"",""5529""
","
","
","""event"",""trial"",""time""
""fullscreenenter"",""1"",""5529""
","
","","","","","","null","<div style=""font-size:60px;"">+</div>","null","","fixation","","","","","","","","","","",""
"aa-learning-trial","236","901564","0.0-11.0-2.0-1.23","5759","1","11","Female","approach_avoid_spark_v1","""event"",""trial"",""time""
