"trial_type","trial_index","time_elapsed","internal_node_id","subject_id","task_condition","age","gender","task_version","interactions","blur_events","focus_events","fullscreenenter_events","fullscreenexit_events","success","timeout","failed_images","failed_audio","failed_video","rt","stimulus","response","button_pressed","task_part","approach_reward","points","key_press","option_selected","stim_cat","task_block","block_condition","block_number","correct","cat_type","mean_cat_reward"
"pavlovia","0","4","0.0-0.0","6280","1","14","Female","approach_avoid_spark_v1","""event"",""trial"",""time""
""fullscreenenter"",""1"",""1322""
","
","
","""event"",""trial"",""time""
""fullscreenenter"",""1"",""1322""
","
","","","","","","","","","","","","","","","","","","","","",""
"fullscreen","1","2319","0.0-1.0","6280","1","14","Female","approach_avoid_spark_v1","""event"",""trial"",""time""
""fullscreenenter"",""1"",""1322""
","
","
","""event"",""trial"",""time""
""fullscreenenter"",""1"",""1322""
","
","true","","","","","","","","","","","","","","","","","","","",""
"preload","2","7331","0.0-2.0","6280","1","14","Female","approach_avoid_spark_v1","""event"",""trial"",""time""
""fullscreenenter"",""1"",""1322""
","
","
","""event"",""trial"",""time""
""fullscreenenter"",""1"",""1322""
","
","true","false","[]","[]","[]","","","","","","","","","","","","","","","",""
"audio-keyboard-response","3","8683","0.0-3.0","6280","1","14","Female","approach_avoid_spark_v1","""event"",""trial"",""time""
""fullscreenenter"",""1"",""1322""
","
","
","""event"",""trial"",""time""
""fullscreenenter"",""1"",""1322""
","
","","","","","","1349.333333333334","audio/beep_loop.wav"," ","","","","","","","","","","","","",""
"audio-button-response","4","11128","0.0-4.0","6280","1","14","Female","approach_avoid_spark_v1","""event"",""trial"",""time""
""fullscreenenter"",""1"",""1322""
","
","
","""event"",""trial"",""time""
""fullscreenenter"",""1"",""1322""
","
","","","","","","2440","audio/shark.wav","4","","","","","","","","","","","","",""
"audio-button-response","5","13615","0.0-5.0","6280","1","14","Female","approach_avoid_spark_v1","""event"",""trial"",""time""
""fullscreenenter"",""1"",""1322""
","
","
","""event"",""trial"",""time""
""fullscreenenter"",""1"",""1322""
","
","","","","","","1480","audio/turtle.wav","1","","","","","","","","","","","","",""
"preload","6","17457","0.0-6.0","6280","1","14","Female","approach_avoid_spark_v1","""event"",""trial"",""time""
""fullscreenenter"",""1"",""1322""
","
","
","""event"",""trial"",""time""
""fullscreenenter"",""1"",""1322""
","
","true","false","[]","[]","[]","","","","","","","","","","","","","","","",""
"html-keyboard-response","7","18522","0.0-7.0","6280","1","14","Female","approach_avoid_spark_v1","""event"",""trial"",""time""
""fullscreenenter"",""1"",""1322""
","
","
","""event"",""trial"",""time""
""fullscreenenter"",""1"",""1322""
","
","","","","","","1064.3999999761581","Welcome to the experiment. Press any key to begin and to advance the instructions."," ","","","","","","","","","","","","",""
"learning-instructions","8","26671","0.0-8.0-0.0-0.0","6280","1","14","Female","approach_avoid_spark_v1","""event"",""trial"",""time""
""fullscreenenter"",""1"",""1322""
","
","
","""event"",""trial"",""time""
""fullscreenenter"",""1"",""1322""
","
","","","","","","1192","<p> Welcome! Today you are going to play 6 different rounds of a decision-making game. </p><p> Use the mouse to click next to continue. </p>","","0","instructions","","","","","","","","","","",""
"learning-instructions","9","30143","0.0-8.0-0.0-0.1","6280","1","14","Female","approach_avoid_spark_v1","""event"",""trial"",""time""
""fullscreenenter"",""1"",""1322""
","
","
","""event"",""trial"",""time""
""fullscreenenter"",""1"",""1322""
","
","","","","","","734.1999999880791","<p> You will start with a practice round to learn the rules. </p>","","0","instructions","","","","","","","","","","",""
"learning-instructions","10","34047","0.0-8.0-0.0-0.2","6280","1","14","Female","approach_avoid_spark_v1","""event"",""trial"",""time""
""fullscreenenter"",""1"",""1322""
","
","
","""event"",""trial"",""time""
""fullscreenenter"",""1"",""1322""
","
","","","","","","448.19999998807907","<p> Your goal in this round is to give out sports equipment to kids. </p></div>","","0","instructions","","","","","","","","","","",""
"learning-instructions","11","42007","0.0-8.0-0.0-0.3","6280","1","14","Female","approach_avoid_spark_v1","""event"",""trial"",""time""
""fullscreenenter"",""1"",""1322""
","
","
","""event"",""trial"",""time""
""fullscreenenter"",""1"",""1322""
","
","","","","","","408.5","<p> The kids only like some of the equipment.  </p><p> On each turn, you will see a piece of sports equipment.   </p><p> You need to decide whether to give it to the kids or not.  </p>","","0","instructions","","","","","","","","","","",""
"learning-instructions","12","47471","0.0-8.0-0.0-0.4","6280","1","14","Female","approach_avoid_spark_v1","""event"",""trial"",""time""
""fullscreenenter"",""1"",""1322""
","
","
","""event"",""trial"",""time""
""fullscreenenter"",""1"",""1322""
","
","","","","","","711.6999999880791","<p> You can give them the equipment by pressing 1 and choose not to give it to them by pressing 0. </p><br><div class=""choice-instructions-grid""> <div class=""choice-option""><img src=""images/approach.png"" class=""choice-option-img"" stage=""instructions"" position=""0"" ><div class=""choice-option-text""> Press ""1."" </div></div><div class=""choice-option""><img src=""images/avoid.png"" class=""choice-option-img"" stage=""instructions"" position=""1"" ><div class=""choice-option-text""> Press ""0."" </div></div>","","0","instructions","","","","","","","","","","",""
"learning-instructions","13","55263","0.0-8.0-0.0-0.5","6280","1","14","Female","approach_avoid_spark_v1","""event"",""trial"",""time""
""fullscreenenter"",""1"",""1322""
","
","
","""event"",""trial"",""time""
""fullscreenenter"",""1"",""1322""
","
","","","","","","404.10000002384186","<p> If you give them a piece of equipment they like, they will be happy! </p><p> But if you give them a piece of equipment they do not like, they will be sad. </p>","","0","instructions","","","","","","","","","","",""
"learning-instructions","14","66183","0.0-8.0-0.0-0.6","6280","1","14","Female","approach_avoid_spark_v1","""event"",""trial"",""time""
""fullscreenenter"",""1"",""1322""
","
","
","""event"",""trial"",""time""
""fullscreenenter"",""1"",""1322""
","
","","","","","","414.19999998807907","<p> You will earn points based on how you make kids feel. </p><p> If you make them happy, you will WIN anywhere from 1 - 9 points, </p><p> but if you make them sad, you will LOSE anywhere from 1 - 9 points. </p>","","0","instructions","","","","","","","","","","",""
"learning-instructions","15","76158","0.0-8.0-0.0-0.7","6280","1","14","Female","approach_avoid_spark_v1","""event"",""trial"",""time""
""fullscreenenter"",""1"",""1322""
","
","
","""event"",""trial"",""time""
""fullscreenenter"",""1"",""1322""
","
","","","","","","420.19999998807907","<p> You will see how many points you won or lost in the center of the screen. </p><p> Here is what you would see if you won 6 points: </p><p style=""color:green;font-size:50px;font-weight:bolder"">6</p><p style=""color:green"">The text is GREEN because you WON points.</p>","","0","instructions","","","","","","","","","","",""
"learning-instructions","16","81982","0.0-8.0-0.0-0.8","6280","1","14","Female","approach_avoid_spark_v1","""event"",""trial"",""time""
""fullscreenenter"",""1"",""1322""
","
","
","""event"",""trial"",""time""
""fullscreenenter"",""1"",""1322""
","
","","","","","","314","<p> And here is what you would see if you lost 4 points: </p><p style=""color:red;font-size:50px;font-weight:bolder"">-4</p><p style=""color:red"">The text is RED because you LOST points. </p>","","0","instructions","","","","","","","","","","",""
"learning-instructions","17","97095","0.0-8.0-0.0-0.9","6280","1","14","Female","approach_avoid_spark_v1","""event"",""trial"",""time""
""fullscreenenter"",""1"",""1322""
","
","
","""event"",""trial"",""time""
""fullscreenenter"",""1"",""1322""
","
","","","","","","396.39999997615814","<p> Some of the equipment will make the kids VERY happy or sad. </p><p> These pieces of equipment will make you win or lose LOTS of points. </p><p> Other pieces of equipment will only make the kids a little happy or sad. </p><p> These pieces of equipment will make you win or lose small amounts of points. </p>","","0","instructions","","","","","","","","","","",""
"learning-instructions","18","108126","0.0-8.0-0.0-0.10","6280","1","14","Female","approach_avoid_spark_v1","""event"",""trial"",""time""
""fullscreenenter"",""1"",""1322""
","
","
","""event"",""trial"",""time""
""fullscreenenter"",""1"",""1322""
","
","","","","","","397.5","<p> If you choose not to give them the equipment, you will not win or lose any points. </p><p>  However, in the center of the screen, you will see the number of points you WOULD HAVE won or lost if you had given them the equipment. </p>","","0","instructions","","","","","","","","","","",""
"learning-instructions","19","130054","0.0-8.0-0.0-0.11","6280","1","14","Female","approach_avoid_spark_v1","""event"",""trial"",""time""
""fullscreenenter"",""1"",""1322""
","
","
","""event"",""trial"",""time""
""fullscreenenter"",""1"",""1322""
","
","","","","","","406","<p> Here is what you might see if you did not give the equipment to the kids but it would have made them happy: </p><p style=""color:grey; font-size:50px; display: inline-block; border-spacing: 15px; border-width:3px; border-style:solid; border-color:red"">  &nbsp; 7 &nbsp; </p><p> Remember, in this case, you would not win or lose ANY points because you did not give them the equipment.  </p><p style=""color:grey"">The text is GREY because you earned ZERO points. </p><p style=""color:red"">However, choosing to give the kids the equipment would have made you win points. The box around the text is RED because you chose the worse option. </p>","","0","instructions","","","","","","","","","","",""
"learning-instructions","20","151550","0.0-8.0-0.0-0.12","6280","1","14","Female","approach_avoid_spark_v1","""event"",""trial"",""time""
""fullscreenenter"",""1"",""1322""
","
","
","""event"",""trial"",""time""
""fullscreenenter"",""1"",""1322""
","
","","","","","","422","<p> Here is what you might see if you did not give the equipment to the kids but it would have made them sad: </p><p style=""color:grey;font-size:50px; display: inline-block; border-spacing: 15px; border-width:3px; border-style:solid; border-color:green"">  &nbsp; -8 &nbsp; </p><p> Remember, in this case, you would not win or lose ANY points because you did not give them the equipment.  </p><p style=""color:grey"">The text is GREY because you earned ZERO points. </p><p  style=""color:green""> Choosing to give the kids the equipment would have made you lose points. The box around the text is GREEN because you chose the better option.</p>","","0","instructions","","","","","","","","","","",""
"learning-instructions","21","161270","0.0-8.0-0.0-0.13","6280","1","14","Female","approach_avoid_spark_v1","""event"",""trial"",""time""
""fullscreenenter"",""1"",""1322""
","
","
","""event"",""trial"",""time""
""fullscreenenter"",""1"",""1322""
","
","","","","","","462.19999998807907","<p> You will have 3 seconds to make each choice. Try to respond before time runs out! </p><p> You will lose 5 points each time you do not make a response. </p>","","0","instructions","","","","","","","","","","",""
"learning-instructions","22","167053","0.0-8.0-0.0-0.14","6280","1","14","Female","approach_avoid_spark_v1","""event"",""trial"",""time""
""fullscreenenter"",""1"",""1322""
","
","
","""event"",""trial"",""time""
""fullscreenenter"",""1"",""1322""
","
","","","","","","366","<p> This is just a practice round, but in the real game, your bonus payment will depend on your total number of points.","","0","instructions","","","","","","","","","","",""
"learning-instructions","23","173189","0.0-8.0-0.0-0.15","6280","1","14","Female","approach_avoid_spark_v1","""event"",""trial"",""time""
""fullscreenenter"",""1"",""1322""
","
","
","""event"",""trial"",""time""
""fullscreenenter"",""1"",""1322""
","
","","","","","","371.60000002384186","<p> Remember, you can give them the equipment by pressing 1 and choose not to give it to them by pressing 0. </p><br><div class=""choice-instructions-grid""> <div class=""choice-option""><img src=""images/approach.png"" class=""choice-option-img"" stage=""instructions"" position=""0"" ><div class=""choice-option-text""> Press ""1."" </div></div><div class=""choice-option""><img src=""images/avoid.png"" class=""choice-option-img"" stage=""instructions"" position=""1"" ><div class=""choice-option-text""> Press ""0."" </div></div>","","0","instructions","","","","","","","","","","",""
"html-button-response","24","174806","0.0-8.0-1.0","6280","1","14","Female","approach_avoid_spark_v1","""event"",""trial"",""time""
""fullscreenenter"",""1"",""1322""
","
","
","""event"",""trial"",""time""
""fullscreenenter"",""1"",""1322""
","
","","","","","","1499.800000011921","<p> Ready to practice? </p>","0","","","","","","","","","","","","",""
"html-keyboard-response","25","175420","0.0-8.0-2.0-0.0","6280","1","14","Female","approach_avoid_spark_v1","""event"",""trial"",""time""
""fullscreenenter"",""1"",""1322""
","
","
","""event"",""trial"",""time""
""fullscreenenter"",""1"",""1322""
","
","","","","","","null","<div style=""font-size:60px;"">+</div>","null","","fixation","","","","","","","","","","",""
"aa-learning-trial","26","178439","0.0-8.0-2.0-1.0","6280","1","14","Female","approach_avoid_spark_v1","""event"",""trial"",""time""
""fullscreenenter"",""1"",""1322""
","
","
","""event"",""trial"",""time""
""fullscreenenter"",""1"",""1322""
","
","","","","","","1384.800000011921","images/racket4.png","","","learning","1","1","1","1","practice","practice","practice","-1","","",""
"html-keyboard-response","27","178951","0.0-8.0-2.0-0.1","6280","1","14","Female","approach_avoid_spark_v1","""event"",""trial"",""time""
""fullscreenenter"",""1"",""1322""
","
","
","""event"",""trial"",""time""
""fullscreenenter"",""1"",""1322""
","
","","","","","","null","<div style=""font-size:60px;"">+</div>","null","","fixation","","","","","","","","","","",""
"aa-learning-trial","28","181963","0.0-8.0-2.0-1.1","6280","1","14","Female","approach_avoid_spark_v1","""event"",""trial"",""time""
""fullscreenenter"",""1"",""1322""
","
","
","""event"",""trial"",""time""
""fullscreenenter"",""1"",""1322""
","
","","","","","","1063","images/ball1.png","","","learning","4","0","0","0","practice","practice","practice","-1","","",""
"html-keyboard-response","29","182482","0.0-8.0-2.0-0.2","6280","1","14","Female","approach_avoid_spark_v1","""event"",""trial"",""time""
""fullscreenenter"",""1"",""1322""
","
","
","""event"",""trial"",""time""
""fullscreenenter"",""1"",""1322""
","
","","","","","","null","<div style=""font-size:60px;"">+</div>","null","","fixation","","","","","","","","","","",""
"aa-learning-trial","30","185486","0.0-8.0-2.0-1.2","6280","1","14","Female","approach_avoid_spark_v1","""event"",""trial"",""time""
""fullscreenenter"",""1"",""1322""
","
","
","""event"",""trial"",""time""
""fullscreenenter"",""1"",""1322""
","
","","","","","","1155.199999988079","images/racket2.png","","","learning","5","5","1","1","practice","practice","practice","-1","","",""
"html-keyboard-response","31","185999","0.0-8.0-2.0-0.3","6280","1","14","Female","approach_avoid_spark_v1","""event"",""trial"",""time""
""fullscreenenter"",""1"",""1322""
","
","
","""event"",""trial"",""time""
""fullscreenenter"",""1"",""1322""
","
","","","","","","null","<div style=""font-size:60px;"">+</div>","null","","fixation","","","","","","","","","","",""
"aa-learning-trial","32","189009","0.0-8.0-2.0-1.3","6280","1","14","Female","approach_avoid_spark_v1","""event"",""trial"",""time""
""fullscreenenter"",""1"",""1322""
","
","
","""event"",""trial"",""time""
""fullscreenenter"",""1"",""1322""
","
","","","","","","1062.1000000238419","images/racket3.png","","","learning","-3","0","0","0","practice","practice","practice","-1","","",""
"html-keyboard-response","33","189520","0.0-8.0-2.0-0.4","6280","1","14","Female","approach_avoid_spark_v1","""event"",""trial"",""time""
""fullscreenenter"",""1"",""1322""
","
","
","""event"",""trial"",""time""
""fullscreenenter"",""1"",""1322""
","
","","","","","","null","<div style=""font-size:60px;"">+</div>","null","","fixation","","","","","","","","","","",""
"aa-learning-trial","34","192535","0.0-8.0-2.0-1.4","6280","1","14","Female","approach_avoid_spark_v1","""event"",""trial"",""time""
""fullscreenenter"",""1"",""1322""
","
","
","""event"",""trial"",""time""
""fullscreenenter"",""1"",""1322""
","
","","","","","","719.4000000357628","images/ball2.png","","","learning","-3","-3","1","1","practice","practice","practice","-1","","",""
"html-keyboard-response","35","193047","0.0-8.0-2.0-0.5","6280","1","14","Female","approach_avoid_spark_v1","""event"",""trial"",""time""
""fullscreenenter"",""1"",""1322""
","
","
","""event"",""trial"",""time""
""fullscreenenter"",""1"",""1322""
","
","","","","","","null","<div style=""font-size:60px;"">+</div>","null","","fixation","","","","","","","","","","",""
"aa-learning-trial","36","196054","0.0-8.0-2.0-1.5","6280","1","14","Female","approach_avoid_spark_v1","""event"",""trial"",""time""
""fullscreenenter"",""1"",""1322""
","
","
","""event"",""trial"",""time""
""fullscreenenter"",""1"",""1322""
","
","","","","","","1518.0999999642372","images/racket1.png","","","learning","1","1","1","1","practice","practice","practice","-1","","",""
"html-keyboard-response","37","196565","0.0-8.0-2.0-0.6","6280","1","14","Female","approach_avoid_spark_v1","""event"",""trial"",""time""
""fullscreenenter"",""1"",""1322""
","
","
","""event"",""trial"",""time""
""fullscreenenter"",""1"",""1322""
","
","","","","","","null","<div style=""font-size:60px;"">+</div>","null","","fixation","","","","","","","","","","",""
"aa-learning-trial","38","199587","0.0-8.0-2.0-1.6","6280","1","14","Female","approach_avoid_spark_v1","""event"",""trial"",""time""
""fullscreenenter"",""1"",""1322""
","
","
","""event"",""trial"",""time""
""fullscreenenter"",""1"",""1322""
","
","","","","","","927.6999999880791","images/ball4.png","","","learning","-9","-9","1","1","practice","practice","practice","-1","","",""
"html-keyboard-response","39","200096","0.0-8.0-2.0-0.7","6280","1","14","Female","approach_avoid_spark_v1","""event"",""trial"",""time""
""fullscreenenter"",""1"",""1322""
","
","
","""event"",""trial"",""time""
""fullscreenenter"",""1"",""1322""
","
","","","","","","null","<div style=""font-size:60px;"">+</div>","null","","fixation","","","","","","","","","","",""
"aa-learning-trial","40","203102","0.0-8.0-2.0-1.7","6280","1","14","Female","approach_avoid_spark_v1","""event"",""trial"",""time""
""fullscreenenter"",""1"",""1322""
","
","
","""event"",""trial"",""time""
""fullscreenenter"",""1"",""1322""
","
","","","","","","1437.7000000476837","images/racket4.png","","","learning","1","0","0","0","practice","practice","practice","-1","","",""
"html-keyboard-response","41","203607","0.0-8.0-2.0-0.8","6280","1","14","Female","approach_avoid_spark_v1","""event"",""trial"",""time""
""fullscreenenter"",""1"",""1322""
","
","
","""event"",""trial"",""time""
""fullscreenenter"",""1"",""1322""
","
","","","","","","null","<div style=""font-size:60px;"">+</div>","null","","fixation","","","","","","","","","","",""
"aa-learning-trial","42","206615","0.0-8.0-2.0-1.8","6280","1","14","Female","approach_avoid_spark_v1","""event"",""trial"",""time""
""fullscreenenter"",""1"",""1322""
","
","
","""event"",""trial"",""time""
""fullscreenenter"",""1"",""1322""
","
","","","","","","1207.199999988079","images/ball4.png","","","learning","3","0","0","0","practice","practice","practice","-1","","",""
"html-keyboard-response","43","207118","0.0-8.0-2.0-0.9","6280","1","14","Female","approach_avoid_spark_v1","""event"",""trial"",""time""
""fullscreenenter"",""1"",""1322""
","
","
","""event"",""trial"",""time""
""fullscreenenter"",""1"",""1322""
","
","","","","","","null","<div style=""font-size:60px;"">+</div>","null","","fixation","","","","","","","","","","",""
"aa-learning-trial","44","210127","0.0-8.0-2.0-1.9","6280","1","14","Female","approach_avoid_spark_v1","""event"",""trial"",""time""
""fullscreenenter"",""1"",""1322""
","
","
","""event"",""trial"",""time""
""fullscreenenter"",""1"",""1322""
","
","","","","","","1078.6000000238419","images/ball4.png","","","learning","2","2","1","1","practice","practice","practice","-1","","",""
"html-keyboard-response","45","210630","0.0-8.0-2.0-0.10","6280","1","14","Female","approach_avoid_spark_v1","""event"",""trial"",""time""
""fullscreenenter"",""1"",""1322""
","
","
","""event"",""trial"",""time""
""fullscreenenter"",""1"",""1322""
","
","","","","","","null","<div style=""font-size:60px;"">+</div>","null","","fixation","","","","","","","","","","",""
"aa-learning-trial","46","213639","0.0-8.0-2.0-1.10","6280","1","14","Female","approach_avoid_spark_v1","""event"",""trial"",""time""
""fullscreenenter"",""1"",""1322""
","
","
","""event"",""trial"",""time""
""fullscreenenter"",""1"",""1322""
","
","","","","","","1391.1000000238419","images/racket2.png","","","learning","-8","-8","1","1","practice","practice","practice","-1","","",""
"html-keyboard-response","47","214142","0.0-8.0-2.0-0.11","6280","1","14","Female","approach_avoid_spark_v1","""event"",""trial"",""time""
""fullscreenenter"",""1"",""1322""
","
","
","""event"",""trial"",""time""
""fullscreenenter"",""1"",""1322""
","
","","","","","","null","<div style=""font-size:60px;"">+</div>","null","","fixation","","","","","","","","","","",""
"aa-learning-trial","48","217151","0.0-8.0-2.0-1.11","6280","1","14","Female","approach_avoid_spark_v1","""event"",""trial"",""time""
""fullscreenenter"",""1"",""1322""
","
","
","""event"",""trial"",""time""
""fullscreenenter"",""1"",""1322""
","
","","","","","","1078.8999999761581","images/ball3.png","","","learning","-8","0","0","0","practice","practice","practice","-1","","",""
"html-button-response","49","219413","0.0-8.0-3.0","6280","1","14","Female","approach_avoid_spark_v1","""event"",""trial"",""time""
""fullscreenenter"",""1"",""1322""
","
","
","""event"",""trial"",""time""
""fullscreenenter"",""1"",""1322""
","
","","","","","","2260.5","<p> You earned -11 points in the practice round! </p>","0","","break","","","","","","","","","","",""
"learning-instructions","50","226237","0.0-8.0-4.0-0.0","6280","1","14","Female","approach_avoid_spark_v1","""event"",""trial"",""time""
""fullscreenenter"",""1"",""1322""
","
","
","""event"",""trial"",""time""
""fullscreenenter"",""1"",""1322""
","
","","","","","","837.3999999761581","<p> It's almost time to start the real game. </p><p> Before you start, we're going to ask you a few questions about how the game works. </p>","","0","instructions","","","","","","","","","","",""
"preload","51","228021","0.0-8.0-5.0","6280","1","14","Female","approach_avoid_spark_v1","""event"",""trial"",""time""
""fullscreenenter"",""1"",""1322""
","
","
","""event"",""trial"",""time""
""fullscreenenter"",""1"",""1322""
","
","true","false","[]","[]","[]","","","","","","","","","","","","","","","",""
"comp-q","52","234365","0.0-8.0-6.0-0.0","6280","1","14","Female","approach_avoid_spark_v1","""event"",""trial"",""time""
""fullscreenenter"",""1"",""1322""
","
","
","""event"",""trial"",""time""
""fullscreenenter"",""1"",""1322""
","
","","","","","","1345.8999999761581","<p> <b> True or False? </b> </p><p> If you see a number in GREY, that means you earned that many points. </p>","","1","comp_question","","","","","","","","","true","",""
"comp-q","53","243685","0.0-8.0-6.0-1.0","6280","1","14","Female","approach_avoid_spark_v1","""event"",""trial"",""time""
""fullscreenenter"",""1"",""1322""
","
","
","""event"",""trial"",""time""
""fullscreenenter"",""1"",""1322""
","
","","","","","","956","<p><b> That's right! </b> If you see a grey number, it means you earned ZERO points. <br> The grey numbers show the points you WOULD HAVE earned if you had made the other choice. </p>","","0","comp_answer","","","","","","","","","","",""
"comp-q","54","249077","0.0-8.0-7.0-0.0","6280","1","14","Female","approach_avoid_spark_v1","""event"",""trial"",""time""
""fullscreenenter"",""1"",""1322""
","
","
","""event"",""trial"",""time""
""fullscreenenter"",""1"",""1322""
","
","","","","","","688","<p> <b> True or False? </b> </p><p> You will have as much time as you want to make each choice. </p>","","1","comp_question","","","","","","","","","true","",""
"comp-q","55","254037","0.0-8.0-7.0-1.0","6280","1","14","Female","approach_avoid_spark_v1","""event"",""trial"",""time""
""fullscreenenter"",""1"",""1322""
","
","
","""event"",""trial"",""time""
""fullscreenenter"",""1"",""1322""
","
","","","","","","917.3999999761581","<p> <b> That's right! </b> You will only have 3 seconds to make each choice. </p>","","0","comp_answer","","","","","","","","","","",""
"comp-q","56","259349","0.0-8.0-8.0-0.0","6280","1","14","Female","approach_avoid_spark_v1","""event"",""trial"",""time""
""fullscreenenter"",""1"",""1322""
","
","
","""event"",""trial"",""time""
""fullscreenenter"",""1"",""1322""
","
","","","","","","650","<p> <b> True or False? </b> </p><p> You should use the '1' and '0' keys to make your choices. </p>","","0","comp_question","","","","","","","","","true","",""
"comp-q","57","264885","0.0-8.0-8.0-1.0","6280","1","14","Female","approach_avoid_spark_v1","""event"",""trial"",""time""
""fullscreenenter"",""1"",""1322""
","
","
","""event"",""trial"",""time""
""fullscreenenter"",""1"",""1322""
","
","","","","","","916","<p> <b> That's right! </b> You should use the '1' and '0' keys to make each choice. </p>","","0","comp_answer","","","","","","","","","","",""
"learning-instructions","58","272077","0.0-8.0-9.0-0.0","6280","1","14","Female","approach_avoid_spark_v1","""event"",""trial"",""time""
""fullscreenenter"",""1"",""1322""
","
","
","""event"",""trial"",""time""
""fullscreenenter"",""1"",""1322""
","
","","","","","","918.1000000238419","<p> It's now time to start the real game. </p>Do your best, because the points you earn in the next rounds will influence your bonus payment. </p>","","0","instructions","","","","","","","","","","",""
"preload","59","272227","0.0-9.0-0.0","6280","1","14","Female","approach_avoid_spark_v1","""event"",""trial"",""time""
""fullscreenenter"",""1"",""1322""
","
","
","""event"",""trial"",""time""
""fullscreenenter"",""1"",""1322""
","
","true","false","[]","[]","[]","","","","","","","","","","","","","","","",""
"learning-instructions","60","277429","0.0-9.0-1.0-0.0","6280","1","14","Female","approach_avoid_spark_v1","""event"",""trial"",""time""
""fullscreenenter"",""1"",""1322""
","
","
","""event"",""trial"",""time""
""fullscreenenter"",""1"",""1322""
","
","","","","","","480","<p> Your goal in this round is to decorate your friend's new house with furniture. </p></div>","","0","instructions","","","","","","","","","","",""
"learning-instructions","61","287708","0.0-9.0-1.0-0.1","6280","1","14","Female","approach_avoid_spark_v1","""event"",""trial"",""time""
""fullscreenenter"",""1"",""1322""
","
","
","""event"",""trial"",""time""
""fullscreenenter"",""1"",""1322""
","
","","","","","","400","<p> Your friend likes some pieces of furniture but not others.  </p><p> On each turn, you will see a piece of furniture.   </p><p> You need to decide whether to put it in your friend's house or not.  </p>","","0","instructions","","","","","","","","","","",""
"learning-instructions","62","293924","0.0-9.0-1.0-0.2","6280","1","14","Female","approach_avoid_spark_v1","""event"",""trial"",""time""
""fullscreenenter"",""1"",""1322""
","
","
","""event"",""trial"",""time""
""fullscreenenter"",""1"",""1322""
","
","","","","","","435.5999999642372","<p> You can put the furniture in her house by pressing 1 and deliver it elsewhere by pressing 0. </p><br><div class=""choice-instructions-grid""> <div class=""choice-option""><img src=""images/approach.png"" class=""choice-option-img"" stage=""instructions"" position=""0"" ><div class=""choice-option-text""> Press ""1."" </div></div><div class=""choice-option""><img src=""images/avoid.png"" class=""choice-option-img"" stage=""instructions"" position=""1"" ><div class=""choice-option-text""> Press ""0."" </div></div>","","0","instructions","","","","","","","","","","",""
"learning-instructions","63","303284","0.0-9.0-1.0-0.3","6280","1","14","Female","approach_avoid_spark_v1","""event"",""trial"",""time""
""fullscreenenter"",""1"",""1322""
","
","
","""event"",""trial"",""time""
""fullscreenenter"",""1"",""1322""
","
","","","","","","455.9000000357628","<p> If you decorate your friend's house with furniture she likes, she will be happy! </p><p> But if you give her furniture that she does not like, she will be annoyed. </p>","","0","instructions","","","","","","","","","","",""
"learning-instructions","64","316068","0.0-9.0-1.0-0.4","6280","1","14","Female","approach_avoid_spark_v1","""event"",""trial"",""time""
""fullscreenenter"",""1"",""1322""
","
","
","""event"",""trial"",""time""
""fullscreenenter"",""1"",""1322""
","
","","","","","","370.19999998807907","<p> You will earn points based on how you made your friend feel. </p><p> If you made her happy, you will WIN anywhere from 1 - 9 points, </p><p> but if you made her annoyed you will LOSE anywhere from 1 - 9 points. </p>","","0","instructions","","","","","","","","","","",""
"learning-instructions","65","324276","0.0-9.0-1.0-0.5","6280","1","14","Female","approach_avoid_spark_v1","""event"",""trial"",""time""
""fullscreenenter"",""1"",""1322""
","
","
","""event"",""trial"",""time""
""fullscreenenter"",""1"",""1322""
","
","","","","","","518.1000000238419","<p> You will see how many points you won or lost in the center of the screen. </p><p> Here is what you would see if you won 5 points: </p><p style=""color:green;font-size:50px;font-weight:bolder"">5</p>","","0","instructions","","","","","","","","","","",""
"learning-instructions","66","328204","0.0-9.0-1.0-0.6","6280","1","14","Female","approach_avoid_spark_v1","""event"",""trial"",""time""
""fullscreenenter"",""1"",""1322""
","
","
","""event"",""trial"",""time""
""fullscreenenter"",""1"",""1322""
","
","","","","","","376.2000000476837","<p> And here is what you would see if you lost 3 points: </p><p style=""color:red;font-size:50px;font-weight:bolder"">-3</p>","","0","instructions","","","","","","","","","","",""
"learning-instructions","67","346124","0.0-9.0-1.0-0.7","6280","1","14","Female","approach_avoid_spark_v1","""event"",""trial"",""time""
""fullscreenenter"",""1"",""1322""
","
","
","""event"",""trial"",""time""
""fullscreenenter"",""1"",""1322""
","
","","","","","","366","<p> Some pieces of furniture will make her feel very happy or very annoyed. </p><p> These pieces of furniture will make you win or lose LOTS of points. </p><p> Other pieces of furniture will only make her feel a little happy or a little annoyed. </p><p> These pieces of furniture will make you win or lose small amounts of points. </p>","","0","instructions","","","","","","","","","","",""
"learning-instructions","68","359595","0.0-9.0-1.0-0.8","6280","1","14","Female","approach_avoid_spark_v1","""event"",""trial"",""time""
""fullscreenenter"",""1"",""1322""
","
","
","""event"",""trial"",""time""
""fullscreenenter"",""1"",""1322""
","
","","","","","","477.9000000357628","<p> If you choose to deliver a piece of furniture elsewhere, you will not win or lose any points. </p><p>  However, in the center of the screen, you will see the number of points you WOULD HAVE won or lost if you had given the furniture to your friend. </p>","","0","instructions","","","","","","","","","","",""
"learning-instructions","69","371835","0.0-9.0-1.0-0.9","6280","1","14","Female","approach_avoid_spark_v1","""event"",""trial"",""time""
""fullscreenenter"",""1"",""1322""
","
","
","""event"",""trial"",""time""
""fullscreenenter"",""1"",""1322""
","
","","","","","","518","<p> Here is what you might see if you did not give a piece of furniture to your friend that would have made her happy: </p><p style=""color:grey; font-size:50px; display: inline-block; border-spacing: 15px; border-width:3px; border-style:solid; border-color:red"">  &nbsp; 6 &nbsp; </p><p> Remember, in this case, you would not win or lose ANY points because you did not give her the furniture.  </p>","","0","instructions","","","","","","","","","","",""
"learning-instructions","70","379987","0.0-9.0-1.0-0.10","6280","1","14","Female","approach_avoid_spark_v1","""event"",""trial"",""time""
""fullscreenenter"",""1"",""1322""
","
","
","""event"",""trial"",""time""
""fullscreenenter"",""1"",""1322""
","
","","","","","","450.10000002384186","<p> Try to make the best choice for each piece of furniture because </p><p> at the end of the game, you will earn bonus money based on how many points you earned. </p>","","0","instructions","","","","","","","","","","",""
"learning-instructions","71","388699","0.0-9.0-1.0-0.11","6280","1","14","Female","approach_avoid_spark_v1","""event"",""trial"",""time""
""fullscreenenter"",""1"",""1322""
","
","
","""event"",""trial"",""time""
""fullscreenenter"",""1"",""1322""
","
","","","","","","512.1999999880791","<p> You will have 3 seconds to make each choice. Try to respond before time runs out! </p><p> You will lose 5 points each time you do not make a response. </p>","","0","instructions","","","","","","","","","","",""
"html-keyboard-response","72","389328","0.0-9.0-2.0-0.0","6280","1","14","Female","approach_avoid_spark_v1","""event"",""trial"",""time""
""fullscreenenter"",""1"",""1322""
","
","
","""event"",""trial"",""time""
""fullscreenenter"",""1"",""1322""
","
","","","","","","null","<div style=""font-size:60px;"">+</div>","null","","fixation","","","","","","","","","","",""
"aa-learning-trial","73","392348","0.0-9.0-2.0-1.0","6280","1","14","Female","approach_avoid_spark_v1","""event"",""trial"",""time""
""fullscreenenter"",""1"",""1322""
","
","
","""event"",""trial"",""time""
""fullscreenenter"",""1"",""1322""
","
","","","","","","1882.3999999761581","images/chair8.png","","","learning","-5","-5","1","1","chair","furniture","1","0","","bad","[-5]"
"html-keyboard-response","74","392858","0.0-9.0-2.0-0.1","6280","1","14","Female","approach_avoid_spark_v1","""event"",""trial"",""time""
""fullscreenenter"",""1"",""1322""
","
","
","""event"",""trial"",""time""
""fullscreenenter"",""1"",""1322""
","
","","","","","","null","<div style=""font-size:60px;"">+</div>","null","","fixation","","","","","","","","","","",""
"aa-learning-trial","75","395867","0.0-9.0-2.0-1.1","6280","1","14","Female","approach_avoid_spark_v1","""event"",""trial"",""time""
""fullscreenenter"",""1"",""1322""
","
","
","""event"",""trial"",""time""
""fullscreenenter"",""1"",""1322""
","
","","","","","","969.3000000119209","images/chair8.png","","","learning","-3","0","0","0","chair","furniture","1","0","","bad","[-5]"
"html-keyboard-response","76","396388","0.0-9.0-2.0-0.2","6280","1","14","Female","approach_avoid_spark_v1","""event"",""trial"",""time""
""fullscreenenter"",""1"",""1322""
","
","
","""event"",""trial"",""time""
""fullscreenenter"",""1"",""1322""
","
","","","","","","null","<div style=""font-size:60px;"">+</div>","null","","fixation","","","","","","","","","","",""
"aa-learning-trial","77","399411","0.0-9.0-2.0-1.2","6280","1","14","Female","approach_avoid_spark_v1","""event"",""trial"",""time""
""fullscreenenter"",""1"",""1322""
","
","
","""event"",""trial"",""time""
""fullscreenenter"",""1"",""1322""
","
","","","","","","974.5","images/bed3.png","","","learning","2","2","1","1","bed","furniture","1","0","","neutral","0"
"html-keyboard-response","78","399931","0.0-9.0-2.0-0.3","6280","1","14","Female","approach_avoid_spark_v1","""event"",""trial"",""time""
""fullscreenenter"",""1"",""1322""
","
","
","""event"",""trial"",""time""
""fullscreenenter"",""1"",""1322""
","
","","","","","","null","<div style=""font-size:60px;"">+</div>","null","","fixation","","","","","","","","","","",""
"aa-learning-trial","79","402947","0.0-9.0-2.0-1.3","6280","1","14","Female","approach_avoid_spark_v1","""event"",""trial"",""time""
""fullscreenenter"",""1"",""1322""
","
","
","""event"",""trial"",""time""
""fullscreenenter"",""1"",""1322""
","
","","","","","","1304.800000011921","images/bed2.png","","","learning","[-1]","0","0","0","bed","furniture","1","0","","neutral","0"
"html-keyboard-response","80","403456","0.0-9.0-2.0-0.4","6280","1","14","Female","approach_avoid_spark_v1","""event"",""trial"",""time""
""fullscreenenter"",""1"",""1322""
","
","
","""event"",""trial"",""time""
""fullscreenenter"",""1"",""1322""
","
","","","","","","null","<div style=""font-size:60px;"">+</div>","null","","fixation","","","","","","","","","","",""
"aa-learning-trial","81","406467","0.0-9.0-2.0-1.4","6280","1","14","Female","approach_avoid_spark_v1","""event"",""trial"",""time""
""fullscreenenter"",""1"",""1322""
","
","
","""event"",""trial"",""time""
""fullscreenenter"",""1"",""1322""
","
","","","","","","730.6000000238419","images/chair1.png","","","learning","-6","-6","1","1","chair","furniture","1","0","","bad","[-5]"
"html-keyboard-response","82","406978","0.0-9.0-2.0-0.5","6280","1","14","Female","approach_avoid_spark_v1","""event"",""trial"",""time""
""fullscreenenter"",""1"",""1322""
","
","
","""event"",""trial"",""time""
""fullscreenenter"",""1"",""1322""
","
","","","","","","null","<div style=""font-size:60px;"">+</div>","null","","fixation","","","","","","","","","","",""
"aa-learning-trial","83","409982","0.0-9.0-2.0-1.5","6280","1","14","Female","approach_avoid_spark_v1","""event"",""trial"",""time""
""fullscreenenter"",""1"",""1322""
","
","
","""event"",""trial"",""time""
""fullscreenenter"",""1"",""1322""
","
","","","","","","1273","images/sofa8.png","","","learning","4","4","1","1","sofa","furniture","1","0","","good","[4]"
"html-keyboard-response","84","410501","0.0-9.0-2.0-0.6","6280","1","14","Female","approach_avoid_spark_v1","""event"",""trial"",""time""
""fullscreenenter"",""1"",""1322""
","
","
","""event"",""trial"",""time""
""fullscreenenter"",""1"",""1322""
","
","","","","","","null","<div style=""font-size:60px;"">+</div>","null","","fixation","","","","","","","","","","",""
"aa-learning-trial","85","413514","0.0-9.0-2.0-1.6","6280","1","14","Female","approach_avoid_spark_v1","""event"",""trial"",""time""
""fullscreenenter"",""1"",""1322""
","
","
","""event"",""trial"",""time""
""fullscreenenter"",""1"",""1322""
","
","","","","","","1206.9000000357628","images/bed2.png","","","learning","2","2","1","1","bed","furniture","1","0","","neutral","0"
"html-keyboard-response","86","414025","0.0-9.0-2.0-0.7","6280","1","14","Female","approach_avoid_spark_v1","""event"",""trial"",""time""
""fullscreenenter"",""1"",""1322""
","
","
","""event"",""trial"",""time""
""fullscreenenter"",""1"",""1322""
","
","","","","","","null","<div style=""font-size:60px;"">+</div>","null","","fixation","","","","","","","","","","",""
"aa-learning-trial","87","417039","0.0-9.0-2.0-1.7","6280","1","14","Female","approach_avoid_spark_v1","""event"",""trial"",""time""
""fullscreenenter"",""1"",""1322""
","
","
","""event"",""trial"",""time""
""fullscreenenter"",""1"",""1322""
","
","","","","","","907","images/chair1.png","","","learning","-4","0","0","0","chair","furniture","1","0","","bad","[-5]"
"html-keyboard-response","88","417550","0.0-9.0-2.0-0.8","6280","1","14","Female","approach_avoid_spark_v1","""event"",""trial"",""time""
""fullscreenenter"",""1"",""1322""
","
","
","""event"",""trial"",""time""
""fullscreenenter"",""1"",""1322""
","
","","","","","","null","<div style=""font-size:60px;"">+</div>","null","","fixation","","","","","","","","","","",""
"aa-learning-trial","89","420559","0.0-9.0-2.0-1.8","6280","1","14","Female","approach_avoid_spark_v1","""event"",""trial"",""time""
""fullscreenenter"",""1"",""1322""
","
","
","""event"",""trial"",""time""
""fullscreenenter"",""1"",""1322""
","
","","","","","","644.6999999880791","images/bed3.png","","","learning","1","1","1","1","bed","furniture","1","0","","neutral","0"
"html-keyboard-response","90","421063","0.0-9.0-2.0-0.9","6280","1","14","Female","approach_avoid_spark_v1","""event"",""trial"",""time""
""fullscreenenter"",""1"",""1322""
","
","
","""event"",""trial"",""time""
""fullscreenenter"",""1"",""1322""
","
","","","","","","null","<div style=""font-size:60px;"">+</div>","null","","fixation","","","","","","","","","","",""
"aa-learning-trial","91","424070","0.0-9.0-2.0-1.9","6280","1","14","Female","approach_avoid_spark_v1","""event"",""trial"",""time""
""fullscreenenter"",""1"",""1322""
","
","
","""event"",""trial"",""time""
""fullscreenenter"",""1"",""1322""
","
","","","","","","764.3999999761581","images/sofa6.png","","","learning","3","3","1","1","sofa","furniture","1","0","","good","[4]"
"html-keyboard-response","92","424575","0.0-9.0-2.0-0.10","6280","1","14","Female","approach_avoid_spark_v1","""event"",""trial"",""time""
""fullscreenenter"",""1"",""1322""
","
","
","""event"",""trial"",""time""
""fullscreenenter"",""1"",""1322""
","
","","","","","","null","<div style=""font-size:60px;"">+</div>","null","","fixation","","","","","","","","","","",""
"aa-learning-trial","93","427583","0.0-9.0-2.0-1.10","6280","1","14","Female","approach_avoid_spark_v1","""event"",""trial"",""time""
""fullscreenenter"",""1"",""1322""
","
","
","""event"",""trial"",""time""
""fullscreenenter"",""1"",""1322""
","
","","","","","","843.8999999761581","images/chair5.png","","","learning","-4","-4","1","1","chair","furniture","1","0","","bad","[-5]"
"html-keyboard-response","94","428087","0.0-9.0-2.0-0.11","6280","1","14","Female","approach_avoid_spark_v1","""event"",""trial"",""time""
""fullscreenenter"",""1"",""1322""
","
","
","""event"",""trial"",""time""
""fullscreenenter"",""1"",""1322""
","
","","","","","","null","<div style=""font-size:60px;"">+</div>","null","","fixation","","","","","","","","","","",""
"aa-learning-trial","95","431095","0.0-9.0-2.0-1.11","6280","1","14","Female","approach_avoid_spark_v1","""event"",""trial"",""time""
""fullscreenenter"",""1"",""1322""
","
","
","""event"",""trial"",""time""
""fullscreenenter"",""1"",""1322""
","
","","","","","","772.7000000476837","images/sofa8.png","","","learning","6","6","1","1","sofa","furniture","1","0","","good","[4]"
"html-keyboard-response","96","431599","0.0-9.0-2.0-0.12","6280","1","14","Female","approach_avoid_spark_v1","""event"",""trial"",""time""
""fullscreenenter"",""1"",""1322""
","
","
","""event"",""trial"",""time""
""fullscreenenter"",""1"",""1322""
","
","","","","","","null","<div style=""font-size:60px;"">+</div>","null","","fixation","","","","","","","","","","",""
"aa-learning-trial","97","434607","0.0-9.0-2.0-1.12","6280","1","14","Female","approach_avoid_spark_v1","""event"",""trial"",""time""
""fullscreenenter"",""1"",""1322""
","
","
","""event"",""trial"",""time""
""fullscreenenter"",""1"",""1322""
","
","","","","","","892.8000000119209","images/sofa6.png","","","learning","3","0","0","0","sofa","furniture","1","0","","good","[4]"
"html-keyboard-response","98","435110","0.0-9.0-2.0-0.13","6280","1","14","Female","approach_avoid_spark_v1","""event"",""trial"",""time""
""fullscreenenter"",""1"",""1322""
","
","
","""event"",""trial"",""time""
""fullscreenenter"",""1"",""1322""
","
","","","","","","null","<div style=""font-size:60px;"">+</div>","null","","fixation","","","","","","","","","","",""
"aa-learning-trial","99","438119","0.0-9.0-2.0-1.13","6280","1","14","Female","approach_avoid_spark_v1","""event"",""trial"",""time""
""fullscreenenter"",""1"",""1322""
","
","
","""event"",""trial"",""time""
""fullscreenenter"",""1"",""1322""
","
","","","","","","852.3000000119209","images/bed7.png","","","learning","[1]","1","1","1","bed","furniture","1","0","","neutral","0"
"html-keyboard-response","100","438622","0.0-9.0-2.0-0.14","6280","1","14","Female","approach_avoid_spark_v1","""event"",""trial"",""time""
""fullscreenenter"",""1"",""1322""
","
","
","""event"",""trial"",""time""
""fullscreenenter"",""1"",""1322""
","
","","","","","","null","<div style=""font-size:60px;"">+</div>","null","","fixation","","","","","","","","","","",""
"aa-learning-trial","101","441632","0.0-9.0-2.0-1.14","6280","1","14","Female","approach_avoid_spark_v1","""event"",""trial"",""time""
""fullscreenenter"",""1"",""1322""
","
","
","""event"",""trial"",""time""
""fullscreenenter"",""1"",""1322""
","
","","","","","","852.5999999642372","images/sofa5.png","","","learning","3","3","1","1","sofa","furniture","1","0","","good","[4]"
"html-keyboard-response","102","442135","0.0-9.0-2.0-0.15","6280","1","14","Female","approach_avoid_spark_v1","""event"",""trial"",""time""
""fullscreenenter"",""1"",""1322""
","
","
","""event"",""trial"",""time""
""fullscreenenter"",""1"",""1322""
","
","","","","","","null","<div style=""font-size:60px;"">+</div>","null","","fixation","","","","","","","","","","",""
"aa-learning-trial","103","445142","0.0-9.0-2.0-1.15","6280","1","14","Female","approach_avoid_spark_v1","""event"",""trial"",""time""
""fullscreenenter"",""1"",""1322""
","
","
","""event"",""trial"",""time""
""fullscreenenter"",""1"",""1322""
","
","","","","","","820.6999999880791","images/bed2.png","","","learning","1","0","0","0","bed","furniture","1","0","","neutral","0"
"html-keyboard-response","104","445647","0.0-9.0-2.0-0.16","6280","1","14","Female","approach_avoid_spark_v1","""event"",""trial"",""time""
""fullscreenenter"",""1"",""1322""
","
","
","""event"",""trial"",""time""
""fullscreenenter"",""1"",""1322""
","
","","","","","","null","<div style=""font-size:60px;"">+</div>","null","","fixation","","","","","","","","","","",""
"aa-learning-trial","105","448655","0.0-9.0-2.0-1.16","6280","1","14","Female","approach_avoid_spark_v1","""event"",""trial"",""time""
""fullscreenenter"",""1"",""1322""
","
","
","""event"",""trial"",""time""
""fullscreenenter"",""1"",""1322""
","
","","","","","","643.5","images/bed7.png","","","learning","1","1","1","1","bed","furniture","1","0","","neutral","0"
"html-keyboard-response","106","449159","0.0-9.0-2.0-0.17","6280","1","14","Female","approach_avoid_spark_v1","""event"",""trial"",""time""
""fullscreenenter"",""1"",""1322""
","
","
","""event"",""trial"",""time""
""fullscreenenter"",""1"",""1322""
","
","","","","","","null","<div style=""font-size:60px;"">+</div>","null","","fixation","","","","","","","","","","",""
"aa-learning-trial","107","452167","0.0-9.0-2.0-1.17","6280","1","14","Female","approach_avoid_spark_v1","""event"",""trial"",""time""
""fullscreenenter"",""1"",""1322""
","
","
","""event"",""trial"",""time""
""fullscreenenter"",""1"",""1322""
","
","","","","","","1011.8999999761581","images/bed7.png","","","learning","[-1]","0","0","0","bed","furniture","1","0","","neutral","0"
"html-keyboard-response","108","452671","0.0-9.0-2.0-0.18","6280","1","14","Female","approach_avoid_spark_v1","""event"",""trial"",""time""
""fullscreenenter"",""1"",""1322""
","
","
","""event"",""trial"",""time""
""fullscreenenter"",""1"",""1322""
","
","","","","","","null","<div style=""font-size:60px;"">+</div>","null","","fixation","","","","","","","","","","",""
"aa-learning-trial","109","455679","0.0-9.0-2.0-1.18","6280","1","14","Female","approach_avoid_spark_v1","""event"",""trial"",""time""
""fullscreenenter"",""1"",""1322""
","
","
","""event"",""trial"",""time""
""fullscreenenter"",""1"",""1322""
","
","","","","","","996.5","images/chair8.png","","","learning","-7","0","0","0","chair","furniture","1","0","","bad","[-5]"
"html-keyboard-response","110","456182","0.0-9.0-2.0-0.19","6280","1","14","Female","approach_avoid_spark_v1","""event"",""trial"",""time""
""fullscreenenter"",""1"",""1322""
","
","
","""event"",""trial"",""time""
""fullscreenenter"",""1"",""1322""
","
","","","","","","null","<div style=""font-size:60px;"">+</div>","null","","fixation","","","","","","","","","","",""
"aa-learning-trial","111","459191","0.0-9.0-2.0-1.19","6280","1","14","Female","approach_avoid_spark_v1","""event"",""trial"",""time""
""fullscreenenter"",""1"",""1322""
","
","
","""event"",""trial"",""time""
""fullscreenenter"",""1"",""1322""
","
","","","","","","636.6999999880791","images/sofa6.png","","","learning","5","5","1","1","sofa","furniture","1","0","","good","[4]"
"html-keyboard-response","112","459694","0.0-9.0-2.0-0.20","6280","1","14","Female","approach_avoid_spark_v1","""event"",""trial"",""time""
""fullscreenenter"",""1"",""1322""
","
","
","""event"",""trial"",""time""
""fullscreenenter"",""1"",""1322""
","
","","","","","","null","<div style=""font-size:60px;"">+</div>","null","","fixation","","","","","","","","","","",""
"aa-learning-trial","113","462702","0.0-9.0-2.0-1.20","6280","1","14","Female","approach_avoid_spark_v1","""event"",""trial"",""time""
""fullscreenenter"",""1"",""1322""
","
","
","""event"",""trial"",""time""
""fullscreenenter"",""1"",""1322""
","
","","","","","","779.6999999880791","images/chair1.png","","","learning","-4","0","0","0","chair","furniture","1","0","","bad","[-5]"
"html-keyboard-response","114","463207","0.0-9.0-2.0-0.21","6280","1","14","Female","approach_avoid_spark_v1","""event"",""trial"",""time""
""fullscreenenter"",""1"",""1322""
","
","
","""event"",""trial"",""time""
""fullscreenenter"",""1"",""1322""
","
","","","","","","null","<div style=""font-size:60px;"">+</div>","null","","fixation","","","","","","","","","","",""
"aa-learning-trial","115","466214","0.0-9.0-2.0-1.21","6280","1","14","Female","approach_avoid_spark_v1","""event"",""trial"",""time""
""fullscreenenter"",""1"",""1322""
","
","
","""event"",""trial"",""time""
""fullscreenenter"",""1"",""1322""
","
","","","","","","707.8000000119209","images/sofa8.png","","","learning","6","6","1","1","sofa","furniture","1","0","","good","[4]"
"html-keyboard-response","116","466719","0.0-9.0-2.0-0.22","6280","1","14","Female","approach_avoid_spark_v1","""event"",""trial"",""time""
""fullscreenenter"",""1"",""1322""
","
","
","""event"",""trial"",""time""
""fullscreenenter"",""1"",""1322""
","
","","","","","","null","<div style=""font-size:60px;"">+</div>","null","","fixation","","","","","","","","","","",""
"aa-learning-trial","117","469727","0.0-9.0-2.0-1.22","6280","1","14","Female","approach_avoid_spark_v1","""event"",""trial"",""time""
""fullscreenenter"",""1"",""1322""
","
","
","""event"",""trial"",""time""
""fullscreenenter"",""1"",""1322""
","
","","","","","","843.5","images/bed5.png","","","learning","[-1]","0","0","0","bed","furniture","1","0","","neutral","0"
"html-keyboard-response","118","470231","0.0-9.0-2.0-0.23","6280","1","14","Female","approach_avoid_spark_v1","""event"",""trial"",""time""
""fullscreenenter"",""1"",""1322""
","
","
","""event"",""trial"",""time""
""fullscreenenter"",""1"",""1322""
","
","","","","","","null","<div style=""font-size:60px;"">+</div>","null","","fixation","","","","","","","","","","",""
"aa-learning-trial","119","473239","0.0-9.0-2.0-1.23","6280","1","14","Female","approach_avoid_spark_v1","""event"",""trial"",""time""
""fullscreenenter"",""1"",""1322""
","
","
","""event"",""trial"",""time""
""fullscreenenter"",""1"",""1322""
","
","","","","","","660.4000000357628","images/chair7.png","","","learning","-2","-2","1","1","chair","furniture","1","0","","bad","[-5]"
"html-keyboard-response","120","473743","0.0-9.0-2.0-0.24","6280","1","14","Female","approach_avoid_spark_v1","""event"",""trial"",""time""
""fullscreenenter"",""1"",""1322""
","
","
","""event"",""trial"",""time""
""fullscreenenter"",""1"",""1322""
","
","","","","","","null","<div style=""font-size:60px;"">+</div>","null","","fixation","","","","","","","","","","",""
"aa-learning-trial","121","476751","0.0-9.0-2.0-1.24","6280","1","14","Female","approach_avoid_spark_v1","""event"",""trial"",""time""
""fullscreenenter"",""1"",""1322""
","
","
","""event"",""trial"",""time""
""fullscreenenter"",""1"",""1322""
","
","","","","","","900.4000000357628","images/sofa8.png","","","learning","4","0","0","0","sofa","furniture","1","0","","good","[4]"
"html-keyboard-response","122","477255","0.0-9.0-2.0-0.25","6280","1","14","Female","approach_avoid_spark_v1","""event"",""trial"",""time""
""fullscreenenter"",""1"",""1322""
","
","
","""event"",""trial"",""time""
""fullscreenenter"",""1"",""1322""
","
","","","","","","null","<div style=""font-size:60px;"">+</div>","null","","fixation","","","","","","","","","","",""
"aa-learning-trial","123","480263","0.0-9.0-2.0-1.25","6280","1","14","Female","approach_avoid_spark_v1","""event"",""trial"",""time""
""fullscreenenter"",""1"",""1322""
","
","
","""event"",""trial"",""time""
""fullscreenenter"",""1"",""1322""
","
","","","","","","1099.800000011921","images/chair5.png","","","learning","-6","0","0","0","chair","furniture","1","0","","bad","[-5]"
"html-keyboard-response","124","480766","0.0-9.0-2.0-0.26","6280","1","14","Female","approach_avoid_spark_v1","""event"",""trial"",""time""
""fullscreenenter"",""1"",""1322""
","
","
","""event"",""trial"",""time""
""fullscreenenter"",""1"",""1322""
","
","","","","","","null","<div style=""font-size:60px;"">+</div>","null","","fixation","","","","","","","","","","",""
"aa-learning-trial","125","483775","0.0-9.0-2.0-1.26","6280","1","14","Female","approach_avoid_spark_v1","""event"",""trial"",""time""
""fullscreenenter"",""1"",""1322""
","
","
","""event"",""trial"",""time""
""fullscreenenter"",""1"",""1322""
","
","","","","","","468.10000002384186","images/chair5.png","","","learning","-7","-7","1","1","chair","furniture","1","0","","bad","[-5]"
"html-keyboard-response","126","484279","0.0-9.0-2.0-0.27","6280","1","14","Female","approach_avoid_spark_v1","""event"",""trial"",""time""
""fullscreenenter"",""1"",""1322""
","
","
","""event"",""trial"",""time""
""fullscreenenter"",""1"",""1322""
","
","","","","","","null","<div style=""font-size:60px;"">+</div>","null","","fixation","","","","","","","","","","",""
"aa-learning-trial","127","487287","0.0-9.0-2.0-1.27","6280","1","14","Female","approach_avoid_spark_v1","""event"",""trial"",""time""
""fullscreenenter"",""1"",""1322""
","
","
","""event"",""trial"",""time""
""fullscreenenter"",""1"",""1322""
","
","","","","","","980","images/bed3.png","","","learning","-2","-2","1","1","bed","furniture","1","0","","neutral","0"
"html-keyboard-response","128","487791","0.0-9.0-2.0-0.28","6280","1","14","Female","approach_avoid_spark_v1","""event"",""trial"",""time""
""fullscreenenter"",""1"",""1322""
","
","
","""event"",""trial"",""time""
""fullscreenenter"",""1"",""1322""
","
","","","","","","null","<div style=""font-size:60px;"">+</div>","null","","fixation","","","","","","","","","","",""
"aa-learning-trial","129","490799","0.0-9.0-2.0-1.28","6280","1","14","Female","approach_avoid_spark_v1","""event"",""trial"",""time""
""fullscreenenter"",""1"",""1322""
","
","
","""event"",""trial"",""time""
""fullscreenenter"",""1"",""1322""
","
","","","","","","523.3000000119209","images/sofa8.png","","","learning","2","0","0","0","sofa","furniture","1","0","","good","[4]"
"html-keyboard-response","130","491303","0.0-9.0-2.0-0.29","6280","1","14","Female","approach_avoid_spark_v1","""event"",""trial"",""time""
""fullscreenenter"",""1"",""1322""
","
","
","""event"",""trial"",""time""
""fullscreenenter"",""1"",""1322""
","
","","","","","","null","<div style=""font-size:60px;"">+</div>","null","","fixation","","","","","","","","","","",""
"aa-learning-trial","131","494311","0.0-9.0-2.0-1.29","6280","1","14","Female","approach_avoid_spark_v1","""event"",""trial"",""time""
""fullscreenenter"",""1"",""1322""
","
","
","""event"",""trial"",""time""
""fullscreenenter"",""1"",""1322""
","
","","","","","","1075.3999999761581","images/chair8.png","","","learning","-6","0","0","0","chair","furniture","1","0","","bad","[-5]"
"html-keyboard-response","132","494815","0.0-9.0-2.0-0.30","6280","1","14","Female","approach_avoid_spark_v1","""event"",""trial"",""time""
""fullscreenenter"",""1"",""1322""
","
","
","""event"",""trial"",""time""
""fullscreenenter"",""1"",""1322""
","
","","","","","","null","<div style=""font-size:60px;"">+</div>","null","","fixation","","","","","","","","","","",""
"aa-learning-trial","133","497823","0.0-9.0-2.0-1.30","6280","1","14","Female","approach_avoid_spark_v1","""event"",""trial"",""time""
""fullscreenenter"",""1"",""1322""
","
","
","""event"",""trial"",""time""
""fullscreenenter"",""1"",""1322""
","
","","","","","","499.89999997615814","images/sofa5.png","","","learning","1","1","1","1","sofa","furniture","1","0","","good","[4]"
"html-keyboard-response","134","498327","0.0-9.0-2.0-0.31","6280","1","14","Female","approach_avoid_spark_v1","""event"",""trial"",""time""
""fullscreenenter"",""1"",""1322""
","
","
","""event"",""trial"",""time""
""fullscreenenter"",""1"",""1322""
","
","","","","","","null","<div style=""font-size:60px;"">+</div>","null","","fixation","","","","","","","","","","",""
"aa-learning-trial","135","501335","0.0-9.0-2.0-1.31","6280","1","14","Female","approach_avoid_spark_v1","""event"",""trial"",""time""
""fullscreenenter"",""1"",""1322""
","
","
","""event"",""trial"",""time""
""fullscreenenter"",""1"",""1322""
","
","","","","","","956.3999999761581","images/chair1.png","","","learning","-6","-6","1","1","chair","furniture","1","0","","bad","[-5]"
"html-keyboard-response","136","501839","0.0-9.0-2.0-0.32","6280","1","14","Female","approach_avoid_spark_v1","""event"",""trial"",""time""
""fullscreenenter"",""1"",""1322""
","
","
","""event"",""trial"",""time""
""fullscreenenter"",""1"",""1322""
","
","","","","","","null","<div style=""font-size:60px;"">+</div>","null","","fixation","","","","","","","","","","",""
"aa-learning-trial","137","504847","0.0-9.0-2.0-1.32","6280","1","14","Female","approach_avoid_spark_v1","""event"",""trial"",""time""
""fullscreenenter"",""1"",""1322""
","
","
","""event"",""trial"",""time""
""fullscreenenter"",""1"",""1322""
","
","","","","","","698.8999999761581","images/sofa5.png","","","learning","4","0","0","0","sofa","furniture","1","0","","good","[4]"
"html-keyboard-response","138","505351","0.0-9.0-2.0-0.33","6280","1","14","Female","approach_avoid_spark_v1","""event"",""trial"",""time""
""fullscreenenter"",""1"",""1322""
","
","
","""event"",""trial"",""time""
""fullscreenenter"",""1"",""1322""
","
","","","","","","null","<div style=""font-size:60px;"">+</div>","null","","fixation","","","","","","","","","","",""
"aa-learning-trial","139","508360","0.0-9.0-2.0-1.33","6280","1","14","Female","approach_avoid_spark_v1","""event"",""trial"",""time""
""fullscreenenter"",""1"",""1322""
","
","
","""event"",""trial"",""time""
""fullscreenenter"",""1"",""1322""
","
","","","","","","763.5","images/chair8.png","","","learning","-8","-8","1","1","chair","furniture","1","0","","bad","[-5]"
"html-keyboard-response","140","508863","0.0-9.0-2.0-0.34","6280","1","14","Female","approach_avoid_spark_v1","""event"",""trial"",""time""
""fullscreenenter"",""1"",""1322""
","
","
","""event"",""trial"",""time""
""fullscreenenter"",""1"",""1322""
","
","","","","","","null","<div style=""font-size:60px;"">+</div>","null","","fixation","","","","","","","","","","",""
"aa-learning-trial","141","511871","0.0-9.0-2.0-1.34","6280","1","14","Female","approach_avoid_spark_v1","""event"",""trial"",""time""
""fullscreenenter"",""1"",""1322""
","
","
","""event"",""trial"",""time""
""fullscreenenter"",""1"",""1322""
","
","","","","","","691.1999999880791","images/sofa6.png","","","learning","5","0","0","0","sofa","furniture","1","0","","good","[4]"
"html-keyboard-response","142","512375","0.0-9.0-2.0-0.35","6280","1","14","Female","approach_avoid_spark_v1","""event"",""trial"",""time""
""fullscreenenter"",""1"",""1322""
","
","
","""event"",""trial"",""time""
""fullscreenenter"",""1"",""1322""
","
","","","","","","null","<div style=""font-size:60px;"">+</div>","null","","fixation","","","","","","","","","","",""
"aa-learning-trial","143","515383","0.0-9.0-2.0-1.35","6280","1","14","Female","approach_avoid_spark_v1","""event"",""trial"",""time""
""fullscreenenter"",""1"",""1322""
","
","
","""event"",""trial"",""time""
""fullscreenenter"",""1"",""1322""
","
","","","","","","779.8000000119209","images/chair1.png","","","learning","-5","-5","1","1","chair","furniture","1","0","","bad","[-5]"
"html-keyboard-response","144","515887","0.0-9.0-2.0-0.36","6280","1","14","Female","approach_avoid_spark_v1","""event"",""trial"",""time""
""fullscreenenter"",""1"",""1322""
","
","
","""event"",""trial"",""time""
""fullscreenenter"",""1"",""1322""
","
","","","","","","null","<div style=""font-size:60px;"">+</div>","null","","fixation","","","","","","","","","","",""
"aa-learning-trial","145","518895","0.0-9.0-2.0-1.36","6280","1","14","Female","approach_avoid_spark_v1","""event"",""trial"",""time""
""fullscreenenter"",""1"",""1322""
","
","
","""event"",""trial"",""time""
""fullscreenenter"",""1"",""1322""
","
","","","","","","747.6999999880791","images/bed2.png","","","learning","[1]","0","0","0","bed","furniture","1","0","","neutral","0"
"html-keyboard-response","146","519399","0.0-9.0-2.0-0.37","6280","1","14","Female","approach_avoid_spark_v1","""event"",""trial"",""time""
""fullscreenenter"",""1"",""1322""
","
","
","""event"",""trial"",""time""
""fullscreenenter"",""1"",""1322""
","
","","","","","","null","<div style=""font-size:60px;"">+</div>","null","","fixation","","","","","","","","","","",""
"aa-learning-trial","147","522407","0.0-9.0-2.0-1.37","6280","1","14","Female","approach_avoid_spark_v1","""event"",""trial"",""time""
""fullscreenenter"",""1"",""1322""
","
","
","""event"",""trial"",""time""
""fullscreenenter"",""1"",""1322""
","
","","","","","","691.5999999642372","images/sofa6.png","","","learning","2","2","1","1","sofa","furniture","1","0","","good","[4]"
"html-keyboard-response","148","522911","0.0-9.0-2.0-0.38","6280","1","14","Female","approach_avoid_spark_v1","""event"",""trial"",""time""
""fullscreenenter"",""1"",""1322""
","
","
","""event"",""trial"",""time""
""fullscreenenter"",""1"",""1322""
","
","","","","","","null","<div style=""font-size:60px;"">+</div>","null","","fixation","","","","","","","","","","",""
"aa-learning-trial","149","525919","0.0-9.0-2.0-1.38","6280","1","14","Female","approach_avoid_spark_v1","""event"",""trial"",""time""
""fullscreenenter"",""1"",""1322""
","
","
","""event"",""trial"",""time""
""fullscreenenter"",""1"",""1322""
","
","","","","","","730.6000000238419","images/sofa6.png","","","learning","4","4","1","1","sofa","furniture","1","0","","good","[4]"
"html-keyboard-response","150","526423","0.0-9.0-2.0-0.39","6280","1","14","Female","approach_avoid_spark_v1","""event"",""trial"",""time""
""fullscreenenter"",""1"",""1322""
","
","
","""event"",""trial"",""time""
""fullscreenenter"",""1"",""1322""
","
","","","","","","null","<div style=""font-size:60px;"">+</div>","null","","fixation","","","","","","","","","","",""
"aa-learning-trial","151","529431","0.0-9.0-2.0-1.39","6280","1","14","Female","approach_avoid_spark_v1","""event"",""trial"",""time""
""fullscreenenter"",""1"",""1322""
","
","
","""event"",""trial"",""time""
""fullscreenenter"",""1"",""1322""
","
","","","","","","844.0999999642372","images/sofa8.png","","","learning","3","3","1","1","sofa","furniture","1","0","","good","[4]"
"html-keyboard-response","152","529935","0.0-9.0-2.0-0.40","6280","1","14","Female","approach_avoid_spark_v1","""event"",""trial"",""time""
""fullscreenenter"",""1"",""1322""
","
","
","""event"",""trial"",""time""
""fullscreenenter"",""1"",""1322""
","
","","","","","","null","<div style=""font-size:60px;"">+</div>","null","","fixation","","","","","","","","","","",""
"aa-learning-trial","153","532943","0.0-9.0-2.0-1.40","6280","1","14","Female","approach_avoid_spark_v1","""event"",""trial"",""time""
""fullscreenenter"",""1"",""1322""
","
","
","""event"",""trial"",""time""
""fullscreenenter"",""1"",""1322""
","
","","","","","","795.0999999642372","images/sofa7.png","","","learning","3","0","0","0","sofa","furniture","1","0","","good","[4]"
"html-keyboard-response","154","533447","0.0-9.0-2.0-0.41","6280","1","14","Female","approach_avoid_spark_v1","""event"",""trial"",""time""
""fullscreenenter"",""1"",""1322""
","
","
","""event"",""trial"",""time""
""fullscreenenter"",""1"",""1322""
","
","","","","","","null","<div style=""font-size:60px;"">+</div>","null","","fixation","","","","","","","","","","",""
"aa-learning-trial","155","536455","0.0-9.0-2.0-1.41","6280","1","14","Female","approach_avoid_spark_v1","""event"",""trial"",""time""
""fullscreenenter"",""1"",""1322""
","
","
","""event"",""trial"",""time""
""fullscreenenter"",""1"",""1322""
","
","","","","","","1218.8999999761581","images/bed3.png","","","learning","3","0","0","0","bed","furniture","1","0","","neutral","0"
"html-keyboard-response","156","536959","0.0-9.0-2.0-0.42","6280","1","14","Female","approach_avoid_spark_v1","""event"",""trial"",""time""
""fullscreenenter"",""1"",""1322""
","
","
","""event"",""trial"",""time""
""fullscreenenter"",""1"",""1322""
","
","","","","","","null","<div style=""font-size:60px;"">+</div>","null","","fixation","","","","","","","","","","",""
"aa-learning-trial","157","539967","0.0-9.0-2.0-1.42","6280","1","14","Female","approach_avoid_spark_v1","""event"",""trial"",""time""
""fullscreenenter"",""1"",""1322""
","
","
","""event"",""trial"",""time""
""fullscreenenter"",""1"",""1322""
","
","","","","","","1003.5999999642372","images/bed2.png","","","learning","[1]","1","1","1","bed","furniture","1","0","","neutral","0"
"html-keyboard-response","158","540472","0.0-9.0-2.0-0.43","6280","1","14","Female","approach_avoid_spark_v1","""event"",""trial"",""time""
""fullscreenenter"",""1"",""1322""
","
","
","""event"",""trial"",""time""
""fullscreenenter"",""1"",""1322""
","
","","","","","","null","<div style=""font-size:60px;"">+</div>","null","","fixation","","","","","","","","","","",""
"aa-learning-trial","159","543479","0.0-9.0-2.0-1.43","6280","1","14","Female","approach_avoid_spark_v1","""event"",""trial"",""time""
""fullscreenenter"",""1"",""1322""
","
","
","""event"",""trial"",""time""
""fullscreenenter"",""1"",""1322""
","
","","","","","","914","images/chair6.png","","","learning","-7","0","0","0","chair","furniture","1","0","","bad","[-5]"
"html-keyboard-response","160","543982","0.0-9.0-2.0-0.44","6280","1","14","Female","approach_avoid_spark_v1","""event"",""trial"",""time""
""fullscreenenter"",""1"",""1322""
","
","
","""event"",""trial"",""time""
""fullscreenenter"",""1"",""1322""
","
","","","","","","null","<div style=""font-size:60px;"">+</div>","null","","fixation","","","","","","","","","","",""
"aa-learning-trial","161","546991","0.0-9.0-2.0-1.44","6280","1","14","Female","approach_avoid_spark_v1","""event"",""trial"",""time""
""fullscreenenter"",""1"",""1322""
","
","
","""event"",""trial"",""time""
""fullscreenenter"",""1"",""1322""
","
","","","","","","987.5999999642372","images/bed2.png","","","learning","-1","-1","1","1","bed","furniture","1","0","","neutral","0"
"html-keyboard-response","162","547495","0.0-9.0-2.0-0.45","6280","1","14","Female","approach_avoid_spark_v1","""event"",""trial"",""time""
""fullscreenenter"",""1"",""1322""
","
","
","""event"",""trial"",""time""
""fullscreenenter"",""1"",""1322""
","
","","","","","","null","<div style=""font-size:60px;"">+</div>","null","","fixation","","","","","","","","","","",""
"aa-learning-trial","163","550513","0.0-9.0-2.0-1.45","6280","1","14","Female","approach_avoid_spark_v1","""event"",""trial"",""time""
""fullscreenenter"",""1"",""1322""
","
","
","""event"",""trial"",""time""
""fullscreenenter"",""1"",""1322""
","
","","","","","","1026.9000000357628","images/bed4.png","","","learning","1","1","1","1","bed","furniture","1","0","","neutral","0"
"html-keyboard-response","164","551023","0.0-9.0-2.0-0.46","6280","1","14","Female","approach_avoid_spark_v1","""event"",""trial"",""time""
""fullscreenenter"",""1"",""1322""
","
","
","""event"",""trial"",""time""
""fullscreenenter"",""1"",""1322""
","
","","","","","","null","<div style=""font-size:60px;"">+</div>","null","","fixation","","","","","","","","","","",""
"aa-learning-trial","165","554031","0.0-9.0-2.0-1.46","6280","1","14","Female","approach_avoid_spark_v1","""event"",""trial"",""time""
""fullscreenenter"",""1"",""1322""
","
","
","""event"",""trial"",""time""
""fullscreenenter"",""1"",""1322""
","
","","","","","","858.6999999880791","images/chair8.png","","","learning","-3","0","0","0","chair","furniture","1","0","","bad","[-5]"
"html-keyboard-response","166","554535","0.0-9.0-2.0-0.47","6280","1","14","Female","approach_avoid_spark_v1","""event"",""trial"",""time""
""fullscreenenter"",""1"",""1322""
","
","
","""event"",""trial"",""time""
""fullscreenenter"",""1"",""1322""
","
","","","","","","null","<div style=""font-size:60px;"">+</div>","null","","fixation","","","","","","","","","","",""
"aa-learning-trial","167","557542","0.0-9.0-2.0-1.47","6280","1","14","Female","approach_avoid_spark_v1","""event"",""trial"",""time""
""fullscreenenter"",""1"",""1322""
","
","
","""event"",""trial"",""time""
""fullscreenenter"",""1"",""1322""
","
","","","","","","707.8000000119209","images/chair1.png","","","learning","-6","-6","1","1","chair","furniture","1","0","","bad","[-5]"
"html-keyboard-response","168","558046","0.0-9.0-2.0-0.48","6280","1","14","Female","approach_avoid_spark_v1","""event"",""trial"",""time""
""fullscreenenter"",""1"",""1322""
","
","
","""event"",""trial"",""time""
""fullscreenenter"",""1"",""1322""
","
","","","","","","null","<div style=""font-size:60px;"">+</div>","null","","fixation","","","","","","","","","","",""
"aa-learning-trial","169","561055","0.0-9.0-2.0-1.48","6280","1","14","Female","approach_avoid_spark_v1","""event"",""trial"",""time""
""fullscreenenter"",""1"",""1322""
","
","
","""event"",""trial"",""time""
""fullscreenenter"",""1"",""1322""
","
","","","","","","875.3999999761581","images/bed3.png","","","learning","-3","-3","1","1","bed","furniture","1","0","","neutral","0"
"html-keyboard-response","170","561559","0.0-9.0-2.0-0.49","6280","1","14","Female","approach_avoid_spark_v1","""event"",""trial"",""time""
""fullscreenenter"",""1"",""1322""
","
","
","""event"",""trial"",""time""
""fullscreenenter"",""1"",""1322""
","
","","","","","","null","<div style=""font-size:60px;"">+</div>","null","","fixation","","","","","","","","","","",""
"aa-learning-trial","171","564566","0.0-9.0-2.0-1.49","6280","1","14","Female","approach_avoid_spark_v1","""event"",""trial"",""time""
""fullscreenenter"",""1"",""1322""
","
","
","""event"",""trial"",""time""
""fullscreenenter"",""1"",""1322""
","
","","","","","","682.1999999880791","images/sofa3.png","","","learning","4","0","0","0","sofa","furniture","1","0","","good","[4]"
"html-keyboard-response","172","565071","0.0-9.0-2.0-0.50","6280","1","14","Female","approach_avoid_spark_v1","""event"",""trial"",""time""
""fullscreenenter"",""1"",""1322""
","
","
","""event"",""trial"",""time""
""fullscreenenter"",""1"",""1322""
","
","","","","","","null","<div style=""font-size:60px;"">+</div>","null","","fixation","","","","","","","","","","",""
"aa-learning-trial","173","568079","0.0-9.0-2.0-1.50","6280","1","14","Female","approach_avoid_spark_v1","""event"",""trial"",""time""
""fullscreenenter"",""1"",""1322""
","
","
","""event"",""trial"",""time""
""fullscreenenter"",""1"",""1322""
","
","","","","","","706.3999999761581","images/bed3.png","","","learning","1","1","1","1","bed","furniture","1","0","","neutral","0"
"html-button-response","174","572610","0.0-9.0-3.0","6280","1","14","Female","approach_avoid_spark_v1","""event"",""trial"",""time""
""fullscreenenter"",""1"",""1322""
","
","
","""event"",""trial"",""time""
""fullscreenenter"",""1"",""1322""
","
","","","","","","4529.199999988079","<p> You have completed the round! <p> In this round, you earned -8 points! </p>","0","","break","","","","","","","","","","",""
"html-button-response","175","573714","0.0-10.0","6280","1","14","Female","approach_avoid_spark_v1","""event"",""trial"",""time""
""fullscreenenter"",""1"",""1322""
","
","
","""event"",""trial"",""time""
""fullscreenenter"",""1"",""1322""
","
","","","","","","1103.0999999642372","<p> Now it's time to play another round. </p>","0","","transition_screen","","","","","","","","","","",""
"preload","176","573856","0.0-11.0-0.0","6280","1","14","Female","approach_avoid_spark_v1","""event"",""trial"",""time""
""fullscreenenter"",""1"",""1322""
","
","
","""event"",""trial"",""time""
""fullscreenenter"",""1"",""1322""
","
","true","false","[]","[]","[]","","","","","","","","","","","","","","","",""
"learning-instructions","177","580465","0.0-11.0-1.0-0.0","6280","1","14","Female","approach_avoid_spark_v1","""event"",""trial"",""time""
""fullscreenenter"",""1"",""1322""
""fullscreenexit"",""178"",""584187""
""blur"",""178"",""587150""
""focus"",""178"",""591739""
","""event"",""trial"",""time""
""blur"",""178"",""587150""
","""event"",""trial"",""time""
""focus"",""178"",""591739""
","""event"",""trial"",""time""
""fullscreenenter"",""1"",""1322""
","""event"",""trial"",""time""
""fullscreenexit"",""178"",""584187""
","","","","","","958","<p> Your goal in this round is to take your friend for rides in different vehicles. </p></div>","","0","instructions","","","","","","","","","","",""
"learning-instructions","178","592729","0.0-11.0-1.0-0.1","6280","1","14","Female","approach_avoid_spark_v1","""event"",""trial"",""time""
""fullscreenenter"",""1"",""1322""
""fullscreenexit"",""178"",""584187""
""blur"",""178"",""587150""
""focus"",""178"",""591739""
","""event"",""trial"",""time""
""blur"",""178"",""587150""
","""event"",""trial"",""time""
""focus"",""178"",""591739""
","""event"",""trial"",""time""
""fullscreenenter"",""1"",""1322""
","""event"",""trial"",""time""
""fullscreenexit"",""178"",""584187""
","","","","","","2071.399999976158","<p> Your friend enjoys riding in some vehicles but not in others.  </p><p> On each turn, you will see a vehicle.   </p><p> You need to decide whether to take your friend for a ride or not.  </p>","","0","instructions","","","","","","","","","","",""
"learning-instructions","179","599929","0.0-11.0-1.0-0.2","6280","1","14","Female","approach_avoid_spark_v1","""event"",""trial"",""time""
""fullscreenenter"",""1"",""1322""
""fullscreenexit"",""178"",""584187""
""blur"",""178"",""587150""
""focus"",""178"",""591739""
","""event"",""trial"",""time""
""blur"",""178"",""587150""
","""event"",""trial"",""time""
""focus"",""178"",""591739""
","""event"",""trial"",""time""
""fullscreenenter"",""1"",""1322""
","""event"",""trial"",""time""
""fullscreenexit"",""178"",""584187""
","","","","","","451.5","<p> You can take your friend for a ride in the vehicle by pressing 1 and skip the ride by pressing 0. </p><br><div class=""choice-instructions-grid""> <div class=""choice-option""><img src=""images/approach.png"" class=""choice-option-img"" stage=""instructions"" position=""0"" ><div class=""choice-option-text""> Press ""1."" </div></div><div class=""choice-option""><img src=""images/avoid.png"" class=""choice-option-img"" stage=""instructions"" position=""1"" ><div class=""choice-option-text""> Press ""0."" </div></div>","","0","instructions","","","","","","","","","","",""
"learning-instructions","180","609457","0.0-11.0-1.0-0.3","6280","1","14","Female","approach_avoid_spark_v1","""event"",""trial"",""time""
""fullscreenenter"",""1"",""1322""
""fullscreenexit"",""178"",""584187""
""blur"",""178"",""587150""
""focus"",""178"",""591739""
","""event"",""trial"",""time""
""blur"",""178"",""587150""
","""event"",""trial"",""time""
""focus"",""178"",""591739""
","""event"",""trial"",""time""
""fullscreenenter"",""1"",""1322""
","""event"",""trial"",""time""
""fullscreenexit"",""178"",""584187""
","","","","","","470.10000002384186","<p> If you take them for a ride in a vehicle they like, they will be thrilled! </p><p> But if you take them for a ride in a vehicle they do not like, they will be upset. </p>","","0","instructions","","","","","","","","","","",""
"learning-instructions","181","621913","0.0-11.0-1.0-0.4","6280","1","14","Female","approach_avoid_spark_v1","""event"",""trial"",""time""
""fullscreenenter"",""1"",""1322""
""fullscreenexit"",""178"",""584187""
""blur"",""178"",""587150""
""focus"",""178"",""591739""
","""event"",""trial"",""time""
""blur"",""178"",""587150""
","""event"",""trial"",""time""
""focus"",""178"",""591739""
","""event"",""trial"",""time""
""fullscreenenter"",""1"",""1322""
","""event"",""trial"",""time""
""fullscreenexit"",""178"",""584187""
","","","","","","375.89999997615814","<p> You will earn points based on how you made your friend feel. </p><p> If you made him thrilled, you will WIN anywhere from 1 - 9 points, </p><p> but if you made him upset, you will LOSE anywhere from 1 - 9 points. </p>","","0","instructions","","","","","","","","","","",""
"learning-instructions","182","629185","0.0-11.0-1.0-0.5","6280","1","14","Female","approach_avoid_spark_v1","""event"",""trial"",""time""
""fullscreenenter"",""1"",""1322""
""fullscreenexit"",""178"",""584187""
""blur"",""178"",""587150""
""focus"",""178"",""591739""
","""event"",""trial"",""time""
""blur"",""178"",""587150""
","""event"",""trial"",""time""
""focus"",""178"",""591739""
","""event"",""trial"",""time""
""fullscreenenter"",""1"",""1322""
","""event"",""trial"",""time""
""fullscreenexit"",""178"",""584187""
","","","","","","618","<p> You will see how many points you won or lost in the center of the screen. </p><p> Here is what you would see if you won 5 points: </p><p style=""color:green;font-size:50px;font-weight:bolder"">5</p>","","0","instructions","","","","","","","","","","",""
"learning-instructions","183","632737","0.0-11.0-1.0-0.6","6280","1","14","Female","approach_avoid_spark_v1","""event"",""trial"",""time""
""fullscreenenter"",""1"",""1322""
""fullscreenexit"",""178"",""584187""
""blur"",""178"",""587150""
""focus"",""178"",""591739""
","""event"",""trial"",""time""
""blur"",""178"",""587150""
","""event"",""trial"",""time""
""focus"",""178"",""591739""
","""event"",""trial"",""time""
""fullscreenenter"",""1"",""1322""
","""event"",""trial"",""time""
""fullscreenexit"",""178"",""584187""
","","","","","","720","<p> And here is what you would see if you lost 3 points: </p><p style=""color:red;font-size:50px;font-weight:bolder"">-3</p>","","0","instructions","","","","","","","","","","",""
"learning-instructions","184","648720","0.0-11.0-1.0-0.7","6280","1","14","Female","approach_avoid_spark_v1","""event"",""trial"",""time""
""fullscreenenter"",""1"",""1322""
""fullscreenexit"",""178"",""584187""
""blur"",""178"",""587150""
""focus"",""178"",""591739""
","""event"",""trial"",""time""
""blur"",""178"",""587150""
","""event"",""trial"",""time""
""focus"",""178"",""591739""
","""event"",""trial"",""time""
""fullscreenenter"",""1"",""1322""
","""event"",""trial"",""time""
""fullscreenexit"",""178"",""584187""
","","","","","","414","<p> Some vehicles will make your friend REALLY thrilled or upset. </p><p> These vehicles will make you win or lose LOTS of points. </p><p> Other vehicles will only make him feel a little thrilled or upset. </p><p> These vehicles will make you win or lose small amounts of points. </p>","","0","instructions","","","","","","","","","","",""
"learning-instructions","185","661584","0.0-11.0-1.0-0.8","6280","1","14","Female","approach_avoid_spark_v1","""event"",""trial"",""time""
""fullscreenenter"",""1"",""1322""
""fullscreenexit"",""178"",""584187""
""blur"",""178"",""587150""
""focus"",""178"",""591739""
","""event"",""trial"",""time""
""blur"",""178"",""587150""
","""event"",""trial"",""time""
""focus"",""178"",""591739""
","""event"",""trial"",""time""
""fullscreenenter"",""1"",""1322""
","""event"",""trial"",""time""
""fullscreenexit"",""178"",""584187""
","","","","","","818.1000000238419","<p> If you choose to skip the ride, you will not win or lose any points. </p><p>  However, in the center of the screen, you will see the number of points you WOULD HAVE won or lost if you had taken your friend for a ride. </p>","","0","instructions","","","","","","","","","","",""
"learning-instructions","186","673008","0.0-11.0-1.0-0.9","6280","1","14","Female","approach_avoid_spark_v1","""event"",""trial"",""time""
""fullscreenenter"",""1"",""1322""
""fullscreenexit"",""178"",""584187""
""blur"",""178"",""587150""
""focus"",""178"",""591739""
","""event"",""trial"",""time""
""blur"",""178"",""587150""
","""event"",""trial"",""time""
""focus"",""178"",""591739""
","""event"",""trial"",""time""
""fullscreenenter"",""1"",""1322""
","""event"",""trial"",""time""
""fullscreenexit"",""178"",""584187""
","","","","","","381.9000000357628","<p> Here is what you might see if you did not take your friend for a ride but he would have enjoyed it: </p><p style=""color:grey; font-size:50px; display: inline-block; border-spacing: 15px; border-width:3px; border-style:solid; border-color:red"">  &nbsp; 6 &nbsp; </p><p> Remember, in this case, you would not win or lose ANY points because you skipped the ride.  </p>","","0","instructions","","","","","","","","","","",""
"learning-instructions","187","681248","0.0-11.0-1.0-0.10","6280","1","14","Female","approach_avoid_spark_v1","""event"",""trial"",""time""
""fullscreenenter"",""1"",""1322""
""fullscreenexit"",""178"",""584187""
""blur"",""178"",""587150""
""focus"",""178"",""591739""
","""event"",""trial"",""time""
""blur"",""178"",""587150""
","""event"",""trial"",""time""
""focus"",""178"",""591739""
","""event"",""trial"",""time""
""fullscreenenter"",""1"",""1322""
","""event"",""trial"",""time""
""fullscreenexit"",""178"",""584187""
","","","","","","392.19999998807907","<p> Try to make the best choice for each vehicle because </p><p> at the end of the game, you will earn bonus money based on how many points you earned. </p>","","0","instructions","","","","","","","","","","",""
"learning-instructions","188","689888","0.0-11.0-1.0-0.11","6280","1","14","Female","approach_avoid_spark_v1","""event"",""trial"",""time""
""fullscreenenter"",""1"",""1322""
""fullscreenexit"",""178"",""584187""
""blur"",""178"",""587150""
""focus"",""178"",""591739""
","""event"",""trial"",""time""
""blur"",""178"",""587150""
","""event"",""trial"",""time""
""focus"",""178"",""591739""
","""event"",""trial"",""time""
""fullscreenenter"",""1"",""1322""
","""event"",""trial"",""time""
""fullscreenexit"",""178"",""584187""
","","","","","","442","<p> You will have 3 seconds to make each choice. Try to respond before time runs out! </p><p> You will lose 5 points each time you do not make a response. </p>","","0","instructions","","","","","","","","","","",""
"html-keyboard-response","189","690512","0.0-11.0-2.0-0.0","6280","1","14","Female","approach_avoid_spark_v1","""event"",""trial"",""time""
""fullscreenenter"",""1"",""1322""
""fullscreenexit"",""178"",""584187""
""blur"",""178"",""587150""
""focus"",""178"",""591739""
","""event"",""trial"",""time""
""blur"",""178"",""587150""
","""event"",""trial"",""time""
""focus"",""178"",""591739""
","""event"",""trial"",""time""
""fullscreenenter"",""1"",""1322""
","""event"",""trial"",""time""
""fullscreenexit"",""178"",""584187""
","","","","","","null","<div style=""font-size:60px;"">+</div>","null","","fixation","","","","","","","","","","",""
"aa-learning-trial","190","693527","0.0-11.0-2.0-1.0","6280","1","14","Female","approach_avoid_spark_v1","""event"",""trial"",""time""
""fullscreenenter"",""1"",""1322""
""fullscreenexit"",""178"",""584187""
""blur"",""178"",""587150""
""focus"",""178"",""591739""
","""event"",""trial"",""time""
""blur"",""178"",""587150""
","""event"",""trial"",""time""
""focus"",""178"",""591739""
","""event"",""trial"",""time""
""fullscreenenter"",""1"",""1322""
","""event"",""trial"",""time""
""fullscreenexit"",""178"",""584187""
","","","","","","1534.199999988079","images/boat4.png","","","learning","-5","-5","1","1","boat","vehicles","2","1","","good","[5]"
"html-keyboard-response","191","694035","0.0-11.0-2.0-0.1","6280","1","14","Female","approach_avoid_spark_v1","""event"",""trial"",""time""
""fullscreenenter"",""1"",""1322""
""fullscreenexit"",""178"",""584187""
""blur"",""178"",""587150""
""focus"",""178"",""591739""
","""event"",""trial"",""time""
""blur"",""178"",""587150""
","""event"",""trial"",""time""
""focus"",""178"",""591739""
","""event"",""trial"",""time""
""fullscreenenter"",""1"",""1322""
","""event"",""trial"",""time""
""fullscreenexit"",""178"",""584187""
","","","","","","null","<div style=""font-size:60px;"">+</div>","null","","fixation","","","","","","","","","","",""
"aa-learning-trial","192","697044","0.0-11.0-2.0-1.1","6280","1","14","Female","approach_avoid_spark_v1","""event"",""trial"",""time""
""fullscreenenter"",""1"",""1322""
""fullscreenexit"",""178"",""584187""
""blur"",""178"",""587150""
""focus"",""178"",""591739""
","""event"",""trial"",""time""
""blur"",""178"",""587150""
","""event"",""trial"",""time""
""focus"",""178"",""591739""
","""event"",""trial"",""time""
""fullscreenenter"",""1"",""1322""
","""event"",""trial"",""time""
""fullscreenexit"",""178"",""584187""
","","","","","","1284.199999988079","images/train8.png","","","learning","8","8","1","1","train","vehicles","2","1","","bad","[-3]"
"html-keyboard-response","193","697551","0.0-11.0-2.0-0.2","6280","1","14","Female","approach_avoid_spark_v1","""event"",""trial"",""time""
""fullscreenenter"",""1"",""1322""
""fullscreenexit"",""178"",""584187""
""blur"",""178"",""587150""
""focus"",""178"",""591739""
","""event"",""trial"",""time""
""blur"",""178"",""587150""
","""event"",""trial"",""time""
""focus"",""178"",""591739""
","""event"",""trial"",""time""
""fullscreenenter"",""1"",""1322""
","""event"",""trial"",""time""
""fullscreenexit"",""178"",""584187""
","","","","","","null","<div style=""font-size:60px;"">+</div>","null","","fixation","","","","","","","","","","",""
"aa-learning-trial","194","700557","0.0-11.0-2.0-1.2","6280","1","14","Female","approach_avoid_spark_v1","""event"",""trial"",""time""
""fullscreenenter"",""1"",""1322""
""fullscreenexit"",""178"",""584187""
""blur"",""178"",""587150""
""focus"",""178"",""591739""
","""event"",""trial"",""time""
""blur"",""178"",""587150""
","""event"",""trial"",""time""
""focus"",""178"",""591739""
","""event"",""trial"",""time""
""fullscreenenter"",""1"",""1322""
","""event"",""trial"",""time""
""fullscreenexit"",""178"",""584187""
","","","","","","1360.5","images/plane2.png","","","learning","1","0","0","0","plane","vehicles","2","1","","neutral","0"
"html-keyboard-response","195","701074","0.0-11.0-2.0-0.3","6280","1","14","Female","approach_avoid_spark_v1","""event"",""trial"",""time""
""fullscreenenter"",""1"",""1322""
""fullscreenexit"",""178"",""584187""
""blur"",""178"",""587150""
""focus"",""178"",""591739""
","""event"",""trial"",""time""
""blur"",""178"",""587150""
","""event"",""trial"",""time""
""focus"",""178"",""591739""
","""event"",""trial"",""time""
""fullscreenenter"",""1"",""1322""
","""event"",""trial"",""time""
""fullscreenexit"",""178"",""584187""
","","","","","","null","<div style=""font-size:60px;"">+</div>","null","","fixation","","","","","","","","","","",""
"aa-learning-trial","196","704089","0.0-11.0-2.0-1.3","6280","1","14","Female","approach_avoid_spark_v1","""event"",""trial"",""time""
""fullscreenenter"",""1"",""1322""
""fullscreenexit"",""178"",""584187""
""blur"",""178"",""587150""
""focus"",""178"",""591739""
","""event"",""trial"",""time""
""blur"",""178"",""587150""
","""event"",""trial"",""time""
""focus"",""178"",""591739""
","""event"",""trial"",""time""
""fullscreenenter"",""1"",""1322""
","""event"",""trial"",""time""
""fullscreenexit"",""178"",""584187""
","","","","","","806.6000000238419","images/train7.png","","","learning","-6","0","0","0","train","vehicles","2","1","","bad","[-3]"
"html-keyboard-response","197","704597","0.0-11.0-2.0-0.4","6280","1","14","Female","approach_avoid_spark_v1","""event"",""trial"",""time""
""fullscreenenter"",""1"",""1322""
""fullscreenexit"",""178"",""584187""
""blur"",""178"",""587150""
""focus"",""178"",""591739""
","""event"",""trial"",""time""
""blur"",""178"",""587150""
","""event"",""trial"",""time""
""focus"",""178"",""591739""
","""event"",""trial"",""time""
""fullscreenenter"",""1"",""1322""
","""event"",""trial"",""time""
""fullscreenexit"",""178"",""584187""
","","","","","","null","<div style=""font-size:60px;"">+</div>","null","","fixation","","","","","","","","","","",""
"aa-learning-trial","198","707613","0.0-11.0-2.0-1.4","6280","1","14","Female","approach_avoid_spark_v1","""event"",""trial"",""time""
""fullscreenenter"",""1"",""1322""
""fullscreenexit"",""178"",""584187""
""blur"",""178"",""587150""
""focus"",""178"",""591739""
","""event"",""trial"",""time""
""blur"",""178"",""587150""
","""event"",""trial"",""time""
""focus"",""178"",""591739""
","""event"",""trial"",""time""
""fullscreenenter"",""1"",""1322""
","""event"",""trial"",""time""
""fullscreenexit"",""178"",""584187""
","","","","","","1026.199999988079","images/train1.png","","","learning","-4","0","0","0","train","vehicles","2","1","","bad","[-3]"
"html-keyboard-response","199","708123","0.0-11.0-2.0-0.5","6280","1","14","Female","approach_avoid_spark_v1","""event"",""trial"",""time""
""fullscreenenter"",""1"",""1322""
""fullscreenexit"",""178"",""584187""
""blur"",""178"",""587150""
""focus"",""178"",""591739""
","""event"",""trial"",""time""
""blur"",""178"",""587150""
","""event"",""trial"",""time""
""focus"",""178"",""591739""
","""event"",""trial"",""time""
""fullscreenenter"",""1"",""1322""
","""event"",""trial"",""time""
""fullscreenexit"",""178"",""584187""
","","","","","","null","<div style=""font-size:60px;"">+</div>","null","","fixation","","","","","","","","","","",""
"aa-learning-trial","200","711146","0.0-11.0-2.0-1.5","6280","1","14","Female","approach_avoid_spark_v1","""event"",""trial"",""time""
""fullscreenenter"",""1"",""1322""
""fullscreenexit"",""178"",""584187""
""blur"",""178"",""587150""
""focus"",""178"",""591739""
","""event"",""trial"",""time""
""blur"",""178"",""587150""
","""event"",""trial"",""time""
""focus"",""178"",""591739""
","""event"",""trial"",""time""
""fullscreenenter"",""1"",""1322""
","""event"",""trial"",""time""
""fullscreenexit"",""178"",""584187""
","","","","","","1484.300000011921","images/train1.png","","","learning","-4","0","0","0","train","vehicles","2","1","","bad","[-3]"
"html-keyboard-response","201","711656","0.0-11.0-2.0-0.6","6280","1","14","Female","approach_avoid_spark_v1","""event"",""trial"",""time""
""fullscreenenter"",""1"",""1322""
""fullscreenexit"",""178"",""584187""
""blur"",""178"",""587150""
""focus"",""178"",""591739""
","""event"",""trial"",""time""
""blur"",""178"",""587150""
","""event"",""trial"",""time""
""focus"",""178"",""591739""
","""event"",""trial"",""time""
""fullscreenenter"",""1"",""1322""
","""event"",""trial"",""time""
""fullscreenexit"",""178"",""584187""
","","","","","","null","<div style=""font-size:60px;"">+</div>","null","","fixation","","","","","","","","","","",""
"aa-learning-trial","202","714661","0.0-11.0-2.0-1.6","6280","1","14","Female","approach_avoid_spark_v1","""event"",""trial"",""time""
""fullscreenenter"",""1"",""1322""
""fullscreenexit"",""178"",""584187""
""blur"",""178"",""587150""
""focus"",""178"",""591739""
","""event"",""trial"",""time""
""blur"",""178"",""587150""
","""event"",""trial"",""time""
""focus"",""178"",""591739""
","""event"",""trial"",""time""
""fullscreenenter"",""1"",""1322""
","""event"",""trial"",""time""
""fullscreenexit"",""178"",""584187""
","","","","","","943.8999999761581","images/boat5.png","","","learning","4","4","1","1","boat","vehicles","2","1","","good","[5]"
"html-keyboard-response","203","715175","0.0-11.0-2.0-0.7","6280","1","14","Female","approach_avoid_spark_v1","""event"",""trial"",""time""
""fullscreenenter"",""1"",""1322""
""fullscreenexit"",""178"",""584187""
""blur"",""178"",""587150""
""focus"",""178"",""591739""
","""event"",""trial"",""time""
""blur"",""178"",""587150""
","""event"",""trial"",""time""
""focus"",""178"",""591739""
","""event"",""trial"",""time""
""fullscreenenter"",""1"",""1322""
","""event"",""trial"",""time""
""fullscreenexit"",""178"",""584187""
","","","","","","null","<div style=""font-size:60px;"">+</div>","null","","fixation","","","","","","","","","","",""
"aa-learning-trial","204","718190","0.0-11.0-2.0-1.7","6280","1","14","Female","approach_avoid_spark_v1","""event"",""trial"",""time""
""fullscreenenter"",""1"",""1322""
""fullscreenexit"",""178"",""584187""
""blur"",""178"",""587150""
""focus"",""178"",""591739""
","""event"",""trial"",""time""
""blur"",""178"",""587150""
","""event"",""trial"",""time""
""focus"",""178"",""591739""
","""event"",""trial"",""time""
""fullscreenenter"",""1"",""1322""
","""event"",""trial"",""time""
""fullscreenexit"",""178"",""584187""
","","","","","","1305","images/plane2.png","","","learning","1","0","0","0","plane","vehicles","2","1","","neutral","0"
"html-keyboard-response","205","718695","0.0-11.0-2.0-0.8","6280","1","14","Female","approach_avoid_spark_v1","""event"",""trial"",""time""
""fullscreenenter"",""1"",""1322""
""fullscreenexit"",""178"",""584187""
""blur"",""178"",""587150""
""focus"",""178"",""591739""
","""event"",""trial"",""time""
""blur"",""178"",""587150""
","""event"",""trial"",""time""
""focus"",""178"",""591739""
","""event"",""trial"",""time""
""fullscreenenter"",""1"",""1322""
","""event"",""trial"",""time""
""fullscreenexit"",""178"",""584187""
","","","","","","null","<div style=""font-size:60px;"">+</div>","null","","fixation","","","","","","","","","","",""
"aa-learning-trial","206","721703","0.0-11.0-2.0-1.8","6280","1","14","Female","approach_avoid_spark_v1","""event"",""trial"",""time""
""fullscreenenter"",""1"",""1322""
""fullscreenexit"",""178"",""584187""
""blur"",""178"",""587150""
""focus"",""178"",""591739""
","""event"",""trial"",""time""
""blur"",""178"",""587150""
","""event"",""trial"",""time""
""focus"",""178"",""591739""
","""event"",""trial"",""time""
""fullscreenenter"",""1"",""1322""
","""event"",""trial"",""time""
""fullscreenexit"",""178"",""584187""
","","","","","","928.3000000119209","images/plane1.png","","","learning","5","5","1","1","plane","vehicles","2","1","","neutral","0"
"html-keyboard-response","207","722206","0.0-11.0-2.0-0.9","6280","1","14","Female","approach_avoid_spark_v1","""event"",""trial"",""time""
""fullscreenenter"",""1"",""1322""
""fullscreenexit"",""178"",""584187""
""blur"",""178"",""587150""
""focus"",""178"",""591739""
","""event"",""trial"",""time""
""blur"",""178"",""587150""
","""event"",""trial"",""time""
""focus"",""178"",""591739""
","""event"",""trial"",""time""
""fullscreenenter"",""1"",""1322""
","""event"",""trial"",""time""
""fullscreenexit"",""178"",""584187""
","","","","","","null","<div style=""font-size:60px;"">+</div>","null","","fixation","","","","","","","","","","",""
"aa-learning-trial","208","725215","0.0-11.0-2.0-1.9","6280","1","14","Female","approach_avoid_spark_v1","""event"",""trial"",""time""
""fullscreenenter"",""1"",""1322""
""fullscreenexit"",""178"",""584187""
""blur"",""178"",""587150""
""focus"",""178"",""591739""
","""event"",""trial"",""time""
""blur"",""178"",""587150""
","""event"",""trial"",""time""
""focus"",""178"",""591739""
","""event"",""trial"",""time""
""fullscreenenter"",""1"",""1322""
","""event"",""trial"",""time""
""fullscreenexit"",""178"",""584187""
","","","","","","1257.8999999761581","images/plane7.png","","","learning","-3","-3","1","1","plane","vehicles","2","1","","neutral","0"
"html-keyboard-response","209","725718","0.0-11.0-2.0-0.10","6280","1","14","Female","approach_avoid_spark_v1","""event"",""trial"",""time""
""fullscreenenter"",""1"",""1322""
""fullscreenexit"",""178"",""584187""
""blur"",""178"",""587150""
""focus"",""178"",""591739""
","""event"",""trial"",""time""
""blur"",""178"",""587150""
","""event"",""trial"",""time""
""focus"",""178"",""591739""
","""event"",""trial"",""time""
""fullscreenenter"",""1"",""1322""
","""event"",""trial"",""time""
""fullscreenexit"",""178"",""584187""
","","","","","","null","<div style=""font-size:60px;"">+</div>","null","","fixation","","","","","","","","","","",""
"aa-learning-trial","210","728726","0.0-11.0-2.0-1.10","6280","1","14","Female","approach_avoid_spark_v1","""event"",""trial"",""time""
""fullscreenenter"",""1"",""1322""
""fullscreenexit"",""178"",""584187""
""blur"",""178"",""587150""
""focus"",""178"",""591739""
","""event"",""trial"",""time""
""blur"",""178"",""587150""
","""event"",""trial"",""time""
""focus"",""178"",""591739""
","""event"",""trial"",""time""
""fullscreenenter"",""1"",""1322""
","""event"",""trial"",""time""
""fullscreenexit"",""178"",""584187""
","","","","","","825.5","images/boat2.png","","","learning","-2","0","0","0","boat","vehicles","2","1","","good","[5]"
"html-keyboard-response","211","729231","0.0-11.0-2.0-0.11","6280","1","14","Female","approach_avoid_spark_v1","""event"",""trial"",""time""
""fullscreenenter"",""1"",""1322""
""fullscreenexit"",""178"",""584187""
