"trial_type","trial_index","time_elapsed","internal_node_id","subject_id","task_condition","age","gender","task_version","interactions","blur_events","focus_events","fullscreenenter_events","fullscreenexit_events","success","timeout","failed_images","failed_audio","failed_video","rt","stimulus","response","button_pressed","task_part","approach_reward","points","key_press","option_selected","stim_cat","task_block","block_condition","block_number","correct","cat_type","mean_cat_reward"
"pavlovia","0","3","0.0-0.0","4007","2","13","Male","approach_avoid_spark_v1","""event"",""trial"",""time""
""fullscreenenter"",""1"",""3898""
","
","
","""event"",""trial"",""time""
""fullscreenenter"",""1"",""3898""
","
","","","","","","","","","","","","","","","","","","","","",""
"fullscreen","1","4890","0.0-1.0","4007","2","13","Male","approach_avoid_spark_v1","""event"",""trial"",""time""
""fullscreenenter"",""1"",""3898""
","
","
","""event"",""trial"",""time""
""fullscreenenter"",""1"",""3898""
","
","true","","","","","","","","","","","","","","","","","","","",""
"preload","2","16623","0.0-2.0","4007","2","13","Male","approach_avoid_spark_v1","""event"",""trial"",""time""
""fullscreenenter"",""1"",""3898""
","
","
","""event"",""trial"",""time""
""fullscreenenter"",""1"",""3898""
","
","true","false","[]","[]","[]","","","","","","","","","","","","","","","",""
"audio-keyboard-response","3","19174","0.0-3.0","4007","2","13","Male","approach_avoid_spark_v1","""event"",""trial"",""time""
""fullscreenenter"",""1"",""3898""
","
","
","""event"",""trial"",""time""
""fullscreenenter"",""1"",""3898""
","
","","","","","","2548.3900226757364","audio/beep_loop.wav"," ","","","","","","","","","","","","",""
"audio-button-response","4","21355","0.0-4.0","4007","2","13","Male","approach_avoid_spark_v1","""event"",""trial"",""time""
""fullscreenenter"",""1"",""3898""
","
","
","""event"",""trial"",""time""
""fullscreenenter"",""1"",""3898""
","
","","","","","","2177","audio/shark.wav","4","","","","","","","","","","","","",""
"audio-button-response","5","23721","0.0-5.0","4007","2","13","Male","approach_avoid_spark_v1","""event"",""trial"",""time""
""fullscreenenter"",""1"",""3898""
","
","
","""event"",""trial"",""time""
""fullscreenenter"",""1"",""3898""
","
","","","","","","1364","audio/turtle.wav","1","","","","","","","","","","","","",""
"preload","6","27735","0.0-6.0","4007","2","13","Male","approach_avoid_spark_v1","""event"",""trial"",""time""
""fullscreenenter"",""1"",""3898""
","
","
","""event"",""trial"",""time""
""fullscreenenter"",""1"",""3898""
","
","true","false","[]","[]","[]","","","","","","","","","","","","","","","",""
"html-keyboard-response","7","30857","0.0-7.0","4007","2","13","Male","approach_avoid_spark_v1","""event"",""trial"",""time""
""fullscreenenter"",""1"",""3898""
","
","
","""event"",""trial"",""time""
""fullscreenenter"",""1"",""3898""
","
","","","","","","3119.8000000044703","Welcome to the experiment. Press any key to begin and to advance the instructions."," ","","","","","","","","","","","","",""
"learning-instructions","8","39256","0.0-8.0-0.0-0.0","4007","2","13","Male","approach_avoid_spark_v1","""event"",""trial"",""time""
""fullscreenenter"",""1"",""3898""
","
","
","""event"",""trial"",""time""
""fullscreenenter"",""1"",""3898""
","
","","","","","","1446.7000000029802","<p> Welcome! Today you are going to play 6 different rounds of a decision-making game. </p><p> Use the mouse to click next to continue. </p>","","0","instructions","","","","","","","","","","",""
"learning-instructions","9","46305","0.0-8.0-0.0-0.1","4007","2","13","Male","approach_avoid_spark_v1","""event"",""trial"",""time""
""fullscreenenter"",""1"",""3898""
","
","
","""event"",""trial"",""time""
""fullscreenenter"",""1"",""3898""
","
","","","","","","4323.30000000447","<p> You will start with a practice round to learn the rules. </p>","","0","instructions","","","","","","","","","","",""
"learning-instructions","10","50772","0.0-8.0-0.0-0.2","4007","2","13","Male","approach_avoid_spark_v1","""event"",""trial"",""time""
""fullscreenenter"",""1"",""3898""
","
","
","""event"",""trial"",""time""
""fullscreenenter"",""1"",""3898""
","
","","","","","","1022.7999999970198","<p> Your goal in this round is to give out sports equipment to kids. </p></div>","","0","instructions","","","","","","","","","","",""
"learning-instructions","11","59571","0.0-8.0-0.0-0.3","4007","2","13","Male","approach_avoid_spark_v1","""event"",""trial"",""time""
""fullscreenenter"",""1"",""3898""
","
","
","""event"",""trial"",""time""
""fullscreenenter"",""1"",""3898""
","
","","","","","","1254.6999999955297","<p> The kids only like some of the equipment.  </p><p> On each turn, you will see a piece of sports equipment.   </p><p> You need to decide whether to give it to the kids or not.  </p>","","0","instructions","","","","","","","","","","",""
"learning-instructions","12","67071","0.0-8.0-0.0-0.4","4007","2","13","Male","approach_avoid_spark_v1","""event"",""trial"",""time""
""fullscreenenter"",""1"",""3898""
","
","
","""event"",""trial"",""time""
""fullscreenenter"",""1"",""3898""
","
","","","","","","2751.7000000029802","<p> You can give them the equipment by pressing 1 and choose not to give it to them by pressing 0. </p><br><div class=""choice-instructions-grid""> <div class=""choice-option""><img src=""images/approach.png"" class=""choice-option-img"" stage=""instructions"" position=""0"" ><div class=""choice-option-text""> Press ""1."" </div></div><div class=""choice-option""><img src=""images/avoid.png"" class=""choice-option-img"" stage=""instructions"" position=""1"" ><div class=""choice-option-text""> Press ""0."" </div></div>","","0","instructions","","","","","","","","","","",""
"learning-instructions","13","75571","0.0-8.0-0.0-0.5","4007","2","13","Male","approach_avoid_spark_v1","""event"",""trial"",""time""
""fullscreenenter"",""1"",""3898""
","
","
","""event"",""trial"",""time""
""fullscreenenter"",""1"",""3898""
","
","","","","","","1117.5","<p> If you give them a piece of equipment they like, they will be happy! </p><p> But if you give them a piece of equipment they do not like, they will be sad. </p>","","0","instructions","","","","","","","","","","",""
"learning-instructions","14","87238","0.0-8.0-0.0-0.6","4007","2","13","Male","approach_avoid_spark_v1","""event"",""trial"",""time""
""fullscreenenter"",""1"",""3898""
","
","
","""event"",""trial"",""time""
""fullscreenenter"",""1"",""3898""
","
","","","","","","1163","<p> You will earn points based on how you make kids feel. </p><p> If you make them happy, you will WIN anywhere from 1 - 9 points, </p><p> but if you make them sad, you will LOSE anywhere from 1 - 9 points. </p>","","0","instructions","","","","","","","","","","",""
"learning-instructions","15","98089","0.0-8.0-0.0-0.7","4007","2","13","Male","approach_avoid_spark_v1","""event"",""trial"",""time""
""fullscreenenter"",""1"",""3898""
","
","
","""event"",""trial"",""time""
""fullscreenenter"",""1"",""3898""
","
","","","","","","1297.6000000014901","<p> You will see how many points you won or lost in the center of the screen. </p><p> Here is what you would see if you won 6 points: </p><p style=""color:green;font-size:50px;font-weight:bolder"">6</p><p style=""color:green"">The text is GREEN because you WON points.</p>","","0","instructions","","","","","","","","","","",""
"learning-instructions","16","106004","0.0-8.0-0.0-0.8","4007","2","13","Male","approach_avoid_spark_v1","""event"",""trial"",""time""
""fullscreenenter"",""1"",""3898""
","
","
","""event"",""trial"",""time""
""fullscreenenter"",""1"",""3898""
","
","","","","","","2416.6999999955297","<p> And here is what you would see if you lost 4 points: </p><p style=""color:red;font-size:50px;font-weight:bolder"">-4</p><p style=""color:red"">The text is RED because you LOST points. </p>","","0","instructions","","","","","","","","","","",""
"learning-instructions","17","123005","0.0-8.0-0.0-0.9","4007","2","13","Male","approach_avoid_spark_v1","""event"",""trial"",""time""
""fullscreenenter"",""1"",""3898""
","
","
","""event"",""trial"",""time""
""fullscreenenter"",""1"",""3898""
","
","","","","","","2293","<p> Some of the equipment will make the kids VERY happy or sad. </p><p> These pieces of equipment will make you win or lose LOTS of points. </p><p> Other pieces of equipment will only make the kids a little happy or sad. </p><p> These pieces of equipment will make you win or lose small amounts of points. </p>","","0","instructions","","","","","","","","","","",""
"learning-instructions","18","134121","0.0-8.0-0.0-0.10","4007","2","13","Male","approach_avoid_spark_v1","""event"",""trial"",""time""
""fullscreenenter"",""1"",""3898""
","
","
","""event"",""trial"",""time""
""fullscreenenter"",""1"",""3898""
","
","","","","","","494.20000000298023","<p> If you choose not to give them the equipment, you will not win or lose any points. </p><p>  However, in the center of the screen, you will see the number of points you WOULD HAVE won or lost if you had given them the equipment. </p>","","0","instructions","","","","","","","","","","",""
"learning-instructions","19","157637","0.0-8.0-0.0-0.11","4007","2","13","Male","approach_avoid_spark_v1","""event"",""trial"",""time""
""fullscreenenter"",""1"",""3898""
","
","
","""event"",""trial"",""time""
""fullscreenenter"",""1"",""3898""
","
","","","","","","1993.7999999970198","<p> Here is what you might see if you did not give the equipment to the kids but it would have made them happy: </p><p style=""color:grey; font-size:50px; display: inline-block; border-spacing: 15px; border-width:3px; border-style:solid; border-color:red"">  &nbsp; 7 &nbsp; </p><p> Remember, in this case, you would not win or lose ANY points because you did not give them the equipment.  </p><p style=""color:grey"">The text is GREY because you earned ZERO points. </p><p style=""color:red"">However, choosing to give the kids the equipment would have made you win points. The box around the text is RED because you chose the worse option. </p>","","0","instructions","","","","","","","","","","",""
"learning-instructions","20","180071","0.0-8.0-0.0-0.12","4007","2","13","Male","approach_avoid_spark_v1","""event"",""trial"",""time""
""fullscreenenter"",""1"",""3898""
","
","
","""event"",""trial"",""time""
""fullscreenenter"",""1"",""3898""
","
","","","","","","1365","<p> Here is what you might see if you did not give the equipment to the kids but it would have made them sad: </p><p style=""color:grey;font-size:50px; display: inline-block; border-spacing: 15px; border-width:3px; border-style:solid; border-color:green"">  &nbsp; -8 &nbsp; </p><p> Remember, in this case, you would not win or lose ANY points because you did not give them the equipment.  </p><p style=""color:grey"">The text is GREY because you earned ZERO points. </p><p  style=""color:green""> Choosing to give the kids the equipment would have made you lose points. The box around the text is GREEN because you chose the better option.</p>","","0","instructions","","","","","","","","","","",""
"learning-instructions","21","189870","0.0-8.0-0.0-0.13","4007","2","13","Male","approach_avoid_spark_v1","""event"",""trial"",""time""
""fullscreenenter"",""1"",""3898""
","
","
","""event"",""trial"",""time""
""fullscreenenter"",""1"",""3898""
","
","","","","","","936.7000000029802","<p> You will have 3 seconds to make each choice. Try to respond before time runs out! </p><p> You will lose 5 points each time you do not make a response. </p>","","0","instructions","","","","","","","","","","",""
"learning-instructions","22","196853","0.0-8.0-0.0-0.14","4007","2","13","Male","approach_avoid_spark_v1","""event"",""trial"",""time""
""fullscreenenter"",""1"",""3898""
","
","
","""event"",""trial"",""time""
""fullscreenenter"",""1"",""3898""
","
","","","","","","1575.5","<p> This is just a practice round, but in the real game, your bonus payment will depend on your total number of points.","","0","instructions","","","","","","","","","","",""
"learning-instructions","23","204870","0.0-8.0-0.0-0.15","4007","2","13","Male","approach_avoid_spark_v1","""event"",""trial"",""time""
""fullscreenenter"",""1"",""3898""
","
","
","""event"",""trial"",""time""
""fullscreenenter"",""1"",""3898""
","
","","","","","","2254.60000000149","<p> Remember, you can give them the equipment by pressing 1 and choose not to give it to them by pressing 0. </p><br><div class=""choice-instructions-grid""> <div class=""choice-option""><img src=""images/approach.png"" class=""choice-option-img"" stage=""instructions"" position=""0"" ><div class=""choice-option-text""> Press ""1."" </div></div><div class=""choice-option""><img src=""images/avoid.png"" class=""choice-option-img"" stage=""instructions"" position=""1"" ><div class=""choice-option-text""> Press ""0."" </div></div>","","0","instructions","","","","","","","","","","",""
"html-button-response","24","207721","0.0-8.0-1.0","4007","2","13","Male","approach_avoid_spark_v1","""event"",""trial"",""time""
""fullscreenenter"",""1"",""3898""
","
","
","""event"",""trial"",""time""
""fullscreenenter"",""1"",""3898""
","
","","","","","","2743.5","<p> Ready to practice? </p>","0","","","","","","","","","","","","",""
"html-keyboard-response","25","208324","0.0-8.0-2.0-0.0","4007","2","13","Male","approach_avoid_spark_v1","""event"",""trial"",""time""
""fullscreenenter"",""1"",""3898""
","
","
","""event"",""trial"",""time""
""fullscreenenter"",""1"",""3898""
","
","","","","","","null","<div style=""font-size:60px;"">+</div>","null","","fixation","","","","","","","","","","",""
"aa-learning-trial","26","211333","0.0-8.0-2.0-1.0","4007","2","13","Male","approach_avoid_spark_v1","""event"",""trial"",""time""
""fullscreenenter"",""1"",""3898""
","
","
","""event"",""trial"",""time""
""fullscreenenter"",""1"",""3898""
","
","","","","","","576.2999999970198","images/racket2.png","","","learning","-6","0","0","0","practice","practice","practice","-1","","",""
"html-keyboard-response","27","211838","0.0-8.0-2.0-0.1","4007","2","13","Male","approach_avoid_spark_v1","""event"",""trial"",""time""
""fullscreenenter"",""1"",""3898""
","
","
","""event"",""trial"",""time""
""fullscreenenter"",""1"",""3898""
","
","","","","","","null","<div style=""font-size:60px;"">+</div>","null","","fixation","","","","","","","","","","",""
"aa-learning-trial","28","214847","0.0-8.0-2.0-1.1","4007","2","13","Male","approach_avoid_spark_v1","""event"",""trial"",""time""
""fullscreenenter"",""1"",""3898""
","
","
","""event"",""trial"",""time""
""fullscreenenter"",""1"",""3898""
","
","","","","","","910.5","images/racket4.png","","","learning","-9","-9","1","1","practice","practice","practice","-1","","",""
"html-keyboard-response","29","215349","0.0-8.0-2.0-0.2","4007","2","13","Male","approach_avoid_spark_v1","""event"",""trial"",""time""
""fullscreenenter"",""1"",""3898""
","
","
","""event"",""trial"",""time""
""fullscreenenter"",""1"",""3898""
","
","","","","","","null","<div style=""font-size:60px;"">+</div>","null","","fixation","","","","","","","","","","",""
"aa-learning-trial","30","218354","0.0-8.0-2.0-1.2","4007","2","13","Male","approach_avoid_spark_v1","""event"",""trial"",""time""
""fullscreenenter"",""1"",""3898""
","
","
","""event"",""trial"",""time""
""fullscreenenter"",""1"",""3898""
","
","","","","","","352.40000000596046","images/ball1.png","","","learning","2","0","0","0","practice","practice","practice","-1","","",""
"html-keyboard-response","31","218861","0.0-8.0-2.0-0.3","4007","2","13","Male","approach_avoid_spark_v1","""event"",""trial"",""time""
""fullscreenenter"",""1"",""3898""
","
","
","""event"",""trial"",""time""
""fullscreenenter"",""1"",""3898""
","
","","","","","","null","<div style=""font-size:60px;"">+</div>","null","","fixation","","","","","","","","","","",""
"aa-learning-trial","32","221865","0.0-8.0-2.0-1.3","4007","2","13","Male","approach_avoid_spark_v1","""event"",""trial"",""time""
""fullscreenenter"",""1"",""3898""
","
","
","""event"",""trial"",""time""
""fullscreenenter"",""1"",""3898""
","
","","","","","","308.5","images/racket2.png","","","learning","5","5","1","1","practice","practice","practice","-1","","",""
"html-keyboard-response","33","222371","0.0-8.0-2.0-0.4","4007","2","13","Male","approach_avoid_spark_v1","""event"",""trial"",""time""
""fullscreenenter"",""1"",""3898""
","
","
","""event"",""trial"",""time""
""fullscreenenter"",""1"",""3898""
","
","","","","","","null","<div style=""font-size:60px;"">+</div>","null","","fixation","","","","","","","","","","",""
"aa-learning-trial","34","225379","0.0-8.0-2.0-1.4","4007","2","13","Male","approach_avoid_spark_v1","""event"",""trial"",""time""
""fullscreenenter"",""1"",""3898""
","
","
","""event"",""trial"",""time""
""fullscreenenter"",""1"",""3898""
","
","","","","","","234.20000000298023","images/racket1.png","","","learning","1","0","0","0","practice","practice","practice","-1","","",""
"html-keyboard-response","35","225884","0.0-8.0-2.0-0.5","4007","2","13","Male","approach_avoid_spark_v1","""event"",""trial"",""time""
""fullscreenenter"",""1"",""3898""
","
","
","""event"",""trial"",""time""
""fullscreenenter"",""1"",""3898""
","
","","","","","","null","<div style=""font-size:60px;"">+</div>","null","","fixation","","","","","","","","","","",""
"aa-learning-trial","36","228891","0.0-8.0-2.0-1.5","4007","2","13","Male","approach_avoid_spark_v1","""event"",""trial"",""time""
""fullscreenenter"",""1"",""3898""
","
","
","""event"",""trial"",""time""
""fullscreenenter"",""1"",""3898""
","
","","","","","","258.20000000298023","images/racket3.png","","","learning","-2","-2","1","1","practice","practice","practice","-1","","",""
"html-keyboard-response","37","229398","0.0-8.0-2.0-0.6","4007","2","13","Male","approach_avoid_spark_v1","""event"",""trial"",""time""
""fullscreenenter"",""1"",""3898""
","
","
","""event"",""trial"",""time""
""fullscreenenter"",""1"",""3898""
","
","","","","","","null","<div style=""font-size:60px;"">+</div>","null","","fixation","","","","","","","","","","",""
"aa-learning-trial","38","232402","0.0-8.0-2.0-1.6","4007","2","13","Male","approach_avoid_spark_v1","""event"",""trial"",""time""
""fullscreenenter"",""1"",""3898""
","
","
","""event"",""trial"",""time""
""fullscreenenter"",""1"",""3898""
","
","","","","","","417.79999999701977","images/racket4.png","","","learning","-7","-7","1","1","practice","practice","practice","-1","","",""
"html-keyboard-response","39","232904","0.0-8.0-2.0-0.7","4007","2","13","Male","approach_avoid_spark_v1","""event"",""trial"",""time""
""fullscreenenter"",""1"",""3898""
","
","
","""event"",""trial"",""time""
""fullscreenenter"",""1"",""3898""
","
","","","","","","null","<div style=""font-size:60px;"">+</div>","null","","fixation","","","","","","","","","","",""
"aa-learning-trial","40","235911","0.0-8.0-2.0-1.7","4007","2","13","Male","approach_avoid_spark_v1","""event"",""trial"",""time""
""fullscreenenter"",""1"",""3898""
","
","
","""event"",""trial"",""time""
""fullscreenenter"",""1"",""3898""
","
","","","","","","387","images/racket2.png","","","learning","4","4","1","1","practice","practice","practice","-1","","",""
"html-keyboard-response","41","236416","0.0-8.0-2.0-0.8","4007","2","13","Male","approach_avoid_spark_v1","""event"",""trial"",""time""
""fullscreenenter"",""1"",""3898""
","
","
","""event"",""trial"",""time""
""fullscreenenter"",""1"",""3898""
","
","","","","","","null","<div style=""font-size:60px;"">+</div>","null","","fixation","","","","","","","","","","",""
"aa-learning-trial","42","239423","0.0-8.0-2.0-1.8","4007","2","13","Male","approach_avoid_spark_v1","""event"",""trial"",""time""
""fullscreenenter"",""1"",""3898""
","
","
","""event"",""trial"",""time""
""fullscreenenter"",""1"",""3898""
","
","","","","","","180.20000000298023","images/racket1.png","","","learning","-9","0","0","0","practice","practice","practice","-1","","",""
"html-keyboard-response","43","239926","0.0-8.0-2.0-0.9","4007","2","13","Male","approach_avoid_spark_v1","""event"",""trial"",""time""
""fullscreenenter"",""1"",""3898""
","
","
","""event"",""trial"",""time""
""fullscreenenter"",""1"",""3898""
","
","","","","","","null","<div style=""font-size:60px;"">+</div>","null","","fixation","","","","","","","","","","",""
"aa-learning-trial","44","242934","0.0-8.0-2.0-1.9","4007","2","13","Male","approach_avoid_spark_v1","""event"",""trial"",""time""
""fullscreenenter"",""1"",""3898""
","
","
","""event"",""trial"",""time""
""fullscreenenter"",""1"",""3898""
","
","","","","","","384.8999999985099","images/racket3.png","","","learning","6","6","1","1","practice","practice","practice","-1","","",""
"html-keyboard-response","45","243439","0.0-8.0-2.0-0.10","4007","2","13","Male","approach_avoid_spark_v1","""event"",""trial"",""time""
""fullscreenenter"",""1"",""3898""
","
","
","""event"",""trial"",""time""
""fullscreenenter"",""1"",""3898""
","
","","","","","","null","<div style=""font-size:60px;"">+</div>","null","","fixation","","","","","","","","","","",""
"aa-learning-trial","46","246446","0.0-8.0-2.0-1.10","4007","2","13","Male","approach_avoid_spark_v1","""event"",""trial"",""time""
""fullscreenenter"",""1"",""3898""
","
","
","""event"",""trial"",""time""
""fullscreenenter"",""1"",""3898""
","
","","","","","","417.40000000596046","images/ball4.png","","","learning","-4","0","0","0","practice","practice","practice","-1","","",""
"html-keyboard-response","47","246951","0.0-8.0-2.0-0.11","4007","2","13","Male","approach_avoid_spark_v1","""event"",""trial"",""time""
""fullscreenenter"",""1"",""3898""
","
","
","""event"",""trial"",""time""
""fullscreenenter"",""1"",""3898""
","
","","","","","","null","<div style=""font-size:60px;"">+</div>","null","","fixation","","","","","","","","","","",""
"aa-learning-trial","48","249958","0.0-8.0-2.0-1.11","4007","2","13","Male","approach_avoid_spark_v1","""event"",""trial"",""time""
""fullscreenenter"",""1"",""3898""
","
","
","""event"",""trial"",""time""
""fullscreenenter"",""1"",""3898""
","
","","","","","","514.2000000029802","images/ball3.png","","","learning","6","6","1","1","practice","practice","practice","-1","","",""
"html-button-response","49","252004","0.0-8.0-3.0","4007","2","13","Male","approach_avoid_spark_v1","""event"",""trial"",""time""
""fullscreenenter"",""1"",""3898""
","
","
","""event"",""trial"",""time""
""fullscreenenter"",""1"",""3898""
","
","","","","","","2042.5","<p> You earned 3 points in the practice round! </p>","0","","break","","","","","","","","","","",""
"learning-instructions","50","260204","0.0-8.0-4.0-0.0","4007","2","13","Male","approach_avoid_spark_v1","""event"",""trial"",""time""
""fullscreenenter"",""1"",""3898""
","
","
","""event"",""trial"",""time""
""fullscreenenter"",""1"",""3898""
","
","","","","","","1731.8999999985099","<p> It's almost time to start the real game. </p><p> Before you start, we're going to ask you a few questions about how the game works. </p>","","0","instructions","","","","","","","","","","",""
"preload","51","261799","0.0-8.0-5.0","4007","2","13","Male","approach_avoid_spark_v1","""event"",""trial"",""time""
""fullscreenenter"",""1"",""3898""
","
","
","""event"",""trial"",""time""
""fullscreenenter"",""1"",""3898""
","
","true","false","[]","[]","[]","","","","","","","","","","","","","","","",""
"comp-q","52","269387","0.0-8.0-6.0-0.0","4007","2","13","Male","approach_avoid_spark_v1","""event"",""trial"",""time""
""fullscreenenter"",""1"",""3898""
","
","
","""event"",""trial"",""time""
""fullscreenenter"",""1"",""3898""
","
","","","","","","2596.1999999955297","<p> <b> True or False? </b> </p><p> If you see a number in GREY, that means you earned that many points. </p>","","1","comp_question","","","","","","","","","true","",""
"comp-q","53","279021","0.0-8.0-6.0-1.0","4007","2","13","Male","approach_avoid_spark_v1","""event"",""trial"",""time""
""fullscreenenter"",""1"",""3898""
","
","
","""event"",""trial"",""time""
""fullscreenenter"",""1"",""3898""
","
","","","","","","1277.6000000014901","<p><b> That's right! </b> If you see a grey number, it means you earned ZERO points. <br> The grey numbers show the points you WOULD HAVE earned if you had made the other choice. </p>","","0","comp_answer","","","","","","","","","","",""
"comp-q","54","285770","0.0-8.0-7.0-0.0","4007","2","13","Male","approach_avoid_spark_v1","""event"",""trial"",""time""
""fullscreenenter"",""1"",""3898""
","
","
","""event"",""trial"",""time""
""fullscreenenter"",""1"",""3898""
","
","","","","","","2059.1999999955297","<p> <b> True or False? </b> </p><p> You will have as much time as you want to make each choice. </p>","","1","comp_question","","","","","","","","","true","",""
"comp-q","55","291004","0.0-8.0-7.0-1.0","4007","2","13","Male","approach_avoid_spark_v1","""event"",""trial"",""time""
""fullscreenenter"",""1"",""3898""
","
","
","""event"",""trial"",""time""
""fullscreenenter"",""1"",""3898""
","
","","","","","","1197.5","<p> <b> That's right! </b> You will only have 3 seconds to make each choice. </p>","","0","comp_answer","","","","","","","","","","",""
"comp-q","56","296387","0.0-8.0-8.0-0.0","4007","2","13","Male","approach_avoid_spark_v1","""event"",""trial"",""time""
""fullscreenenter"",""1"",""3898""
","
","
","""event"",""trial"",""time""
""fullscreenenter"",""1"",""3898""
","
","","","","","","729.5","<p> <b> True or False? </b> </p><p> You should use the '1' and '0' keys to make your choices. </p>","","0","comp_question","","","","","","","","","true","",""
"comp-q","57","302320","0.0-8.0-8.0-1.0","4007","2","13","Male","approach_avoid_spark_v1","""event"",""trial"",""time""
""fullscreenenter"",""1"",""3898""
","
","
","""event"",""trial"",""time""
""fullscreenenter"",""1"",""3898""
","
","","","","","","1328.9000000059605","<p> <b> That's right! </b> You should use the '1' and '0' keys to make each choice. </p>","","0","comp_answer","","","","","","","","","","",""
"learning-instructions","58","310903","0.0-8.0-9.0-0.0","4007","2","13","Male","approach_avoid_spark_v1","""event"",""trial"",""time""
""fullscreenenter"",""1"",""3898""
","
","
","""event"",""trial"",""time""
""fullscreenenter"",""1"",""3898""
","
","","","","","","2319.10000000149","<p> It's now time to start the real game. </p>Do your best, because the points you earn in the next rounds will influence your bonus payment. </p>","","0","instructions","","","","","","","","","","",""
"preload","59","311023","0.0-9.0-0.0","4007","2","13","Male","approach_avoid_spark_v1","""event"",""trial"",""time""
""fullscreenenter"",""1"",""3898""
","
","
","""event"",""trial"",""time""
""fullscreenenter"",""1"",""3898""
","
","true","false","[]","[]","[]","","","","","","","","","","","","","","","",""
"learning-instructions","60","316453","0.0-9.0-1.0-0.0","4007","2","13","Male","approach_avoid_spark_v1","""event"",""trial"",""time""
""fullscreenenter"",""1"",""3898""
","
","
","""event"",""trial"",""time""
""fullscreenenter"",""1"",""3898""
","
","","","","","","1744.9000000059605","<p> Your goal in this round is to take care of lots of animals. </p></div>","","0","instructions","","","","","","","","","","",""
"learning-instructions","61","329353","0.0-9.0-1.0-0.1","4007","2","13","Male","approach_avoid_spark_v1","""event"",""trial"",""time""
""fullscreenenter"",""1"",""3898""
","
","
","""event"",""trial"",""time""
""fullscreenenter"",""1"",""3898""
","
","","","","","","3726.5","<p> Some animals want to be pet, while other animals want to be left alone.  </p><p> On each turn, you will see an animal.   </p><p> You need to decide whether to pet it or not.  </p>","","0","instructions","","","","","","","","","","",""
"learning-instructions","62","335570","0.0-9.0-1.0-0.2","4007","2","13","Male","approach_avoid_spark_v1","""event"",""trial"",""time""
""fullscreenenter"",""1"",""3898""
","
","
","""event"",""trial"",""time""
""fullscreenenter"",""1"",""3898""
","
","","","","","","1316.6000000014901","<p> You can pet the animal by pressing 1 and leave the animal alone by pressing 0. </p><br><div class=""choice-instructions-grid""> <div class=""choice-option""><img src=""images/approach.png"" class=""choice-option-img"" stage=""instructions"" position=""0"" ><div class=""choice-option-text""> Press ""1."" </div></div><div class=""choice-option""><img src=""images/avoid.png"" class=""choice-option-img"" stage=""instructions"" position=""1"" ><div class=""choice-option-text""> Press ""0."" </div></div>","","0","instructions","","","","","","","","","","",""
"learning-instructions","63","344636","0.0-9.0-1.0-0.3","4007","2","13","Male","approach_avoid_spark_v1","""event"",""trial"",""time""
""fullscreenenter"",""1"",""3898""
","
","
","""event"",""trial"",""time""
""fullscreenenter"",""1"",""3898""
","
","","","","","","544.7000000029802","<p> If you pet an animal that wants to be pet, you will make it feel happy! </p><p> But if you pet an animal that wants to be left alone, you will make it feel angry. </p>","","0","instructions","","","","","","","","","","",""
"learning-instructions","64","357903","0.0-9.0-1.0-0.4","4007","2","13","Male","approach_avoid_spark_v1","""event"",""trial"",""time""
""fullscreenenter"",""1"",""3898""
","
","
","""event"",""trial"",""time""
""fullscreenenter"",""1"",""3898""
","
","","","","","","942.3999999985099","<p> You will earn points based on how you made the animal feel. </p><p> If you made it feel happy, you will WIN anywhere from 1 - 9 points, </p><p> but if you made it feel angry, you will LOSE anywhere from 1 - 9 points. </p>","","0","instructions","","","","","","","","","","",""
"learning-instructions","65","366003","0.0-9.0-1.0-0.5","4007","2","13","Male","approach_avoid_spark_v1","""event"",""trial"",""time""
""fullscreenenter"",""1"",""3898""
","
","
","""event"",""trial"",""time""
""fullscreenenter"",""1"",""3898""
","
","","","","","","753.1000000014901","<p> You will see how many points you won or lost in the center of the screen. </p><p> Here is what you would see if you won 5 points: </p><p style=""color:green;font-size:50px;font-weight:bolder"">5</p>","","0","instructions","","","","","","","","","","",""
"learning-instructions","66","371386","0.0-9.0-1.0-0.6","4007","2","13","Male","approach_avoid_spark_v1","""event"",""trial"",""time""
""fullscreenenter"",""1"",""3898""
","
","
","""event"",""trial"",""time""
""fullscreenenter"",""1"",""3898""
","
","","","","","","2125.8000000044703","<p> And here is what you would see if you lost 3 points: </p><p style=""color:red;font-size:50px;font-weight:bolder"">-3</p>","","0","instructions","","","","","","","","","","",""
"learning-instructions","67","386386","0.0-9.0-1.0-0.7","4007","2","13","Male","approach_avoid_spark_v1","""event"",""trial"",""time""
""fullscreenenter"",""1"",""3898""
","
","
","""event"",""trial"",""time""
""fullscreenenter"",""1"",""3898""
","
","","","","","","1435.6999999955297","<p> Some animals will become very happy or very angry. </p><p> These animals will make you win or lose LOTS of points. </p><p> Other animals have less strong feelings. </p><p> These animals will make you win or lose small amounts of points. </p>","","0","instructions","","","","","","","","","","",""
"learning-instructions","68","398585","0.0-9.0-1.0-0.8","4007","2","13","Male","approach_avoid_spark_v1","""event"",""trial"",""time""
""fullscreenenter"",""1"",""3898""
","
","
","""event"",""trial"",""time""
""fullscreenenter"",""1"",""3898""
","
","","","","","","1282.2999999970198","<p> If you choose to leave the animal alone, you will not win or lose any points. </p><p>  However, in the center of the screen, you will see the number of points you WOULD HAVE won or lost if you had pet the animal. </p>","","0","instructions","","","","","","","","","","",""
"learning-instructions","69","411269","0.0-9.0-1.0-0.9","4007","2","13","Male","approach_avoid_spark_v1","""event"",""trial"",""time""
""fullscreenenter"",""1"",""3898""
","
","
","""event"",""trial"",""time""
""fullscreenenter"",""1"",""3898""
","
","","","","","","1428","<p> Here is what you might see if you did not pet the animal but the animal wanted to be pet: </p><p style=""color:grey; font-size:50px; display: inline-block; border-spacing: 15px; border-width:3px; border-style:solid; border-color:red"">  &nbsp; 6 &nbsp; </p><p> Remember, in this case, you would not win or lose ANY points because you did not pet the animal.  </p>","","0","instructions","","","","","","","","","","",""
"learning-instructions","70","419936","0.0-9.0-1.0-0.10","4007","2","13","Male","approach_avoid_spark_v1","""event"",""trial"",""time""
""fullscreenenter"",""1"",""3898""
","
","
","""event"",""trial"",""time""
""fullscreenenter"",""1"",""3898""
","
","","","","","","1880.8000000044703","<p> Try to make the best choice for each animal because </p><p> at the end of the game, you will earn bonus money based on how many points you earned. </p>","","0","instructions","","","","","","","","","","",""
"learning-instructions","71","428903","0.0-9.0-1.0-0.11","4007","2","13","Male","approach_avoid_spark_v1","""event"",""trial"",""time""
""fullscreenenter"",""1"",""3898""
","
","
","""event"",""trial"",""time""
""fullscreenenter"",""1"",""3898""
","
","","","","","","782","<p> You will have 3 seconds to make each choice. Try to respond before time runs out! </p><p> You will lose 5 points each time you do not make a response. </p>","","0","instructions","","","","","","","","","","",""
"html-keyboard-response","72","429513","0.0-9.0-2.0-0.0","4007","2","13","Male","approach_avoid_spark_v1","""event"",""trial"",""time""
""fullscreenenter"",""1"",""3898""
","
","
","""event"",""trial"",""time""
""fullscreenenter"",""1"",""3898""
","
","","","","","","null","<div style=""font-size:60px;"">+</div>","null","","fixation","","","","","","","","","","",""
"aa-learning-trial","73","432520","0.0-9.0-2.0-1.0","4007","2","13","Male","approach_avoid_spark_v1","""event"",""trial"",""time""
""fullscreenenter"",""1"",""3898""
","
","
","""event"",""trial"",""time""
""fullscreenenter"",""1"",""3898""
","
","","","","","","2051.5","images/rodent3.png","","","learning","7","7","1","1","rodent","pets","2","0","","neutral","0"
"html-keyboard-response","74","433027","0.0-9.0-2.0-0.1","4007","2","13","Male","approach_avoid_spark_v1","""event"",""trial"",""time""
""fullscreenenter"",""1"",""3898""
","
","
","""event"",""trial"",""time""
""fullscreenenter"",""1"",""3898""
","
","","","","","","null","<div style=""font-size:60px;"">+</div>","null","","fixation","","","","","","","","","","",""
"aa-learning-trial","75","436035","0.0-9.0-2.0-1.1","4007","2","13","Male","approach_avoid_spark_v1","""event"",""trial"",""time""
""fullscreenenter"",""1"",""3898""
","
","
","""event"",""trial"",""time""
""fullscreenenter"",""1"",""3898""
","
","","","","","","386.5","images/rabbit2.png","","","learning","8","8","1","1","rabbit","pets","2","0","","good","[4]"
"html-keyboard-response","76","436542","0.0-9.0-2.0-0.2","4007","2","13","Male","approach_avoid_spark_v1","""event"",""trial"",""time""
""fullscreenenter"",""1"",""3898""
","
","
","""event"",""trial"",""time""
""fullscreenenter"",""1"",""3898""
","
","","","","","","null","<div style=""font-size:60px;"">+</div>","null","","fixation","","","","","","","","","","",""
"aa-learning-trial","77","439546","0.0-9.0-2.0-1.2","4007","2","13","Male","approach_avoid_spark_v1","""event"",""trial"",""time""
""fullscreenenter"",""1"",""3898""
","
","
","""event"",""trial"",""time""
""fullscreenenter"",""1"",""3898""
","
","","","","","","373.5","images/rodent3.png","","","learning","7","0","0","0","rodent","pets","2","0","","neutral","0"
"html-keyboard-response","78","440051","0.0-9.0-2.0-0.3","4007","2","13","Male","approach_avoid_spark_v1","""event"",""trial"",""time""
""fullscreenenter"",""1"",""3898""
","
","
","""event"",""trial"",""time""
""fullscreenenter"",""1"",""3898""
","
","","","","","","null","<div style=""font-size:60px;"">+</div>","null","","fixation","","","","","","","","","","",""
"aa-learning-trial","79","443056","0.0-9.0-2.0-1.3","4007","2","13","Male","approach_avoid_spark_v1","""event"",""trial"",""time""
""fullscreenenter"",""1"",""3898""
","
","
","""event"",""trial"",""time""
""fullscreenenter"",""1"",""3898""
","
","","","","","","783","images/dog7.png","","","learning","1","1","1","1","dog","pets","2","0","","bad","[-5]"
"html-keyboard-response","80","443562","0.0-9.0-2.0-0.4","4007","2","13","Male","approach_avoid_spark_v1","""event"",""trial"",""time""
""fullscreenenter"",""1"",""3898""
","
","
","""event"",""trial"",""time""
""fullscreenenter"",""1"",""3898""
","
","","","","","","null","<div style=""font-size:60px;"">+</div>","null","","fixation","","","","","","","","","","",""
"aa-learning-trial","81","446568","0.0-9.0-2.0-1.4","4007","2","13","Male","approach_avoid_spark_v1","""event"",""trial"",""time""
""fullscreenenter"",""1"",""3898""
","
","
","""event"",""trial"",""time""
""fullscreenenter"",""1"",""3898""
","
","","","","","","532.9000000059605","images/dog7.png","","","learning","1","1","1","1","dog","pets","2","0","","bad","[-5]"
"html-keyboard-response","82","447074","0.0-9.0-2.0-0.5","4007","2","13","Male","approach_avoid_spark_v1","""event"",""trial"",""time""
""fullscreenenter"",""1"",""3898""
","
","
","""event"",""trial"",""time""
""fullscreenenter"",""1"",""3898""
","
","","","","","","null","<div style=""font-size:60px;"">+</div>","null","","fixation","","","","","","","","","","",""
"aa-learning-trial","83","450082","0.0-9.0-2.0-1.5","4007","2","13","Male","approach_avoid_spark_v1","""event"",""trial"",""time""
""fullscreenenter"",""1"",""3898""
","
","
","""event"",""trial"",""time""
""fullscreenenter"",""1"",""3898""
","
","","","","","","1435.4000000059605","images/rabbit3.png","","","learning","2","0","0","0","rabbit","pets","2","0","","good","[4]"
"html-keyboard-response","84","450583","0.0-9.0-2.0-0.6","4007","2","13","Male","approach_avoid_spark_v1","""event"",""trial"",""time""
""fullscreenenter"",""1"",""3898""
","
","
","""event"",""trial"",""time""
""fullscreenenter"",""1"",""3898""
","
","","","","","","null","<div style=""font-size:60px;"">+</div>","null","","fixation","","","","","","","","","","",""
"aa-learning-trial","85","453587","0.0-9.0-2.0-1.6","4007","2","13","Male","approach_avoid_spark_v1","""event"",""trial"",""time""
""fullscreenenter"",""1"",""3898""
","
","
","""event"",""trial"",""time""
""fullscreenenter"",""1"",""3898""
","
","","","","","","50.30000000447035","images/dog5.png","","","learning","-4","-4","1","1","dog","pets","2","0","","bad","[-5]"
"html-keyboard-response","86","454090","0.0-9.0-2.0-0.7","4007","2","13","Male","approach_avoid_spark_v1","""event"",""trial"",""time""
""fullscreenenter"",""1"",""3898""
","
","
","""event"",""trial"",""time""
""fullscreenenter"",""1"",""3898""
","
","","","","","","null","<div style=""font-size:60px;"">+</div>","null","","fixation","","","","","","","","","","",""
"aa-learning-trial","87","457098","0.0-9.0-2.0-1.7","4007","2","13","Male","approach_avoid_spark_v1","""event"",""trial"",""time""
""fullscreenenter"",""1"",""3898""
","
","
","""event"",""trial"",""time""
""fullscreenenter"",""1"",""3898""
","
","","","","","","851.6000000014901","images/rabbit6.png","","","learning","-7","-7","1","1","rabbit","pets","2","0","","good","[4]"
"html-keyboard-response","88","457605","0.0-9.0-2.0-0.8","4007","2","13","Male","approach_avoid_spark_v1","""event"",""trial"",""time""
""fullscreenenter"",""1"",""3898""
","
","
","""event"",""trial"",""time""
""fullscreenenter"",""1"",""3898""
","
","","","","","","null","<div style=""font-size:60px;"">+</div>","null","","fixation","","","","","","","","","","",""
"aa-learning-trial","89","460609","0.0-9.0-2.0-1.8","4007","2","13","Male","approach_avoid_spark_v1","""event"",""trial"",""time""
""fullscreenenter"",""1"",""3898""
","
","
","""event"",""trial"",""time""
""fullscreenenter"",""1"",""3898""
","
","","","","","","519.2000000029802","images/rabbit6.png","","","learning","-7","0","0","0","rabbit","pets","2","0","","good","[4]"
"html-keyboard-response","90","461114","0.0-9.0-2.0-0.9","4007","2","13","Male","approach_avoid_spark_v1","""event"",""trial"",""time""
""fullscreenenter"",""1"",""3898""
","
","
","""event"",""trial"",""time""
""fullscreenenter"",""1"",""3898""
","
","","","","","","null","<div style=""font-size:60px;"">+</div>","null","","fixation","","","","","","","","","","",""
"aa-learning-trial","91","464121","0.0-9.0-2.0-1.9","4007","2","13","Male","approach_avoid_spark_v1","""event"",""trial"",""time""
""fullscreenenter"",""1"",""3898""
","
","
","""event"",""trial"",""time""
""fullscreenenter"",""1"",""3898""
","
","","","","","","977.7999999970198","images/rabbit2.png","","","learning","8","8","1","1","rabbit","pets","2","0","","good","[4]"
"html-keyboard-response","92","464625","0.0-9.0-2.0-0.10","4007","2","13","Male","approach_avoid_spark_v1","""event"",""trial"",""time""
""fullscreenenter"",""1"",""3898""
","
","
","""event"",""trial"",""time""
""fullscreenenter"",""1"",""3898""
","
","","","","","","null","<div style=""font-size:60px;"">+</div>","null","","fixation","","","","","","","","","","",""
"aa-learning-trial","93","467633","0.0-9.0-2.0-1.10","4007","2","13","Male","approach_avoid_spark_v1","""event"",""trial"",""time""
""fullscreenenter"",""1"",""3898""
","
","
","""event"",""trial"",""time""
""fullscreenenter"",""1"",""3898""
","
","","","","","","1167.8000000044703","images/dog6.png","","","learning","5","5","1","1","dog","pets","2","0","","bad","[-5]"
"html-keyboard-response","94","468138","0.0-9.0-2.0-0.11","4007","2","13","Male","approach_avoid_spark_v1","""event"",""trial"",""time""
""fullscreenenter"",""1"",""3898""
","
","
","""event"",""trial"",""time""
""fullscreenenter"",""1"",""3898""
","
","","","","","","null","<div style=""font-size:60px;"">+</div>","null","","fixation","","","","","","","","","","",""
"aa-learning-trial","95","471145","0.0-9.0-2.0-1.11","4007","2","13","Male","approach_avoid_spark_v1","""event"",""trial"",""time""
""fullscreenenter"",""1"",""3898""
","
","
","""event"",""trial"",""time""
""fullscreenenter"",""1"",""3898""
","
","","","","","","804.6000000014901","images/dog6.png","","","learning","5","5","1","1","dog","pets","2","0","","bad","[-5]"
"html-keyboard-response","96","471650","0.0-9.0-2.0-0.12","4007","2","13","Male","approach_avoid_spark_v1","""event"",""trial"",""time""
""fullscreenenter"",""1"",""3898""
","
","
","""event"",""trial"",""time""
""fullscreenenter"",""1"",""3898""
","
","","","","","","null","<div style=""font-size:60px;"">+</div>","null","","fixation","","","","","","","","","","",""
"aa-learning-trial","97","474657","0.0-9.0-2.0-1.12","4007","2","13","Male","approach_avoid_spark_v1","""event"",""trial"",""time""
""fullscreenenter"",""1"",""3898""
","
","
","""event"",""trial"",""time""
""fullscreenenter"",""1"",""3898""
","
","","","","","","924.8999999985099","images/rodent1.png","","","learning","-5","-5","1","1","rodent","pets","2","0","","neutral","0"
"html-keyboard-response","98","475161","0.0-9.0-2.0-0.13","4007","2","13","Male","approach_avoid_spark_v1","""event"",""trial"",""time""
""fullscreenenter"",""1"",""3898""
","
","
","""event"",""trial"",""time""
""fullscreenenter"",""1"",""3898""
","
","","","","","","null","<div style=""font-size:60px;"">+</div>","null","","fixation","","","","","","","","","","",""
"aa-learning-trial","99","478169","0.0-9.0-2.0-1.13","4007","2","13","Male","approach_avoid_spark_v1","""event"",""trial"",""time""
""fullscreenenter"",""1"",""3898""
","
","
","""event"",""trial"",""time""
""fullscreenenter"",""1"",""3898""
","
","","","","","","895.5999999940395","images/rodent5.png","","","learning","-1","-1","1","1","rodent","pets","2","0","","neutral","0"
"html-keyboard-response","100","478671","0.0-9.0-2.0-0.14","4007","2","13","Male","approach_avoid_spark_v1","""event"",""trial"",""time""
""fullscreenenter"",""1"",""3898""
","
","
","""event"",""trial"",""time""
""fullscreenenter"",""1"",""3898""
","
","","","","","","null","<div style=""font-size:60px;"">+</div>","null","","fixation","","","","","","","","","","",""
"aa-learning-trial","101","481675","0.0-9.0-2.0-1.14","4007","2","13","Male","approach_avoid_spark_v1","""event"",""trial"",""time""
""fullscreenenter"",""1"",""3898""
","
","
","""event"",""trial"",""time""
""fullscreenenter"",""1"",""3898""
","
","","","","","","785.8999999985099","images/rodent5.png","","","learning","-1","0","0","0","rodent","pets","2","0","","neutral","0"
"html-keyboard-response","102","482179","0.0-9.0-2.0-0.15","4007","2","13","Male","approach_avoid_spark_v1","""event"",""trial"",""time""
""fullscreenenter"",""1"",""3898""
","
","
","""event"",""trial"",""time""
""fullscreenenter"",""1"",""3898""
","
","","","","","","null","<div style=""font-size:60px;"">+</div>","null","","fixation","","","","","","","","","","",""
"aa-learning-trial","103","485186","0.0-9.0-2.0-1.15","4007","2","13","Male","approach_avoid_spark_v1","""event"",""trial"",""time""
""fullscreenenter"",""1"",""3898""
","
","
","""event"",""trial"",""time""
""fullscreenenter"",""1"",""3898""
","
","","","","","","831.6000000014901","images/rodent4.png","","","learning","-9","-9","1","1","rodent","pets","2","0","","neutral","0"
"html-keyboard-response","104","485688","0.0-9.0-2.0-0.16","4007","2","13","Male","approach_avoid_spark_v1","""event"",""trial"",""time""
""fullscreenenter"",""1"",""3898""
","
","
","""event"",""trial"",""time""
""fullscreenenter"",""1"",""3898""
","
","","","","","","null","<div style=""font-size:60px;"">+</div>","null","","fixation","","","","","","","","","","",""
"aa-learning-trial","105","488693","0.0-9.0-2.0-1.16","4007","2","13","Male","approach_avoid_spark_v1","""event"",""trial"",""time""
""fullscreenenter"",""1"",""3898""
","
","
","""event"",""trial"",""time""
""fullscreenenter"",""1"",""3898""
","
","","","","","","689","images/dog7.png","","","learning","1","1","1","1","dog","pets","2","0","","bad","[-5]"
"html-keyboard-response","106","489197","0.0-9.0-2.0-0.17","4007","2","13","Male","approach_avoid_spark_v1","""event"",""trial"",""time""
""fullscreenenter"",""1"",""3898""
","
","
","""event"",""trial"",""time""
""fullscreenenter"",""1"",""3898""
","
","","","","","","null","<div style=""font-size:60px;"">+</div>","null","","fixation","","","","","","","","","","",""
"aa-learning-trial","107","492204","0.0-9.0-2.0-1.17","4007","2","13","Male","approach_avoid_spark_v1","""event"",""trial"",""time""
""fullscreenenter"",""1"",""3898""
","
","
","""event"",""trial"",""time""
""fullscreenenter"",""1"",""3898""
","
","","","","","","879.8000000044703","images/rabbit6.png","","","learning","-7","0","0","0","rabbit","pets","2","0","","good","[4]"
"html-keyboard-response","108","492709","0.0-9.0-2.0-0.18","4007","2","13","Male","approach_avoid_spark_v1","""event"",""trial"",""time""
""fullscreenenter"",""1"",""3898""
","
","
","""event"",""trial"",""time""
""fullscreenenter"",""1"",""3898""
","
","","","","","","null","<div style=""font-size:60px;"">+</div>","null","","fixation","","","","","","","","","","",""
"aa-learning-trial","109","495716","0.0-9.0-2.0-1.18","4007","2","13","Male","approach_avoid_spark_v1","""event"",""trial"",""time""
""fullscreenenter"",""1"",""3898""
","
","
","""event"",""trial"",""time""
""fullscreenenter"",""1"",""3898""
","
","","","","","","781.2000000029802","images/rabbit6.png","","","learning","-7","0","0","0","rabbit","pets","2","0","","good","[4]"
"html-keyboard-response","110","496221","0.0-9.0-2.0-0.19","4007","2","13","Male","approach_avoid_spark_v1","""event"",""trial"",""time""
""fullscreenenter"",""1"",""3898""
","
","
","""event"",""trial"",""time""
""fullscreenenter"",""1"",""3898""
","
","","","","","","null","<div style=""font-size:60px;"">+</div>","null","","fixation","","","","","","","","","","",""
"aa-learning-trial","111","499228","0.0-9.0-2.0-1.19","4007","2","13","Male","approach_avoid_spark_v1","""event"",""trial"",""time""
""fullscreenenter"",""1"",""3898""
","
","
","""event"",""trial"",""time""
""fullscreenenter"",""1"",""3898""
","
","","","","","","1689.7999999970198","images/rodent3.png","","","learning","7","7","1","1","rodent","pets","2","0","","neutral","0"
"html-keyboard-response","112","499732","0.0-9.0-2.0-0.20","4007","2","13","Male","approach_avoid_spark_v1","""event"",""trial"",""time""
""fullscreenenter"",""1"",""3898""
","
","
","""event"",""trial"",""time""
""fullscreenenter"",""1"",""3898""
","
","","","","","","null","<div style=""font-size:60px;"">+</div>","null","","fixation","","","","","","","","","","",""
"aa-learning-trial","113","502740","0.0-9.0-2.0-1.20","4007","2","13","Male","approach_avoid_spark_v1","""event"",""trial"",""time""
""fullscreenenter"",""1"",""3898""
","
","
","""event"",""trial"",""time""
""fullscreenenter"",""1"",""3898""
","
","","","","","","918.6000000014901","images/rabbit3.png","","","learning","2","0","0","0","rabbit","pets","2","0","","good","[4]"
"html-keyboard-response","114","503245","0.0-9.0-2.0-0.21","4007","2","13","Male","approach_avoid_spark_v1","""event"",""trial"",""time""
""fullscreenenter"",""1"",""3898""
","
","
","""event"",""trial"",""time""
""fullscreenenter"",""1"",""3898""
","
","","","","","","null","<div style=""font-size:60px;"">+</div>","null","","fixation","","","","","","","","","","",""
"aa-learning-trial","115","506252","0.0-9.0-2.0-1.21","4007","2","13","Male","approach_avoid_spark_v1","""event"",""trial"",""time""
""fullscreenenter"",""1"",""3898""
","
","
","""event"",""trial"",""time""
""fullscreenenter"",""1"",""3898""
","
","","","","","","659.8000000044703","images/dog6.png","","","learning","5","5","1","1","dog","pets","2","0","","bad","[-5]"
"html-keyboard-response","116","506756","0.0-9.0-2.0-0.22","4007","2","13","Male","approach_avoid_spark_v1","""event"",""trial"",""time""
""fullscreenenter"",""1"",""3898""
","
","
","""event"",""trial"",""time""
""fullscreenenter"",""1"",""3898""
","
","","","","","","null","<div style=""font-size:60px;"">+</div>","null","","fixation","","","","","","","","","","",""
"aa-learning-trial","117","509763","0.0-9.0-2.0-1.22","4007","2","13","Male","approach_avoid_spark_v1","""event"",""trial"",""time""
""fullscreenenter"",""1"",""3898""
","
","
","""event"",""trial"",""time""
""fullscreenenter"",""1"",""3898""
","
","","","","","","994.6000000014901","images/rabbit2.png","","","learning","8","8","1","1","rabbit","pets","2","0","","good","[4]"
"html-keyboard-response","118","510268","0.0-9.0-2.0-0.23","4007","2","13","Male","approach_avoid_spark_v1","""event"",""trial"",""time""
""fullscreenenter"",""1"",""3898""
","
","
","""event"",""trial"",""time""
""fullscreenenter"",""1"",""3898""
","
","","","","","","null","<div style=""font-size:60px;"">+</div>","null","","fixation","","","","","","","","","","",""
"aa-learning-trial","119","513275","0.0-9.0-2.0-1.23","4007","2","13","Male","approach_avoid_spark_v1","""event"",""trial"",""time""
""fullscreenenter"",""1"",""3898""
","
","
","""event"",""trial"",""time""
""fullscreenenter"",""1"",""3898""
","
","","","","","","664.3999999985099","images/rodent7.png","","","learning","4","0","0","0","rodent","pets","2","0","","neutral","0"
"html-keyboard-response","120","513780","0.0-9.0-2.0-0.24","4007","2","13","Male","approach_avoid_spark_v1","""event"",""trial"",""time""
""fullscreenenter"",""1"",""3898""
","
","
","""event"",""trial"",""time""
""fullscreenenter"",""1"",""3898""
","
","","","","","","null","<div style=""font-size:60px;"">+</div>","null","","fixation","","","","","","","","","","",""
"aa-learning-trial","121","516787","0.0-9.0-2.0-1.24","4007","2","13","Male","approach_avoid_spark_v1","""event"",""trial"",""time""
""fullscreenenter"",""1"",""3898""
","
","
","""event"",""trial"",""time""
""fullscreenenter"",""1"",""3898""
","
","","","","","","636.8999999985099","images/rabbit5.png","","","learning","-3","0","0","0","rabbit","pets","2","0","","good","[4]"
"html-keyboard-response","122","517292","0.0-9.0-2.0-0.25","4007","2","13","Male","approach_avoid_spark_v1","""event"",""trial"",""time""
""fullscreenenter"",""1"",""3898""
","
","
","""event"",""trial"",""time""
""fullscreenenter"",""1"",""3898""
","
","","","","","","null","<div style=""font-size:60px;"">+</div>","null","","fixation","","","","","","","","","","",""
"aa-learning-trial","123","520299","0.0-9.0-2.0-1.25","4007","2","13","Male","approach_avoid_spark_v1","""event"",""trial"",""time""
""fullscreenenter"",""1"",""3898""
","
","
","""event"",""trial"",""time""
""fullscreenenter"",""1"",""3898""
","
","","","","","","927.5","images/rodent3.png","","","learning","7","7","1","1","rodent","pets","2","0","","neutral","0"
"html-keyboard-response","124","520804","0.0-9.0-2.0-0.26","4007","2","13","Male","approach_avoid_spark_v1","""event"",""trial"",""time""
""fullscreenenter"",""1"",""3898""
","
","
","""event"",""trial"",""time""
""fullscreenenter"",""1"",""3898""
","
","","","","","","null","<div style=""font-size:60px;"">+</div>","null","","fixation","","","","","","","","","","",""
"aa-learning-trial","125","523811","0.0-9.0-2.0-1.26","4007","2","13","Male","approach_avoid_spark_v1","""event"",""trial"",""time""
""fullscreenenter"",""1"",""3898""
","
","
","""event"",""trial"",""time""
""fullscreenenter"",""1"",""3898""
","
","","","","","","924.1999999955297","images/dog7.png","","","learning","1","1","1","1","dog","pets","2","0","","bad","[-5]"
"html-keyboard-response","126","524313","0.0-9.0-2.0-0.27","4007","2","13","Male","approach_avoid_spark_v1","""event"",""trial"",""time""
""fullscreenenter"",""1"",""3898""
","
","
","""event"",""trial"",""time""
""fullscreenenter"",""1"",""3898""
","
","","","","","","null","<div style=""font-size:60px;"">+</div>","null","","fixation","","","","","","","","","","",""
"aa-learning-trial","127","527317","0.0-9.0-2.0-1.27","4007","2","13","Male","approach_avoid_spark_v1","""event"",""trial"",""time""
""fullscreenenter"",""1"",""3898""
","
","
","""event"",""trial"",""time""
""fullscreenenter"",""1"",""3898""
","
","","","","","","1720","images/dog5.png","","","learning","-4","0","0","0","dog","pets","2","0","","bad","[-5]"
"html-keyboard-response","128","527822","0.0-9.0-2.0-0.28","4007","2","13","Male","approach_avoid_spark_v1","""event"",""trial"",""time""
""fullscreenenter"",""1"",""3898""
","
","
","""event"",""trial"",""time""
""fullscreenenter"",""1"",""3898""
","
","","","","","","null","<div style=""font-size:60px;"">+</div>","null","","fixation","","","","","","","","","","",""
"aa-learning-trial","129","530829","0.0-9.0-2.0-1.28","4007","2","13","Male","approach_avoid_spark_v1","""event"",""trial"",""time""
""fullscreenenter"",""1"",""3898""
","
","
","""event"",""trial"",""time""
""fullscreenenter"",""1"",""3898""
","
","","","","","","1743.6000000014901","images/rodent5.png","","","learning","-1","0","0","0","rodent","pets","2","0","","neutral","0"
"html-keyboard-response","130","531334","0.0-9.0-2.0-0.29","4007","2","13","Male","approach_avoid_spark_v1","""event"",""trial"",""time""
""fullscreenenter"",""1"",""3898""
","
","
","""event"",""trial"",""time""
""fullscreenenter"",""1"",""3898""
","
","","","","","","null","<div style=""font-size:60px;"">+</div>","null","","fixation","","","","","","","","","","",""
"aa-learning-trial","131","534341","0.0-9.0-2.0-1.29","4007","2","13","Male","approach_avoid_spark_v1","""event"",""trial"",""time""
""fullscreenenter"",""1"",""3898""
","
","
","""event"",""trial"",""time""
""fullscreenenter"",""1"",""3898""
","
","","","","","","1222.2999999970198","images/dog5.png","","","learning","-4","0","0","0","dog","pets","2","0","","bad","[-5]"
"html-keyboard-response","132","534845","0.0-9.0-2.0-0.30","4007","2","13","Male","approach_avoid_spark_v1","""event"",""trial"",""time""
""fullscreenenter"",""1"",""3898""
","
","
","""event"",""trial"",""time""
""fullscreenenter"",""1"",""3898""
","
","","","","","","null","<div style=""font-size:60px;"">+</div>","null","","fixation","","","","","","","","","","",""
"aa-learning-trial","133","537852","0.0-9.0-2.0-1.30","4007","2","13","Male","approach_avoid_spark_v1","""event"",""trial"",""time""
""fullscreenenter"",""1"",""3898""
","
","
","""event"",""trial"",""time""
""fullscreenenter"",""1"",""3898""
","
","","","","","","1184","images/rodent5.png","","","learning","-1","0","0","0","rodent","pets","2","0","","neutral","0"
"html-keyboard-response","134","538357","0.0-9.0-2.0-0.31","4007","2","13","Male","approach_avoid_spark_v1","""event"",""trial"",""time""
""fullscreenenter"",""1"",""3898""
","
","
","""event"",""trial"",""time""
""fullscreenenter"",""1"",""3898""
","
","","","","","","null","<div style=""font-size:60px;"">+</div>","null","","fixation","","","","","","","","","","",""
"aa-learning-trial","135","541361","0.0-9.0-2.0-1.31","4007","2","13","Male","approach_avoid_spark_v1","""event"",""trial"",""time""
""fullscreenenter"",""1"",""3898""
","
","
","""event"",""trial"",""time""
""fullscreenenter"",""1"",""3898""
","
","","","","","","1040","images/rodent1.png","","","learning","-5","-5","1","1","rodent","pets","2","0","","neutral","0"
"html-keyboard-response","136","541863","0.0-9.0-2.0-0.32","4007","2","13","Male","approach_avoid_spark_v1","""event"",""trial"",""time""
""fullscreenenter"",""1"",""3898""
","
","
","""event"",""trial"",""time""
""fullscreenenter"",""1"",""3898""
","
","","","","","","null","<div style=""font-size:60px;"">+</div>","null","","fixation","","","","","","","","","","",""
"aa-learning-trial","137","544870","0.0-9.0-2.0-1.32","4007","2","13","Male","approach_avoid_spark_v1","""event"",""trial"",""time""
""fullscreenenter"",""1"",""3898""
","
","
","""event"",""trial"",""time""
""fullscreenenter"",""1"",""3898""
","
","","","","","","1303.7000000029802","images/dog6.png","","","learning","5","5","1","1","dog","pets","2","0","","bad","[-5]"
"html-keyboard-response","138","545375","0.0-9.0-2.0-0.33","4007","2","13","Male","approach_avoid_spark_v1","""event"",""trial"",""time""
""fullscreenenter"",""1"",""3898""
","
","
","""event"",""trial"",""time""
""fullscreenenter"",""1"",""3898""
","
","","","","","","null","<div style=""font-size:60px;"">+</div>","null","","fixation","","","","","","","","","","",""
"aa-learning-trial","139","548382","0.0-9.0-2.0-1.33","4007","2","13","Male","approach_avoid_spark_v1","""event"",""trial"",""time""
""fullscreenenter"",""1"",""3898""
","
","
","""event"",""trial"",""time""
""fullscreenenter"",""1"",""3898""
","
","","","","","","421.3999999985099","images/rabbit6.png","","","learning","-7","-7","1","1","rabbit","pets","2","0","","good","[4]"
"html-keyboard-response","140","548887","0.0-9.0-2.0-0.34","4007","2","13","Male","approach_avoid_spark_v1","""event"",""trial"",""time""
""fullscreenenter"",""1"",""3898""
","
","
","""event"",""trial"",""time""
""fullscreenenter"",""1"",""3898""
","
","","","","","","null","<div style=""font-size:60px;"">+</div>","null","","fixation","","","","","","","","","","",""
"aa-learning-trial","141","551894","0.0-9.0-2.0-1.34","4007","2","13","Male","approach_avoid_spark_v1","""event"",""trial"",""time""
""fullscreenenter"",""1"",""3898""
","
","
","""event"",""trial"",""time""
""fullscreenenter"",""1"",""3898""
","
","","","","","","947.7000000029802","images/dog7.png","","","learning","1","1","1","1","dog","pets","2","0","","bad","[-5]"
"html-keyboard-response","142","552396","0.0-9.0-2.0-0.35","4007","2","13","Male","approach_avoid_spark_v1","""event"",""trial"",""time""
""fullscreenenter"",""1"",""3898""
","
","
","""event"",""trial"",""time""
""fullscreenenter"",""1"",""3898""
","
","","","","","","null","<div style=""font-size:60px;"">+</div>","null","","fixation","","","","","","","","","","",""
"aa-learning-trial","143","555400","0.0-9.0-2.0-1.35","4007","2","13","Male","approach_avoid_spark_v1","""event"",""trial"",""time""
""fullscreenenter"",""1"",""3898""
","
","
","""event"",""trial"",""time""
""fullscreenenter"",""1"",""3898""
","
","","","","","","1112.2000000029802","images/rodent5.png","","","learning","-1","0","0","0","rodent","pets","2","0","","neutral","0"
"html-keyboard-response","144","555905","0.0-9.0-2.0-0.36","4007","2","13","Male","approach_avoid_spark_v1","""event"",""trial"",""time""
""fullscreenenter"",""1"",""3898""
","
","
","""event"",""trial"",""time""
""fullscreenenter"",""1"",""3898""
","
","","","","","","null","<div style=""font-size:60px;"">+</div>","null","","fixation","","","","","","","","","","",""
"aa-learning-trial","145","558912","0.0-9.0-2.0-1.36","4007","2","13","Male","approach_avoid_spark_v1","""event"",""trial"",""time""
""fullscreenenter"",""1"",""3898""
","
","
","""event"",""trial"",""time""
""fullscreenenter"",""1"",""3898""
","
","","","","","","896.8000000044703","images/dog7.png","","","learning","1","1","1","1","dog","pets","2","0","","bad","[-5]"
"html-keyboard-response","146","559417","0.0-9.0-2.0-0.37","4007","2","13","Male","approach_avoid_spark_v1","""event"",""trial"",""time""
""fullscreenenter"",""1"",""3898""
","
","
","""event"",""trial"",""time""
""fullscreenenter"",""1"",""3898""
","
","","","","","","null","<div style=""font-size:60px;"">+</div>","null","","fixation","","","","","","","","","","",""
"aa-learning-trial","147","562424","0.0-9.0-2.0-1.37","4007","2","13","Male","approach_avoid_spark_v1","""event"",""trial"",""time""
""fullscreenenter"",""1"",""3898""
","
","
","""event"",""trial"",""time""
""fullscreenenter"",""1"",""3898""
","
","","","","","","990.3999999985099","images/rodent3.png","","","learning","7","7","1","1","rodent","pets","2","0","","neutral","0"
"html-keyboard-response","148","562928","0.0-9.0-2.0-0.38","4007","2","13","Male","approach_avoid_spark_v1","""event"",""trial"",""time""
""fullscreenenter"",""1"",""3898""
","
","
","""event"",""trial"",""time""
""fullscreenenter"",""1"",""3898""
","
","","","","","","null","<div style=""font-size:60px;"">+</div>","null","","fixation","","","","","","","","","","",""
"aa-learning-trial","149","565933","0.0-9.0-2.0-1.38","4007","2","13","Male","approach_avoid_spark_v1","""event"",""trial"",""time""
""fullscreenenter"",""1"",""3898""
","
","
","""event"",""trial"",""time""
""fullscreenenter"",""1"",""3898""
","
","","","","","","1496","images/rabbit2.png","","","learning","8","8","1","1","rabbit","pets","2","0","","good","[4]"
"html-keyboard-response","150","566435","0.0-9.0-2.0-0.39","4007","2","13","Male","approach_avoid_spark_v1","""event"",""trial"",""time""
""fullscreenenter"",""1"",""3898""
","
","
","""event"",""trial"",""time""
""fullscreenenter"",""1"",""3898""
","
","","","","","","null","<div style=""font-size:60px;"">+</div>","null","","fixation","","","","","","","","","","",""
"aa-learning-trial","151","569442","0.0-9.0-2.0-1.39","4007","2","13","Male","approach_avoid_spark_v1","""event"",""trial"",""time""
""fullscreenenter"",""1"",""3898""
","
","
","""event"",""trial"",""time""
""fullscreenenter"",""1"",""3898""
","
","","","","","","995.8999999985099","images/rabbit6.png","","","learning","-7","0","0","0","rabbit","pets","2","0","","good","[4]"
"html-keyboard-response","152","569946","0.0-9.0-2.0-0.40","4007","2","13","Male","approach_avoid_spark_v1","""event"",""trial"",""time""
""fullscreenenter"",""1"",""3898""
","
","
","""event"",""trial"",""time""
""fullscreenenter"",""1"",""3898""
","
","","","","","","null","<div style=""font-size:60px;"">+</div>","null","","fixation","","","","","","","","","","",""
"aa-learning-trial","153","572954","0.0-9.0-2.0-1.40","4007","2","13","Male","approach_avoid_spark_v1","""event"",""trial"",""time""
""fullscreenenter"",""1"",""3898""
","
","
","""event"",""trial"",""time""
""fullscreenenter"",""1"",""3898""
","
","","","","","","1059.1000000014901","images/dog8.png","","","learning","9","9","1","1","dog","pets","2","0","","bad","[-5]"
"html-keyboard-response","154","573458","0.0-9.0-2.0-0.41","4007","2","13","Male","approach_avoid_spark_v1","""event"",""trial"",""time""
""fullscreenenter"",""1"",""3898""
","
","
","""event"",""trial"",""time""
""fullscreenenter"",""1"",""3898""
","
","","","","","","null","<div style=""font-size:60px;"">+</div>","null","","fixation","","","","","","","","","","",""
"aa-learning-trial","155","576463","0.0-9.0-2.0-1.41","4007","2","13","Male","approach_avoid_spark_v1","""event"",""trial"",""time""
""fullscreenenter"",""1"",""3898""
","
","
","""event"",""trial"",""time""
""fullscreenenter"",""1"",""3898""
","
","","","","","","1516.5","images/dog2.png","","","learning","-6","0","0","0","dog","pets","2","0","","bad","[-5]"
"html-keyboard-response","156","576969","0.0-9.0-2.0-0.42","4007","2","13","Male","approach_avoid_spark_v1","""event"",""trial"",""time""
""fullscreenenter"",""1"",""3898""
","
","
","""event"",""trial"",""time""
""fullscreenenter"",""1"",""3898""
","
","","","","","","null","<div style=""font-size:60px;"">+</div>","null","","fixation","","","","","","","","","","",""
"aa-learning-trial","157","579977","0.0-9.0-2.0-1.42","4007","2","13","Male","approach_avoid_spark_v1","""event"",""trial"",""time""
""fullscreenenter"",""1"",""3898""
","
","
","""event"",""trial"",""time""
""fullscreenenter"",""1"",""3898""
","
","","","","","","1474.2999999970198","images/rabbit3.png","","","learning","2","0","0","0","rabbit","pets","2","0","","good","[4]"
"html-keyboard-response","158","580481","0.0-9.0-2.0-0.43","4007","2","13","Male","approach_avoid_spark_v1","""event"",""trial"",""time""
""fullscreenenter"",""1"",""3898""
","
","
","""event"",""trial"",""time""
""fullscreenenter"",""1"",""3898""
","
","","","","","","null","<div style=""font-size:60px;"">+</div>","null","","fixation","","","","","","","","","","",""
"aa-learning-trial","159","583488","0.0-9.0-2.0-1.43","4007","2","13","Male","approach_avoid_spark_v1","""event"",""trial"",""time""
""fullscreenenter"",""1"",""3898""
","
","
","""event"",""trial"",""time""
""fullscreenenter"",""1"",""3898""
","
","","","","","","932.9000000059605","images/dog6.png","","","learning","5","5","1","1","dog","pets","2","0","","bad","[-5]"
"html-keyboard-response","160","583991","0.0-9.0-2.0-0.44","4007","2","13","Male","approach_avoid_spark_v1","""event"",""trial"",""time""
""fullscreenenter"",""1"",""3898""
","
","
","""event"",""trial"",""time""
""fullscreenenter"",""1"",""3898""
","
","","","","","","null","<div style=""font-size:60px;"">+</div>","null","","fixation","","","","","","","","","","",""
"aa-learning-trial","161","586997","0.0-9.0-2.0-1.44","4007","2","13","Male","approach_avoid_spark_v1","""event"",""trial"",""time""
""fullscreenenter"",""1"",""3898""
","
","
","""event"",""trial"",""time""
""fullscreenenter"",""1"",""3898""
","
","","","","","","955.3999999985099","images/rodent5.png","","","learning","-1","0","0","0","rodent","pets","2","0","","neutral","0"
"html-keyboard-response","162","587502","0.0-9.0-2.0-0.45","4007","2","13","Male","approach_avoid_spark_v1","""event"",""trial"",""time""
""fullscreenenter"",""1"",""3898""
","
","
","""event"",""trial"",""time""
""fullscreenenter"",""1"",""3898""
","
","","","","","","null","<div style=""font-size:60px;"">+</div>","null","","fixation","","","","","","","","","","",""
"aa-learning-trial","163","590506","0.0-9.0-2.0-1.45","4007","2","13","Male","approach_avoid_spark_v1","""event"",""trial"",""time""
""fullscreenenter"",""1"",""3898""
","
","
","""event"",""trial"",""time""
""fullscreenenter"",""1"",""3898""
","
","","","","","","1085.3000000044703","images/rabbit1.png","","","learning","3","3","1","1","rabbit","pets","2","0","","good","[4]"
"html-keyboard-response","164","591011","0.0-9.0-2.0-0.46","4007","2","13","Male","approach_avoid_spark_v1","""event"",""trial"",""time""
""fullscreenenter"",""1"",""3898""
","
","
","""event"",""trial"",""time""
""fullscreenenter"",""1"",""3898""
","
","","","","","","null","<div style=""font-size:60px;"">+</div>","null","","fixation","","","","","","","","","","",""
"aa-learning-trial","165","594018","0.0-9.0-2.0-1.46","4007","2","13","Male","approach_avoid_spark_v1","""event"",""trial"",""time""
""fullscreenenter"",""1"",""3898""
","
","
","""event"",""trial"",""time""
""fullscreenenter"",""1"",""3898""
","
","","","","","","876.6999999955297","images/rodent3.png","","","learning","7","0","0","0","rodent","pets","2","0","","neutral","0"
"html-keyboard-response","166","594523","0.0-9.0-2.0-0.47","4007","2","13","Male","approach_avoid_spark_v1","""event"",""trial"",""time""
""fullscreenenter"",""1"",""3898""
","
","
","""event"",""trial"",""time""
""fullscreenenter"",""1"",""3898""
","
","","","","","","null","<div style=""font-size:60px;"">+</div>","null","","fixation","","","","","","","","","","",""
"aa-learning-trial","167","597530","0.0-9.0-2.0-1.47","4007","2","13","Male","approach_avoid_spark_v1","""event"",""trial"",""time""
""fullscreenenter"",""1"",""3898""
","
","
","""event"",""trial"",""time""
""fullscreenenter"",""1"",""3898""
","
","","","","","","1020.3000000044703","images/rabbit2.png","","","learning","8","0","0","0","rabbit","pets","2","0","","good","[4]"
"html-keyboard-response","168","598035","0.0-9.0-2.0-0.48","4007","2","13","Male","approach_avoid_spark_v1","""event"",""trial"",""time""
""fullscreenenter"",""1"",""3898""
","
","
","""event"",""trial"",""time""
""fullscreenenter"",""1"",""3898""
","
","","","","","","null","<div style=""font-size:60px;"">+</div>","null","","fixation","","","","","","","","","","",""
"aa-learning-trial","169","601042","0.0-9.0-2.0-1.48","4007","2","13","Male","approach_avoid_spark_v1","""event"",""trial"",""time""
""fullscreenenter"",""1"",""3898""
","
","
","""event"",""trial"",""time""
""fullscreenenter"",""1"",""3898""
","
","","","","","","533","images/rabbit2.png","","","learning","8","8","1","1","rabbit","pets","2","0","","good","[4]"
"html-keyboard-response","170","601547","0.0-9.0-2.0-0.49","4007","2","13","Male","approach_avoid_spark_v1","""event"",""trial"",""time""
""fullscreenenter"",""1"",""3898""
","
","
","""event"",""trial"",""time""
""fullscreenenter"",""1"",""3898""
","
","","","","","","null","<div style=""font-size:60px;"">+</div>","null","","fixation","","","","","","","","","","",""
"aa-learning-trial","171","604554","0.0-9.0-2.0-1.49","4007","2","13","Male","approach_avoid_spark_v1","""event"",""trial"",""time""
""fullscreenenter"",""1"",""3898""
","
","
","""event"",""trial"",""time""
""fullscreenenter"",""1"",""3898""
","
","","","","","","663.3000000044703","images/rodent1.png","","","learning","-5","-5","1","1","rodent","pets","2","0","","neutral","0"
"html-keyboard-response","172","605056","0.0-9.0-2.0-0.50","4007","2","13","Male","approach_avoid_spark_v1","""event"",""trial"",""time""
""fullscreenenter"",""1"",""3898""
","
","
","""event"",""trial"",""time""
""fullscreenenter"",""1"",""3898""
","
","","","","","","null","<div style=""font-size:60px;"">+</div>","null","","fixation","","","","","","","","","","",""
"aa-learning-trial","173","608060","0.0-9.0-2.0-1.50","4007","2","13","Male","approach_avoid_spark_v1","""event"",""trial"",""time""
""fullscreenenter"",""1"",""3898""
","
","
","""event"",""trial"",""time""
""fullscreenenter"",""1"",""3898""
","
","","","","","","683.8999999985099","images/dog6.png","","","learning","5","5","1","1","dog","pets","2","0","","bad","[-5]"
"html-button-response","174","611351","0.0-9.0-3.0","4007","2","13","Male","approach_avoid_spark_v1","""event"",""trial"",""time""
""fullscreenenter"",""1"",""3898""
","
","
","""event"",""trial"",""time""
""fullscreenenter"",""1"",""3898""
","
","","","","","","3287.5","<p> You have completed the round! <p> In this round, you earned 73 points! </p>","0","","break","","","","","","","","","","",""
"html-button-response","175","612350","0.0-10.0","4007","2","13","Male","approach_avoid_spark_v1","""event"",""trial"",""time""
""fullscreenenter"",""1"",""3898""
","
","
","""event"",""trial"",""time""
""fullscreenenter"",""1"",""3898""
","
","","","","","","997.7000000029802","<p> Now it's time to play another round. </p>","0","","transition_screen","","","","","","","","","","",""
"preload","176","612475","0.0-11.0-0.0","4007","2","13","Male","approach_avoid_spark_v1","""event"",""trial"",""time""
""fullscreenenter"",""1"",""3898""
","
","
","""event"",""trial"",""time""
""fullscreenenter"",""1"",""3898""
","
","true","false","[]","[]","[]","","","","","","","","","","","","","","","",""
"learning-instructions","177","619917","0.0-11.0-1.0-0.0","4007","2","13","Male","approach_avoid_spark_v1","""event"",""trial"",""time""
""fullscreenenter"",""1"",""3898""
","
","
","""event"",""trial"",""time""
""fullscreenenter"",""1"",""3898""
","
","","","","","","2162","<p> Your goal in this round is to decorate your friend's new house with furniture. </p></div>","","0","instructions","","","","","","","","","","",""
"learning-instructions","178","633334","0.0-11.0-1.0-0.1","4007","2","13","Male","approach_avoid_spark_v1","""event"",""trial"",""time""
""fullscreenenter"",""1"",""3898""
","
","
","""event"",""trial"",""time""
""fullscreenenter"",""1"",""3898""
","
","","","","","","3272.60000000149","<p> Your friend likes some pieces of furniture but not others.  </p><p> On each turn, you will see a piece of furniture.   </p><p> You need to decide whether to put it in your friend's house or not.  </p>","","0","instructions","","","","","","","","","","",""
"learning-instructions","179","640132","0.0-11.0-1.0-0.2","4007","2","13","Male","approach_avoid_spark_v1","""event"",""trial"",""time""
""fullscreenenter"",""1"",""3898""
","
","
","""event"",""trial"",""time""
""fullscreenenter"",""1"",""3898""
","
","","","","","","1189.7999999970198","<p> You can put the furniture in her house by pressing 1 and deliver it elsewhere by pressing 0. </p><br><div class=""choice-instructions-grid""> <div class=""choice-option""><img src=""images/approach.png"" class=""choice-option-img"" stage=""instructions"" position=""0"" ><div class=""choice-option-text""> Press ""1."" </div></div><div class=""choice-option""><img src=""images/avoid.png"" class=""choice-option-img"" stage=""instructions"" position=""1"" ><div class=""choice-option-text""> Press ""0."" </div></div>","","0","instructions","","","","","","","","","","",""
"learning-instructions","180","651567","0.0-11.0-1.0-0.3","4007","2","13","Male","approach_avoid_spark_v1","""event"",""trial"",""time""
""fullscreenenter"",""1"",""3898""
","
","
","""event"",""trial"",""time""
""fullscreenenter"",""1"",""3898""
","
","","","","","","2553.5","<p> If you decorate your friend's house with furniture she likes, she will be happy! </p><p> But if you give her furniture that she does not like, she will be annoyed. </p>","","0","instructions","","","","","","","","","","",""
"learning-instructions","181","665567","0.0-11.0-1.0-0.4","4007","2","13","Male","approach_avoid_spark_v1","""event"",""trial"",""time""
""fullscreenenter"",""1"",""3898""
","
","
","""event"",""trial"",""time""
""fullscreenenter"",""1"",""3898""
","
","","","","","","1594.7999999970198","<p> You will earn points based on how you made your friend feel. </p><p> If you made her happy, you will WIN anywhere from 1 - 9 points, </p><p> but if you made her annoyed you will LOSE anywhere from 1 - 9 points. </p>","","0","instructions","","","","","","","","","","",""
"learning-instructions","182","673917","0.0-11.0-1.0-0.5","4007","2","13","Male","approach_avoid_spark_v1","""event"",""trial"",""time""
""fullscreenenter"",""1"",""3898""
","
","
","""event"",""trial"",""time""
""fullscreenenter"",""1"",""3898""
","
","","","","","","1701.6999999955297","<p> You will see how many points you won or lost in the center of the screen. </p><p> Here is what you would see if you won 5 points: </p><p style=""color:green;font-size:50px;font-weight:bolder"">5</p>","","0","instructions","","","","","","","","","","",""
"learning-instructions","183","678316","0.0-11.0-1.0-0.6","4007","2","13","Male","approach_avoid_spark_v1","""event"",""trial"",""time""
""fullscreenenter"",""1"",""3898""
","
","
","""event"",""trial"",""time""
""fullscreenenter"",""1"",""3898""
","
","","","","","","1567.1999999955297","<p> And here is what you would see if you lost 3 points: </p><p style=""color:red;font-size:50px;font-weight:bolder"">-3</p>","","0","instructions","","","","","","","","","","",""
"learning-instructions","184","697316","0.0-11.0-1.0-0.7","4007","2","13","Male","approach_avoid_spark_v1","""event"",""trial"",""time""
""fullscreenenter"",""1"",""3898""
","
","
","""event"",""trial"",""time""
""fullscreenenter"",""1"",""3898""
","
","","","","","","1516.5","<p> Some pieces of furniture will make her feel very happy or very annoyed. </p><p> These pieces of furniture will make you win or lose LOTS of points. </p><p> Other pieces of furniture will only make her feel a little happy or a little annoyed. </p><p> These pieces of furniture will make you win or lose small amounts of points. </p>","","0","instructions","","","","","","","","","","",""
"learning-instructions","185","711517","0.0-11.0-1.0-0.8","4007","2","13","Male","approach_avoid_spark_v1","""event"",""trial"",""time""
""fullscreenenter"",""1"",""3898""
","
","
","""event"",""trial"",""time""
""fullscreenenter"",""1"",""3898""
","
","","","","","","1542.2999999970198","<p> If you choose to deliver a piece of furniture elsewhere, you will not win or lose any points. </p><p>  However, in the center of the screen, you will see the number of points you WOULD HAVE won or lost if you had given the furniture to your friend. </p>","","0","instructions","","","","","","","","","","",""
"learning-instructions","186","726200","0.0-11.0-1.0-0.9","4007","2","13","Male","approach_avoid_spark_v1","""event"",""trial"",""time""
""fullscreenenter"",""1"",""3898""
","
","
","""event"",""trial"",""time""
""fullscreenenter"",""1"",""3898""
","
","","","","","","3408.1999999955297","<p> Here is what you might see if you did not give a piece of furniture to your friend that would have made her happy: </p><p style=""color:grey; font-size:50px; display: inline-block; border-spacing: 15px; border-width:3px; border-style:solid; border-color:red"">  &nbsp; 6 &nbsp; </p><p> Remember, in this case, you would not win or lose ANY points because you did not give her the furniture.  </p>","","0","instructions","","","","","","","","","","",""
"learning-instructions","187","735167","0.0-11.0-1.0-0.10","4007","2","13","Male","approach_avoid_spark_v1","""event"",""trial"",""time""
""fullscreenenter"",""1"",""3898""
","
","
","""event"",""trial"",""time""
""fullscreenenter"",""1"",""3898""
","
","","","","","","1578.5999999940395","<p> Try to make the best choice for each piece of furniture because </p><p> at the end of the game, you will earn bonus money based on how many points you earned. </p>","","0","instructions","","","","","","","","","","",""
"learning-instructions","188","745600","0.0-11.0-1.0-0.11","4007","2","13","Male","approach_avoid_spark_v1","""event"",""trial"",""time""
""fullscreenenter"",""1"",""3898""
","
","
","""event"",""trial"",""time""
""fullscreenenter"",""1"",""3898""
","
","","","","","","2248.0999999940395","<p> You will have 3 seconds to make each choice. Try to respond before time runs out! </p><p> You will lose 5 points each time you do not make a response. </p>","","0","instructions","","","","","","","","","","",""
"html-keyboard-response","189","746204","0.0-11.0-2.0-0.0","4007","2","13","Male","approach_avoid_spark_v1","""event"",""trial"",""time""
""fullscreenenter"",""1"",""3898""
","
","
","""event"",""trial"",""time""
""fullscreenenter"",""1"",""3898""
","
","","","","","","null","<div style=""font-size:60px;"">+</div>","null","","fixation","","","","","","","","","","",""
"aa-learning-trial","190","749214","0.0-11.0-2.0-1.0","4007","2","13","Male","approach_avoid_spark_v1","""event"",""trial"",""time""
""fullscreenenter"",""1"",""3898""
","
","
","""event"",""trial"",""time""
""fullscreenenter"",""1"",""3898""
","
","","","","","","913","images/chair2.png","","","learning","-5","-5","1","1","chair","furniture","1","1","","bad","[-5]"
"html-keyboard-response","191","749721","0.0-11.0-2.0-0.1","4007","2","13","Male","approach_avoid_spark_v1","""event"",""trial"",""time""
""fullscreenenter"",""1"",""3898""
","
","
","""event"",""trial"",""time""
""fullscreenenter"",""1"",""3898""
","
","","","","","","null","<div style=""font-size:60px;"">+</div>","null","","fixation","","","","","","","","","","",""
"aa-learning-trial","192","752730","0.0-11.0-2.0-1.1","4007","2","13","Male","approach_avoid_spark_v1","""event"",""trial"",""time""
""fullscreenenter"",""1"",""3898""
","
","
","""event"",""trial"",""time""
""fullscreenenter"",""1"",""3898""
","
","","","","","","853.7999999970198","images/sofa8.png","","","learning","6","0","0","0","sofa","furniture","1","1","","good","[5]"
"html-keyboard-response","193","753238","0.0-11.0-2.0-0.2","4007","2","13","Male","approach_avoid_spark_v1","""event"",""trial"",""time""
""fullscreenenter"",""1"",""3898""
","
","
","""event"",""trial"",""time""
""fullscreenenter"",""1"",""3898""
","
","","","","","","null","<div style=""font-size:60px;"">+</div>","null","","fixation","","","","","","","","","","",""
"aa-learning-trial","194","756244","0.0-11.0-2.0-1.2","4007","2","13","Male","approach_avoid_spark_v1","""event"",""trial"",""time""
""fullscreenenter"",""1"",""3898""
","
","
","""event"",""trial"",""time""
""fullscreenenter"",""1"",""3898""
","
","","","","","","855.1000000014901","images/bed4.png","","","learning","-4","-4","1","1","bed","furniture","1","1","","neutral","0"
"html-keyboard-response","195","756749","0.0-11.0-2.0-0.3","4007","2","13","Male","approach_avoid_spark_v1","""event"",""trial"",""time""
""fullscreenenter"",""1"",""3898""
","
","
","""event"",""trial"",""time""
""fullscreenenter"",""1"",""3898""
","
","","","","","","null","<div style=""font-size:60px;"">+</div>","null","","fixation","","","","","","","","","","",""
"aa-learning-trial","196","759758","0.0-11.0-2.0-1.3","4007","2","13","Male","approach_avoid_spark_v1","""event"",""trial"",""time""
""fullscreenenter"",""1"",""3898""
","
","
","""event"",""trial"",""time""
""fullscreenenter"",""1"",""3898""
","
","","","","","","1125.6000000014901","images/bed5.png","","","learning","-3","0","0","0","bed","furniture","1","1","","neutral","0"
"html-keyboard-response","197","760261","0.0-11.0-2.0-0.4","4007","2","13","Male","approach_avoid_spark_v1","""event"",""trial"",""time""
""fullscreenenter"",""1"",""3898""
","
","
","""event"",""trial"",""time""
""fullscreenenter"",""1"",""3898""
","
","","","","","","null","<div style=""font-size:60px;"">+</div>","null","","fixation","","","","","","","","","","",""
"aa-learning-trial","198","763271","0.0-11.0-2.0-1.4","4007","2","13","Male","approach_avoid_spark_v1","""event"",""trial"",""time""
""fullscreenenter"",""1"",""3898""
","
","
","""event"",""trial"",""time""
""fullscreenenter"",""1"",""3898""
","
","","","","","","898.3999999985099","images/chair7.png","","","learning","-4","-4","1","1","chair","furniture","1","1","","bad","[-5]"
"html-keyboard-response","199","763777","0.0-11.0-2.0-0.5","4007","2","13","Male","approach_avoid_spark_v1","""event"",""trial"",""time""
""fullscreenenter"",""1"",""3898""
","
","
","""event"",""trial"",""time""
""fullscreenenter"",""1"",""3898""
","
","","","","","","null","<div style=""font-size:60px;"">+</div>","null","","fixation","","","","","","","","","","",""
"aa-learning-trial","200","766782","0.0-11.0-2.0-1.5","4007","2","13","Male","approach_avoid_spark_v1","""event"",""trial"",""time""
""fullscreenenter"",""1"",""3898""
","
","
","""event"",""trial"",""time""
""fullscreenenter"",""1"",""3898""
","
","","","","","","1072.1999999955297","images/bed8.png","","","learning","2","2","1","1","bed","furniture","1","1","","neutral","0"
"html-keyboard-response","201","767290","0.0-11.0-2.0-0.6","4007","2","13","Male","approach_avoid_spark_v1","""event"",""trial"",""time""
""fullscreenenter"",""1"",""3898""
","
","
","""event"",""trial"",""time""
""fullscreenenter"",""1"",""3898""
","
","","","","","","null","<div style=""font-size:60px;"">+</div>","null","","fixation","","","","","","","","","","",""
"aa-learning-trial","202","770300","0.0-11.0-2.0-1.6","4007","2","13","Male","approach_avoid_spark_v1","""event"",""trial"",""time""
""fullscreenenter"",""1"",""3898""
","
","
","""event"",""trial"",""time""
""fullscreenenter"",""1"",""3898""
","
","","","","","","1136","images/sofa8.png","","","learning","6","6","1","1","sofa","furniture","1","1","","good","[5]"
"html-keyboard-response","203","770802","0.0-11.0-2.0-0.7","4007","2","13","Male","approach_avoid_spark_v1","""event"",""trial"",""time""
""fullscreenenter"",""1"",""3898""
","
","
","""event"",""trial"",""time""
""fullscreenenter"",""1"",""3898""
","
","","","","","","null","<div style=""font-size:60px;"">+</div>","null","","fixation","","","","","","","","","","",""
"aa-learning-trial","204","773809","0.0-11.0-2.0-1.7","4007","2","13","Male","approach_avoid_spark_v1","""event"",""trial"",""time""
""fullscreenenter"",""1"",""3898""
","
","
","""event"",""trial"",""time""
""fullscreenenter"",""1"",""3898""
","
","","","","","","1046.3999999985099","images/chair2.png","","","learning","-9","0","0","0","chair","furniture","1","1","","bad","[-5]"
"html-keyboard-response","205","774313","0.0-11.0-2.0-0.8","4007","2","13","Male","approach_avoid_spark_v1","""event"",""trial"",""time""
""fullscreenenter"",""1"",""3898""
","
","
","""event"",""trial"",""time""
""fullscreenenter"",""1"",""3898""
","
","","","","","","null","<div style=""font-size:60px;"">+</div>","null","","fixation","","","","","","","","","","",""
"aa-learning-trial","206","777321","0.0-11.0-2.0-1.8","4007","2","13","Male","approach_avoid_spark_v1","""event"",""trial"",""time""
""fullscreenenter"",""1"",""3898""
","
","
","""event"",""trial"",""time""
""fullscreenenter"",""1"",""3898""
","
","","","","","","970.5","images/sofa5.png","","","learning","4","4","1","1","sofa","furniture","1","1","","good","[5]"
"html-keyboard-response","207","777825","0.0-11.0-2.0-0.9","4007","2","13","Male","approach_avoid_spark_v1","""event"",""trial"",""time""
""fullscreenenter"",""1"",""3898""
","
","
","""event"",""trial"",""time""
""fullscreenenter"",""1"",""3898""
","
","","","","","","null","<div style=""font-size:60px;"">+</div>","null","","fixation","","","","","","","","","","",""
"aa-learning-trial","208","780828","0.0-11.0-2.0-1.9","4007","2","13","Male","approach_avoid_spark_v1","""event"",""trial"",""time""
""fullscreenenter"",""1"",""3898""
","
","
","""event"",""trial"",""time""
""fullscreenenter"",""1"",""3898""
","
","","","","","","844.4000000059605","images/chair3.png","","","learning","-4","-4","1","1","chair","furniture","1","1","","bad","[-5]"
"html-keyboard-response","209","781331","0.0-11.0-2.0-0.10","4007","2","13","Male","approach_avoid_spark_v1","""event"",""trial"",""time""
""fullscreenenter"",""1"",""3898""
","
","
","""event"",""trial"",""time""
""fullscreenenter"",""1"",""3898""
","
","","","","","","null","<div style=""font-size:60px;"">+</div>","null","","fixation","","","","","","","","","","",""
"aa-learning-trial","210","784337","0.0-11.0-2.0-1.10","4007","2","13","Male","approach_avoid_spark_v1","""event"",""trial"",""time""
""fullscreenenter"",""1"",""3898""
","
","
","""event"",""trial"",""time""
""fullscreenenter"",""1"",""3898""
","
","","","","","","864.8999999985099","images/chair7.png","","","learning","-4","-4","1","1","chair","furniture","1","1","","bad","[-5]"
"html-keyboard-response","211","784842","0.0-11.0-2.0-0.11","4007","2","13","Male","approach_avoid_spark_v1","""event"",""trial"",""time""
""fullscreenenter"",""1"",""3898""
","
","
","""event"",""trial"",""time""
""fullscreenenter"",""1"",""3898""
","
","","","","","","null","<div style=""font-size:60px;"">+</div>","null","","fixation","","","","","","","","","","",""
"aa-learning-trial","212","787850","0.0-11.0-2.0-1.11","4007","2","13","Male","approach_avoid_spark_v1","""event"",""trial"",""time""
""fullscreenenter"",""1"",""3898""
","
","
","""event"",""trial"",""time""
""fullscreenenter"",""1"",""3898""
","
","","","","","","1199.0999999940395","images/bed4.png","","","learning","[-1]","0","0","0","bed","furniture","1","1","","neutral","0"
"html-keyboard-response","213","788354","0.0-11.0-2.0-0.12","4007","2","13","Male","approach_avoid_spark_v1","""event"",""trial"",""time""
""fullscreenenter"",""1"",""3898""
","
","
","""event"",""trial"",""time""
""fullscreenenter"",""1"",""3898""
","
","","","","","","null","<div style=""font-size:60px;"">+</div>","null","","fixation","","","","","","","","","","",""
"aa-learning-trial","214","791361","0.0-11.0-2.0-1.12","4007","2","13","Male","approach_avoid_spark_v1","""event"",""trial"",""time""
""fullscreenenter"",""1"",""3898""
","
","
","""event"",""trial"",""time""
""fullscreenenter"",""1"",""3898""
","
","","","","","","1324.3999999985099","images/bed8.png","","","learning","1","0","0","0","bed","furniture","1","1","","neutral","0"
"html-keyboard-response","215","791866","0.0-11.0-2.0-0.13","4007","2","13","Male","approach_avoid_spark_v1","""event"",""trial"",""time""
""fullscreenenter"",""1"",""3898""
","
","
","""event"",""trial"",""time""
""fullscreenenter"",""1"",""3898""
","
","","","","","","null","<div style=""font-size:60px;"">+</div>","null","","fixation","","","","","","","","","","",""
"aa-learning-trial","216","794873","0.0-11.0-2.0-1.13","4007","2","13","Male","approach_avoid_spark_v1","""event"",""trial"",""time""
""fullscreenenter"",""1"",""3898""
","
","
","""event"",""trial"",""time""
""fullscreenenter"",""1"",""3898""
","
","","","","","","696.8000000044703","images/sofa2.png","","","learning","2","2","1","1","sofa","furniture","1","1","","good","[5]"
"html-keyboard-response","217","795378","0.0-11.0-2.0-0.14","4007","2","13","Male","approach_avoid_spark_v1","""event"",""trial"",""time""
""fullscreenenter"",""1"",""3898""
","
","
","""event"",""trial"",""time""
""fullscreenenter"",""1"",""3898""
","
","","","","","","null","<div style=""font-size:60px;"">+</div>","null","","fixation","","","","","","","","","","",""
"aa-learning-trial","218","798385","0.0-11.0-2.0-1.14","4007","2","13","Male","approach_avoid_spark_v1","""event"",""trial"",""time""
""fullscreenenter"",""1"",""3898""
","
","
","""event"",""trial"",""time""
""fullscreenenter"",""1"",""3898""
","
","","","","","","1372.5","images/sofa5.png","","","learning","5","5","1","1","sofa","furniture","1","1","","good","[5]"
"html-keyboard-response","219","798887","0.0-11.0-2.0-0.15","4007","2","13","Male","approach_avoid_spark_v1","""event"",""trial"",""time""
""fullscreenenter"",""1"",""3898""
","
","
","""event"",""trial"",""time""
""fullscreenenter"",""1"",""3898""
","
","","","","","","null","<div style=""font-size:60px;"">+</div>","null","","fixation","","","","","","","","","","",""
"aa-learning-trial","220","801892","0.0-11.0-2.0-1.15","4007","2","13","Male","approach_avoid_spark_v1","""event"",""trial"",""time""
""fullscreenenter"",""1"",""3898""
","
","
","""event"",""trial"",""time""
""fullscreenenter"",""1"",""3898""
","
","","","","","","907.2999999970198","images/sofa5.png","","","learning","7","7","1","1","sofa","furniture","1","1","","good","[5]"
"html-keyboard-response","221","802396","0.0-11.0-2.0-0.16","4007","2","13","Male","approach_avoid_spark_v1","""event"",""trial"",""time""
""fullscreenenter"",""1"",""3898""
","
","
","""event"",""trial"",""time""
""fullscreenenter"",""1"",""3898""
","
","","","","","","null","<div style=""font-size:60px;"">+</div>","null","","fixation","","","","","","","","","","",""
"aa-learning-trial","222","805399","0.0-11.0-2.0-1.16","4007","2","13","Male","approach_avoid_spark_v1","""event"",""trial"",""time""
""fullscreenenter"",""1"",""3898""
","
","
","""event"",""trial"",""time""
""fullscreenenter"",""1"",""3898""
","
","","","","","","852.5999999940395","images/bed2.png","","","learning","-1","0","0","0","bed","furniture","1","1","","neutral","0"
"html-keyboard-response","223","805902","0.0-11.0-2.0-0.17","4007","2","13","Male","approach_avoid_spark_v1","""event"",""trial"",""time""
""fullscreenenter"",""1"",""3898""
","
","
","""event"",""trial"",""time""
""fullscreenenter"",""1"",""3898""
","
","","","","","","null","<div style=""font-size:60px;"">+</div>","null","","fixation","","","","","","","","","","",""
"aa-learning-trial","224","808909","0.0-11.0-2.0-1.17","4007","2","13","Male","approach_avoid_spark_v1","""event"",""trial"",""time""
""fullscreenenter"",""1"",""3898""
","
","
","""event"",""trial"",""time""
""fullscreenenter"",""1"",""3898""
","
","","","","","","1161.5","images/chair7.png","","","learning","-5","0","0","0","chair","furniture","1","1","","bad","[-5]"
"html-keyboard-response","225","809414","0.0-11.0-2.0-0.18","4007","2","13","Male","approach_avoid_spark_v1","""event"",""trial"",""time""
""fullscreenenter"",""1"",""3898""
","
","
","""event"",""trial"",""time""
""fullscreenenter"",""1"",""3898""
","
","","","","","","null","<div style=""font-size:60px;"">+</div>","null","","fixation","","","","","","","","","","",""
"aa-learning-trial","226","812421","0.0-11.0-2.0-1.18","4007","2","13","Male","approach_avoid_spark_v1","""event"",""trial"",""time""
""fullscreenenter"",""1"",""3898""
","
","
","""event"",""trial"",""time""
""fullscreenenter"",""1"",""3898""
","
","","","","","","1032.4000000059605","images/sofa5.png","","","learning","3","3","1","1","sofa","furniture","1","1","","good","[5]"
"html-keyboard-response","227","812927","0.0-11.0-2.0-0.19","4007","2","13","Male","approach_avoid_spark_v1","""event"",""trial"",""time""
""fullscreenenter"",""1"",""3898""
","
","
","""event"",""trial"",""time""
""fullscreenenter"",""1"",""3898""
","
","","","","","","null","<div style=""font-size:60px;"">+</div>","null","","fixation","","","","","","","","","","",""
"aa-learning-trial","228","815933","0.0-11.0-2.0-1.19","4007","2","13","Male","approach_avoid_spark_v1","""event"",""trial"",""time""
""fullscreenenter"",""1"",""3898""
","
","
","""event"",""trial"",""time""
""fullscreenenter"",""1"",""3898""
","
","","","","","","800.3000000044703","images/chair2.png","","","learning","-5","0","0","0","chair","furniture","1","1","","bad","[-5]"
"html-keyboard-response","229","816437","0.0-11.0-2.0-0.20","4007","2","13","Male","approach_avoid_spark_v1","""event"",""trial"",""time""
""fullscreenenter"",""1"",""3898""
","
","
","""event"",""trial"",""time""
""fullscreenenter"",""1"",""3898""
","
","","","","","","null","<div style=""font-size:60px;"">+</div>","null","","fixation","","","","","","","","","","",""
"aa-learning-trial","230","819444","0.0-11.0-2.0-1.20","4007","2","13","Male","approach_avoid_spark_v1","""event"",""trial"",""time""
""fullscreenenter"",""1"",""3898""
","
","
","""event"",""trial"",""time""
""fullscreenenter"",""1"",""3898""
","
","","","","","","1024.7999999970198","images/sofa2.png","","","learning","5","0","0","0","sofa","furniture","1","1","","good","[5]"
"html-keyboard-response","231","819947","0.0-11.0-2.0-0.21","4007","2","13","Male","approach_avoid_spark_v1","""event"",""trial"",""time""
""fullscreenenter"",""1"",""3898""
","
","
","""event"",""trial"",""time""
""fullscreenenter"",""1"",""3898""
","
","","","","","","null","<div style=""font-size:60px;"">+</div>","null","","fixation","","","","","","","","","","",""
"aa-learning-trial","232","822950","0.0-11.0-2.0-1.21","4007","2","13","Male","approach_avoid_spark_v1","""event"",""trial"",""time""
""fullscreenenter"",""1"",""3898""
","
","
","""event"",""trial"",""time""
""fullscreenenter"",""1"",""3898""
","
","","","","","","1459.7999999970198","images/chair3.png","","","learning","-4","0","0","0","chair","furniture","1","1","","bad","[-5]"
"html-keyboard-response","233","823455","0.0-11.0-2.0-0.22","4007","2","13","Male","approach_avoid_spark_v1","""event"",""trial"",""time""
""fullscreenenter"",""1"",""3898""
","
","
","""event"",""trial"",""time""
""fullscreenenter"",""1"",""3898""
","
","","","","","","null","<div style=""font-size:60px;"">+</div>","null","","fixation","","","","","","","","","","",""
"aa-learning-trial","234","826462","0.0-11.0-2.0-1.22","4007","2","13","Male","approach_avoid_spark_v1","""event"",""trial"",""time""
""fullscreenenter"",""1"",""3898""
","
","
","""event"",""trial"",""time""
""fullscreenenter"",""1"",""3898""
","
","","","","","","879.6000000014901","images/bed7.png","","","learning","-1","-1","1","1","bed","furniture","1","1","","neutral","0"
"html-keyboard-response","235","826967","0.0-11.0-2.0-0.23","4007","2","13","Male","approach_avoid_spark_v1","""event"",""trial"",""time""
""fullscreenenter"",""1"",""3898""
","
","
","""event"",""trial"",""time""
""fullscreenenter"",""1"",""3898""
","
","","","","","","null","<div style=""font-size:60px;"">+</div>","null","","fixation","","","","","","","","","","",""
"aa-learning-trial","236","829974","0.0-11.0-2.0-1.23","4007","2","13","Male","approach_avoid_spark_v1","""event"",""trial"",""time""
""fullscreenenter"",""1"",""3898""
","
","
","""event"",""trial"",""time""
""fullscreenenter"",""1"",""3898""
","
","","","","","","766.6000000014901","images/sofa8.png","","","learning","8","8","1","1","sofa","furniture","1","1","","good","[5]"
"html-keyboard-response","237","830479","0.0-11.0-2.0-0.24","4007","2","13","Male","approach_avoid_spark_v1","""event"",""trial"",""time""
""fullscreenenter"",""1"",""3898""
","
","
","""event"",""trial"",""time""
""fullscreenenter"",""1"",""3898""
","
","","","","","","null","<div style=""font-size:60px;"">+</div>","null","","fixation","","","","","","","","","","",""
