"trial_type","trial_index","time_elapsed","internal_node_id","subject_id","task_condition","age","gender","task_version","interactions","blur_events","focus_events","fullscreenenter_events","fullscreenexit_events","success","timeout","failed_images","failed_audio","failed_video","rt","stimulus","response","button_pressed","task_part","approach_reward","points","key_press","option_selected","stim_cat","task_block","block_condition","block_number","correct","cat_type","mean_cat_reward"
"pavlovia","0","10","0.0-0.0","7198","1","8","Female","approach_avoid_spark_v1","""event"",""trial"",""time""
""fullscreenenter"",""1"",""4977""
","
","
","""event"",""trial"",""time""
""fullscreenenter"",""1"",""4977""
","
","","","","","","","","","","","","","","","","","","","","",""
"fullscreen","1","5971","0.0-1.0","7198","1","8","Female","approach_avoid_spark_v1","""event"",""trial"",""time""
""fullscreenenter"",""1"",""4977""
","
","
","""event"",""trial"",""time""
""fullscreenenter"",""1"",""4977""
","
","true","","","","","","","","","","","","","","","","","","","",""
"preload","2","17741","0.0-2.0","7198","1","8","Female","approach_avoid_spark_v1","""event"",""trial"",""time""
""fullscreenenter"",""1"",""4977""
","
","
","""event"",""trial"",""time""
""fullscreenenter"",""1"",""4977""
","
","true","false","[]","[]","[]","","","","","","","","","","","","","","","",""
"audio-keyboard-response","3","24817","0.0-3.0","7198","1","8","Female","approach_avoid_spark_v1","""event"",""trial"",""time""
""fullscreenenter"",""1"",""4977""
","
","
","""event"",""trial"",""time""
""fullscreenenter"",""1"",""4977""
","
","","","","","","7071.999999999999","audio/beep_loop.wav"," ","","","","","","","","","","","","",""
"audio-button-response","4","28343","0.0-4.0","7198","1","8","Female","approach_avoid_spark_v1","""event"",""trial"",""time""
""fullscreenenter"",""1"",""4977""
","
","
","""event"",""trial"",""time""
""fullscreenenter"",""1"",""4977""
","
","","","","","","3509","audio/shark.wav","4","","","","","","","","","","","","",""
"audio-button-response","5","31463","0.0-5.0","7198","1","8","Female","approach_avoid_spark_v1","""event"",""trial"",""time""
""fullscreenenter"",""1"",""4977""
","
","
","""event"",""trial"",""time""
""fullscreenenter"",""1"",""4977""
","
","","","","","","2101","audio/turtle.wav","1","","","","","","","","","","","","",""
"preload","6","37343","0.0-6.0","7198","1","8","Female","approach_avoid_spark_v1","""event"",""trial"",""time""
""fullscreenenter"",""1"",""4977""
","
","
","""event"",""trial"",""time""
""fullscreenenter"",""1"",""4977""
","
","true","false","[]","[]","[]","","","","","","","","","","","","","","","",""
"html-keyboard-response","7","44387","0.0-7.0","7198","1","8","Female","approach_avoid_spark_v1","""event"",""trial"",""time""
""fullscreenenter"",""1"",""4977""
","
","
","""event"",""trial"",""time""
""fullscreenenter"",""1"",""4977""
","
","","","","","","7036.799999999814","Welcome to the experiment. Press any key to begin and to advance the instructions.","o","","","","","","","","","","","","",""
"learning-instructions","8","53233","0.0-8.0-0.0-0.0","7198","1","8","Female","approach_avoid_spark_v1","""event"",""trial"",""time""
""fullscreenenter"",""1"",""4977""
","
","
","""event"",""trial"",""time""
""fullscreenenter"",""1"",""4977""
","
","","","","","","1885.5","<p> Welcome! Today you are going to play 6 different rounds of a decision-making game. </p><p> Use the mouse to click next to continue. </p>","","0","instructions","","","","","","","","","","",""
"learning-instructions","9","59194","0.0-8.0-0.0-0.1","7198","1","8","Female","approach_avoid_spark_v1","""event"",""trial"",""time""
""fullscreenenter"",""1"",""4977""
","
","
","""event"",""trial"",""time""
""fullscreenenter"",""1"",""4977""
","
","","","","","","3232","<p> You will start with a practice round to learn the rules. </p>","","0","instructions","","","","","","","","","","",""
"learning-instructions","10","63947","0.0-8.0-0.0-0.2","7198","1","8","Female","approach_avoid_spark_v1","""event"",""trial"",""time""
""fullscreenenter"",""1"",""4977""
","
","
","""event"",""trial"",""time""
""fullscreenenter"",""1"",""4977""
","
","","","","","","1294.6999999997206","<p> Your goal in this round is to give out sports equipment to kids. </p></div>","","0","instructions","","","","","","","","","","",""
"learning-instructions","11","73114","0.0-8.0-0.0-0.3","7198","1","8","Female","approach_avoid_spark_v1","""event"",""trial"",""time""
""fullscreenenter"",""1"",""4977""
","
","
","""event"",""trial"",""time""
""fullscreenenter"",""1"",""4977""
","
","","","","","","1610.8999999999069","<p> The kids only like some of the equipment.  </p><p> On each turn, you will see a piece of sports equipment.   </p><p> You need to decide whether to give it to the kids or not.  </p>","","0","instructions","","","","","","","","","","",""
"learning-instructions","12","80651","0.0-8.0-0.0-0.4","7198","1","8","Female","approach_avoid_spark_v1","""event"",""trial"",""time""
""fullscreenenter"",""1"",""4977""
","
","
","""event"",""trial"",""time""
""fullscreenenter"",""1"",""4977""
","
","","","","","","2776.8000000002794","<p> You can give them the equipment by pressing 1 and choose not to give it to them by pressing 0. </p><br><div class=""choice-instructions-grid""> <div class=""choice-option""><img src=""images/approach.png"" class=""choice-option-img"" stage=""instructions"" position=""0"" ><div class=""choice-option-text""> Press ""1."" </div></div><div class=""choice-option""><img src=""images/avoid.png"" class=""choice-option-img"" stage=""instructions"" position=""1"" ><div class=""choice-option-text""> Press ""0."" </div></div>","","0","instructions","","","","","","","","","","",""
"learning-instructions","13","89552","0.0-8.0-0.0-0.5","7198","1","8","Female","approach_avoid_spark_v1","""event"",""trial"",""time""
""fullscreenenter"",""1"",""4977""
","
","
","""event"",""trial"",""time""
""fullscreenenter"",""1"",""4977""
","
","","","","","","1502.1000000000931","<p> If you give them a piece of equipment they like, they will be happy! </p><p> But if you give them a piece of equipment they do not like, they will be sad. </p>","","0","instructions","","","","","","","","","","",""
"learning-instructions","14","101375","0.0-8.0-0.0-0.6","7198","1","8","Female","approach_avoid_spark_v1","""event"",""trial"",""time""
""fullscreenenter"",""1"",""4977""
","
","
","""event"",""trial"",""time""
""fullscreenenter"",""1"",""4977""
","
","","","","","","1304.1999999997206","<p> You will earn points based on how you make kids feel. </p><p> If you make them happy, you will WIN anywhere from 1 - 9 points, </p><p> but if you make them sad, you will LOSE anywhere from 1 - 9 points. </p>","","0","instructions","","","","","","","","","","",""
"learning-instructions","15","112079","0.0-8.0-0.0-0.7","7198","1","8","Female","approach_avoid_spark_v1","""event"",""trial"",""time""
""fullscreenenter"",""1"",""4977""
","
","
","""event"",""trial"",""time""
""fullscreenenter"",""1"",""4977""
","
","","","","","","1134.2000000001863","<p> You will see how many points you won or lost in the center of the screen. </p><p> Here is what you would see if you won 6 points: </p><p style=""color:green;font-size:50px;font-weight:bolder"">6</p><p style=""color:green"">The text is GREEN because you WON points.</p>","","0","instructions","","","","","","","","","","",""
"learning-instructions","16","118455","0.0-8.0-0.0-0.8","7198","1","8","Female","approach_avoid_spark_v1","""event"",""trial"",""time""
""fullscreenenter"",""1"",""4977""
","
","
","""event"",""trial"",""time""
""fullscreenenter"",""1"",""4977""
","
","","","","","","860","<p> And here is what you would see if you lost 4 points: </p><p style=""color:red;font-size:50px;font-weight:bolder"">-4</p><p style=""color:red"">The text is RED because you LOST points. </p>","","0","instructions","","","","","","","","","","",""
"learning-instructions","17","135295","0.0-8.0-0.0-0.9","7198","1","8","Female","approach_avoid_spark_v1","""event"",""trial"",""time""
""fullscreenenter"",""1"",""4977""
","
","
","""event"",""trial"",""time""
""fullscreenenter"",""1"",""4977""
","
","","","","","","2113.7000000001863","<p> Some of the equipment will make the kids VERY happy or sad. </p><p> These pieces of equipment will make you win or lose LOTS of points. </p><p> Other pieces of equipment will only make the kids a little happy or sad. </p><p> These pieces of equipment will make you win or lose small amounts of points. </p>","","0","instructions","","","","","","","","","","",""
"learning-instructions","18","147251","0.0-8.0-0.0-0.10","7198","1","8","Female","approach_avoid_spark_v1","""event"",""trial"",""time""
""fullscreenenter"",""1"",""4977""
","
","
","""event"",""trial"",""time""
""fullscreenenter"",""1"",""4977""
","
","","","","","","1315.5","<p> If you choose not to give them the equipment, you will not win or lose any points. </p><p>  However, in the center of the screen, you will see the number of points you WOULD HAVE won or lost if you had given them the equipment. </p>","","0","instructions","","","","","","","","","","",""
"learning-instructions","19","169727","0.0-8.0-0.0-0.11","7198","1","8","Female","approach_avoid_spark_v1","""event"",""trial"",""time""
""fullscreenenter"",""1"",""4977""
","
","
","""event"",""trial"",""time""
""fullscreenenter"",""1"",""4977""
","
","","","","","","943.1999999997206","<p> Here is what you might see if you did not give the equipment to the kids but it would have made them happy: </p><p style=""color:grey; font-size:50px; display: inline-block; border-spacing: 15px; border-width:3px; border-style:solid; border-color:red"">  &nbsp; 7 &nbsp; </p><p> Remember, in this case, you would not win or lose ANY points because you did not give them the equipment.  </p><p style=""color:grey"">The text is GREY because you earned ZERO points. </p><p style=""color:red"">However, choosing to give the kids the equipment would have made you win points. The box around the text is RED because you chose the worse option. </p>","","0","instructions","","","","","","","","","","",""
"learning-instructions","20","193069","0.0-8.0-0.0-0.12","7198","1","8","Female","approach_avoid_spark_v1","""event"",""trial"",""time""
""fullscreenenter"",""1"",""4977""
","
","
","""event"",""trial"",""time""
""fullscreenenter"",""1"",""4977""
","
","","","","","","2258.7000000001863","<p> Here is what you might see if you did not give the equipment to the kids but it would have made them sad: </p><p style=""color:grey;font-size:50px; display: inline-block; border-spacing: 15px; border-width:3px; border-style:solid; border-color:green"">  &nbsp; -8 &nbsp; </p><p> Remember, in this case, you would not win or lose ANY points because you did not give them the equipment.  </p><p style=""color:grey"">The text is GREY because you earned ZERO points. </p><p  style=""color:green""> Choosing to give the kids the equipment would have made you lose points. The box around the text is GREEN because you chose the better option.</p>","","0","instructions","","","","","","","","","","",""
"learning-instructions","21","205199","0.0-8.0-0.0-0.13","7198","1","8","Female","approach_avoid_spark_v1","""event"",""trial"",""time""
""fullscreenenter"",""1"",""4977""
","
","
","""event"",""trial"",""time""
""fullscreenenter"",""1"",""4977""
","
","","","","","","1856.4000000003725","<p> You will have 3 seconds to make each choice. Try to respond before time runs out! </p><p> You will lose 5 points each time you do not make a response. </p>","","0","instructions","","","","","","","","","","",""
"learning-instructions","22","213099","0.0-8.0-0.0-0.14","7198","1","8","Female","approach_avoid_spark_v1","""event"",""trial"",""time""
""fullscreenenter"",""1"",""4977""
","
","
","""event"",""trial"",""time""
""fullscreenenter"",""1"",""4977""
","
","","","","","","2479.899999999907","<p> This is just a practice round, but in the real game, your bonus payment will depend on your total number of points.","","0","instructions","","","","","","","","","","",""
"learning-instructions","23","220700","0.0-8.0-0.0-0.15","7198","1","8","Female","approach_avoid_spark_v1","""event"",""trial"",""time""
""fullscreenenter"",""1"",""4977""
","
","
","""event"",""trial"",""time""
""fullscreenenter"",""1"",""4977""
","
","","","","","","1822.3000000002794","<p> Remember, you can give them the equipment by pressing 1 and choose not to give it to them by pressing 0. </p><br><div class=""choice-instructions-grid""> <div class=""choice-option""><img src=""images/approach.png"" class=""choice-option-img"" stage=""instructions"" position=""0"" ><div class=""choice-option-text""> Press ""1."" </div></div><div class=""choice-option""><img src=""images/avoid.png"" class=""choice-option-img"" stage=""instructions"" position=""1"" ><div class=""choice-option-text""> Press ""0."" </div></div>","","0","instructions","","","","","","","","","","",""
"html-button-response","24","222464","0.0-8.0-1.0","7198","1","8","Female","approach_avoid_spark_v1","""event"",""trial"",""time""
""fullscreenenter"",""1"",""4977""
","
","
","""event"",""trial"",""time""
""fullscreenenter"",""1"",""4977""
","
","","","","","","1655","<p> Ready to practice? </p>","0","","","","","","","","","","","","",""
"html-keyboard-response","25","223083","0.0-8.0-2.0-0.0","7198","1","8","Female","approach_avoid_spark_v1","""event"",""trial"",""time""
""fullscreenenter"",""1"",""4977""
","
","
","""event"",""trial"",""time""
""fullscreenenter"",""1"",""4977""
","
","","","","","","null","<div style=""font-size:60px;"">+</div>","null","","fixation","","","","","","","","","","",""
"aa-learning-trial","26","226100","0.0-8.0-2.0-1.0","7198","1","8","Female","approach_avoid_spark_v1","""event"",""trial"",""time""
""fullscreenenter"",""1"",""4977""
","
","
","""event"",""trial"",""time""
""fullscreenenter"",""1"",""4977""
","
","","","","","","null","images/racket3.png","","","learning","-3","-5","","null","practice","practice","practice","-1","","",""
"html-keyboard-response","27","226603","0.0-8.0-2.0-0.1","7198","1","8","Female","approach_avoid_spark_v1","""event"",""trial"",""time""
""fullscreenenter"",""1"",""4977""
","
","
","""event"",""trial"",""time""
""fullscreenenter"",""1"",""4977""
","
","","","","","","null","<div style=""font-size:60px;"">+</div>","null","","fixation","","","","","","","","","","",""
"aa-learning-trial","28","229620","0.0-8.0-2.0-1.1","7198","1","8","Female","approach_avoid_spark_v1","""event"",""trial"",""time""
""fullscreenenter"",""1"",""4977""
","
","
","""event"",""trial"",""time""
""fullscreenenter"",""1"",""4977""
","
","","","","","","null","images/racket1.png","","","learning","-4","-5","","null","practice","practice","practice","-1","","",""
"html-keyboard-response","29","230131","0.0-8.0-2.0-0.2","7198","1","8","Female","approach_avoid_spark_v1","""event"",""trial"",""time""
""fullscreenenter"",""1"",""4977""
","
","
","""event"",""trial"",""time""
""fullscreenenter"",""1"",""4977""
","
","","","","","","null","<div style=""font-size:60px;"">+</div>","null","","fixation","","","","","","","","","","",""
"aa-learning-trial","30","233148","0.0-8.0-2.0-1.2","7198","1","8","Female","approach_avoid_spark_v1","""event"",""trial"",""time""
""fullscreenenter"",""1"",""4977""
","
","
","""event"",""trial"",""time""
""fullscreenenter"",""1"",""4977""
","
","","","","","","1208.1000000000931","images/ball3.png","","","learning","-9","-9","1","1","practice","practice","practice","-1","","",""
"html-keyboard-response","31","233668","0.0-8.0-2.0-0.3","7198","1","8","Female","approach_avoid_spark_v1","""event"",""trial"",""time""
""fullscreenenter"",""1"",""4977""
","
","
","""event"",""trial"",""time""
""fullscreenenter"",""1"",""4977""
","
","","","","","","null","<div style=""font-size:60px;"">+</div>","null","","fixation","","","","","","","","","","",""
"aa-learning-trial","32","236683","0.0-8.0-2.0-1.3","7198","1","8","Female","approach_avoid_spark_v1","""event"",""trial"",""time""
""fullscreenenter"",""1"",""4977""
","
","
","""event"",""trial"",""time""
""fullscreenenter"",""1"",""4977""
","
","","","","","","2575.3000000002794","images/ball2.png","","","learning","4","4","1","1","practice","practice","practice","-1","","",""
"html-keyboard-response","33","237187","0.0-8.0-2.0-0.4","7198","1","8","Female","approach_avoid_spark_v1","""event"",""trial"",""time""
""fullscreenenter"",""1"",""4977""
","
","
","""event"",""trial"",""time""
""fullscreenenter"",""1"",""4977""
","
","","","","","","null","<div style=""font-size:60px;"">+</div>","null","","fixation","","","","","","","","","","",""
"aa-learning-trial","34","240203","0.0-8.0-2.0-1.4","7198","1","8","Female","approach_avoid_spark_v1","""event"",""trial"",""time""
""fullscreenenter"",""1"",""4977""
","
","
","""event"",""trial"",""time""
""fullscreenenter"",""1"",""4977""
","
","","","","","","null","images/racket2.png","","","learning","-2","-5","","null","practice","practice","practice","-1","","",""
"html-keyboard-response","35","240707","0.0-8.0-2.0-0.5","7198","1","8","Female","approach_avoid_spark_v1","""event"",""trial"",""time""
""fullscreenenter"",""1"",""4977""
","
","
","""event"",""trial"",""time""
""fullscreenenter"",""1"",""4977""
","
","","","","","","null","<div style=""font-size:60px;"">+</div>","null","","fixation","","","","","","","","","","",""
"aa-learning-trial","36","243723","0.0-8.0-2.0-1.5","7198","1","8","Female","approach_avoid_spark_v1","""event"",""trial"",""time""
""fullscreenenter"",""1"",""4977""
","
","
","""event"",""trial"",""time""
""fullscreenenter"",""1"",""4977""
","
","","","","","","2836.2000000001863","images/ball2.png","","","learning","3","3","1","1","practice","practice","practice","-1","","",""
"html-keyboard-response","37","244227","0.0-8.0-2.0-0.6","7198","1","8","Female","approach_avoid_spark_v1","""event"",""trial"",""time""
""fullscreenenter"",""1"",""4977""
","
","
","""event"",""trial"",""time""
""fullscreenenter"",""1"",""4977""
","
","","","","","","null","<div style=""font-size:60px;"">+</div>","null","","fixation","","","","","","","","","","",""
"aa-learning-trial","38","247244","0.0-8.0-2.0-1.6","7198","1","8","Female","approach_avoid_spark_v1","""event"",""trial"",""time""
""fullscreenenter"",""1"",""4977""
","
","
","""event"",""trial"",""time""
""fullscreenenter"",""1"",""4977""
","
","","","","","","null","images/racket1.png","","","learning","-4","-5","","null","practice","practice","practice","-1","","",""
"html-keyboard-response","39","247755","0.0-8.0-2.0-0.7","7198","1","8","Female","approach_avoid_spark_v1","""event"",""trial"",""time""
""fullscreenenter"",""1"",""4977""
","
","
","""event"",""trial"",""time""
""fullscreenenter"",""1"",""4977""
","
","","","","","","null","<div style=""font-size:60px;"">+</div>","null","","fixation","","","","","","","","","","",""
"aa-learning-trial","40","250772","0.0-8.0-2.0-1.7","7198","1","8","Female","approach_avoid_spark_v1","""event"",""trial"",""time""
""fullscreenenter"",""1"",""4977""
","
","
","""event"",""trial"",""time""
""fullscreenenter"",""1"",""4977""
","
","","","","","","1312.7999999998137","images/racket2.png","","","learning","-5","0","0","0","practice","practice","practice","-1","","",""
"html-keyboard-response","41","251283","0.0-8.0-2.0-0.8","7198","1","8","Female","approach_avoid_spark_v1","""event"",""trial"",""time""
""fullscreenenter"",""1"",""4977""
","
","
","""event"",""trial"",""time""
""fullscreenenter"",""1"",""4977""
","
","","","","","","null","<div style=""font-size:60px;"">+</div>","null","","fixation","","","","","","","","","","",""
"aa-learning-trial","42","254299","0.0-8.0-2.0-1.8","7198","1","8","Female","approach_avoid_spark_v1","""event"",""trial"",""time""
""fullscreenenter"",""1"",""4977""
","
","
","""event"",""trial"",""time""
""fullscreenenter"",""1"",""4977""
","
","","","","","","2944","images/ball3.png","","","learning","-6","-6","1","1","practice","practice","practice","-1","","",""
"html-keyboard-response","43","254803","0.0-8.0-2.0-0.9","7198","1","8","Female","approach_avoid_spark_v1","""event"",""trial"",""time""
""fullscreenenter"",""1"",""4977""
","
","
","""event"",""trial"",""time""
""fullscreenenter"",""1"",""4977""
","
","","","","","","null","<div style=""font-size:60px;"">+</div>","null","","fixation","","","","","","","","","","",""
"aa-learning-trial","44","257820","0.0-8.0-2.0-1.9","7198","1","8","Female","approach_avoid_spark_v1","""event"",""trial"",""time""
""fullscreenenter"",""1"",""4977""
","
","
","""event"",""trial"",""time""
""fullscreenenter"",""1"",""4977""
","
","","","","","","null","images/racket1.png","","","learning","1","-5","","null","practice","practice","practice","-1","","",""
"html-keyboard-response","45","258331","0.0-8.0-2.0-0.10","7198","1","8","Female","approach_avoid_spark_v1","""event"",""trial"",""time""
""fullscreenenter"",""1"",""4977""
","
","
","""event"",""trial"",""time""
""fullscreenenter"",""1"",""4977""
","
","","","","","","null","<div style=""font-size:60px;"">+</div>","null","","fixation","","","","","","","","","","",""
"aa-learning-trial","46","261348","0.0-8.0-2.0-1.10","7198","1","8","Female","approach_avoid_spark_v1","""event"",""trial"",""time""
""fullscreenenter"",""1"",""4977""
","
","
","""event"",""trial"",""time""
""fullscreenenter"",""1"",""4977""
","
","","","","","","1382.8999999999069","images/ball3.png","","","learning","-5","0","0","0","practice","practice","practice","-1","","",""
"html-keyboard-response","47","261859","0.0-8.0-2.0-0.11","7198","1","8","Female","approach_avoid_spark_v1","""event"",""trial"",""time""
""fullscreenenter"",""1"",""4977""
","
","
","""event"",""trial"",""time""
""fullscreenenter"",""1"",""4977""
","
","","","","","","null","<div style=""font-size:60px;"">+</div>","null","","fixation","","","","","","","","","","",""
"aa-learning-trial","48","264876","0.0-8.0-2.0-1.11","7198","1","8","Female","approach_avoid_spark_v1","""event"",""trial"",""time""
""fullscreenenter"",""1"",""4977""
","
","
","""event"",""trial"",""time""
""fullscreenenter"",""1"",""4977""
","
","","","","","","null","images/ball4.png","","","learning","7","-5","","null","practice","practice","practice","-1","","",""
"html-button-response","49","270689","0.0-8.0-3.0","7198","1","8","Female","approach_avoid_spark_v1","""event"",""trial"",""time""
""fullscreenenter"",""1"",""4977""
","
","
","""event"",""trial"",""time""
""fullscreenenter"",""1"",""4977""
","
","","","","","","5803.600000000093","<p> You earned -38 points in the practice round! </p>","0","","break","","","","","","","","","","",""
"learning-instructions","50","279605","0.0-8.0-4.0-0.0","7198","1","8","Female","approach_avoid_spark_v1","""event"",""trial"",""time""
""fullscreenenter"",""1"",""4977""
","
","
","""event"",""trial"",""time""
""fullscreenenter"",""1"",""4977""
","
","","","","","","2933.2999999998137","<p> It's almost time to start the real game. </p><p> Before you start, we're going to ask you a few questions about how the game works. </p>","","0","instructions","","","","","","","","","","",""
"preload","51","281285","0.0-8.0-5.0","7198","1","8","Female","approach_avoid_spark_v1","""event"",""trial"",""time""
""fullscreenenter"",""1"",""4977""
","
","
","""event"",""trial"",""time""
""fullscreenenter"",""1"",""4977""
","
","true","false","[]","[]","[]","","","","","","","","","","","","","","","",""
"comp-q","52","289692","0.0-8.0-6.0-0.0","7198","1","8","Female","approach_avoid_spark_v1","""event"",""trial"",""time""
""fullscreenenter"",""1"",""4977""
","
","
","""event"",""trial"",""time""
""fullscreenenter"",""1"",""4977""
","
","","","","","","3398.1999999997206","<p> <b> True or False? </b> </p><p> If you see a number in GREY, that means you earned that many points. </p>","","1","comp_question","","","","","","","","","true","",""
"comp-q","53","299661","0.0-8.0-6.0-1.0","7198","1","8","Female","approach_avoid_spark_v1","""event"",""trial"",""time""
""fullscreenenter"",""1"",""4977""
","
","
","""event"",""trial"",""time""
""fullscreenenter"",""1"",""4977""
","
","","","","","","1601.2999999998137","<p><b> That's right! </b> If you see a grey number, it means you earned ZERO points. <br> The grey numbers show the points you WOULD HAVE earned if you had made the other choice. </p>","","0","comp_answer","","","","","","","","","","",""
"comp-q","54","305531","0.0-8.0-7.0-0.0","7198","1","8","Female","approach_avoid_spark_v1","""event"",""trial"",""time""
""fullscreenenter"",""1"",""4977""
","
","
","""event"",""trial"",""time""
""fullscreenenter"",""1"",""4977""
","
","","","","","","1167.7999999998137","<p> <b> True or False? </b> </p><p> You will have as much time as you want to make each choice. </p>","","1","comp_question","","","","","","","","","true","",""
"comp-q","55","311383","0.0-8.0-7.0-1.0","7198","1","8","Female","approach_avoid_spark_v1","""event"",""trial"",""time""
""fullscreenenter"",""1"",""4977""
","
","
","""event"",""trial"",""time""
""fullscreenenter"",""1"",""4977""
","
","","","","","","1816.7000000001863","<p> <b> That's right! </b> You will only have 3 seconds to make each choice. </p>","","0","comp_answer","","","","","","","","","","",""
"comp-q","56","317143","0.0-8.0-8.0-0.0","7198","1","8","Female","approach_avoid_spark_v1","""event"",""trial"",""time""
""fullscreenenter"",""1"",""4977""
","
","
","""event"",""trial"",""time""
""fullscreenenter"",""1"",""4977""
","
","","","","","","1090.0999999996275","<p> <b> True or False? </b> </p><p> You should use the '1' and '0' keys to make your choices. </p>","","0","comp_question","","","","","","","","","true","",""
"comp-q","57","324171","0.0-8.0-8.0-1.0","7198","1","8","Female","approach_avoid_spark_v1","""event"",""trial"",""time""
""fullscreenenter"",""1"",""4977""
","
","
","""event"",""trial"",""time""
""fullscreenenter"",""1"",""4977""
","
","","","","","","2411.7999999998137","<p> <b> That's right! </b> You should use the '1' and '0' keys to make each choice. </p>","","0","comp_answer","","","","","","","","","","",""
"learning-instructions","58","332432","0.0-8.0-9.0-0.0","7198","1","8","Female","approach_avoid_spark_v1","""event"",""trial"",""time""
""fullscreenenter"",""1"",""4977""
","
","
","""event"",""trial"",""time""
""fullscreenenter"",""1"",""4977""
","
","","","","","","1989.9000000003725","<p> It's now time to start the real game. </p>Do your best, because the points you earn in the next rounds will influence your bonus payment. </p>","","0","instructions","","","","","","","","","","",""
"preload","59","332645","0.0-9.0-0.0","7198","1","8","Female","approach_avoid_spark_v1","""event"",""trial"",""time""
""fullscreenenter"",""1"",""4977""
","
","
","""event"",""trial"",""time""
""fullscreenenter"",""1"",""4977""
","
","true","false","[]","[]","[]","","","","","","","","","","","","","","","",""
"learning-instructions","60","339565","0.0-9.0-1.0-0.0","7198","1","8","Female","approach_avoid_spark_v1","""event"",""trial"",""time""
""fullscreenenter"",""1"",""4977""
","
","
","""event"",""trial"",""time""
""fullscreenenter"",""1"",""4977""
","
","","","","","","1433.2999999998137","<p> Your goal in this round is to decorate your friend's new house with furniture. </p></div>","","0","instructions","","","","","","","","","","",""
"learning-instructions","61","351481","0.0-9.0-1.0-0.1","7198","1","8","Female","approach_avoid_spark_v1","""event"",""trial"",""time""
""fullscreenenter"",""1"",""4977""
","
","
","""event"",""trial"",""time""
""fullscreenenter"",""1"",""4977""
","
","","","","","","1849.3000000002794","<p> Your friend likes some pieces of furniture but not others.  </p><p> On each turn, you will see a piece of furniture.   </p><p> You need to decide whether to put it in your friend's house or not.  </p>","","0","instructions","","","","","","","","","","",""
"learning-instructions","62","360104","0.0-9.0-1.0-0.2","7198","1","8","Female","approach_avoid_spark_v1","""event"",""trial"",""time""
""fullscreenenter"",""1"",""4977""
","
","
","""event"",""trial"",""time""
""fullscreenenter"",""1"",""4977""
","
","","","","","","2481.899999999907","<p> You can put the furniture in her house by pressing 1 and deliver it elsewhere by pressing 0. </p><br><div class=""choice-instructions-grid""> <div class=""choice-option""><img src=""images/approach.png"" class=""choice-option-img"" stage=""instructions"" position=""0"" ><div class=""choice-option-text""> Press ""1."" </div></div><div class=""choice-option""><img src=""images/avoid.png"" class=""choice-option-img"" stage=""instructions"" position=""1"" ><div class=""choice-option-text""> Press ""0."" </div></div>","","0","instructions","","","","","","","","","","",""
"learning-instructions","63","370603","0.0-9.0-1.0-0.3","7198","1","8","Female","approach_avoid_spark_v1","""event"",""trial"",""time""
""fullscreenenter"",""1"",""4977""
","
","
","""event"",""trial"",""time""
""fullscreenenter"",""1"",""4977""
","
","","","","","","1195.3999999999069","<p> If you decorate your friend's house with furniture she likes, she will be happy! </p><p> But if you give her furniture that she does not like, she will be annoyed. </p>","","0","instructions","","","","","","","","","","",""
"learning-instructions","64","384620","0.0-9.0-1.0-0.4","7198","1","8","Female","approach_avoid_spark_v1","""event"",""trial"",""time""
""fullscreenenter"",""1"",""4977""
","
","
","""event"",""trial"",""time""
""fullscreenenter"",""1"",""4977""
","
","","","","","","1025.5","<p> You will earn points based on how you made your friend feel. </p><p> If you made her happy, you will WIN anywhere from 1 - 9 points, </p><p> but if you made her annoyed you will LOSE anywhere from 1 - 9 points. </p>","","0","instructions","","","","","","","","","","",""
"learning-instructions","65","395285","0.0-9.0-1.0-0.5","7198","1","8","Female","approach_avoid_spark_v1","""event"",""trial"",""time""
""fullscreenenter"",""1"",""4977""
","
","
","""event"",""trial"",""time""
""fullscreenenter"",""1"",""4977""
","
","","","","","","2144.7000000001863","<p> You will see how many points you won or lost in the center of the screen. </p><p> Here is what you would see if you won 5 points: </p><p style=""color:green;font-size:50px;font-weight:bolder"">5</p>","","0","instructions","","","","","","","","","","",""
"learning-instructions","66","401681","0.0-9.0-1.0-0.6","7198","1","8","Female","approach_avoid_spark_v1","""event"",""trial"",""time""
""fullscreenenter"",""1"",""4977""
","
","
","""event"",""trial"",""time""
""fullscreenenter"",""1"",""4977""
","
","","","","","","2226.100000000093","<p> And here is what you would see if you lost 3 points: </p><p style=""color:red;font-size:50px;font-weight:bolder"">-3</p>","","0","instructions","","","","","","","","","","",""
"learning-instructions","67","422948","0.0-9.0-1.0-0.7","7198","1","8","Female","approach_avoid_spark_v1","""event"",""trial"",""time""
""fullscreenenter"",""1"",""4977""
","
","
","""event"",""trial"",""time""
""fullscreenenter"",""1"",""4977""
","
","","","","","","3023.1999999997206","<p> Some pieces of furniture will make her feel very happy or very annoyed. </p><p> These pieces of furniture will make you win or lose LOTS of points. </p><p> Other pieces of furniture will only make her feel a little happy or a little annoyed. </p><p> These pieces of furniture will make you win or lose small amounts of points. </p>","","0","instructions","","","","","","","","","","",""
"learning-instructions","68","438992","0.0-9.0-1.0-0.8","7198","1","8","Female","approach_avoid_spark_v1","""event"",""trial"",""time""
""fullscreenenter"",""1"",""4977""
","
","
","""event"",""trial"",""time""
""fullscreenenter"",""1"",""4977""
","
","","","","","","2277.1999999997206","<p> If you choose to deliver a piece of furniture elsewhere, you will not win or lose any points. </p><p>  However, in the center of the screen, you will see the number of points you WOULD HAVE won or lost if you had given the furniture to your friend. </p>","","0","instructions","","","","","","","","","","",""
"learning-instructions","69","452787","0.0-9.0-1.0-0.9","7198","1","8","Female","approach_avoid_spark_v1","""event"",""trial"",""time""
""fullscreenenter"",""1"",""4977""
","
","
","""event"",""trial"",""time""
""fullscreenenter"",""1"",""4977""
","
","","","","","","1823.8000000002794","<p> Here is what you might see if you did not give a piece of furniture to your friend that would have made her happy: </p><p style=""color:grey; font-size:50px; display: inline-block; border-spacing: 15px; border-width:3px; border-style:solid; border-color:red"">  &nbsp; 6 &nbsp; </p><p> Remember, in this case, you would not win or lose ANY points because you did not give her the furniture.  </p>","","0","instructions","","","","","","","","","","",""
"learning-instructions","70","462298","0.0-9.0-1.0-0.10","7198","1","8","Female","approach_avoid_spark_v1","""event"",""trial"",""time""
""fullscreenenter"",""1"",""4977""
","
","
","""event"",""trial"",""time""
""fullscreenenter"",""1"",""4977""
","
","","","","","","910.6999999997206","<p> Try to make the best choice for each piece of furniture because </p><p> at the end of the game, you will earn bonus money based on how many points you earned. </p>","","0","instructions","","","","","","","","","","",""
"learning-instructions","71","471475","0.0-9.0-1.0-0.11","7198","1","8","Female","approach_avoid_spark_v1","""event"",""trial"",""time""
""fullscreenenter"",""1"",""4977""
","
","
","""event"",""trial"",""time""
""fullscreenenter"",""1"",""4977""
","
","","","","","","979.2000000001863","<p> You will have 3 seconds to make each choice. Try to respond before time runs out! </p><p> You will lose 5 points each time you do not make a response. </p>","","0","instructions","","","","","","","","","","",""
"html-keyboard-response","72","472091","0.0-9.0-2.0-0.0","7198","1","8","Female","approach_avoid_spark_v1","""event"",""trial"",""time""
""fullscreenenter"",""1"",""4977""
","
","
","""event"",""trial"",""time""
""fullscreenenter"",""1"",""4977""
","
","","","","","","null","<div style=""font-size:60px;"">+</div>","null","","fixation","","","","","","","","","","",""
"aa-learning-trial","73","475107","0.0-9.0-2.0-1.0","7198","1","8","Female","approach_avoid_spark_v1","""event"",""trial"",""time""
""fullscreenenter"",""1"",""4977""
","
","
","""event"",""trial"",""time""
""fullscreenenter"",""1"",""4977""
","
","","","","","","2764.899999999907","images/sofa7.png","","","learning","[1]","1","1","1","sofa","furniture","1","0","","neutral","0"
"html-keyboard-response","74","475611","0.0-9.0-2.0-0.1","7198","1","8","Female","approach_avoid_spark_v1","""event"",""trial"",""time""
""fullscreenenter"",""1"",""4977""
","
","
","""event"",""trial"",""time""
""fullscreenenter"",""1"",""4977""
","
","","","","","","null","<div style=""font-size:60px;"">+</div>","null","","fixation","","","","","","","","","","",""
"aa-learning-trial","75","478627","0.0-9.0-2.0-1.1","7198","1","8","Female","approach_avoid_spark_v1","""event"",""trial"",""time""
""fullscreenenter"",""1"",""4977""
","
","
","""event"",""trial"",""time""
""fullscreenenter"",""1"",""4977""
","
","","","","","","2221.600000000093","images/table8.png","","","learning","-6","0","0","0","table","furniture","1","0","","bad","[-5]"
"html-keyboard-response","76","479131","0.0-9.0-2.0-0.2","7198","1","8","Female","approach_avoid_spark_v1","""event"",""trial"",""time""
""fullscreenenter"",""1"",""4977""
","
","
","""event"",""trial"",""time""
""fullscreenenter"",""1"",""4977""
","
","","","","","","null","<div style=""font-size:60px;"">+</div>","null","","fixation","","","","","","","","","","",""
"aa-learning-trial","77","482147","0.0-9.0-2.0-1.2","7198","1","8","Female","approach_avoid_spark_v1","""event"",""trial"",""time""
""fullscreenenter"",""1"",""4977""
","
","
","""event"",""trial"",""time""
""fullscreenenter"",""1"",""4977""
","
","","","","","","1478.1999999997206","images/bed1.png","","","learning","5","5","1","1","bed","furniture","1","0","","good","[5]"
"html-keyboard-response","78","482651","0.0-9.0-2.0-0.3","7198","1","8","Female","approach_avoid_spark_v1","""event"",""trial"",""time""
""fullscreenenter"",""1"",""4977""
","
","
","""event"",""trial"",""time""
""fullscreenenter"",""1"",""4977""
","
","","","","","","null","<div style=""font-size:60px;"">+</div>","null","","fixation","","","","","","","","","","",""
"aa-learning-trial","79","485667","0.0-9.0-2.0-1.3","7198","1","8","Female","approach_avoid_spark_v1","""event"",""trial"",""time""
""fullscreenenter"",""1"",""4977""
","
","
","""event"",""trial"",""time""
""fullscreenenter"",""1"",""4977""
","
","","","","","","2311.7000000001863","images/bed8.png","","","learning","5","5","1","1","bed","furniture","1","0","","good","[5]"
"html-keyboard-response","80","486171","0.0-9.0-2.0-0.4","7198","1","8","Female","approach_avoid_spark_v1","""event"",""trial"",""time""
""fullscreenenter"",""1"",""4977""
","
","
","""event"",""trial"",""time""
""fullscreenenter"",""1"",""4977""
","
","","","","","","null","<div style=""font-size:60px;"">+</div>","null","","fixation","","","","","","","","","","",""
"aa-learning-trial","81","489188","0.0-9.0-2.0-1.4","7198","1","8","Female","approach_avoid_spark_v1","""event"",""trial"",""time""
""fullscreenenter"",""1"",""4977""
","
","
","""event"",""trial"",""time""
""fullscreenenter"",""1"",""4977""
","
","","","","","","2084.100000000093","images/bed8.png","","","learning","6","0","0","0","bed","furniture","1","0","","good","[5]"
"html-keyboard-response","82","489691","0.0-9.0-2.0-0.5","7198","1","8","Female","approach_avoid_spark_v1","""event"",""trial"",""time""
""fullscreenenter"",""1"",""4977""
","
","
","""event"",""trial"",""time""
""fullscreenenter"",""1"",""4977""
","
","","","","","","null","<div style=""font-size:60px;"">+</div>","null","","fixation","","","","","","","","","","",""
"aa-learning-trial","83","492704","0.0-9.0-2.0-1.5","7198","1","8","Female","approach_avoid_spark_v1","""event"",""trial"",""time""
""fullscreenenter"",""1"",""4977""
","
","
","""event"",""trial"",""time""
""fullscreenenter"",""1"",""4977""
","
","","","","","","1643.3000000002794","images/sofa7.png","","","learning","1","1","1","1","sofa","furniture","1","0","","neutral","0"
"html-keyboard-response","84","493211","0.0-9.0-2.0-0.6","7198","1","8","Female","approach_avoid_spark_v1","""event"",""trial"",""time""
""fullscreenenter"",""1"",""4977""
","
","
","""event"",""trial"",""time""
""fullscreenenter"",""1"",""4977""
","
","","","","","","null","<div style=""font-size:60px;"">+</div>","null","","fixation","","","","","","","","","","",""
"aa-learning-trial","85","496228","0.0-9.0-2.0-1.6","7198","1","8","Female","approach_avoid_spark_v1","""event"",""trial"",""time""
""fullscreenenter"",""1"",""4977""
","
","
","""event"",""trial"",""time""
""fullscreenenter"",""1"",""4977""
","
","","","","","","992.2000000001863","images/sofa5.png","","","learning","2","2","1","1","sofa","furniture","1","0","","neutral","0"
"html-keyboard-response","86","496739","0.0-9.0-2.0-0.7","7198","1","8","Female","approach_avoid_spark_v1","""event"",""trial"",""time""
""fullscreenenter"",""1"",""4977""
","
","
","""event"",""trial"",""time""
""fullscreenenter"",""1"",""4977""
","
","","","","","","null","<div style=""font-size:60px;"">+</div>","null","","fixation","","","","","","","","","","",""
"aa-learning-trial","87","499756","0.0-9.0-2.0-1.7","7198","1","8","Female","approach_avoid_spark_v1","""event"",""trial"",""time""
""fullscreenenter"",""1"",""4977""
","
","
","""event"",""trial"",""time""
""fullscreenenter"",""1"",""4977""
","
","","","","","","694.1000000000931","images/table8.png","","","learning","-5","-5","1","1","table","furniture","1","0","","bad","[-5]"
"html-keyboard-response","88","500267","0.0-9.0-2.0-0.8","7198","1","8","Female","approach_avoid_spark_v1","""event"",""trial"",""time""
""fullscreenenter"",""1"",""4977""
","
","
","""event"",""trial"",""time""
""fullscreenenter"",""1"",""4977""
","
","","","","","","null","<div style=""font-size:60px;"">+</div>","null","","fixation","","","","","","","","","","",""
"aa-learning-trial","89","503283","0.0-9.0-2.0-1.8","7198","1","8","Female","approach_avoid_spark_v1","""event"",""trial"",""time""
""fullscreenenter"",""1"",""4977""
","
","
","""event"",""trial"",""time""
""fullscreenenter"",""1"",""4977""
","
","","","","","","1921.0999999996275","images/table7.png","","","learning","-6","0","0","0","table","furniture","1","0","","bad","[-5]"
"html-keyboard-response","90","503795","0.0-9.0-2.0-0.9","7198","1","8","Female","approach_avoid_spark_v1","""event"",""trial"",""time""
""fullscreenenter"",""1"",""4977""
","
","
","""event"",""trial"",""time""
""fullscreenenter"",""1"",""4977""
","
","","","","","","null","<div style=""font-size:60px;"">+</div>","null","","fixation","","","","","","","","","","",""
"aa-learning-trial","91","506811","0.0-9.0-2.0-1.9","7198","1","8","Female","approach_avoid_spark_v1","""event"",""trial"",""time""
""fullscreenenter"",""1"",""4977""
","
","
","""event"",""trial"",""time""
""fullscreenenter"",""1"",""4977""
","
","","","","","","1450.7999999998137","images/sofa1.png","","","learning","-2","-2","1","1","sofa","furniture","1","0","","neutral","0"
"html-keyboard-response","92","507315","0.0-9.0-2.0-0.10","7198","1","8","Female","approach_avoid_spark_v1","""event"",""trial"",""time""
""fullscreenenter"",""1"",""4977""
","
","
","""event"",""trial"",""time""
""fullscreenenter"",""1"",""4977""
","
","","","","","","null","<div style=""font-size:60px;"">+</div>","null","","fixation","","","","","","","","","","",""
"aa-learning-trial","93","510331","0.0-9.0-2.0-1.10","7198","1","8","Female","approach_avoid_spark_v1","""event"",""trial"",""time""
""fullscreenenter"",""1"",""4977""
","
","
","""event"",""trial"",""time""
""fullscreenenter"",""1"",""4977""
","
","","","","","","999.3999999999069","images/table6.png","","","learning","-6","0","0","0","table","furniture","1","0","","bad","[-5]"
"html-keyboard-response","94","510843","0.0-9.0-2.0-0.11","7198","1","8","Female","approach_avoid_spark_v1","""event"",""trial"",""time""
""fullscreenenter"",""1"",""4977""
","
","
","""event"",""trial"",""time""
""fullscreenenter"",""1"",""4977""
","
","","","","","","null","<div style=""font-size:60px;"">+</div>","null","","fixation","","","","","","","","","","",""
"aa-learning-trial","95","513859","0.0-9.0-2.0-1.11","7198","1","8","Female","approach_avoid_spark_v1","""event"",""trial"",""time""
""fullscreenenter"",""1"",""4977""
","
","
","""event"",""trial"",""time""
""fullscreenenter"",""1"",""4977""
","
","","","","","","683.2999999998137","images/bed6.png","","","learning","6","6","1","1","bed","furniture","1","0","","good","[5]"
"html-keyboard-response","96","514363","0.0-9.0-2.0-0.12","7198","1","8","Female","approach_avoid_spark_v1","""event"",""trial"",""time""
""fullscreenenter"",""1"",""4977""
","
","
","""event"",""trial"",""time""
""fullscreenenter"",""1"",""4977""
","
","","","","","","null","<div style=""font-size:60px;"">+</div>","null","","fixation","","","","","","","","","","",""
"aa-learning-trial","97","517387","0.0-9.0-2.0-1.12","7198","1","8","Female","approach_avoid_spark_v1","""event"",""trial"",""time""
""fullscreenenter"",""1"",""4977""
","
","
","""event"",""trial"",""time""
""fullscreenenter"",""1"",""4977""
","
","","","","","","965.2000000001863","images/sofa5.png","","","learning","[1]","1","1","1","sofa","furniture","1","0","","neutral","0"
"html-keyboard-response","98","517899","0.0-9.0-2.0-0.13","7198","1","8","Female","approach_avoid_spark_v1","""event"",""trial"",""time""
""fullscreenenter"",""1"",""4977""
","
","
","""event"",""trial"",""time""
""fullscreenenter"",""1"",""4977""
","
","","","","","","null","<div style=""font-size:60px;"">+</div>","null","","fixation","","","","","","","","","","",""
"aa-learning-trial","99","520916","0.0-9.0-2.0-1.13","7198","1","8","Female","approach_avoid_spark_v1","""event"",""trial"",""time""
""fullscreenenter"",""1"",""4977""
","
","
","""event"",""trial"",""time""
""fullscreenenter"",""1"",""4977""
","
","","","","","","706.0999999996275","images/bed1.png","","","learning","6","6","1","1","bed","furniture","1","0","","good","[5]"
"html-keyboard-response","100","521427","0.0-9.0-2.0-0.14","7198","1","8","Female","approach_avoid_spark_v1","""event"",""trial"",""time""
""fullscreenenter"",""1"",""4977""
","
","
","""event"",""trial"",""time""
""fullscreenenter"",""1"",""4977""
","
","","","","","","null","<div style=""font-size:60px;"">+</div>","null","","fixation","","","","","","","","","","",""
"aa-learning-trial","101","524443","0.0-9.0-2.0-1.14","7198","1","8","Female","approach_avoid_spark_v1","""event"",""trial"",""time""
""fullscreenenter"",""1"",""4977""
","
","
","""event"",""trial"",""time""
""fullscreenenter"",""1"",""4977""
","
","","","","","","1737.2000000001863","images/table6.png","","","learning","-6","-6","1","1","table","furniture","1","0","","bad","[-5]"
"html-keyboard-response","102","524955","0.0-9.0-2.0-0.15","7198","1","8","Female","approach_avoid_spark_v1","""event"",""trial"",""time""
""fullscreenenter"",""1"",""4977""
","
","
","""event"",""trial"",""time""
""fullscreenenter"",""1"",""4977""
","
","","","","","","null","<div style=""font-size:60px;"">+</div>","null","","fixation","","","","","","","","","","",""
"aa-learning-trial","103","527971","0.0-9.0-2.0-1.15","7198","1","8","Female","approach_avoid_spark_v1","""event"",""trial"",""time""
""fullscreenenter"",""1"",""4977""
","
","
","""event"",""trial"",""time""
""fullscreenenter"",""1"",""4977""
","
","","","","","","2155.600000000093","images/bed1.png","","","learning","5","0","0","0","bed","furniture","1","0","","good","[5]"
"html-keyboard-response","104","528475","0.0-9.0-2.0-0.16","7198","1","8","Female","approach_avoid_spark_v1","""event"",""trial"",""time""
""fullscreenenter"",""1"",""4977""
","
","
","""event"",""trial"",""time""
""fullscreenenter"",""1"",""4977""
","
","","","","","","null","<div style=""font-size:60px;"">+</div>","null","","fixation","","","","","","","","","","",""
"aa-learning-trial","105","531484","0.0-9.0-2.0-1.16","7198","1","8","Female","approach_avoid_spark_v1","""event"",""trial"",""time""
""fullscreenenter"",""1"",""4977""
","
","
","""event"",""trial"",""time""
""fullscreenenter"",""1"",""4977""
","
","","","","","","841.1000000000931","images/sofa7.png","","","learning","-1","-1","1","1","sofa","furniture","1","0","","neutral","0"
"html-keyboard-response","106","531995","0.0-9.0-2.0-0.17","7198","1","8","Female","approach_avoid_spark_v1","""event"",""trial"",""time""
""fullscreenenter"",""1"",""4977""
","
","
","""event"",""trial"",""time""
""fullscreenenter"",""1"",""4977""
","
","","","","","","null","<div style=""font-size:60px;"">+</div>","null","","fixation","","","","","","","","","","",""
"aa-learning-trial","107","535012","0.0-9.0-2.0-1.17","7198","1","8","Female","approach_avoid_spark_v1","""event"",""trial"",""time""
""fullscreenenter"",""1"",""4977""
","
","
","""event"",""trial"",""time""
""fullscreenenter"",""1"",""4977""
","
","","","","","","768.5","images/sofa1.png","","","learning","2","0","0","0","sofa","furniture","1","0","","neutral","0"
"html-keyboard-response","108","535523","0.0-9.0-2.0-0.18","7198","1","8","Female","approach_avoid_spark_v1","""event"",""trial"",""time""
""fullscreenenter"",""1"",""4977""
","
","
","""event"",""trial"",""time""
""fullscreenenter"",""1"",""4977""
","
","","","","","","null","<div style=""font-size:60px;"">+</div>","null","","fixation","","","","","","","","","","",""
"aa-learning-trial","109","538539","0.0-9.0-2.0-1.18","7198","1","8","Female","approach_avoid_spark_v1","""event"",""trial"",""time""
""fullscreenenter"",""1"",""4977""
","
","
","""event"",""trial"",""time""
""fullscreenenter"",""1"",""4977""
","
","","","","","","851","images/table8.png","","","learning","-6","-6","1","1","table","furniture","1","0","","bad","[-5]"
"html-keyboard-response","110","539051","0.0-9.0-2.0-0.19","7198","1","8","Female","approach_avoid_spark_v1","""event"",""trial"",""time""
""fullscreenenter"",""1"",""4977""
","
","
","""event"",""trial"",""time""
""fullscreenenter"",""1"",""4977""
","
","","","","","","null","<div style=""font-size:60px;"">+</div>","null","","fixation","","","","","","","","","","",""
"aa-learning-trial","111","542067","0.0-9.0-2.0-1.19","7198","1","8","Female","approach_avoid_spark_v1","""event"",""trial"",""time""
""fullscreenenter"",""1"",""4977""
","
","
","""event"",""trial"",""time""
""fullscreenenter"",""1"",""4977""
","
","","","","","","548.5","images/table2.png","","","learning","-3","0","0","0","table","furniture","1","0","","bad","[-5]"
"html-keyboard-response","112","542579","0.0-9.0-2.0-0.20","7198","1","8","Female","approach_avoid_spark_v1","""event"",""trial"",""time""
""fullscreenenter"",""1"",""4977""
","
","
","""event"",""trial"",""time""
""fullscreenenter"",""1"",""4977""
","
","","","","","","null","<div style=""font-size:60px;"">+</div>","null","","fixation","","","","","","","","","","",""
"aa-learning-trial","113","545596","0.0-9.0-2.0-1.20","7198","1","8","Female","approach_avoid_spark_v1","""event"",""trial"",""time""
""fullscreenenter"",""1"",""4977""
","
","
","""event"",""trial"",""time""
""fullscreenenter"",""1"",""4977""
","
","","","","","","847.5999999996275","images/table8.png","","","learning","-4","-4","1","1","table","furniture","1","0","","bad","[-5]"
"html-keyboard-response","114","546107","0.0-9.0-2.0-0.21","7198","1","8","Female","approach_avoid_spark_v1","""event"",""trial"",""time""
""fullscreenenter"",""1"",""4977""
","
","
","""event"",""trial"",""time""
""fullscreenenter"",""1"",""4977""
","
","","","","","","null","<div style=""font-size:60px;"">+</div>","null","","fixation","","","","","","","","","","",""
"aa-learning-trial","115","549131","0.0-9.0-2.0-1.21","7198","1","8","Female","approach_avoid_spark_v1","""event"",""trial"",""time""
""fullscreenenter"",""1"",""4977""
","
","
","""event"",""trial"",""time""
""fullscreenenter"",""1"",""4977""
","
","","","","","","641.1000000000931","images/bed8.png","","","learning","4","0","0","0","bed","furniture","1","0","","good","[5]"
"html-keyboard-response","116","549643","0.0-9.0-2.0-0.22","7198","1","8","Female","approach_avoid_spark_v1","""event"",""trial"",""time""
""fullscreenenter"",""1"",""4977""
","
","
","""event"",""trial"",""time""
""fullscreenenter"",""1"",""4977""
","
","","","","","","null","<div style=""font-size:60px;"">+</div>","null","","fixation","","","","","","","","","","",""
"aa-learning-trial","117","552667","0.0-9.0-2.0-1.22","7198","1","8","Female","approach_avoid_spark_v1","""event"",""trial"",""time""
""fullscreenenter"",""1"",""4977""
","
","
","""event"",""trial"",""time""
""fullscreenenter"",""1"",""4977""
","
","","","","","","1815.6999999997206","images/bed8.png","","","learning","3","3","1","1","bed","furniture","1","0","","good","[5]"
"html-keyboard-response","118","553171","0.0-9.0-2.0-0.23","7198","1","8","Female","approach_avoid_spark_v1","""event"",""trial"",""time""
""fullscreenenter"",""1"",""4977""
","
","
","""event"",""trial"",""time""
""fullscreenenter"",""1"",""4977""
","
","","","","","","null","<div style=""font-size:60px;"">+</div>","null","","fixation","","","","","","","","","","",""
"aa-learning-trial","119","556188","0.0-9.0-2.0-1.23","7198","1","8","Female","approach_avoid_spark_v1","""event"",""trial"",""time""
""fullscreenenter"",""1"",""4977""
","
","
","""event"",""trial"",""time""
""fullscreenenter"",""1"",""4977""
","
","","","","","","1661.7000000001863","images/sofa7.png","","","learning","[-1]","-1","1","1","sofa","furniture","1","0","","neutral","0"
"html-keyboard-response","120","556699","0.0-9.0-2.0-0.24","7198","1","8","Female","approach_avoid_spark_v1","""event"",""trial"",""time""
""fullscreenenter"",""1"",""4977""
","
","
","""event"",""trial"",""time""
""fullscreenenter"",""1"",""4977""
","
","","","","","","null","<div style=""font-size:60px;"">+</div>","null","","fixation","","","","","","","","","","",""
"aa-learning-trial","121","559723","0.0-9.0-2.0-1.24","7198","1","8","Female","approach_avoid_spark_v1","""event"",""trial"",""time""
""fullscreenenter"",""1"",""4977""
","
","
","""event"",""trial"",""time""
""fullscreenenter"",""1"",""4977""
","
","","","","","","2095.3000000002794","images/sofa5.png","","","learning","-1","-1","1","1","sofa","furniture","1","0","","neutral","0"
"html-keyboard-response","122","560227","0.0-9.0-2.0-0.25","7198","1","8","Female","approach_avoid_spark_v1","""event"",""trial"",""time""
""fullscreenenter"",""1"",""4977""
","
","
","""event"",""trial"",""time""
""fullscreenenter"",""1"",""4977""
","
","","","","","","null","<div style=""font-size:60px;"">+</div>","null","","fixation","","","","","","","","","","",""
"aa-learning-trial","123","563243","0.0-9.0-2.0-1.25","7198","1","8","Female","approach_avoid_spark_v1","""event"",""trial"",""time""
""fullscreenenter"",""1"",""4977""
","
","
","""event"",""trial"",""time""
""fullscreenenter"",""1"",""4977""
","
","","","","","","1490.5","images/sofa7.png","","","learning","[1]","0","0","0","sofa","furniture","1","0","","neutral","0"
"html-keyboard-response","124","563747","0.0-9.0-2.0-0.26","7198","1","8","Female","approach_avoid_spark_v1","""event"",""trial"",""time""
""fullscreenenter"",""1"",""4977""
","
","
","""event"",""trial"",""time""
""fullscreenenter"",""1"",""4977""
","
","","","","","","null","<div style=""font-size:60px;"">+</div>","null","","fixation","","","","","","","","","","",""
"aa-learning-trial","125","566763","0.0-9.0-2.0-1.26","7198","1","8","Female","approach_avoid_spark_v1","""event"",""trial"",""time""
""fullscreenenter"",""1"",""4977""
","
","
","""event"",""trial"",""time""
""fullscreenenter"",""1"",""4977""
","
","","","","","","2439.2999999998137","images/sofa5.png","","","learning","-2","0","0","0","sofa","furniture","1","0","","neutral","0"
"html-keyboard-response","126","567267","0.0-9.0-2.0-0.27","7198","1","8","Female","approach_avoid_spark_v1","""event"",""trial"",""time""
""fullscreenenter"",""1"",""4977""
","
","
","""event"",""trial"",""time""
""fullscreenenter"",""1"",""4977""
","
","","","","","","null","<div style=""font-size:60px;"">+</div>","null","","fixation","","","","","","","","","","",""
"aa-learning-trial","127","570283","0.0-9.0-2.0-1.27","7198","1","8","Female","approach_avoid_spark_v1","""event"",""trial"",""time""
""fullscreenenter"",""1"",""4977""
","
","
","""event"",""trial"",""time""
""fullscreenenter"",""1"",""4977""
","
","","","","","","1784.6000000000931","images/bed6.png","","","learning","5","5","1","1","bed","furniture","1","0","","good","[5]"
"html-keyboard-response","128","570787","0.0-9.0-2.0-0.28","7198","1","8","Female","approach_avoid_spark_v1","""event"",""trial"",""time""
""fullscreenenter"",""1"",""4977""
","
","
","""event"",""trial"",""time""
""fullscreenenter"",""1"",""4977""
","
","","","","","","null","<div style=""font-size:60px;"">+</div>","null","","fixation","","","","","","","","","","",""
"aa-learning-trial","129","573812","0.0-9.0-2.0-1.28","7198","1","8","Female","approach_avoid_spark_v1","""event"",""trial"",""time""
""fullscreenenter"",""1"",""4977""
","
","
","""event"",""trial"",""time""
""fullscreenenter"",""1"",""4977""
","
","","","","","","1915.4000000003725","images/table7.png","","","learning","-5","-5","1","1","table","furniture","1","0","","bad","[-5]"
"html-keyboard-response","130","574323","0.0-9.0-2.0-0.29","7198","1","8","Female","approach_avoid_spark_v1","""event"",""trial"",""time""
""fullscreenenter"",""1"",""4977""
","
","
","""event"",""trial"",""time""
""fullscreenenter"",""1"",""4977""
","
","","","","","","null","<div style=""font-size:60px;"">+</div>","null","","fixation","","","","","","","","","","",""
"aa-learning-trial","131","577340","0.0-9.0-2.0-1.29","7198","1","8","Female","approach_avoid_spark_v1","""event"",""trial"",""time""
""fullscreenenter"",""1"",""4977""
","
","
","""event"",""trial"",""time""
""fullscreenenter"",""1"",""4977""
","
","","","","","","998.3999999999069","images/table1.png","","","learning","-8","0","0","0","table","furniture","1","0","","bad","[-5]"
"html-keyboard-response","132","577851","0.0-9.0-2.0-0.30","7198","1","8","Female","approach_avoid_spark_v1","""event"",""trial"",""time""
""fullscreenenter"",""1"",""4977""
","
","
","""event"",""trial"",""time""
""fullscreenenter"",""1"",""4977""
","
","","","","","","null","<div style=""font-size:60px;"">+</div>","null","","fixation","","","","","","","","","","",""
"aa-learning-trial","133","580876","0.0-9.0-2.0-1.30","7198","1","8","Female","approach_avoid_spark_v1","""event"",""trial"",""time""
""fullscreenenter"",""1"",""4977""
","
","
","""event"",""trial"",""time""
""fullscreenenter"",""1"",""4977""
","
","","","","","","null","images/bed4.png","","","learning","4","-5","","null","bed","furniture","1","0","","good","[5]"
"html-keyboard-response","134","581387","0.0-9.0-2.0-0.31","7198","1","8","Female","approach_avoid_spark_v1","""event"",""trial"",""time""
""fullscreenenter"",""1"",""4977""
","
","
","""event"",""trial"",""time""
""fullscreenenter"",""1"",""4977""
","
","","","","","","null","<div style=""font-size:60px;"">+</div>","null","","fixation","","","","","","","","","","",""
"aa-learning-trial","135","584403","0.0-9.0-2.0-1.31","7198","1","8","Female","approach_avoid_spark_v1","""event"",""trial"",""time""
""fullscreenenter"",""1"",""4977""
","
","
","""event"",""trial"",""time""
""fullscreenenter"",""1"",""4977""
","
","","","","","","1594.2000000001863","images/sofa5.png","","","learning","-1","0","0","0","sofa","furniture","1","0","","neutral","0"
"html-keyboard-response","136","584915","0.0-9.0-2.0-0.32","7198","1","8","Female","approach_avoid_spark_v1","""event"",""trial"",""time""
""fullscreenenter"",""1"",""4977""
","
","
","""event"",""trial"",""time""
""fullscreenenter"",""1"",""4977""
","
","","","","","","null","<div style=""font-size:60px;"">+</div>","null","","fixation","","","","","","","","","","",""
"aa-learning-trial","137","587932","0.0-9.0-2.0-1.32","7198","1","8","Female","approach_avoid_spark_v1","""event"",""trial"",""time""
""fullscreenenter"",""1"",""4977""
","
","
","""event"",""trial"",""time""
""fullscreenenter"",""1"",""4977""
","
","","","","","","896.4000000003725","images/table8.png","","","learning","-5","-5","1","1","table","furniture","1","0","","bad","[-5]"
"html-keyboard-response","138","588443","0.0-9.0-2.0-0.33","7198","1","8","Female","approach_avoid_spark_v1","""event"",""trial"",""time""
""fullscreenenter"",""1"",""4977""
","
","
","""event"",""trial"",""time""
""fullscreenenter"",""1"",""4977""
","
","","","","","","null","<div style=""font-size:60px;"">+</div>","null","","fixation","","","","","","","","","","",""
"aa-learning-trial","139","591460","0.0-9.0-2.0-1.33","7198","1","8","Female","approach_avoid_spark_v1","""event"",""trial"",""time""
""fullscreenenter"",""1"",""4977""
","
","
","""event"",""trial"",""time""
""fullscreenenter"",""1"",""4977""
","
","","","","","","854.8999999999069","images/table6.png","","","learning","-7","-5","shift","","table","furniture","1","0","","bad","[-5]"
"html-keyboard-response","140","591971","0.0-9.0-2.0-0.34","7198","1","8","Female","approach_avoid_spark_v1","""event"",""trial"",""time""
""fullscreenenter"",""1"",""4977""
","
","
","""event"",""trial"",""time""
""fullscreenenter"",""1"",""4977""
","
","","","","","","null","<div style=""font-size:60px;"">+</div>","null","","fixation","","","","","","","","","","",""
"aa-learning-trial","141","594987","0.0-9.0-2.0-1.34","7198","1","8","Female","approach_avoid_spark_v1","""event"",""trial"",""time""
""fullscreenenter"",""1"",""4977""
","
","
","""event"",""trial"",""time""
""fullscreenenter"",""1"",""4977""
","
","","","","","","799.1000000000931","images/table7.png","","","learning","-4","-5","9","","table","furniture","1","0","","bad","[-5]"
"html-keyboard-response","142","595499","0.0-9.0-2.0-0.35","7198","1","8","Female","approach_avoid_spark_v1","""event"",""trial"",""time""
""fullscreenenter"",""1"",""4977""
","
","
","""event"",""trial"",""time""
""fullscreenenter"",""1"",""4977""
","
","","","","","","null","<div style=""font-size:60px;"">+</div>","null","","fixation","","","","","","","","","","",""
"aa-learning-trial","143","598516","0.0-9.0-2.0-1.35","7198","1","8","Female","approach_avoid_spark_v1","""event"",""trial"",""time""
""fullscreenenter"",""1"",""4977""
","
","
","""event"",""trial"",""time""
""fullscreenenter"",""1"",""4977""
","
","","","","","","1051.3000000002794","images/sofa5.png","","","learning","[-1]","-1","1","1","sofa","furniture","1","0","","neutral","0"
"html-keyboard-response","144","599028","0.0-9.0-2.0-0.36","7198","1","8","Female","approach_avoid_spark_v1","""event"",""trial"",""time""
""fullscreenenter"",""1"",""4977""
","
","
","""event"",""trial"",""time""
""fullscreenenter"",""1"",""4977""
","
","","","","","","null","<div style=""font-size:60px;"">+</div>","null","","fixation","","","","","","","","","","",""
"aa-learning-trial","145","602044","0.0-9.0-2.0-1.36","7198","1","8","Female","approach_avoid_spark_v1","""event"",""trial"",""time""
""fullscreenenter"",""1"",""4977""
","
","
","""event"",""trial"",""time""
""fullscreenenter"",""1"",""4977""
","
","","","","","","1051.1999999997206","images/sofa4.png","","","learning","-1","-1","1","1","sofa","furniture","1","0","","neutral","0"
"html-keyboard-response","146","602547","0.0-9.0-2.0-0.37","7198","1","8","Female","approach_avoid_spark_v1","""event"",""trial"",""time""
""fullscreenenter"",""1"",""4977""
","
","
","""event"",""trial"",""time""
""fullscreenenter"",""1"",""4977""
","
","","","","","","null","<div style=""font-size:60px;"">+</div>","null","","fixation","","","","","","","","","","",""
"aa-learning-trial","147","605563","0.0-9.0-2.0-1.37","7198","1","8","Female","approach_avoid_spark_v1","""event"",""trial"",""time""
""fullscreenenter"",""1"",""4977""
","
","
","""event"",""trial"",""time""
""fullscreenenter"",""1"",""4977""
","
","","","","","","1669.1000000000931","images/sofa6.png","","","learning","-2","-2","1","1","sofa","furniture","1","0","","neutral","0"
"html-keyboard-response","148","606074","0.0-9.0-2.0-0.38","7198","1","8","Female","approach_avoid_spark_v1","""event"",""trial"",""time""
""fullscreenenter"",""1"",""4977""
","
","
","""event"",""trial"",""time""
""fullscreenenter"",""1"",""4977""
","
","","","","","","null","<div style=""font-size:60px;"">+</div>","null","","fixation","","","","","","","","","","",""
"aa-learning-trial","149","609092","0.0-9.0-2.0-1.38","7198","1","8","Female","approach_avoid_spark_v1","""event"",""trial"",""time""
""fullscreenenter"",""1"",""4977""
","
","
","""event"",""trial"",""time""
""fullscreenenter"",""1"",""4977""
","
","","","","","","1288.6000000000931","images/bed2.png","","","learning","6","6","1","1","bed","furniture","1","0","","good","[5]"
"html-keyboard-response","150","609603","0.0-9.0-2.0-0.39","7198","1","8","Female","approach_avoid_spark_v1","""event"",""trial"",""time""
""fullscreenenter"",""1"",""4977""
","
","
","""event"",""trial"",""time""
""fullscreenenter"",""1"",""4977""
","
","","","","","","null","<div style=""font-size:60px;"">+</div>","null","","fixation","","","","","","","","","","",""
"aa-learning-trial","151","612618","0.0-9.0-2.0-1.39","7198","1","8","Female","approach_avoid_spark_v1","""event"",""trial"",""time""
""fullscreenenter"",""1"",""4977""
","
","
","""event"",""trial"",""time""
""fullscreenenter"",""1"",""4977""
","
","","","","","","1230.2999999998137","images/sofa1.png","","","learning","-2","-2","1","1","sofa","furniture","1","0","","neutral","0"
"html-keyboard-response","152","613126","0.0-9.0-2.0-0.40","7198","1","8","Female","approach_avoid_spark_v1","""event"",""trial"",""time""
""fullscreenenter"",""1"",""4977""
","
","
","""event"",""trial"",""time""
""fullscreenenter"",""1"",""4977""
","
","","","","","","null","<div style=""font-size:60px;"">+</div>","null","","fixation","","","","","","","","","","",""
"aa-learning-trial","153","616139","0.0-9.0-2.0-1.40","7198","1","8","Female","approach_avoid_spark_v1","""event"",""trial"",""time""
""fullscreenenter"",""1"",""4977""
","
","
","""event"",""trial"",""time""
""fullscreenenter"",""1"",""4977""
","
","","","","","","1398.4000000003725","images/bed8.png","","","learning","4","0","0","0","bed","furniture","1","0","","good","[5]"
"html-keyboard-response","154","616651","0.0-9.0-2.0-0.41","7198","1","8","Female","approach_avoid_spark_v1","""event"",""trial"",""time""
""fullscreenenter"",""1"",""4977""
","
","
","""event"",""trial"",""time""
""fullscreenenter"",""1"",""4977""
","
","","","","","","null","<div style=""font-size:60px;"">+</div>","null","","fixation","","","","","","","","","","",""
"aa-learning-trial","155","619667","0.0-9.0-2.0-1.41","7198","1","8","Female","approach_avoid_spark_v1","""event"",""trial"",""time""
""fullscreenenter"",""1"",""4977""
","
","
","""event"",""trial"",""time""
""fullscreenenter"",""1"",""4977""
","
","","","","","","1896.7000000001863","images/bed8.png","","","learning","6","6","1","1","bed","furniture","1","0","","good","[5]"
"html-keyboard-response","156","620171","0.0-9.0-2.0-0.42","7198","1","8","Female","approach_avoid_spark_v1","""event"",""trial"",""time""
""fullscreenenter"",""1"",""4977""
","
","
","""event"",""trial"",""time""
""fullscreenenter"",""1"",""4977""
","
","","","","","","null","<div style=""font-size:60px;"">+</div>","null","","fixation","","","","","","","","","","",""
"aa-learning-trial","157","623188","0.0-9.0-2.0-1.42","7198","1","8","Female","approach_avoid_spark_v1","""event"",""trial"",""time""
""fullscreenenter"",""1"",""4977""
","
","
","""event"",""trial"",""time""
""fullscreenenter"",""1"",""4977""
","
","","","","","","1264.8000000002794","images/sofa7.png","","","learning","-1","0","0","0","sofa","furniture","1","0","","neutral","0"
"html-keyboard-response","158","623699","0.0-9.0-2.0-0.43","7198","1","8","Female","approach_avoid_spark_v1","""event"",""trial"",""time""
""fullscreenenter"",""1"",""4977""
","
","
","""event"",""trial"",""time""
""fullscreenenter"",""1"",""4977""
","
","","","","","","null","<div style=""font-size:60px;"">+</div>","null","","fixation","","","","","","","","","","",""
"aa-learning-trial","159","626716","0.0-9.0-2.0-1.43","7198","1","8","Female","approach_avoid_spark_v1","""event"",""trial"",""time""
""fullscreenenter"",""1"",""4977""
","
","
","""event"",""trial"",""time""
""fullscreenenter"",""1"",""4977""
","
","","","","","","1482.8000000002794","images/table6.png","","","learning","-5","-5","1","1","table","furniture","1","0","","bad","[-5]"
"html-keyboard-response","160","627227","0.0-9.0-2.0-0.44","7198","1","8","Female","approach_avoid_spark_v1","""event"",""trial"",""time""
""fullscreenenter"",""1"",""4977""
","
","
","""event"",""trial"",""time""
""fullscreenenter"",""1"",""4977""
","
","","","","","","null","<div style=""font-size:60px;"">+</div>","null","","fixation","","","","","","","","","","",""
"aa-learning-trial","161","630244","0.0-9.0-2.0-1.44","7198","1","8","Female","approach_avoid_spark_v1","""event"",""trial"",""time""
""fullscreenenter"",""1"",""4977""
","
","
","""event"",""trial"",""time""
""fullscreenenter"",""1"",""4977""
","
","","","","","","861.5","images/bed1.png","","","learning","5","0","0","0","bed","furniture","1","0","","good","[5]"
"html-keyboard-response","162","630755","0.0-9.0-2.0-0.45","7198","1","8","Female","approach_avoid_spark_v1","""event"",""trial"",""time""
""fullscreenenter"",""1"",""4977""
","
","
","""event"",""trial"",""time""
""fullscreenenter"",""1"",""4977""
","
","","","","","","null","<div style=""font-size:60px;"">+</div>","null","","fixation","","","","","","","","","","",""
"aa-learning-trial","163","633780","0.0-9.0-2.0-1.45","7198","1","8","Female","approach_avoid_spark_v1","""event"",""trial"",""time""
""fullscreenenter"",""1"",""4977""
","
","
","""event"",""trial"",""time""
""fullscreenenter"",""1"",""4977""
","
","","","","","","1655.1000000000931","images/table8.png","","","learning","-6","-6","1","1","table","furniture","1","0","","bad","[-5]"
"html-keyboard-response","164","634291","0.0-9.0-2.0-0.46","7198","1","8","Female","approach_avoid_spark_v1","""event"",""trial"",""time""
""fullscreenenter"",""1"",""4977""
","
","
","""event"",""trial"",""time""
""fullscreenenter"",""1"",""4977""
","
","","","","","","null","<div style=""font-size:60px;"">+</div>","null","","fixation","","","","","","","","","","",""
"aa-learning-trial","165","637307","0.0-9.0-2.0-1.46","7198","1","8","Female","approach_avoid_spark_v1","""event"",""trial"",""time""
""fullscreenenter"",""1"",""4977""
","
","
","""event"",""trial"",""time""
""fullscreenenter"",""1"",""4977""
","
","","","","","","1755.9000000003725","images/bed6.png","","","learning","7","0","0","0","bed","furniture","1","0","","good","[5]"
"html-keyboard-response","166","637819","0.0-9.0-2.0-0.47","7198","1","8","Female","approach_avoid_spark_v1","""event"",""trial"",""time""
""fullscreenenter"",""1"",""4977""
","
","
","""event"",""trial"",""time""
""fullscreenenter"",""1"",""4977""
","
","","","","","","null","<div style=""font-size:60px;"">+</div>","null","","fixation","","","","","","","","","","",""
"aa-learning-trial","167","640835","0.0-9.0-2.0-1.47","7198","1","8","Female","approach_avoid_spark_v1","""event"",""trial"",""time""
""fullscreenenter"",""1"",""4977""
","
","
","""event"",""trial"",""time""
""fullscreenenter"",""1"",""4977""
","
","","","","","","1574.5999999996275","images/bed1.png","","","learning","2","0","0","0","bed","furniture","1","0","","good","[5]"
"html-keyboard-response","168","641347","0.0-9.0-2.0-0.48","7198","1","8","Female","approach_avoid_spark_v1","""event"",""trial"",""time""
""fullscreenenter"",""1"",""4977""
","
","
","""event"",""trial"",""time""
""fullscreenenter"",""1"",""4977""
","
","","","","","","null","<div style=""font-size:60px;"">+</div>","null","","fixation","","","","","","","","","","",""
"aa-learning-trial","169","644364","0.0-9.0-2.0-1.48","7198","1","8","Female","approach_avoid_spark_v1","""event"",""trial"",""time""
""fullscreenenter"",""1"",""4977""
","
","
","""event"",""trial"",""time""
""fullscreenenter"",""1"",""4977""
","
","","","","","","1212.3000000002794","images/table6.png","","","learning","-3","0","0","0","table","furniture","1","0","","bad","[-5]"
"html-keyboard-response","170","644874","0.0-9.0-2.0-0.49","7198","1","8","Female","approach_avoid_spark_v1","""event"",""trial"",""time""
""fullscreenenter"",""1"",""4977""
","
","
","""event"",""trial"",""time""
""fullscreenenter"",""1"",""4977""
","
","","","","","","null","<div style=""font-size:60px;"">+</div>","null","","fixation","","","","","","","","","","",""
"aa-learning-trial","171","647899","0.0-9.0-2.0-1.49","7198","1","8","Female","approach_avoid_spark_v1","""event"",""trial"",""time""
""fullscreenenter"",""1"",""4977""
","
","
","""event"",""trial"",""time""
""fullscreenenter"",""1"",""4977""
","
","","","","","","840.2000000001863","images/bed1.png","","","learning","6","6","1","1","bed","furniture","1","0","","good","[5]"
"html-keyboard-response","172","648411","0.0-9.0-2.0-0.50","7198","1","8","Female","approach_avoid_spark_v1","""event"",""trial"",""time""
""fullscreenenter"",""1"",""4977""
","
","
","""event"",""trial"",""time""
""fullscreenenter"",""1"",""4977""
","
","","","","","","null","<div style=""font-size:60px;"">+</div>","null","","fixation","","","","","","","","","","",""
"aa-learning-trial","173","651428","0.0-9.0-2.0-1.50","7198","1","8","Female","approach_avoid_spark_v1","""event"",""trial"",""time""
""fullscreenenter"",""1"",""4977""
","
","
","""event"",""trial"",""time""
""fullscreenenter"",""1"",""4977""
","
","","","","","","1210.3999999999069","images/table6.png","","","learning","-4","-4","1","1","table","furniture","1","0","","bad","[-5]"
"html-button-response","174","657655","0.0-9.0-3.0","7198","1","8","Female","approach_avoid_spark_v1","""event"",""trial"",""time""
""fullscreenenter"",""1"",""4977""
","
","
","""event"",""trial"",""time""
""fullscreenenter"",""1"",""4977""
","
","","","","","","6217.100000000093","<p> You have completed the round! <p> In this round, you earned -19 points! </p>","0","","break","","","","","","","","","","",""
"html-button-response","175","659255","0.0-10.0","7198","1","8","Female","approach_avoid_spark_v1","""event"",""trial"",""time""
""fullscreenenter"",""1"",""4977""
","
","
","""event"",""trial"",""time""
""fullscreenenter"",""1"",""4977""
","
","","","","","","1594.3999999999069","<p> Now it's time to play another round. </p>","0","","transition_screen","","","","","","","","","","",""
"preload","176","659460","0.0-11.0-0.0","7198","1","8","Female","approach_avoid_spark_v1","""event"",""trial"",""time""
""fullscreenenter"",""1"",""4977""
","
","
","""event"",""trial"",""time""
""fullscreenenter"",""1"",""4977""
","
","true","false","[]","[]","[]","","","","","","","","","","","","","","","",""
"learning-instructions","177","669261","0.0-11.0-1.0-0.0","7198","1","8","Female","approach_avoid_spark_v1","""event"",""trial"",""time""
""fullscreenenter"",""1"",""4977""
","
","
","""event"",""trial"",""time""
""fullscreenenter"",""1"",""4977""
","
","","","","","","4886.9000000003725","<p> Your goal in this round is to take care of lots of farm animals. </p></div>","","0","instructions","","","","","","","","","","",""
"learning-instructions","178","680591","0.0-11.0-1.0-0.1","7198","1","8","Female","approach_avoid_spark_v1","""event"",""trial"",""time""
""fullscreenenter"",""1"",""4977""
","
","
","""event"",""trial"",""time""
""fullscreenenter"",""1"",""4977""
","
","","","","","","599.5","<p> Some farm animals are hungry, while other farm animals are already full.  </p><p> On each turn, you will see a farm animal.   </p><p> You need to decide whether to feed it or not.  </p>","","0","instructions","","","","","","","","","","",""
"learning-instructions","179","687713","0.0-11.0-1.0-0.2","7198","1","8","Female","approach_avoid_spark_v1","""event"",""trial"",""time""
""fullscreenenter"",""1"",""4977""
","
","
","""event"",""trial"",""time""
""fullscreenenter"",""1"",""4977""
","
","","","","","","858.4000000003725","<p> You can feed the farm animal by pressing 1 and leave the farm animal alone by pressing 0. </p><br><div class=""choice-instructions-grid""> <div class=""choice-option""><img src=""images/approach.png"" class=""choice-option-img"" stage=""instructions"" position=""0"" ><div class=""choice-option-text""> Press ""1."" </div></div><div class=""choice-option""><img src=""images/avoid.png"" class=""choice-option-img"" stage=""instructions"" position=""1"" ><div class=""choice-option-text""> Press ""0."" </div></div>","","0","instructions","","","","","","","","","","",""
"learning-instructions","180","703594","0.0-11.0-1.0-0.3","7198","1","8","Female","approach_avoid_spark_v1","""event"",""trial"",""time""
""fullscreenenter"",""1"",""4977""
","
","
","""event"",""trial"",""time""
""fullscreenenter"",""1"",""4977""
","
","","","","","","5544.799999999814","<p> If you feed a hungry farm animal, you will make it feel satisfied! </p><p> But if you feed the farm animal and it was already full, you will make it feel sick. </p>","","0","instructions","","","","","","","","","","",""
"learning-instructions","181","717141","0.0-11.0-1.0-0.4","7198","1","8","Female","approach_avoid_spark_v1","""event"",""trial"",""time""
""fullscreenenter"",""1"",""4977""
","
","
","""event"",""trial"",""time""
""fullscreenenter"",""1"",""4977""
","
","","","","","","639.0999999996275","<p> You will earn points based on how you made the farm animal feel. </p><p> If you made it satisfied, you will WIN anywhere from 1 - 9 points, </p><p> but if you made it sick, you will LOSE anywhere from 1 - 9 points. </p>","","0","instructions","","","","","","","","","","",""
"learning-instructions","182","724803","0.0-11.0-1.0-0.5","7198","1","8","Female","approach_avoid_spark_v1","""event"",""trial"",""time""
""fullscreenenter"",""1"",""4977""
","
","
","""event"",""trial"",""time""
""fullscreenenter"",""1"",""4977""
","
","","","","","","1004","<p> You will see how many points you won or lost in the center of the screen. </p><p> Here is what you would see if you won 5 points: </p><p style=""color:green;font-size:50px;font-weight:bolder"">5</p>","","0","instructions","","","","","","","","","","",""
"learning-instructions","183","728161","0.0-11.0-1.0-0.6","7198","1","8","Female","approach_avoid_spark_v1","""event"",""trial"",""time""
""fullscreenenter"",""1"",""4977""
","
","
","""event"",""trial"",""time""
""fullscreenenter"",""1"",""4977""
","
","","","","","","522.1999999997206","<p> And here is what you would see if you lost 3 points: </p><p style=""color:red;font-size:50px;font-weight:bolder"">-3</p>","","0","instructions","","","","","","","","","","",""
"learning-instructions","184","745299","0.0-11.0-1.0-0.7","7198","1","8","Female","approach_avoid_spark_v1","""event"",""trial"",""time""
""fullscreenenter"",""1"",""4977""
","
","
","""event"",""trial"",""time""
""fullscreenenter"",""1"",""4977""
","
","","","","","","924.1999999997206","<p> Some farm animals will become very satisfied or very sick. </p><p> These farm animals will make you win or lose LOTS of points. </p><p> Other farm animals have less strong feelings. </p><p> These farm animals will make you win or lose small amounts of points. </p>","","0","instructions","","","","","","","","","","",""
"learning-instructions","185","759169","0.0-11.0-1.0-0.8","7198","1","8","Female","approach_avoid_spark_v1","""event"",""trial"",""time""
""fullscreenenter"",""1"",""4977""
","
","
","""event"",""trial"",""time""
""fullscreenenter"",""1"",""4977""
","
","","","","","","885","<p> If you choose to leave the farm animal alone, you will not win or lose any points. </p><p>  However, in the center of the screen, you will see the number of points you WOULD HAVE won or lost if you had fed the farm animal. </p>","","0","instructions","","","","","","","","","","",""
"learning-instructions","186","771551","0.0-11.0-1.0-0.9","7198","1","8","Female","approach_avoid_spark_v1","""event"",""trial"",""time""
""fullscreenenter"",""1"",""4977""
","
","
","""event"",""trial"",""time""
""fullscreenenter"",""1"",""4977""
","
","","","","","","659.4000000003725","<p> Here is what you might see if you did not feed the farm animal but the animal was hungry: </p><p style=""color:grey; font-size:50px; display: inline-block; border-spacing: 15px; border-width:3px; border-style:solid; border-color:red"">  &nbsp; 6 &nbsp; </p><p> Remember, in this case, you would not win or lose ANY points because you did not feed the farm animal.  </p>","","0","instructions","","","","","","","","","","",""
"learning-instructions","187","781160","0.0-11.0-1.0-0.10","7198","1","8","Female","approach_avoid_spark_v1","""event"",""trial"",""time""
""fullscreenenter"",""1"",""4977""
","
","
","""event"",""trial"",""time""
""fullscreenenter"",""1"",""4977""
","
","","","","","","666.3999999999069","<p> Try to make the best choice for each farm animal because </p><p> at the end of the game, you will earn bonus money based on how many points you earned. </p>","","0","instructions","","","","","","","","","","",""
"learning-instructions","188","789886","0.0-11.0-1.0-0.11","7198","1","8","Female","approach_avoid_spark_v1","""event"",""trial"",""time""
""fullscreenenter"",""1"",""4977""
","
","
","""event"",""trial"",""time""
""fullscreenenter"",""1"",""4977""
","
","","","","","","529.3999999999069","<p> You will have 3 seconds to make each choice. Try to respond before time runs out! </p><p> You will lose 5 points each time you do not make a response. </p>","","0","instructions","","","","","","","","","","",""
"html-keyboard-response","189","790499","0.0-11.0-2.0-0.0","7198","1","8","Female","approach_avoid_spark_v1","""event"",""trial"",""time""
""fullscreenenter"",""1"",""4977""
","
","
","""event"",""trial"",""time""
""fullscreenenter"",""1"",""4977""
","
","","","","","","null","<div style=""font-size:60px;"">+</div>","null","","fixation","","","","","","","","","","",""
"aa-learning-trial","190","793524","0.0-11.0-2.0-1.0","7198","1","8","Female","approach_avoid_spark_v1","""event"",""trial"",""time""
""fullscreenenter"",""1"",""4977""
","
","
","""event"",""trial"",""time""
""fullscreenenter"",""1"",""4977""
","
","","","","","","2007.7999999998137","images/sheep2.png","","","learning","2","2","1","1","sheep","animals","2","1","","bad","[-5]"
"html-keyboard-response","191","794035","0.0-11.0-2.0-0.1","7198","1","8","Female","approach_avoid_spark_v1","""event"",""trial"",""time""
""fullscreenenter"",""1"",""4977""
","
","
","""event"",""trial"",""time""
""fullscreenenter"",""1"",""4977""
","
","","","","","","null","<div style=""font-size:60px;"">+</div>","null","","fixation","","","","","","","","","","",""
"aa-learning-trial","192","797052","0.0-11.0-2.0-1.1","7198","1","8","Female","approach_avoid_spark_v1","""event"",""trial"",""time""
""fullscreenenter"",""1"",""4977""
","
","
","""event"",""trial"",""time""
""fullscreenenter"",""1"",""4977""
","
","","","","","","922.1000000000931","images/sheep2.png","","","learning","2","2","1","1","sheep","animals","2","1","","bad","[-5]"
"html-keyboard-response","193","797563","0.0-11.0-2.0-0.2","7198","1","8","Female","approach_avoid_spark_v1","""event"",""trial"",""time""
""fullscreenenter"",""1"",""4977""
","
","
","""event"",""trial"",""time""
""fullscreenenter"",""1"",""4977""
","
","","","","","","null","<div style=""font-size:60px;"">+</div>","null","","fixation","","","","","","","","","","",""
"aa-learning-trial","194","800580","0.0-11.0-2.0-1.2","7198","1","8","Female","approach_avoid_spark_v1","""event"",""trial"",""time""
""fullscreenenter"",""1"",""4977""
","
","
","""event"",""trial"",""time""
""fullscreenenter"",""1"",""4977""
","
","","","","","","897.1000000000931","images/goat5.png","","","learning","9","9","1","1","goat","animals","2","1","","neutral","0"
"html-keyboard-response","195","801090","0.0-11.0-2.0-0.3","7198","1","8","Female","approach_avoid_spark_v1","""event"",""trial"",""time""
""fullscreenenter"",""1"",""4977""
","
","
","""event"",""trial"",""time""
""fullscreenenter"",""1"",""4977""
","
","","","","","","null","<div style=""font-size:60px;"">+</div>","null","","fixation","","","","","","","","","","",""
"aa-learning-trial","196","804107","0.0-11.0-2.0-1.3","7198","1","8","Female","approach_avoid_spark_v1","""event"",""trial"",""time""
""fullscreenenter"",""1"",""4977""
","
","
","""event"",""trial"",""time""
""fullscreenenter"",""1"",""4977""
","
","","","","","","1395.1999999997206","images/sheep6.png","","","learning","3","3","1","1","sheep","animals","2","1","","bad","[-5]"
"html-keyboard-response","197","804619","0.0-11.0-2.0-0.4","7198","1","8","Female","approach_avoid_spark_v1","""event"",""trial"",""time""
""fullscreenenter"",""1"",""4977""
","
","
","""event"",""trial"",""time""
""fullscreenenter"",""1"",""4977""
","
","","","","","","null","<div style=""font-size:60px;"">+</div>","null","","fixation","","","","","","","","","","",""
"aa-learning-trial","198","807635","0.0-11.0-2.0-1.4","7198","1","8","Female","approach_avoid_spark_v1","""event"",""trial"",""time""
""fullscreenenter"",""1"",""4977""
","
","
","""event"",""trial"",""time""
""fullscreenenter"",""1"",""4977""
","
","","","","","","764.3999999999069","images/goat6.png","","","learning","-6","-6","1","1","goat","animals","2","1","","neutral","0"
"html-keyboard-response","199","808139","0.0-11.0-2.0-0.5","7198","1","8","Female","approach_avoid_spark_v1","""event"",""trial"",""time""
""fullscreenenter"",""1"",""4977""
","
","
","""event"",""trial"",""time""
""fullscreenenter"",""1"",""4977""
","
","","","","","","null","<div style=""font-size:60px;"">+</div>","null","","fixation","","","","","","","","","","",""
"aa-learning-trial","200","811155","0.0-11.0-2.0-1.5","7198","1","8","Female","approach_avoid_spark_v1","""event"",""trial"",""time""
""fullscreenenter"",""1"",""4977""
","
","
","""event"",""trial"",""time""
""fullscreenenter"",""1"",""4977""
","
","","","","","","916.9000000003725","images/horse3.png","","","learning","-8","-8","1","1","horse","animals","2","1","","good","[6]"
"html-keyboard-response","201","811667","0.0-11.0-2.0-0.6","7198","1","8","Female","approach_avoid_spark_v1","""event"",""trial"",""time""
""fullscreenenter"",""1"",""4977""
","
","
","""event"",""trial"",""time""
""fullscreenenter"",""1"",""4977""
","
","","","","","","null","<div style=""font-size:60px;"">+</div>","null","","fixation","","","","","","","","","","",""
"aa-learning-trial","202","814683","0.0-11.0-2.0-1.6","7198","1","8","Female","approach_avoid_spark_v1","""event"",""trial"",""time""
""fullscreenenter"",""1"",""4977""
","
","
","""event"",""trial"",""time""
""fullscreenenter"",""1"",""4977""
","
","","","","","","1462.5999999996275","images/sheep3.png","","","learning","-7","-7","1","1","sheep","animals","2","1","","bad","[-5]"
"html-keyboard-response","203","815195","0.0-11.0-2.0-0.7","7198","1","8","Female","approach_avoid_spark_v1","""event"",""trial"",""time""
""fullscreenenter"",""1"",""4977""
","
","
","""event"",""trial"",""time""
""fullscreenenter"",""1"",""4977""
","
","","","","","","null","<div style=""font-size:60px;"">+</div>","null","","fixation","","","","","","","","","","",""
"aa-learning-trial","204","818211","0.0-11.0-2.0-1.7","7198","1","8","Female","approach_avoid_spark_v1","""event"",""trial"",""time""
""fullscreenenter"",""1"",""4977""
","
","
","""event"",""trial"",""time""
""fullscreenenter"",""1"",""4977""
","
","","","","","","1188.8999999999069","images/horse5.png","","","learning","-3","-3","1","1","horse","animals","2","1","","good","[6]"
"html-keyboard-response","205","818715","0.0-11.0-2.0-0.8","7198","1","8","Female","approach_avoid_spark_v1","""event"",""trial"",""time""
""fullscreenenter"",""1"",""4977""
","
","
","""event"",""trial"",""time""
""fullscreenenter"",""1"",""4977""
","
","","","","","","null","<div style=""font-size:60px;"">+</div>","null","","fixation","","","","","","","","","","",""
"aa-learning-trial","206","821731","0.0-11.0-2.0-1.8","7198","1","8","Female","approach_avoid_spark_v1","""event"",""trial"",""time""
""fullscreenenter"",""1"",""4977""
","
","
","""event"",""trial"",""time""
""fullscreenenter"",""1"",""4977""
","
","","","","","","1645.5","images/goat4.png","","","learning","-4","-4","1","1","goat","animals","2","1","","neutral","0"
"html-keyboard-response","207","822235","0.0-11.0-2.0-0.9","7198","1","8","Female","approach_avoid_spark_v1","""event"",""trial"",""time""
""fullscreenenter"",""1"",""4977""
","
","
","""event"",""trial"",""time""
""fullscreenenter"",""1"",""4977""
","
","","","","","","null","<div style=""font-size:60px;"">+</div>","null","","fixation","","","","","","","","","","",""
"aa-learning-trial","208","825259","0.0-11.0-2.0-1.9","7198","1","8","Female","approach_avoid_spark_v1","""event"",""trial"",""time""
""fullscreenenter"",""1"",""4977""
","
","
","""event"",""trial"",""time""
""fullscreenenter"",""1"",""4977""
","
","","","","","","1025.7999999998137","images/horse3.png","","","learning","-8","0","0","0","horse","animals","2","1","","good","[6]"
"html-keyboard-response","209","825771","0.0-11.0-2.0-0.10","7198","1","8","Female","approach_avoid_spark_v1","""event"",""trial"",""time""
""fullscreenenter"",""1"",""4977""
","
","
","""event"",""trial"",""time""
""fullscreenenter"",""1"",""4977""
","
","","","","","","null","<div style=""font-size:60px;"">+</div>","null","","fixation","","","","","","","","","","",""
"aa-learning-trial","210","828795","0.0-11.0-2.0-1.10","7198","1","8","Female","approach_avoid_spark_v1","""event"",""trial"",""time""
""fullscreenenter"",""1"",""4977""
","
","
","""event"",""trial"",""time""
""fullscreenenter"",""1"",""4977""
","
","","","","","","1188.1000000000931","images/goat6.png","","","learning","-6","-6","1","1","goat","animals","2","1","","neutral","0"
"html-keyboard-response","211","829307","0.0-11.0-2.0-0.11","7198","1","8","Female","approach_avoid_spark_v1","""event"",""trial"",""time""
""fullscreenenter"",""1"",""4977""
","
","
","""event"",""trial"",""time""
""fullscreenenter"",""1"",""4977""
","
","","","","","","null","<div style=""font-size:60px;"">+</div>","null","","fixation","","","","","","","","","","",""
"aa-learning-trial","212","832331","0.0-11.0-2.0-1.11","7198","1","8","Female","approach_avoid_spark_v1","""event"",""trial"",""time""
""fullscreenenter"",""1"",""4977""
","
","
","""event"",""trial"",""time""
""fullscreenenter"",""1"",""4977""
","
","","","","","","1139.5","images/sheep3.png","","","learning","-7","-7","1","1","sheep","animals","2","1","","bad","[-5]"
"html-keyboard-response","213","832843","0.0-11.0-2.0-0.12","7198","1","8","Female","approach_avoid_spark_v1","""event"",""trial"",""time""
""fullscreenenter"",""1"",""4977""
","
","
","""event"",""trial"",""time""
""fullscreenenter"",""1"",""4977""
","
","","","","","","null","<div style=""font-size:60px;"">+</div>","null","","fixation","","","","","","","","","","",""
"aa-learning-trial","214","835859","0.0-11.0-2.0-1.12","7198","1","8","Female","approach_avoid_spark_v1","""event"",""trial"",""time""
""fullscreenenter"",""1"",""4977""
","
","
","""event"",""trial"",""time""
""fullscreenenter"",""1"",""4977""
","
","","","","","","2861.899999999907","images/horse5.png","","","learning","-3","0","0","0","horse","animals","2","1","","good","[6]"
"html-keyboard-response","215","836371","0.0-11.0-2.0-0.13","7198","1","8","Female","approach_avoid_spark_v1","""event"",""trial"",""time""
""fullscreenenter"",""1"",""4977""
","
","
","""event"",""trial"",""time""
""fullscreenenter"",""1"",""4977""
","
","","","","","","null","<div style=""font-size:60px;"">+</div>","null","","fixation","","","","","","","","","","",""
"aa-learning-trial","216","839387","0.0-11.0-2.0-1.13","7198","1","8","Female","approach_avoid_spark_v1","""event"",""trial"",""time""
""fullscreenenter"",""1"",""4977""
","
","
","""event"",""trial"",""time""
""fullscreenenter"",""1"",""4977""
","
","","","","","","890.7000000001863","images/goat5.png","","","learning","9","9","1","1","goat","animals","2","1","","neutral","0"
"html-keyboard-response","217","839899","0.0-11.0-2.0-0.14","7198","1","8","Female","approach_avoid_spark_v1","""event"",""trial"",""time""
""fullscreenenter"",""1"",""4977""
","
","
","""event"",""trial"",""time""
""fullscreenenter"",""1"",""4977""
","
","","","","","","null","<div style=""font-size:60px;"">+</div>","null","","fixation","","","","","","","","","","",""
"aa-learning-trial","218","842923","0.0-11.0-2.0-1.14","7198","1","8","Female","approach_avoid_spark_v1","""event"",""trial"",""time""
""fullscreenenter"",""1"",""4977""
","
","
","""event"",""trial"",""time""
""fullscreenenter"",""1"",""4977""
","
","","","","","","904.7999999998137","images/horse1.png","","","learning","8","8","1","1","horse","animals","2","1","","good","[6]"
"html-keyboard-response","219","843435","0.0-11.0-2.0-0.15","7198","1","8","Female","approach_avoid_spark_v1","""event"",""trial"",""time""
""fullscreenenter"",""1"",""4977""
","
","
","""event"",""trial"",""time""
""fullscreenenter"",""1"",""4977""
","
","","","","","","null","<div style=""font-size:60px;"">+</div>","null","","fixation","","","","","","","","","","",""
"aa-learning-trial","220","846451","0.0-11.0-2.0-1.15","7198","1","8","Female","approach_avoid_spark_v1","""event"",""trial"",""time""
""fullscreenenter"",""1"",""4977""
","
","
","""event"",""trial"",""time""
""fullscreenenter"",""1"",""4977""
","
","","","","","","2742.399999999907","images/sheep3.png","","","learning","-7","0","0","0","sheep","animals","2","1","","bad","[-5]"
"html-keyboard-response","221","846955","0.0-11.0-2.0-0.16","7198","1","8","Female","approach_avoid_spark_v1","""event"",""trial"",""time""
""fullscreenenter"",""1"",""4977""
","
","
","""event"",""trial"",""time""
""fullscreenenter"",""1"",""4977""
","
","","","","","","null","<div style=""font-size:60px;"">+</div>","null","","fixation","","","","","","","","","","",""
"aa-learning-trial","222","849971","0.0-11.0-2.0-1.16","7198","1","8","Female","approach_avoid_spark_v1","""event"",""trial"",""time""
""fullscreenenter"",""1"",""4977""
","
","
","""event"",""trial"",""time""
""fullscreenenter"",""1"",""4977""
","
","","","","","","1194.6999999997206","images/sheep6.png","","","learning","3","3","1","1","sheep","animals","2","1","","bad","[-5]"
"html-keyboard-response","223","850483","0.0-11.0-2.0-0.17","7198","1","8","Female","approach_avoid_spark_v1","""event"",""trial"",""time""
""fullscreenenter"",""1"",""4977""
","
","
","""event"",""trial"",""time""
""fullscreenenter"",""1"",""4977""
","
","","","","","","null","<div style=""font-size:60px;"">+</div>","null","","fixation","","","","","","","","","","",""
"aa-learning-trial","224","853499","0.0-11.0-2.0-1.17","7198","1","8","Female","approach_avoid_spark_v1","""event"",""trial"",""time""
""fullscreenenter"",""1"",""4977""
","
","
","""event"",""trial"",""time""
""fullscreenenter"",""1"",""4977""
","
","","","","","","946.3999999999069","images/horse3.png","","","learning","-8","0","0","0","horse","animals","2","1","","good","[6]"
"html-keyboard-response","225","854003","0.0-11.0-2.0-0.18","7198","1","8","Female","approach_avoid_spark_v1","""event"",""trial"",""time""
""fullscreenenter"",""1"",""4977""
","
","
","""event"",""trial"",""time""
""fullscreenenter"",""1"",""4977""
","
","","","","","","null","<div style=""font-size:60px;"">+</div>","null","","fixation","","","","","","","","","","",""
"aa-learning-trial","226","857020","0.0-11.0-2.0-1.18","7198","1","8","Female","approach_avoid_spark_v1","""event"",""trial"",""time""
""fullscreenenter"",""1"",""4977""
","
","
","""event"",""trial"",""time""
""fullscreenenter"",""1"",""4977""
","
","","","","","","1229.5","images/goat5.png","","","learning","9","9","1","1","goat","animals","2","1","","neutral","0"
"html-keyboard-response","227","857531","0.0-11.0-2.0-0.19","7198","1","8","Female","approach_avoid_spark_v1","""event"",""trial"",""time""
""fullscreenenter"",""1"",""4977""
","
","
","""event"",""trial"",""time""
""fullscreenenter"",""1"",""4977""
","
","","","","","","null","<div style=""font-size:60px;"">+</div>","null","","fixation","","","","","","","","","","",""
"aa-learning-trial","228","860547","0.0-11.0-2.0-1.19","7198","1","8","Female","approach_avoid_spark_v1","""event"",""trial"",""time""
""fullscreenenter"",""1"",""4977""
","
","
","""event"",""trial"",""time""
""fullscreenenter"",""1"",""4977""
","
","","","","","","1117.3999999999069","images/goat2.png","","","learning","1","1","1","1","goat","animals","2","1","","neutral","0"
"html-keyboard-response","229","861059","0.0-11.0-2.0-0.20","7198","1","8","Female","approach_avoid_spark_v1","""event"",""trial"",""time""
""fullscreenenter"",""1"",""4977""
","
","
","""event"",""trial"",""time""
""fullscreenenter"",""1"",""4977""
","
","","","","","","null","<div style=""font-size:60px;"">+</div>","null","","fixation","","","","","","","","","","",""
"aa-learning-trial","230","864075","0.0-11.0-2.0-1.20","7198","1","8","Female","approach_avoid_spark_v1","""event"",""trial"",""time""
""fullscreenenter"",""1"",""4977""
","
","
","""event"",""trial"",""time""
""fullscreenenter"",""1"",""4977""
","
","","","","","","1866.2999999998137","images/sheep6.png","","","learning","3","0","0","0","sheep","animals","2","1","","bad","[-5]"
"html-keyboard-response","231","864587","0.0-11.0-2.0-0.21","7198","1","8","Female","approach_avoid_spark_v1","""event"",""trial"",""time""
""fullscreenenter"",""1"",""4977""
","
","
","""event"",""trial"",""time""
""fullscreenenter"",""1"",""4977""
","
","","","","","","null","<div style=""font-size:60px;"">+</div>","null","","fixation","","","","","","","","","","",""
"aa-learning-trial","232","867603","0.0-11.0-2.0-1.21","7198","1","8","Female","approach_avoid_spark_v1","""event"",""trial"",""time""
""fullscreenenter"",""1"",""4977""
","
","
","""event"",""trial"",""time""
""fullscreenenter"",""1"",""4977""
","
","","","","","","1717.1999999997206","images/goat6.png","","","learning","-6","0","0","0","goat","animals","2","1","","neutral","0"
"html-keyboard-response","233","868115","0.0-11.0-2.0-0.22","7198","1","8","Female","approach_avoid_spark_v1","""event"",""trial"",""time""
""fullscreenenter"",""1"",""4977""
","
","
","""event"",""trial"",""time""
""fullscreenenter"",""1"",""4977""
","
","","","","","","null","<div style=""font-size:60px;"">+</div>","null","","fixation","","","","","","","","","","",""
"aa-learning-trial","234","871131","0.0-11.0-2.0-1.22","7198","1","8","Female","approach_avoid_spark_v1","""event"",""trial"",""time""
""fullscreenenter"",""1"",""4977""
","
","
","""event"",""trial"",""time""
""fullscreenenter"",""1"",""4977""
","
","","","","","","1254.1000000000931","images/horse8.png","","","learning","5","5","1","1","horse","animals","2","1","","good","[6]"
"html-keyboard-response","235","871643","0.0-11.0-2.0-0.23","7198","1","8","Female","approach_avoid_spark_v1","""event"",""trial"",""time""
""fullscreenenter"",""1"",""4977""
","
","
","""event"",""trial"",""time""
""fullscreenenter"",""1"",""4977""
","
","","","","","","null","<div style=""font-size:60px;"">+</div>","null","","fixation","","","","","","","","","","",""
"aa-learning-trial","236","874660","0.0-11.0-2.0-1.23","7198","1","8","Female","approach_avoid_spark_v1","""event"",""trial"",""time""
