"trial_type","trial_index","time_elapsed","internal_node_id","subject_id","task_condition","age","gender","task_version","interactions","blur_events","focus_events","fullscreenenter_events","fullscreenexit_events","success","timeout","failed_images","failed_audio","failed_video","rt","stimulus","response","button_pressed","task_part","approach_reward","points","key_press","option_selected","stim_cat","task_block","block_condition","block_number","correct","cat_type","mean_cat_reward"
"pavlovia","0","5","0.0-0.0","4012","2","13","Female","approach_avoid_spark_v1","""event"",""trial"",""time""
""blur"",""1"",""7312""
""focus"",""1"",""129274""
""fullscreenenter"",""1"",""130845""
","""event"",""trial"",""time""
""blur"",""1"",""7312""
","""event"",""trial"",""time""
""focus"",""1"",""129274""
","""event"",""trial"",""time""
""fullscreenenter"",""1"",""130845""
","
","","","","","","","","","","","","","","","","","","","","",""
"fullscreen","1","131526","0.0-1.0","4012","2","13","Female","approach_avoid_spark_v1","""event"",""trial"",""time""
""blur"",""1"",""7312""
""focus"",""1"",""129274""
""fullscreenenter"",""1"",""130845""
","""event"",""trial"",""time""
""blur"",""1"",""7312""
","""event"",""trial"",""time""
""focus"",""1"",""129274""
","""event"",""trial"",""time""
""fullscreenenter"",""1"",""130845""
","
","true","","","","","","","","","","","","","","","","","","","",""
"preload","2","136158","0.0-2.0","4012","2","13","Female","approach_avoid_spark_v1","""event"",""trial"",""time""
""blur"",""1"",""7312""
""focus"",""1"",""129274""
""fullscreenenter"",""1"",""130845""
","""event"",""trial"",""time""
""blur"",""1"",""7312""
","""event"",""trial"",""time""
""focus"",""1"",""129274""
","""event"",""trial"",""time""
""fullscreenenter"",""1"",""130845""
","
","true","false","[]","[]","[]","","","","","","","","","","","","","","","",""
"audio-keyboard-response","3","137801","0.0-3.0","4012","2","13","Female","approach_avoid_spark_v1","""event"",""trial"",""time""
""blur"",""1"",""7312""
""focus"",""1"",""129274""
""fullscreenenter"",""1"",""130845""
","""event"",""trial"",""time""
""blur"",""1"",""7312""
","""event"",""trial"",""time""
""focus"",""1"",""129274""
","""event"",""trial"",""time""
""fullscreenenter"",""1"",""130845""
","
","","","","","","0","audio/beep_loop.wav"," ","","","","","","","","","","","","",""
"audio-button-response","4","139750","0.0-4.0","4012","2","13","Female","approach_avoid_spark_v1","""event"",""trial"",""time""
""blur"",""1"",""7312""
""focus"",""1"",""129274""
""fullscreenenter"",""1"",""130845""
","""event"",""trial"",""time""
""blur"",""1"",""7312""
","""event"",""trial"",""time""
""focus"",""1"",""129274""
","""event"",""trial"",""time""
""fullscreenenter"",""1"",""130845""
","
","","","","","","1945","audio/shark.wav","4","","","","","","","","","","","","",""
"audio-button-response","5","142045","0.0-5.0","4012","2","13","Female","approach_avoid_spark_v1","""event"",""trial"",""time""
""blur"",""1"",""7312""
""focus"",""1"",""129274""
""fullscreenenter"",""1"",""130845""
","""event"",""trial"",""time""
""blur"",""1"",""7312""
","""event"",""trial"",""time""
""focus"",""1"",""129274""
","""event"",""trial"",""time""
""fullscreenenter"",""1"",""130845""
","
","","","","","","1292","audio/turtle.wav","1","","","","","","","","","","","","",""
"preload","6","144772","0.0-6.0","4012","2","13","Female","approach_avoid_spark_v1","""event"",""trial"",""time""
""blur"",""1"",""7312""
""focus"",""1"",""129274""
""fullscreenenter"",""1"",""130845""
","""event"",""trial"",""time""
""blur"",""1"",""7312""
","""event"",""trial"",""time""
""focus"",""1"",""129274""
","""event"",""trial"",""time""
""fullscreenenter"",""1"",""130845""
","
","true","false","[]","[]","[]","","","","","","","","","","","","","","","",""
"html-keyboard-response","7","147609","0.0-7.0","4012","2","13","Female","approach_avoid_spark_v1","""event"",""trial"",""time""
""blur"",""1"",""7312""
""focus"",""1"",""129274""
""fullscreenenter"",""1"",""130845""
","""event"",""trial"",""time""
""blur"",""1"",""7312""
","""event"",""trial"",""time""
""focus"",""1"",""129274""
","""event"",""trial"",""time""
""fullscreenenter"",""1"",""130845""
","
","","","","","","2835","Welcome to the experiment. Press any key to begin and to advance the instructions.","b","","","","","","","","","","","","",""
"learning-instructions","8","156378","0.0-8.0-0.0-0.0","4012","2","13","Female","approach_avoid_spark_v1","""event"",""trial"",""time""
""blur"",""1"",""7312""
""focus"",""1"",""129274""
""fullscreenenter"",""1"",""130845""
","""event"",""trial"",""time""
""blur"",""1"",""7312""
","""event"",""trial"",""time""
""focus"",""1"",""129274""
","""event"",""trial"",""time""
""fullscreenenter"",""1"",""130845""
","
","","","","","","1815","<p> Welcome! Today you are going to play 6 different rounds of a decision-making game. </p><p> Use the mouse to click next to continue. </p>","","0","instructions","","","","","","","","","","",""
"learning-instructions","9","163691","0.0-8.0-0.0-0.1","4012","2","13","Female","approach_avoid_spark_v1","""event"",""trial"",""time""
""blur"",""1"",""7312""
""focus"",""1"",""129274""
""fullscreenenter"",""1"",""130845""
","""event"",""trial"",""time""
""blur"",""1"",""7312""
","""event"",""trial"",""time""
""focus"",""1"",""129274""
","""event"",""trial"",""time""
""fullscreenenter"",""1"",""130845""
","
","","","","","","4589.000000000029","<p> You will start with a practice round to learn the rules. </p>","","0","instructions","","","","","","","","","","",""
"learning-instructions","10","167572","0.0-8.0-0.0-0.2","4012","2","13","Female","approach_avoid_spark_v1","""event"",""trial"",""time""
""blur"",""1"",""7312""
""focus"",""1"",""129274""
""fullscreenenter"",""1"",""130845""
","""event"",""trial"",""time""
""blur"",""1"",""7312""
","""event"",""trial"",""time""
""focus"",""1"",""129274""
","""event"",""trial"",""time""
""fullscreenenter"",""1"",""130845""
","
","","","","","","435","<p> Your goal in this round is to give out sports equipment to kids. </p></div>","","0","instructions","","","","","","","","","","",""
"learning-instructions","11","175672","0.0-8.0-0.0-0.3","4012","2","13","Female","approach_avoid_spark_v1","""event"",""trial"",""time""
""blur"",""1"",""7312""
""focus"",""1"",""129274""
""fullscreenenter"",""1"",""130845""
","""event"",""trial"",""time""
""blur"",""1"",""7312""
","""event"",""trial"",""time""
""focus"",""1"",""129274""
","""event"",""trial"",""time""
""fullscreenenter"",""1"",""130845""
","
","","","","","","557","<p> The kids only like some of the equipment.  </p><p> On each turn, you will see a piece of sports equipment.   </p><p> You need to decide whether to give it to the kids or not.  </p>","","0","instructions","","","","","","","","","","",""
"learning-instructions","12","181365","0.0-8.0-0.0-0.4","4012","2","13","Female","approach_avoid_spark_v1","""event"",""trial"",""time""
""blur"",""1"",""7312""
""focus"",""1"",""129274""
""fullscreenenter"",""1"",""130845""
","""event"",""trial"",""time""
""blur"",""1"",""7312""
","""event"",""trial"",""time""
""focus"",""1"",""129274""
","""event"",""trial"",""time""
""fullscreenenter"",""1"",""130845""
","
","","","","","","946","<p> You can give them the equipment by pressing 1 and choose not to give it to them by pressing 0. </p><br><div class=""choice-instructions-grid""> <div class=""choice-option""><img src=""images/approach.png"" class=""choice-option-img"" stage=""instructions"" position=""0"" ><div class=""choice-option-text""> Press ""1."" </div></div><div class=""choice-option""><img src=""images/avoid.png"" class=""choice-option-img"" stage=""instructions"" position=""1"" ><div class=""choice-option-text""> Press ""0."" </div></div>","","0","instructions","","","","","","","","","","",""
"learning-instructions","13","189397","0.0-8.0-0.0-0.5","4012","2","13","Female","approach_avoid_spark_v1","""event"",""trial"",""time""
""blur"",""1"",""7312""
""focus"",""1"",""129274""
""fullscreenenter"",""1"",""130845""
","""event"",""trial"",""time""
""blur"",""1"",""7312""
","""event"",""trial"",""time""
""focus"",""1"",""129274""
","""event"",""trial"",""time""
""fullscreenenter"",""1"",""130845""
","
","","","","","","652","<p> If you give them a piece of equipment they like, they will be happy! </p><p> But if you give them a piece of equipment they do not like, they will be sad. </p>","","0","instructions","","","","","","","","","","",""
"learning-instructions","14","200434","0.0-8.0-0.0-0.6","4012","2","13","Female","approach_avoid_spark_v1","""event"",""trial"",""time""
""blur"",""1"",""7312""
""focus"",""1"",""129274""
""fullscreenenter"",""1"",""130845""
","""event"",""trial"",""time""
""blur"",""1"",""7312""
","""event"",""trial"",""time""
""focus"",""1"",""129274""
","""event"",""trial"",""time""
""fullscreenenter"",""1"",""130845""
","
","","","","","","531","<p> You will earn points based on how you make kids feel. </p><p> If you make them happy, you will WIN anywhere from 1 - 9 points, </p><p> but if you make them sad, you will LOSE anywhere from 1 - 9 points. </p>","","0","instructions","","","","","","","","","","",""
"learning-instructions","15","210683","0.0-8.0-0.0-0.7","4012","2","13","Female","approach_avoid_spark_v1","""event"",""trial"",""time""
""blur"",""1"",""7312""
""focus"",""1"",""129274""
""fullscreenenter"",""1"",""130845""
","""event"",""trial"",""time""
""blur"",""1"",""7312""
","""event"",""trial"",""time""
""focus"",""1"",""129274""
","""event"",""trial"",""time""
""fullscreenenter"",""1"",""130845""
","
","","","","","","697","<p> You will see how many points you won or lost in the center of the screen. </p><p> Here is what you would see if you won 6 points: </p><p style=""color:green;font-size:50px;font-weight:bolder"">6</p><p style=""color:green"">The text is GREEN because you WON points.</p>","","0","instructions","","","","","","","","","","",""
"learning-instructions","16","216657","0.0-8.0-0.0-0.8","4012","2","13","Female","approach_avoid_spark_v1","""event"",""trial"",""time""
""blur"",""1"",""7312""
""focus"",""1"",""129274""
""fullscreenenter"",""1"",""130845""
","""event"",""trial"",""time""
""blur"",""1"",""7312""
","""event"",""trial"",""time""
""focus"",""1"",""129274""
","""event"",""trial"",""time""
""fullscreenenter"",""1"",""130845""
","
","","","","","","474","<p> And here is what you would see if you lost 4 points: </p><p style=""color:red;font-size:50px;font-weight:bolder"">-4</p><p style=""color:red"">The text is RED because you LOST points. </p>","","0","instructions","","","","","","","","","","",""
"learning-instructions","17","232216","0.0-8.0-0.0-0.9","4012","2","13","Female","approach_avoid_spark_v1","""event"",""trial"",""time""
""blur"",""1"",""7312""
""focus"",""1"",""129274""
""fullscreenenter"",""1"",""130845""
","""event"",""trial"",""time""
""blur"",""1"",""7312""
","""event"",""trial"",""time""
""focus"",""1"",""129274""
","""event"",""trial"",""time""
""fullscreenenter"",""1"",""130845""
","
","","","","","","853","<p> Some of the equipment will make the kids VERY happy or sad. </p><p> These pieces of equipment will make you win or lose LOTS of points. </p><p> Other pieces of equipment will only make the kids a little happy or sad. </p><p> These pieces of equipment will make you win or lose small amounts of points. </p>","","0","instructions","","","","","","","","","","",""
"learning-instructions","18","244603","0.0-8.0-0.0-0.10","4012","2","13","Female","approach_avoid_spark_v1","""event"",""trial"",""time""
""blur"",""1"",""7312""
""focus"",""1"",""129274""
""fullscreenenter"",""1"",""130845""
","""event"",""trial"",""time""
""blur"",""1"",""7312""
","""event"",""trial"",""time""
""focus"",""1"",""129274""
","""event"",""trial"",""time""
""fullscreenenter"",""1"",""130845""
","
","","","","","","1766","<p> If you choose not to give them the equipment, you will not win or lose any points. </p><p>  However, in the center of the screen, you will see the number of points you WOULD HAVE won or lost if you had given them the equipment. </p>","","0","instructions","","","","","","","","","","",""
"learning-instructions","19","266575","0.0-8.0-0.0-0.11","4012","2","13","Female","approach_avoid_spark_v1","""event"",""trial"",""time""
""blur"",""1"",""7312""
""focus"",""1"",""129274""
""fullscreenenter"",""1"",""130845""
","""event"",""trial"",""time""
""blur"",""1"",""7312""
","""event"",""trial"",""time""
""focus"",""1"",""129274""
","""event"",""trial"",""time""
""fullscreenenter"",""1"",""130845""
","
","","","","","","449","<p> Here is what you might see if you did not give the equipment to the kids but it would have made them happy: </p><p style=""color:grey; font-size:50px; display: inline-block; border-spacing: 15px; border-width:3px; border-style:solid; border-color:red"">  &nbsp; 7 &nbsp; </p><p> Remember, in this case, you would not win or lose ANY points because you did not give them the equipment.  </p><p style=""color:grey"">The text is GREY because you earned ZERO points. </p><p style=""color:red"">However, choosing to give the kids the equipment would have made you win points. The box around the text is RED because you chose the worse option. </p>","","0","instructions","","","","","","","","","","",""
"learning-instructions","20","291190","0.0-8.0-0.0-0.12","4012","2","13","Female","approach_avoid_spark_v1","""event"",""trial"",""time""
""blur"",""1"",""7312""
""focus"",""1"",""129274""
""fullscreenenter"",""1"",""130845""
","""event"",""trial"",""time""
""blur"",""1"",""7312""
","""event"",""trial"",""time""
""focus"",""1"",""129274""
","""event"",""trial"",""time""
""fullscreenenter"",""1"",""130845""
","
","","","","","","3546","<p> Here is what you might see if you did not give the equipment to the kids but it would have made them sad: </p><p style=""color:grey;font-size:50px; display: inline-block; border-spacing: 15px; border-width:3px; border-style:solid; border-color:green"">  &nbsp; -8 &nbsp; </p><p> Remember, in this case, you would not win or lose ANY points because you did not give them the equipment.  </p><p style=""color:grey"">The text is GREY because you earned ZERO points. </p><p  style=""color:green""> Choosing to give the kids the equipment would have made you lose points. The box around the text is GREEN because you chose the better option.</p>","","0","instructions","","","","","","","","","","",""
"learning-instructions","21","302958","0.0-8.0-0.0-0.13","4012","2","13","Female","approach_avoid_spark_v1","""event"",""trial"",""time""
""blur"",""1"",""7312""
""focus"",""1"",""129274""
""fullscreenenter"",""1"",""130845""
","""event"",""trial"",""time""
""blur"",""1"",""7312""
","""event"",""trial"",""time""
""focus"",""1"",""129274""
","""event"",""trial"",""time""
""fullscreenenter"",""1"",""130845""
","
","","","","","","2337","<p> You will have 3 seconds to make each choice. Try to respond before time runs out! </p><p> You will lose 5 points each time you do not make a response. </p>","","0","instructions","","","","","","","","","","",""
"learning-instructions","22","309607","0.0-8.0-0.0-0.14","4012","2","13","Female","approach_avoid_spark_v1","""event"",""trial"",""time""
""blur"",""1"",""7312""
""focus"",""1"",""129274""
""fullscreenenter"",""1"",""130845""
","""event"",""trial"",""time""
""blur"",""1"",""7312""
","""event"",""trial"",""time""
""focus"",""1"",""129274""
","""event"",""trial"",""time""
""fullscreenenter"",""1"",""130845""
","
","","","","","","1242","<p> This is just a practice round, but in the real game, your bonus payment will depend on your total number of points.","","0","instructions","","","","","","","","","","",""
"learning-instructions","23","316211","0.0-8.0-0.0-0.15","4012","2","13","Female","approach_avoid_spark_v1","""event"",""trial"",""time""
""blur"",""1"",""7312""
""focus"",""1"",""129274""
""fullscreenenter"",""1"",""130845""
","""event"",""trial"",""time""
""blur"",""1"",""7312""
","""event"",""trial"",""time""
""focus"",""1"",""129274""
","""event"",""trial"",""time""
""fullscreenenter"",""1"",""130845""
","
","","","","","","851","<p> Remember, you can give them the equipment by pressing 1 and choose not to give it to them by pressing 0. </p><br><div class=""choice-instructions-grid""> <div class=""choice-option""><img src=""images/approach.png"" class=""choice-option-img"" stage=""instructions"" position=""0"" ><div class=""choice-option-text""> Press ""1."" </div></div><div class=""choice-option""><img src=""images/avoid.png"" class=""choice-option-img"" stage=""instructions"" position=""1"" ><div class=""choice-option-text""> Press ""0."" </div></div>","","0","instructions","","","","","","","","","","",""
"html-button-response","24","318124","0.0-8.0-1.0","4012","2","13","Female","approach_avoid_spark_v1","""event"",""trial"",""time""
""blur"",""1"",""7312""
""focus"",""1"",""129274""
""fullscreenenter"",""1"",""130845""
","""event"",""trial"",""time""
""blur"",""1"",""7312""
","""event"",""trial"",""time""
""focus"",""1"",""129274""
","""event"",""trial"",""time""
""fullscreenenter"",""1"",""130845""
","
","","","","","","1811","<p> Ready to practice? </p>","0","","","","","","","","","","","","",""
"html-keyboard-response","25","318725","0.0-8.0-2.0-0.0","4012","2","13","Female","approach_avoid_spark_v1","""event"",""trial"",""time""
""blur"",""1"",""7312""
""focus"",""1"",""129274""
""fullscreenenter"",""1"",""130845""
","""event"",""trial"",""time""
""blur"",""1"",""7312""
","""event"",""trial"",""time""
""focus"",""1"",""129274""
","""event"",""trial"",""time""
""fullscreenenter"",""1"",""130845""
","
","","","","","","null","<div style=""font-size:60px;"">+</div>","null","","fixation","","","","","","","","","","",""
"aa-learning-trial","26","321728","0.0-8.0-2.0-1.0","4012","2","13","Female","approach_avoid_spark_v1","""event"",""trial"",""time""
""blur"",""1"",""7312""
""focus"",""1"",""129274""
""fullscreenenter"",""1"",""130845""
","""event"",""trial"",""time""
""blur"",""1"",""7312""
","""event"",""trial"",""time""
""focus"",""1"",""129274""
","""event"",""trial"",""time""
""fullscreenenter"",""1"",""130845""
","
","","","","","","1512","images/racket4.png","","","learning","-7","-7","1","1","practice","practice","practice","-1","","",""
"html-keyboard-response","27","322231","0.0-8.0-2.0-0.1","4012","2","13","Female","approach_avoid_spark_v1","""event"",""trial"",""time""
""blur"",""1"",""7312""
""focus"",""1"",""129274""
""fullscreenenter"",""1"",""130845""
","""event"",""trial"",""time""
""blur"",""1"",""7312""
","""event"",""trial"",""time""
""focus"",""1"",""129274""
","""event"",""trial"",""time""
""fullscreenenter"",""1"",""130845""
","
","","","","","","null","<div style=""font-size:60px;"">+</div>","null","","fixation","","","","","","","","","","",""
"aa-learning-trial","28","325233","0.0-8.0-2.0-1.1","4012","2","13","Female","approach_avoid_spark_v1","""event"",""trial"",""time""
""blur"",""1"",""7312""
""focus"",""1"",""129274""
""fullscreenenter"",""1"",""130845""
","""event"",""trial"",""time""
""blur"",""1"",""7312""
","""event"",""trial"",""time""
""focus"",""1"",""129274""
","""event"",""trial"",""time""
""fullscreenenter"",""1"",""130845""
","
","","","","","","1495","images/ball4.png","","","learning","7","0","0","0","practice","practice","practice","-1","","",""
"html-keyboard-response","29","325735","0.0-8.0-2.0-0.2","4012","2","13","Female","approach_avoid_spark_v1","""event"",""trial"",""time""
""blur"",""1"",""7312""
""focus"",""1"",""129274""
""fullscreenenter"",""1"",""130845""
","""event"",""trial"",""time""
""blur"",""1"",""7312""
","""event"",""trial"",""time""
""focus"",""1"",""129274""
","""event"",""trial"",""time""
""fullscreenenter"",""1"",""130845""
","
","","","","","","null","<div style=""font-size:60px;"">+</div>","null","","fixation","","","","","","","","","","",""
"aa-learning-trial","30","328738","0.0-8.0-2.0-1.2","4012","2","13","Female","approach_avoid_spark_v1","""event"",""trial"",""time""
""blur"",""1"",""7312""
""focus"",""1"",""129274""
""fullscreenenter"",""1"",""130845""
","""event"",""trial"",""time""
""blur"",""1"",""7312""
","""event"",""trial"",""time""
""focus"",""1"",""129274""
","""event"",""trial"",""time""
""fullscreenenter"",""1"",""130845""
","
","","","","","","767","images/racket1.png","","","learning","7","7","1","1","practice","practice","practice","-1","","",""
"html-keyboard-response","31","329240","0.0-8.0-2.0-0.3","4012","2","13","Female","approach_avoid_spark_v1","""event"",""trial"",""time""
""blur"",""1"",""7312""
""focus"",""1"",""129274""
""fullscreenenter"",""1"",""130845""
","""event"",""trial"",""time""
""blur"",""1"",""7312""
","""event"",""trial"",""time""
""focus"",""1"",""129274""
","""event"",""trial"",""time""
""fullscreenenter"",""1"",""130845""
","
","","","","","","null","<div style=""font-size:60px;"">+</div>","null","","fixation","","","","","","","","","","",""
"aa-learning-trial","32","332242","0.0-8.0-2.0-1.3","4012","2","13","Female","approach_avoid_spark_v1","""event"",""trial"",""time""
""blur"",""1"",""7312""
""focus"",""1"",""129274""
""fullscreenenter"",""1"",""130845""
","""event"",""trial"",""time""
""blur"",""1"",""7312""
","""event"",""trial"",""time""
""focus"",""1"",""129274""
","""event"",""trial"",""time""
""fullscreenenter"",""1"",""130845""
","
","","","","","","1446","images/racket2.png","","","learning","-7","-7","1","1","practice","practice","practice","-1","","",""
"html-keyboard-response","33","332744","0.0-8.0-2.0-0.4","4012","2","13","Female","approach_avoid_spark_v1","""event"",""trial"",""time""
""blur"",""1"",""7312""
""focus"",""1"",""129274""
""fullscreenenter"",""1"",""130845""
","""event"",""trial"",""time""
""blur"",""1"",""7312""
","""event"",""trial"",""time""
""focus"",""1"",""129274""
","""event"",""trial"",""time""
""fullscreenenter"",""1"",""130845""
","
","","","","","","null","<div style=""font-size:60px;"">+</div>","null","","fixation","","","","","","","","","","",""
"aa-learning-trial","34","335746","0.0-8.0-2.0-1.4","4012","2","13","Female","approach_avoid_spark_v1","""event"",""trial"",""time""
""blur"",""1"",""7312""
""focus"",""1"",""129274""
""fullscreenenter"",""1"",""130845""
","""event"",""trial"",""time""
""blur"",""1"",""7312""
","""event"",""trial"",""time""
""focus"",""1"",""129274""
","""event"",""trial"",""time""
""fullscreenenter"",""1"",""130845""
","
","","","","","","1318","images/racket1.png","","","learning","4","0","0","0","practice","practice","practice","-1","","",""
"html-keyboard-response","35","336248","0.0-8.0-2.0-0.5","4012","2","13","Female","approach_avoid_spark_v1","""event"",""trial"",""time""
""blur"",""1"",""7312""
""focus"",""1"",""129274""
""fullscreenenter"",""1"",""130845""
","""event"",""trial"",""time""
""blur"",""1"",""7312""
","""event"",""trial"",""time""
""focus"",""1"",""129274""
","""event"",""trial"",""time""
""fullscreenenter"",""1"",""130845""
","
","","","","","","null","<div style=""font-size:60px;"">+</div>","null","","fixation","","","","","","","","","","",""
"aa-learning-trial","36","339251","0.0-8.0-2.0-1.5","4012","2","13","Female","approach_avoid_spark_v1","""event"",""trial"",""time""
""blur"",""1"",""7312""
""focus"",""1"",""129274""
""fullscreenenter"",""1"",""130845""
","""event"",""trial"",""time""
""blur"",""1"",""7312""
","""event"",""trial"",""time""
""focus"",""1"",""129274""
","""event"",""trial"",""time""
""fullscreenenter"",""1"",""130845""
","
","","","","","","2526","images/racket2.png","","","learning","-7","-7","1","1","practice","practice","practice","-1","","",""
"html-keyboard-response","37","339753","0.0-8.0-2.0-0.6","4012","2","13","Female","approach_avoid_spark_v1","""event"",""trial"",""time""
""blur"",""1"",""7312""
""focus"",""1"",""129274""
""fullscreenenter"",""1"",""130845""
","""event"",""trial"",""time""
""blur"",""1"",""7312""
","""event"",""trial"",""time""
""focus"",""1"",""129274""
","""event"",""trial"",""time""
""fullscreenenter"",""1"",""130845""
","
","","","","","","null","<div style=""font-size:60px;"">+</div>","null","","fixation","","","","","","","","","","",""
"aa-learning-trial","38","342754","0.0-8.0-2.0-1.6","4012","2","13","Female","approach_avoid_spark_v1","""event"",""trial"",""time""
""blur"",""1"",""7312""
""focus"",""1"",""129274""
""fullscreenenter"",""1"",""130845""
","""event"",""trial"",""time""
""blur"",""1"",""7312""
","""event"",""trial"",""time""
""focus"",""1"",""129274""
","""event"",""trial"",""time""
""fullscreenenter"",""1"",""130845""
","
","","","","","","1756.9999999999418","images/ball3.png","","","learning","-1","-1","1","1","practice","practice","practice","-1","","",""
"html-keyboard-response","39","343256","0.0-8.0-2.0-0.7","4012","2","13","Female","approach_avoid_spark_v1","""event"",""trial"",""time""
""blur"",""1"",""7312""
""focus"",""1"",""129274""
""fullscreenenter"",""1"",""130845""
","""event"",""trial"",""time""
""blur"",""1"",""7312""
","""event"",""trial"",""time""
""focus"",""1"",""129274""
","""event"",""trial"",""time""
""fullscreenenter"",""1"",""130845""
","
","","","","","","null","<div style=""font-size:60px;"">+</div>","null","","fixation","","","","","","","","","","",""
"aa-learning-trial","40","346258","0.0-8.0-2.0-1.7","4012","2","13","Female","approach_avoid_spark_v1","""event"",""trial"",""time""
""blur"",""1"",""7312""
""focus"",""1"",""129274""
""fullscreenenter"",""1"",""130845""
","""event"",""trial"",""time""
""blur"",""1"",""7312""
","""event"",""trial"",""time""
""focus"",""1"",""129274""
","""event"",""trial"",""time""
""fullscreenenter"",""1"",""130845""
","
","","","","","","1278","images/racket3.png","","","learning","-2","0","0","0","practice","practice","practice","-1","","",""
"html-keyboard-response","41","346760","0.0-8.0-2.0-0.8","4012","2","13","Female","approach_avoid_spark_v1","""event"",""trial"",""time""
""blur"",""1"",""7312""
""focus"",""1"",""129274""
""fullscreenenter"",""1"",""130845""
","""event"",""trial"",""time""
""blur"",""1"",""7312""
","""event"",""trial"",""time""
""focus"",""1"",""129274""
","""event"",""trial"",""time""
""fullscreenenter"",""1"",""130845""
","
","","","","","","null","<div style=""font-size:60px;"">+</div>","null","","fixation","","","","","","","","","","",""
"aa-learning-trial","42","349761","0.0-8.0-2.0-1.8","4012","2","13","Female","approach_avoid_spark_v1","""event"",""trial"",""time""
""blur"",""1"",""7312""
""focus"",""1"",""129274""
""fullscreenenter"",""1"",""130845""
","""event"",""trial"",""time""
""blur"",""1"",""7312""
","""event"",""trial"",""time""
""focus"",""1"",""129274""
","""event"",""trial"",""time""
""fullscreenenter"",""1"",""130845""
","
","","","","","","630.0000000000582","images/ball4.png","","","learning","-2","0","0","0","practice","practice","practice","-1","","",""
"html-keyboard-response","43","350263","0.0-8.0-2.0-0.9","4012","2","13","Female","approach_avoid_spark_v1","""event"",""trial"",""time""
""blur"",""1"",""7312""
""focus"",""1"",""129274""
""fullscreenenter"",""1"",""130845""
","""event"",""trial"",""time""
""blur"",""1"",""7312""
","""event"",""trial"",""time""
""focus"",""1"",""129274""
","""event"",""trial"",""time""
""fullscreenenter"",""1"",""130845""
","
","","","","","","null","<div style=""font-size:60px;"">+</div>","null","","fixation","","","","","","","","","","",""
"aa-learning-trial","44","353265","0.0-8.0-2.0-1.9","4012","2","13","Female","approach_avoid_spark_v1","""event"",""trial"",""time""
""blur"",""1"",""7312""
""focus"",""1"",""129274""
""fullscreenenter"",""1"",""130845""
","""event"",""trial"",""time""
""blur"",""1"",""7312""
","""event"",""trial"",""time""
""focus"",""1"",""129274""
","""event"",""trial"",""time""
""fullscreenenter"",""1"",""130845""
","
","","","","","","479","images/ball3.png","","","learning","2","0","0","0","practice","practice","practice","-1","","",""
"html-keyboard-response","45","353767","0.0-8.0-2.0-0.10","4012","2","13","Female","approach_avoid_spark_v1","""event"",""trial"",""time""
""blur"",""1"",""7312""
""focus"",""1"",""129274""
""fullscreenenter"",""1"",""130845""
","""event"",""trial"",""time""
""blur"",""1"",""7312""
","""event"",""trial"",""time""
""focus"",""1"",""129274""
","""event"",""trial"",""time""
""fullscreenenter"",""1"",""130845""
","
","","","","","","null","<div style=""font-size:60px;"">+</div>","null","","fixation","","","","","","","","","","",""
"aa-learning-trial","46","356770","0.0-8.0-2.0-1.10","4012","2","13","Female","approach_avoid_spark_v1","""event"",""trial"",""time""
""blur"",""1"",""7312""
""focus"",""1"",""129274""
""fullscreenenter"",""1"",""130845""
","""event"",""trial"",""time""
""blur"",""1"",""7312""
","""event"",""trial"",""time""
""focus"",""1"",""129274""
","""event"",""trial"",""time""
""fullscreenenter"",""1"",""130845""
","
","","","","","","582","images/ball1.png","","","learning","-3","0","0","0","practice","practice","practice","-1","","",""
"html-keyboard-response","47","357272","0.0-8.0-2.0-0.11","4012","2","13","Female","approach_avoid_spark_v1","""event"",""trial"",""time""
""blur"",""1"",""7312""
""focus"",""1"",""129274""
""fullscreenenter"",""1"",""130845""
","""event"",""trial"",""time""
""blur"",""1"",""7312""
","""event"",""trial"",""time""
""focus"",""1"",""129274""
","""event"",""trial"",""time""
""fullscreenenter"",""1"",""130845""
","
","","","","","","null","<div style=""font-size:60px;"">+</div>","null","","fixation","","","","","","","","","","",""
"aa-learning-trial","48","360275","0.0-8.0-2.0-1.11","4012","2","13","Female","approach_avoid_spark_v1","""event"",""trial"",""time""
""blur"",""1"",""7312""
""focus"",""1"",""129274""
""fullscreenenter"",""1"",""130845""
","""event"",""trial"",""time""
""blur"",""1"",""7312""
","""event"",""trial"",""time""
""focus"",""1"",""129274""
","""event"",""trial"",""time""
""fullscreenenter"",""1"",""130845""
","
","","","","","","317","images/racket2.png","","","learning","-1","0","0","0","practice","practice","practice","-1","","",""
"html-button-response","49","362911","0.0-8.0-3.0","4012","2","13","Female","approach_avoid_spark_v1","""event"",""trial"",""time""
""blur"",""1"",""7312""
""focus"",""1"",""129274""
""fullscreenenter"",""1"",""130845""
","""event"",""trial"",""time""
""blur"",""1"",""7312""
","""event"",""trial"",""time""
""focus"",""1"",""129274""
","""event"",""trial"",""time""
""fullscreenenter"",""1"",""130845""
","
","","","","","","2636","<p> You earned -15 points in the practice round! </p>","0","","break","","","","","","","","","","",""
"learning-instructions","50","371765","0.0-8.0-4.0-0.0","4012","2","13","Female","approach_avoid_spark_v1","""event"",""trial"",""time""
""blur"",""1"",""7312""
""focus"",""1"",""129274""
""fullscreenenter"",""1"",""130845""
""fullscreenexit"",""51"",""372911""
","""event"",""trial"",""time""
""blur"",""1"",""7312""
","""event"",""trial"",""time""
""focus"",""1"",""129274""
","""event"",""trial"",""time""
""fullscreenenter"",""1"",""130845""
","""event"",""trial"",""time""
""fullscreenexit"",""51"",""372911""
","","","","","","2897.000000000058","<p> It's almost time to start the real game. </p><p> Before you start, we're going to ask you a few questions about how the game works. </p>","","0","instructions","","","","","","","","","","",""
"preload","51","374545","0.0-8.0-5.0","4012","2","13","Female","approach_avoid_spark_v1","""event"",""trial"",""time""
""blur"",""1"",""7312""
""focus"",""1"",""129274""
""fullscreenenter"",""1"",""130845""
""fullscreenexit"",""51"",""372911""
","""event"",""trial"",""time""
""blur"",""1"",""7312""
","""event"",""trial"",""time""
""focus"",""1"",""129274""
","""event"",""trial"",""time""
""fullscreenenter"",""1"",""130845""
","""event"",""trial"",""time""
""fullscreenexit"",""51"",""372911""
","true","false","[]","[]","[]","","","","","","","","","","","","","","","",""
"comp-q","52","388877","0.0-8.0-6.0-0.0","4012","2","13","Female","approach_avoid_spark_v1","""event"",""trial"",""time""
""blur"",""1"",""7312""
""focus"",""1"",""129274""
""fullscreenenter"",""1"",""130845""
""fullscreenexit"",""51"",""372911""
","""event"",""trial"",""time""
""blur"",""1"",""7312""
","""event"",""trial"",""time""
""focus"",""1"",""129274""
","""event"",""trial"",""time""
""fullscreenenter"",""1"",""130845""
","""event"",""trial"",""time""
""fullscreenexit"",""51"",""372911""
","","","","","","9339","<p> <b> True or False? </b> </p><p> If you see a number in GREY, that means you earned that many points. </p>","","0","comp_question","","","","","","","","","false","",""
"comp-q","53","402535","0.0-8.0-6.0-1.0","4012","2","13","Female","approach_avoid_spark_v1","""event"",""trial"",""time""
""blur"",""1"",""7312""
""focus"",""1"",""129274""
""fullscreenenter"",""1"",""130845""
""fullscreenexit"",""51"",""372911""
","""event"",""trial"",""time""
""blur"",""1"",""7312""
","""event"",""trial"",""time""
""focus"",""1"",""129274""
","""event"",""trial"",""time""
""fullscreenenter"",""1"",""130845""
","""event"",""trial"",""time""
""fullscreenexit"",""51"",""372911""
","","","","","","4859","<p><b> Incorrect. </b> If you see a grey number, it means you earned ZERO points. <br> The grey numbers show the points you WOULD HAVE earned if you had made the other choice. </p>","","0","comp_answer","","","","","","","","","","",""
"comp-q","54","414381","0.0-8.0-6.1-0.1","4012","2","13","Female","approach_avoid_spark_v1","""event"",""trial"",""time""
""blur"",""1"",""7312""
""focus"",""1"",""129274""
""fullscreenenter"",""1"",""130845""
""fullscreenexit"",""51"",""372911""
","""event"",""trial"",""time""
""blur"",""1"",""7312""
","""event"",""trial"",""time""
""focus"",""1"",""129274""
","""event"",""trial"",""time""
""fullscreenenter"",""1"",""130845""
","""event"",""trial"",""time""
""fullscreenexit"",""51"",""372911""
","","","","","","6752.999999999942","<p> <b> True or False? </b> </p><p> If you see a number in GREY, that means you earned that many points. </p>","","1","comp_question","","","","","","","","","true","",""
"comp-q","55","423798","0.0-8.0-6.1-1.1","4012","2","13","Female","approach_avoid_spark_v1","""event"",""trial"",""time""
""blur"",""1"",""7312""
""focus"",""1"",""129274""
""fullscreenenter"",""1"",""130845""
""fullscreenexit"",""51"",""372911""
","""event"",""trial"",""time""
""blur"",""1"",""7312""
","""event"",""trial"",""time""
""focus"",""1"",""129274""
","""event"",""trial"",""time""
""fullscreenenter"",""1"",""130845""
","""event"",""trial"",""time""
""fullscreenexit"",""51"",""372911""
","","","","","","1059","<p><b> That's right! </b> If you see a grey number, it means you earned ZERO points. <br> The grey numbers show the points you WOULD HAVE earned if you had made the other choice. </p>","","0","comp_answer","","","","","","","","","","",""
"comp-q","56","429277","0.0-8.0-7.0-0.0","4012","2","13","Female","approach_avoid_spark_v1","""event"",""trial"",""time""
""blur"",""1"",""7312""
""focus"",""1"",""129274""
""fullscreenenter"",""1"",""130845""
""fullscreenexit"",""51"",""372911""
","""event"",""trial"",""time""
""blur"",""1"",""7312""
","""event"",""trial"",""time""
""focus"",""1"",""129274""
","""event"",""trial"",""time""
""fullscreenenter"",""1"",""130845""
","""event"",""trial"",""time""
""fullscreenexit"",""51"",""372911""
","","","","","","791","<p> <b> True or False? </b> </p><p> You will have as much time as you want to make each choice. </p>","","1","comp_question","","","","","","","","","true","",""
"comp-q","57","434463","0.0-8.0-7.0-1.0","4012","2","13","Female","approach_avoid_spark_v1","""event"",""trial"",""time""
""blur"",""1"",""7312""
""focus"",""1"",""129274""
""fullscreenenter"",""1"",""130845""
""fullscreenexit"",""51"",""372911""
","""event"",""trial"",""time""
""blur"",""1"",""7312""
","""event"",""trial"",""time""
""focus"",""1"",""129274""
","""event"",""trial"",""time""
""fullscreenenter"",""1"",""130845""
","""event"",""trial"",""time""
""fullscreenexit"",""51"",""372911""
","","","","","","1148","<p> <b> That's right! </b> You will only have 3 seconds to make each choice. </p>","","0","comp_answer","","","","","","","","","","",""
"comp-q","58","439605","0.0-8.0-8.0-0.0","4012","2","13","Female","approach_avoid_spark_v1","""event"",""trial"",""time""
""blur"",""1"",""7312""
""focus"",""1"",""129274""
""fullscreenenter"",""1"",""130845""
""fullscreenexit"",""51"",""372911""
","""event"",""trial"",""time""
""blur"",""1"",""7312""
","""event"",""trial"",""time""
""focus"",""1"",""129274""
","""event"",""trial"",""time""
""fullscreenenter"",""1"",""130845""
","""event"",""trial"",""time""
""fullscreenexit"",""51"",""372911""
","","","","","","487.0000000000582","<p> <b> True or False? </b> </p><p> You should use the '1' and '0' keys to make your choices. </p>","","0","comp_question","","","","","","","","","true","",""
"comp-q","59","444858","0.0-8.0-8.0-1.0","4012","2","13","Female","approach_avoid_spark_v1","""event"",""trial"",""time""
""blur"",""1"",""7312""
""focus"",""1"",""129274""
""fullscreenenter"",""1"",""130845""
""fullscreenexit"",""51"",""372911""
","""event"",""trial"",""time""
""blur"",""1"",""7312""
","""event"",""trial"",""time""
""focus"",""1"",""129274""
","""event"",""trial"",""time""
""fullscreenenter"",""1"",""130845""
","""event"",""trial"",""time""
""fullscreenexit"",""51"",""372911""
","","","","","","648","<p> <b> That's right! </b> You should use the '1' and '0' keys to make each choice. </p>","","0","comp_answer","","","","","","","","","","",""
"learning-instructions","60","453285","0.0-8.0-9.0-0.0","4012","2","13","Female","approach_avoid_spark_v1","""event"",""trial"",""time""
""blur"",""1"",""7312""
""focus"",""1"",""129274""
""fullscreenenter"",""1"",""130845""
""fullscreenexit"",""51"",""372911""
","""event"",""trial"",""time""
""blur"",""1"",""7312""
","""event"",""trial"",""time""
""focus"",""1"",""129274""
","""event"",""trial"",""time""
""fullscreenenter"",""1"",""130845""
","""event"",""trial"",""time""
""fullscreenexit"",""51"",""372911""
","","","","","","2161","<p> It's now time to start the real game. </p>Do your best, because the points you earn in the next rounds will influence your bonus payment. </p>","","0","instructions","","","","","","","","","","",""
"preload","61","453391","0.0-9.0-0.0","4012","2","13","Female","approach_avoid_spark_v1","""event"",""trial"",""time""
""blur"",""1"",""7312""
""focus"",""1"",""129274""
""fullscreenenter"",""1"",""130845""
""fullscreenexit"",""51"",""372911""
","""event"",""trial"",""time""
""blur"",""1"",""7312""
","""event"",""trial"",""time""
""focus"",""1"",""129274""
","""event"",""trial"",""time""
""fullscreenenter"",""1"",""130845""
","""event"",""trial"",""time""
""fullscreenexit"",""51"",""372911""
","true","false","[]","[]","[]","","","","","","","","","","","","","","","",""
"learning-instructions","62","458494","0.0-9.0-1.0-0.0","4012","2","13","Female","approach_avoid_spark_v1","""event"",""trial"",""time""
""blur"",""1"",""7312""
""focus"",""1"",""129274""
""fullscreenenter"",""1"",""130845""
""fullscreenexit"",""51"",""372911""
","""event"",""trial"",""time""
""blur"",""1"",""7312""
","""event"",""trial"",""time""
""focus"",""1"",""129274""
","""event"",""trial"",""time""
""fullscreenenter"",""1"",""130845""
","""event"",""trial"",""time""
""fullscreenexit"",""51"",""372911""
","","","","","","1948","<p> Your goal in this round is to eat tasty fruit. </p></div>","","0","instructions","","","","","","","","","","",""
"learning-instructions","63","468450","0.0-9.0-1.0-0.1","4012","2","13","Female","approach_avoid_spark_v1","""event"",""trial"",""time""
""blur"",""1"",""7312""
""focus"",""1"",""129274""
""fullscreenenter"",""1"",""130845""
""fullscreenexit"",""51"",""372911""
","""event"",""trial"",""time""
""blur"",""1"",""7312""
","""event"",""trial"",""time""
""focus"",""1"",""129274""
","""event"",""trial"",""time""
""fullscreenenter"",""1"",""130845""
","""event"",""trial"",""time""
""fullscreenexit"",""51"",""372911""
","","","","","","507","<p> Some of the fruits you will see are tasty. Others are rotten on the inside.  </p><p> On each turn, you will see a fruit.   </p><p> You need to decide whether to eat it or not.  </p>","","0","instructions","","","","","","","","","","",""
"learning-instructions","64","475324","0.0-9.0-1.0-0.2","4012","2","13","Female","approach_avoid_spark_v1","""event"",""trial"",""time""
""blur"",""1"",""7312""
""focus"",""1"",""129274""
""fullscreenenter"",""1"",""130845""
""fullscreenexit"",""51"",""372911""
","""event"",""trial"",""time""
""blur"",""1"",""7312""
","""event"",""trial"",""time""
""focus"",""1"",""129274""
","""event"",""trial"",""time""
""fullscreenenter"",""1"",""130845""
","""event"",""trial"",""time""
""fullscreenexit"",""51"",""372911""
","","","","","","2255.999999999942","<p> You can eat the fruit by pressing 1 and choose not to eat it by pressing 0. </p><br><div class=""choice-instructions-grid""> <div class=""choice-option""><img src=""images/approach.png"" class=""choice-option-img"" stage=""instructions"" position=""0"" ><div class=""choice-option-text""> Press ""1."" </div></div><div class=""choice-option""><img src=""images/avoid.png"" class=""choice-option-img"" stage=""instructions"" position=""1"" ><div class=""choice-option-text""> Press ""0."" </div></div>","","0","instructions","","","","","","","","","","",""
"learning-instructions","65","483290","0.0-9.0-1.0-0.3","4012","2","13","Female","approach_avoid_spark_v1","""event"",""trial"",""time""
""blur"",""1"",""7312""
""focus"",""1"",""129274""
""fullscreenenter"",""1"",""130845""
""fullscreenexit"",""51"",""372911""
","""event"",""trial"",""time""
""blur"",""1"",""7312""
","""event"",""trial"",""time""
""focus"",""1"",""129274""
","""event"",""trial"",""time""
""fullscreenenter"",""1"",""130845""
","""event"",""trial"",""time""
""fullscreenexit"",""51"",""372911""
","","","","","","904.0000000000582","<p> If you eat the fruit and it was tasty, you will win points! </p><p> But if you eat the fruit and it was rotten, you will lose points. </p>","","0","instructions","","","","","","","","","","",""
"learning-instructions","66","496689","0.0-9.0-1.0-0.4","4012","2","13","Female","approach_avoid_spark_v1","""event"",""trial"",""time""
""blur"",""1"",""7312""
""focus"",""1"",""129274""
""fullscreenenter"",""1"",""130845""
""fullscreenexit"",""51"",""372911""
","""event"",""trial"",""time""
""blur"",""1"",""7312""
","""event"",""trial"",""time""
""focus"",""1"",""129274""
","""event"",""trial"",""time""
""fullscreenenter"",""1"",""130845""
","""event"",""trial"",""time""
""fullscreenexit"",""51"",""372911""
","","","","","","2429.000000000058","<p> You will earn points based on how tasty or rotten the fruit was. </p><p> If it was tasty, you will WIN anywhere from 1 - 9 points, </p><p> but if it was rotten, you will LOSE anywhere from 1 - 9 points. </p>","","0","instructions","","","","","","","","","","",""
"learning-instructions","67","505734","0.0-9.0-1.0-0.5","4012","2","13","Female","approach_avoid_spark_v1","""event"",""trial"",""time""
""blur"",""1"",""7312""
""focus"",""1"",""129274""
""fullscreenenter"",""1"",""130845""
""fullscreenexit"",""51"",""372911""
","""event"",""trial"",""time""
""blur"",""1"",""7312""
","""event"",""trial"",""time""
""focus"",""1"",""129274""
","""event"",""trial"",""time""
""fullscreenenter"",""1"",""130845""
","""event"",""trial"",""time""
""fullscreenexit"",""51"",""372911""
","","","","","","1776","<p> You will see how many points you won or lost in the center of the screen. </p><p> Here is what you would see if you earned 5 points: </p><p style=""color:green;font-size:50px;font-weight:bolder"">5</p>","","0","instructions","","","","","","","","","","",""
"learning-instructions","68","510943","0.0-9.0-1.0-0.6","4012","2","13","Female","approach_avoid_spark_v1","""event"",""trial"",""time""
""blur"",""1"",""7312""
""focus"",""1"",""129274""
""fullscreenenter"",""1"",""130845""
""fullscreenexit"",""51"",""372911""
","""event"",""trial"",""time""
""blur"",""1"",""7312""
","""event"",""trial"",""time""
""focus"",""1"",""129274""
","""event"",""trial"",""time""
""fullscreenenter"",""1"",""130845""
","""event"",""trial"",""time""
""fullscreenexit"",""51"",""372911""
","","","","","","1870","<p> And here is what you would see if you lost 3 points: </p><p style=""color:red;font-size:50px;font-weight:bolder"">-3</p>","","0","instructions","","","","","","","","","","",""
"learning-instructions","69","524949","0.0-9.0-1.0-0.7","4012","2","13","Female","approach_avoid_spark_v1","""event"",""trial"",""time""
""blur"",""1"",""7312""
""focus"",""1"",""129274""
""fullscreenenter"",""1"",""130845""
""fullscreenexit"",""51"",""372911""
","""event"",""trial"",""time""
""blur"",""1"",""7312""
","""event"",""trial"",""time""
""focus"",""1"",""129274""
","""event"",""trial"",""time""
""fullscreenenter"",""1"",""130845""
","""event"",""trial"",""time""
""fullscreenexit"",""51"",""372911""
","","","","","","505","<p> Some fruit is very tasty or very rotten. </p><p> These fruits will make you win or lose LOTS of points. </p><p> Other fruits are only kind of tasty or kind of rotten. </p><p> These fruits will make you win or lose small amounts of points. </p>","","0","instructions","","","","","","","","","","",""
"learning-instructions","70","535874","0.0-9.0-1.0-0.8","4012","2","13","Female","approach_avoid_spark_v1","""event"",""trial"",""time""
""blur"",""1"",""7312""
""focus"",""1"",""129274""
""fullscreenenter"",""1"",""130845""
""fullscreenexit"",""51"",""372911""
""blur"",""71"",""540287""
""focus"",""71"",""547486""
","""event"",""trial"",""time""
""blur"",""1"",""7312""
""blur"",""71"",""540287""
","""event"",""trial"",""time""
""focus"",""1"",""129274""
""focus"",""71"",""547486""
","""event"",""trial"",""time""
""fullscreenenter"",""1"",""130845""
","""event"",""trial"",""time""
""fullscreenexit"",""51"",""372911""
","","","","","","834","<p> If you choose to not eat the fruit, you will not win or lose any points. </p><p>  However, in the center of the screen, you will see the number of points you WOULD HAVE earned if you had eaten the fruit. </p>","","0","instructions","","","","","","","","","","",""
"learning-instructions","71","550072","0.0-9.0-1.0-0.9","4012","2","13","Female","approach_avoid_spark_v1","""event"",""trial"",""time""
""blur"",""1"",""7312""
""focus"",""1"",""129274""
""fullscreenenter"",""1"",""130845""
""fullscreenexit"",""51"",""372911""
""blur"",""71"",""540287""
""focus"",""71"",""547486""
""blur"",""72"",""551415""
""focus"",""72"",""558073""
","""event"",""trial"",""time""
""blur"",""1"",""7312""
""blur"",""71"",""540287""
""blur"",""72"",""551415""
","""event"",""trial"",""time""
""focus"",""1"",""129274""
""focus"",""71"",""547486""
""focus"",""72"",""558073""
","""event"",""trial"",""time""
""fullscreenenter"",""1"",""130845""
","""event"",""trial"",""time""
""fullscreenexit"",""51"",""372911""
","","","","","","4613","<p> Here is what you might see if you did not eat the fruit but the fruit was tasty: </p><p style=""color:grey; font-size:50px; display: inline-block; border-spacing: 15px; border-width:3px; border-style:solid; border-color:red"">  &nbsp; 6 &nbsp; </p><p> Remember, in this case, you would not win or lose ANY points because you did not eat the fruit.  </p>","","0","instructions","","","","","","","","","","",""
"learning-instructions","72","559792","0.0-9.0-1.0-0.10","4012","2","13","Female","approach_avoid_spark_v1","""event"",""trial"",""time""
""blur"",""1"",""7312""
""focus"",""1"",""129274""
""fullscreenenter"",""1"",""130845""
""fullscreenexit"",""51"",""372911""
""blur"",""71"",""540287""
""focus"",""71"",""547486""
""blur"",""72"",""551415""
""focus"",""72"",""558073""
","""event"",""trial"",""time""
""blur"",""1"",""7312""
""blur"",""71"",""540287""
""blur"",""72"",""551415""
","""event"",""trial"",""time""
""focus"",""1"",""129274""
""focus"",""71"",""547486""
""focus"",""72"",""558073""
","""event"",""trial"",""time""
""fullscreenenter"",""1"",""130845""
","""event"",""trial"",""time""
""fullscreenexit"",""51"",""372911""
","","","","","","2166","<p> Try to make the best choice for each fruit because </p><p> at the end of the game, you will earn bonus money based on how many points you earned. </p>","","0","instructions","","","","","","","","","","",""
"learning-instructions","73","568556","0.0-9.0-1.0-0.11","4012","2","13","Female","approach_avoid_spark_v1","""event"",""trial"",""time""
""blur"",""1"",""7312""
""focus"",""1"",""129274""
""fullscreenenter"",""1"",""130845""
""fullscreenexit"",""51"",""372911""
""blur"",""71"",""540287""
""focus"",""71"",""547486""
""blur"",""72"",""551415""
""focus"",""72"",""558073""
","""event"",""trial"",""time""
""blur"",""1"",""7312""
""blur"",""71"",""540287""
""blur"",""72"",""551415""
","""event"",""trial"",""time""
""focus"",""1"",""129274""
""focus"",""71"",""547486""
""focus"",""72"",""558073""
","""event"",""trial"",""time""
""fullscreenenter"",""1"",""130845""
","""event"",""trial"",""time""
""fullscreenexit"",""51"",""372911""
","","","","","","582.9999999998836","<p> You will have 3 seconds to make each choice. Try to respond before time runs out! </p><p> You will lose 5 points each time you do not make a response. </p>","","0","instructions","","","","","","","","","","",""
"html-keyboard-response","74","569159","0.0-9.0-2.0-0.0","4012","2","13","Female","approach_avoid_spark_v1","""event"",""trial"",""time""
""blur"",""1"",""7312""
""focus"",""1"",""129274""
""fullscreenenter"",""1"",""130845""
""fullscreenexit"",""51"",""372911""
""blur"",""71"",""540287""
""focus"",""71"",""547486""
""blur"",""72"",""551415""
""focus"",""72"",""558073""
","""event"",""trial"",""time""
""blur"",""1"",""7312""
""blur"",""71"",""540287""
""blur"",""72"",""551415""
","""event"",""trial"",""time""
""focus"",""1"",""129274""
""focus"",""71"",""547486""
""focus"",""72"",""558073""
","""event"",""trial"",""time""
""fullscreenenter"",""1"",""130845""
","""event"",""trial"",""time""
""fullscreenexit"",""51"",""372911""
","","","","","","null","<div style=""font-size:60px;"">+</div>","null","","fixation","","","","","","","","","","",""
"aa-learning-trial","75","572160","0.0-9.0-2.0-1.0","4012","2","13","Female","approach_avoid_spark_v1","""event"",""trial"",""time""
""blur"",""1"",""7312""
""focus"",""1"",""129274""
""fullscreenenter"",""1"",""130845""
""fullscreenexit"",""51"",""372911""
""blur"",""71"",""540287""
""focus"",""71"",""547486""
""blur"",""72"",""551415""
""focus"",""72"",""558073""
","""event"",""trial"",""time""
""blur"",""1"",""7312""
""blur"",""71"",""540287""
""blur"",""72"",""551415""
","""event"",""trial"",""time""
""focus"",""1"",""129274""
""focus"",""71"",""547486""
""focus"",""72"",""558073""
","""event"",""trial"",""time""
""fullscreenenter"",""1"",""130845""
","""event"",""trial"",""time""
""fullscreenexit"",""51"",""372911""
","","","","","","1518","images/straw6.png","","","learning","9","9","1","1","straw","fruit","2","0","","bad","[-6]"
"html-keyboard-response","76","572662","0.0-9.0-2.0-0.1","4012","2","13","Female","approach_avoid_spark_v1","""event"",""trial"",""time""
""blur"",""1"",""7312""
""focus"",""1"",""129274""
""fullscreenenter"",""1"",""130845""
""fullscreenexit"",""51"",""372911""
""blur"",""71"",""540287""
""focus"",""71"",""547486""
""blur"",""72"",""551415""
""focus"",""72"",""558073""
","""event"",""trial"",""time""
""blur"",""1"",""7312""
""blur"",""71"",""540287""
""blur"",""72"",""551415""
","""event"",""trial"",""time""
""focus"",""1"",""129274""
""focus"",""71"",""547486""
""focus"",""72"",""558073""
","""event"",""trial"",""time""
""fullscreenenter"",""1"",""130845""
","""event"",""trial"",""time""
""fullscreenexit"",""51"",""372911""
","","","","","","null","<div style=""font-size:60px;"">+</div>","null","","fixation","","","","","","","","","","",""
"aa-learning-trial","77","575662","0.0-9.0-2.0-1.1","4012","2","13","Female","approach_avoid_spark_v1","""event"",""trial"",""time""
""blur"",""1"",""7312""
""focus"",""1"",""129274""
""fullscreenenter"",""1"",""130845""
""fullscreenexit"",""51"",""372911""
""blur"",""71"",""540287""
""focus"",""71"",""547486""
""blur"",""72"",""551415""
""focus"",""72"",""558073""
","""event"",""trial"",""time""
""blur"",""1"",""7312""
""blur"",""71"",""540287""
""blur"",""72"",""551415""
","""event"",""trial"",""time""
""focus"",""1"",""129274""
""focus"",""71"",""547486""
""focus"",""72"",""558073""
","""event"",""trial"",""time""
""fullscreenenter"",""1"",""130845""
","""event"",""trial"",""time""
""fullscreenexit"",""51"",""372911""
","","","","","","1286","images/apple3.png","","","learning","-7","-7","1","1","apple","fruit","2","0","","good","[3]"
"html-keyboard-response","78","576165","0.0-9.0-2.0-0.2","4012","2","13","Female","approach_avoid_spark_v1","""event"",""trial"",""time""
""blur"",""1"",""7312""
""focus"",""1"",""129274""
""fullscreenenter"",""1"",""130845""
""fullscreenexit"",""51"",""372911""
""blur"",""71"",""540287""
""focus"",""71"",""547486""
""blur"",""72"",""551415""
""focus"",""72"",""558073""
","""event"",""trial"",""time""
""blur"",""1"",""7312""
""blur"",""71"",""540287""
""blur"",""72"",""551415""
","""event"",""trial"",""time""
""focus"",""1"",""129274""
""focus"",""71"",""547486""
""focus"",""72"",""558073""
","""event"",""trial"",""time""
""fullscreenenter"",""1"",""130845""
","""event"",""trial"",""time""
""fullscreenexit"",""51"",""372911""
","","","","","","null","<div style=""font-size:60px;"">+</div>","null","","fixation","","","","","","","","","","",""
"aa-learning-trial","79","579166","0.0-9.0-2.0-1.2","4012","2","13","Female","approach_avoid_spark_v1","""event"",""trial"",""time""
""blur"",""1"",""7312""
""focus"",""1"",""129274""
""fullscreenenter"",""1"",""130845""
""fullscreenexit"",""51"",""372911""
""blur"",""71"",""540287""
""focus"",""71"",""547486""
""blur"",""72"",""551415""
""focus"",""72"",""558073""
","""event"",""trial"",""time""
""blur"",""1"",""7312""
""blur"",""71"",""540287""
""blur"",""72"",""551415""
","""event"",""trial"",""time""
""focus"",""1"",""129274""
""focus"",""71"",""547486""
""focus"",""72"",""558073""
","""event"",""trial"",""time""
""fullscreenenter"",""1"",""130845""
","""event"",""trial"",""time""
""fullscreenexit"",""51"",""372911""
","","","","","","1191","images/apple5.png","","","learning","-2","0","0","0","apple","fruit","2","0","","good","[3]"
"html-keyboard-response","80","579667","0.0-9.0-2.0-0.3","4012","2","13","Female","approach_avoid_spark_v1","""event"",""trial"",""time""
""blur"",""1"",""7312""
""focus"",""1"",""129274""
""fullscreenenter"",""1"",""130845""
""fullscreenexit"",""51"",""372911""
""blur"",""71"",""540287""
""focus"",""71"",""547486""
""blur"",""72"",""551415""
""focus"",""72"",""558073""
","""event"",""trial"",""time""
""blur"",""1"",""7312""
""blur"",""71"",""540287""
""blur"",""72"",""551415""
","""event"",""trial"",""time""
""focus"",""1"",""129274""
""focus"",""71"",""547486""
""focus"",""72"",""558073""
","""event"",""trial"",""time""
""fullscreenenter"",""1"",""130845""
","""event"",""trial"",""time""
""fullscreenexit"",""51"",""372911""
","","","","","","null","<div style=""font-size:60px;"">+</div>","null","","fixation","","","","","","","","","","",""
"aa-learning-trial","81","582670","0.0-9.0-2.0-1.3","4012","2","13","Female","approach_avoid_spark_v1","""event"",""trial"",""time""
""blur"",""1"",""7312""
""focus"",""1"",""129274""
""fullscreenenter"",""1"",""130845""
""fullscreenexit"",""51"",""372911""
""blur"",""71"",""540287""
""focus"",""71"",""547486""
""blur"",""72"",""551415""
""focus"",""72"",""558073""
","""event"",""trial"",""time""
""blur"",""1"",""7312""
""blur"",""71"",""540287""
""blur"",""72"",""551415""
","""event"",""trial"",""time""
""focus"",""1"",""129274""
""focus"",""71"",""547486""
""focus"",""72"",""558073""
","""event"",""trial"",""time""
""fullscreenenter"",""1"",""130845""
","""event"",""trial"",""time""
""fullscreenexit"",""51"",""372911""
","","","","","","775","images/apple7.png","","","learning","6","6","1","1","apple","fruit","2","0","","good","[3]"
"html-keyboard-response","82","583172","0.0-9.0-2.0-0.4","4012","2","13","Female","approach_avoid_spark_v1","""event"",""trial"",""time""
""blur"",""1"",""7312""
""focus"",""1"",""129274""
""fullscreenenter"",""1"",""130845""
""fullscreenexit"",""51"",""372911""
""blur"",""71"",""540287""
""focus"",""71"",""547486""
""blur"",""72"",""551415""
""focus"",""72"",""558073""
","""event"",""trial"",""time""
""blur"",""1"",""7312""
""blur"",""71"",""540287""
""blur"",""72"",""551415""
","""event"",""trial"",""time""
""focus"",""1"",""129274""
""focus"",""71"",""547486""
""focus"",""72"",""558073""
","""event"",""trial"",""time""
""fullscreenenter"",""1"",""130845""
","""event"",""trial"",""time""
""fullscreenexit"",""51"",""372911""
","","","","","","null","<div style=""font-size:60px;"">+</div>","null","","fixation","","","","","","","","","","",""
"aa-learning-trial","83","586174","0.0-9.0-2.0-1.4","4012","2","13","Female","approach_avoid_spark_v1","""event"",""trial"",""time""
""blur"",""1"",""7312""
""focus"",""1"",""129274""
""fullscreenenter"",""1"",""130845""
""fullscreenexit"",""51"",""372911""
""blur"",""71"",""540287""
""focus"",""71"",""547486""
""blur"",""72"",""551415""
""focus"",""72"",""558073""
","""event"",""trial"",""time""
""blur"",""1"",""7312""
""blur"",""71"",""540287""
""blur"",""72"",""551415""
","""event"",""trial"",""time""
""focus"",""1"",""129274""
""focus"",""71"",""547486""
""focus"",""72"",""558073""
","""event"",""trial"",""time""
""fullscreenenter"",""1"",""130845""
","""event"",""trial"",""time""
""fullscreenexit"",""51"",""372911""
","","","","","","582.9999999998836","images/apple3.png","","","learning","-7","-7","1","1","apple","fruit","2","0","","good","[3]"
"html-keyboard-response","84","586676","0.0-9.0-2.0-0.5","4012","2","13","Female","approach_avoid_spark_v1","""event"",""trial"",""time""
""blur"",""1"",""7312""
""focus"",""1"",""129274""
""fullscreenenter"",""1"",""130845""
""fullscreenexit"",""51"",""372911""
""blur"",""71"",""540287""
""focus"",""71"",""547486""
""blur"",""72"",""551415""
""focus"",""72"",""558073""
","""event"",""trial"",""time""
""blur"",""1"",""7312""
""blur"",""71"",""540287""
""blur"",""72"",""551415""
","""event"",""trial"",""time""
""focus"",""1"",""129274""
""focus"",""71"",""547486""
""focus"",""72"",""558073""
","""event"",""trial"",""time""
""fullscreenenter"",""1"",""130845""
","""event"",""trial"",""time""
""fullscreenexit"",""51"",""372911""
","","","","","","null","<div style=""font-size:60px;"">+</div>","null","","fixation","","","","","","","","","","",""
"aa-learning-trial","85","589679","0.0-9.0-2.0-1.5","4012","2","13","Female","approach_avoid_spark_v1","""event"",""trial"",""time""
""blur"",""1"",""7312""
""focus"",""1"",""129274""
""fullscreenenter"",""1"",""130845""
""fullscreenexit"",""51"",""372911""
""blur"",""71"",""540287""
""focus"",""71"",""547486""
""blur"",""72"",""551415""
""focus"",""72"",""558073""
","""event"",""trial"",""time""
""blur"",""1"",""7312""
""blur"",""71"",""540287""
""blur"",""72"",""551415""
","""event"",""trial"",""time""
""focus"",""1"",""129274""
""focus"",""71"",""547486""
""focus"",""72"",""558073""
","""event"",""trial"",""time""
""fullscreenenter"",""1"",""130845""
","""event"",""trial"",""time""
""fullscreenexit"",""51"",""372911""
","","","","","","646","images/straw2.png","","","learning","-8","-8","1","1","straw","fruit","2","0","","bad","[-6]"
"html-keyboard-response","86","590181","0.0-9.0-2.0-0.6","4012","2","13","Female","approach_avoid_spark_v1","""event"",""trial"",""time""
""blur"",""1"",""7312""
""focus"",""1"",""129274""
""fullscreenenter"",""1"",""130845""
""fullscreenexit"",""51"",""372911""
""blur"",""71"",""540287""
""focus"",""71"",""547486""
""blur"",""72"",""551415""
""focus"",""72"",""558073""
","""event"",""trial"",""time""
""blur"",""1"",""7312""
""blur"",""71"",""540287""
""blur"",""72"",""551415""
","""event"",""trial"",""time""
""focus"",""1"",""129274""
""focus"",""71"",""547486""
""focus"",""72"",""558073""
","""event"",""trial"",""time""
""fullscreenenter"",""1"",""130845""
","""event"",""trial"",""time""
""fullscreenexit"",""51"",""372911""
","","","","","","null","<div style=""font-size:60px;"">+</div>","null","","fixation","","","","","","","","","","",""
"aa-learning-trial","87","593183","0.0-9.0-2.0-1.6","4012","2","13","Female","approach_avoid_spark_v1","""event"",""trial"",""time""
""blur"",""1"",""7312""
""focus"",""1"",""129274""
""fullscreenenter"",""1"",""130845""
""fullscreenexit"",""51"",""372911""
""blur"",""71"",""540287""
""focus"",""71"",""547486""
""blur"",""72"",""551415""
""focus"",""72"",""558073""
","""event"",""trial"",""time""
""blur"",""1"",""7312""
""blur"",""71"",""540287""
""blur"",""72"",""551415""
","""event"",""trial"",""time""
""focus"",""1"",""129274""
""focus"",""71"",""547486""
""focus"",""72"",""558073""
","""event"",""trial"",""time""
""fullscreenenter"",""1"",""130845""
","""event"",""trial"",""time""
""fullscreenexit"",""51"",""372911""
","","","","","","645","images/straw6.png","","","learning","9","9","1","1","straw","fruit","2","0","","bad","[-6]"
"html-keyboard-response","88","593685","0.0-9.0-2.0-0.7","4012","2","13","Female","approach_avoid_spark_v1","""event"",""trial"",""time""
""blur"",""1"",""7312""
""focus"",""1"",""129274""
""fullscreenenter"",""1"",""130845""
""fullscreenexit"",""51"",""372911""
""blur"",""71"",""540287""
""focus"",""71"",""547486""
""blur"",""72"",""551415""
""focus"",""72"",""558073""
","""event"",""trial"",""time""
""blur"",""1"",""7312""
""blur"",""71"",""540287""
""blur"",""72"",""551415""
","""event"",""trial"",""time""
""focus"",""1"",""129274""
""focus"",""71"",""547486""
""focus"",""72"",""558073""
","""event"",""trial"",""time""
""fullscreenenter"",""1"",""130845""
","""event"",""trial"",""time""
""fullscreenexit"",""51"",""372911""
","","","","","","null","<div style=""font-size:60px;"">+</div>","null","","fixation","","","","","","","","","","",""
"aa-learning-trial","89","596687","0.0-9.0-2.0-1.7","4012","2","13","Female","approach_avoid_spark_v1","""event"",""trial"",""time""
""blur"",""1"",""7312""
""focus"",""1"",""129274""
""fullscreenenter"",""1"",""130845""
""fullscreenexit"",""51"",""372911""
""blur"",""71"",""540287""
""focus"",""71"",""547486""
""blur"",""72"",""551415""
""focus"",""72"",""558073""
","""event"",""trial"",""time""
""blur"",""1"",""7312""
""blur"",""71"",""540287""
""blur"",""72"",""551415""
","""event"",""trial"",""time""
""focus"",""1"",""129274""
""focus"",""71"",""547486""
""focus"",""72"",""558073""
","""event"",""trial"",""time""
""fullscreenenter"",""1"",""130845""
","""event"",""trial"",""time""
""fullscreenexit"",""51"",""372911""
","","","","","","1268","images/straw3.png","","","learning","3","0","0","0","straw","fruit","2","0","","bad","[-6]"
"html-keyboard-response","90","597188","0.0-9.0-2.0-0.8","4012","2","13","Female","approach_avoid_spark_v1","""event"",""trial"",""time""
""blur"",""1"",""7312""
""focus"",""1"",""129274""
""fullscreenenter"",""1"",""130845""
""fullscreenexit"",""51"",""372911""
""blur"",""71"",""540287""
""focus"",""71"",""547486""
""blur"",""72"",""551415""
""focus"",""72"",""558073""
","""event"",""trial"",""time""
""blur"",""1"",""7312""
""blur"",""71"",""540287""
""blur"",""72"",""551415""
","""event"",""trial"",""time""
""focus"",""1"",""129274""
""focus"",""71"",""547486""
""focus"",""72"",""558073""
","""event"",""trial"",""time""
""fullscreenenter"",""1"",""130845""
","""event"",""trial"",""time""
""fullscreenexit"",""51"",""372911""
","","","","","","null","<div style=""font-size:60px;"">+</div>","null","","fixation","","","","","","","","","","",""
"aa-learning-trial","91","600191","0.0-9.0-2.0-1.8","4012","2","13","Female","approach_avoid_spark_v1","""event"",""trial"",""time""
""blur"",""1"",""7312""
""focus"",""1"",""129274""
""fullscreenenter"",""1"",""130845""
""fullscreenexit"",""51"",""372911""
""blur"",""71"",""540287""
""focus"",""71"",""547486""
""blur"",""72"",""551415""
""focus"",""72"",""558073""
","""event"",""trial"",""time""
""blur"",""1"",""7312""
""blur"",""71"",""540287""
""blur"",""72"",""551415""
","""event"",""trial"",""time""
""focus"",""1"",""129274""
""focus"",""71"",""547486""
""focus"",""72"",""558073""
","""event"",""trial"",""time""
""fullscreenenter"",""1"",""130845""
","""event"",""trial"",""time""
""fullscreenexit"",""51"",""372911""
","","","","","","997","images/banana5.png","","","learning","-6","-6","1","1","banana","fruit","2","0","","neutral","0"
"html-keyboard-response","92","600693","0.0-9.0-2.0-0.9","4012","2","13","Female","approach_avoid_spark_v1","""event"",""trial"",""time""
""blur"",""1"",""7312""
""focus"",""1"",""129274""
""fullscreenenter"",""1"",""130845""
""fullscreenexit"",""51"",""372911""
""blur"",""71"",""540287""
""focus"",""71"",""547486""
""blur"",""72"",""551415""
""focus"",""72"",""558073""
","""event"",""trial"",""time""
""blur"",""1"",""7312""
""blur"",""71"",""540287""
""blur"",""72"",""551415""
","""event"",""trial"",""time""
""focus"",""1"",""129274""
""focus"",""71"",""547486""
""focus"",""72"",""558073""
","""event"",""trial"",""time""
""fullscreenenter"",""1"",""130845""
","""event"",""trial"",""time""
""fullscreenexit"",""51"",""372911""
","","","","","","null","<div style=""font-size:60px;"">+</div>","null","","fixation","","","","","","","","","","",""
"aa-learning-trial","93","603695","0.0-9.0-2.0-1.9","4012","2","13","Female","approach_avoid_spark_v1","""event"",""trial"",""time""
""blur"",""1"",""7312""
""focus"",""1"",""129274""
""fullscreenenter"",""1"",""130845""
""fullscreenexit"",""51"",""372911""
""blur"",""71"",""540287""
""focus"",""71"",""547486""
""blur"",""72"",""551415""
""focus"",""72"",""558073""
","""event"",""trial"",""time""
""blur"",""1"",""7312""
""blur"",""71"",""540287""
""blur"",""72"",""551415""
","""event"",""trial"",""time""
""focus"",""1"",""129274""
""focus"",""71"",""547486""
""focus"",""72"",""558073""
","""event"",""trial"",""time""
""fullscreenenter"",""1"",""130845""
","""event"",""trial"",""time""
""fullscreenexit"",""51"",""372911""
","","","","","","956","images/banana2.png","","","learning","-3","0","0","0","banana","fruit","2","0","","neutral","0"
"html-keyboard-response","94","604197","0.0-9.0-2.0-0.10","4012","2","13","Female","approach_avoid_spark_v1","""event"",""trial"",""time""
""blur"",""1"",""7312""
""focus"",""1"",""129274""
""fullscreenenter"",""1"",""130845""
""fullscreenexit"",""51"",""372911""
""blur"",""71"",""540287""
""focus"",""71"",""547486""
""blur"",""72"",""551415""
""focus"",""72"",""558073""
","""event"",""trial"",""time""
""blur"",""1"",""7312""
""blur"",""71"",""540287""
""blur"",""72"",""551415""
","""event"",""trial"",""time""
""focus"",""1"",""129274""
""focus"",""71"",""547486""
""focus"",""72"",""558073""
","""event"",""trial"",""time""
""fullscreenenter"",""1"",""130845""
","""event"",""trial"",""time""
""fullscreenexit"",""51"",""372911""
","","","","","","null","<div style=""font-size:60px;"">+</div>","null","","fixation","","","","","","","","","","",""
"aa-learning-trial","95","607200","0.0-9.0-2.0-1.10","4012","2","13","Female","approach_avoid_spark_v1","""event"",""trial"",""time""
""blur"",""1"",""7312""
""focus"",""1"",""129274""
""fullscreenenter"",""1"",""130845""
""fullscreenexit"",""51"",""372911""
""blur"",""71"",""540287""
""focus"",""71"",""547486""
""blur"",""72"",""551415""
""focus"",""72"",""558073""
","""event"",""trial"",""time""
""blur"",""1"",""7312""
""blur"",""71"",""540287""
""blur"",""72"",""551415""
","""event"",""trial"",""time""
""focus"",""1"",""129274""
""focus"",""71"",""547486""
""focus"",""72"",""558073""
","""event"",""trial"",""time""
""fullscreenenter"",""1"",""130845""
","""event"",""trial"",""time""
""fullscreenexit"",""51"",""372911""
","","","","","","684","images/straw2.png","","","learning","-8","0","0","0","straw","fruit","2","0","","bad","[-6]"
"html-keyboard-response","96","607702","0.0-9.0-2.0-0.11","4012","2","13","Female","approach_avoid_spark_v1","""event"",""trial"",""time""
""blur"",""1"",""7312""
""focus"",""1"",""129274""
""fullscreenenter"",""1"",""130845""
""fullscreenexit"",""51"",""372911""
""blur"",""71"",""540287""
""focus"",""71"",""547486""
""blur"",""72"",""551415""
""focus"",""72"",""558073""
","""event"",""trial"",""time""
""blur"",""1"",""7312""
""blur"",""71"",""540287""
""blur"",""72"",""551415""
","""event"",""trial"",""time""
""focus"",""1"",""129274""
""focus"",""71"",""547486""
""focus"",""72"",""558073""
","""event"",""trial"",""time""
""fullscreenenter"",""1"",""130845""
","""event"",""trial"",""time""
""fullscreenexit"",""51"",""372911""
","","","","","","null","<div style=""font-size:60px;"">+</div>","null","","fixation","","","","","","","","","","",""
"aa-learning-trial","97","610705","0.0-9.0-2.0-1.11","4012","2","13","Female","approach_avoid_spark_v1","""event"",""trial"",""time""
""blur"",""1"",""7312""
""focus"",""1"",""129274""
""fullscreenenter"",""1"",""130845""
""fullscreenexit"",""51"",""372911""
""blur"",""71"",""540287""
""focus"",""71"",""547486""
""blur"",""72"",""551415""
""focus"",""72"",""558073""
","""event"",""trial"",""time""
""blur"",""1"",""7312""
""blur"",""71"",""540287""
""blur"",""72"",""551415""
","""event"",""trial"",""time""
""focus"",""1"",""129274""
""focus"",""71"",""547486""
""focus"",""72"",""558073""
","""event"",""trial"",""time""
""fullscreenenter"",""1"",""130845""
","""event"",""trial"",""time""
""fullscreenexit"",""51"",""372911""
","","","","","","938.0000000001164","images/banana5.png","","","learning","-6","-6","1","1","banana","fruit","2","0","","neutral","0"
"html-keyboard-response","98","611207","0.0-9.0-2.0-0.12","4012","2","13","Female","approach_avoid_spark_v1","""event"",""trial"",""time""
""blur"",""1"",""7312""
""focus"",""1"",""129274""
""fullscreenenter"",""1"",""130845""
""fullscreenexit"",""51"",""372911""
""blur"",""71"",""540287""
""focus"",""71"",""547486""
""blur"",""72"",""551415""
""focus"",""72"",""558073""
","""event"",""trial"",""time""
""blur"",""1"",""7312""
""blur"",""71"",""540287""
""blur"",""72"",""551415""
","""event"",""trial"",""time""
""focus"",""1"",""129274""
""focus"",""71"",""547486""
""focus"",""72"",""558073""
","""event"",""trial"",""time""
""fullscreenenter"",""1"",""130845""
","""event"",""trial"",""time""
""fullscreenexit"",""51"",""372911""
","","","","","","null","<div style=""font-size:60px;"">+</div>","null","","fixation","","","","","","","","","","",""
"aa-learning-trial","99","614208","0.0-9.0-2.0-1.12","4012","2","13","Female","approach_avoid_spark_v1","""event"",""trial"",""time""
""blur"",""1"",""7312""
""focus"",""1"",""129274""
""fullscreenenter"",""1"",""130845""
""fullscreenexit"",""51"",""372911""
""blur"",""71"",""540287""
""focus"",""71"",""547486""
""blur"",""72"",""551415""
""focus"",""72"",""558073""
","""event"",""trial"",""time""
""blur"",""1"",""7312""
""blur"",""71"",""540287""
""blur"",""72"",""551415""
","""event"",""trial"",""time""
""focus"",""1"",""129274""
""focus"",""71"",""547486""
""focus"",""72"",""558073""
","""event"",""trial"",""time""
""fullscreenenter"",""1"",""130845""
","""event"",""trial"",""time""
""fullscreenexit"",""51"",""372911""
","","","","","","986","images/banana1.png","","","learning","7","7","1","1","banana","fruit","2","0","","neutral","0"
"html-keyboard-response","100","614710","0.0-9.0-2.0-0.13","4012","2","13","Female","approach_avoid_spark_v1","""event"",""trial"",""time""
""blur"",""1"",""7312""
""focus"",""1"",""129274""
""fullscreenenter"",""1"",""130845""
""fullscreenexit"",""51"",""372911""
""blur"",""71"",""540287""
""focus"",""71"",""547486""
""blur"",""72"",""551415""
""focus"",""72"",""558073""
","""event"",""trial"",""time""
""blur"",""1"",""7312""
""blur"",""71"",""540287""
""blur"",""72"",""551415""
","""event"",""trial"",""time""
""focus"",""1"",""129274""
""focus"",""71"",""547486""
""focus"",""72"",""558073""
","""event"",""trial"",""time""
""fullscreenenter"",""1"",""130845""
","""event"",""trial"",""time""
""fullscreenexit"",""51"",""372911""
","","","","","","null","<div style=""font-size:60px;"">+</div>","null","","fixation","","","","","","","","","","",""
"aa-learning-trial","101","617712","0.0-9.0-2.0-1.13","4012","2","13","Female","approach_avoid_spark_v1","""event"",""trial"",""time""
""blur"",""1"",""7312""
""focus"",""1"",""129274""
""fullscreenenter"",""1"",""130845""
""fullscreenexit"",""51"",""372911""
""blur"",""71"",""540287""
""focus"",""71"",""547486""
""blur"",""72"",""551415""
""focus"",""72"",""558073""
","""event"",""trial"",""time""
""blur"",""1"",""7312""
""blur"",""71"",""540287""
""blur"",""72"",""551415""
","""event"",""trial"",""time""
""focus"",""1"",""129274""
""focus"",""71"",""547486""
""focus"",""72"",""558073""
","""event"",""trial"",""time""
""fullscreenenter"",""1"",""130845""
","""event"",""trial"",""time""
""fullscreenexit"",""51"",""372911""
","","","","","","1739","images/banana2.png","","","learning","-3","0","0","0","banana","fruit","2","0","","neutral","0"
"html-keyboard-response","102","618215","0.0-9.0-2.0-0.14","4012","2","13","Female","approach_avoid_spark_v1","""event"",""trial"",""time""
""blur"",""1"",""7312""
""focus"",""1"",""129274""
""fullscreenenter"",""1"",""130845""
""fullscreenexit"",""51"",""372911""
""blur"",""71"",""540287""
""focus"",""71"",""547486""
""blur"",""72"",""551415""
""focus"",""72"",""558073""
","""event"",""trial"",""time""
""blur"",""1"",""7312""
""blur"",""71"",""540287""
""blur"",""72"",""551415""
","""event"",""trial"",""time""
""focus"",""1"",""129274""
""focus"",""71"",""547486""
""focus"",""72"",""558073""
","""event"",""trial"",""time""
""fullscreenenter"",""1"",""130845""
","""event"",""trial"",""time""
""fullscreenexit"",""51"",""372911""
","","","","","","null","<div style=""font-size:60px;"">+</div>","null","","fixation","","","","","","","","","","",""
"aa-learning-trial","103","621217","0.0-9.0-2.0-1.14","4012","2","13","Female","approach_avoid_spark_v1","""event"",""trial"",""time""
""blur"",""1"",""7312""
""focus"",""1"",""129274""
""fullscreenenter"",""1"",""130845""
""fullscreenexit"",""51"",""372911""
""blur"",""71"",""540287""
""focus"",""71"",""547486""
""blur"",""72"",""551415""
""focus"",""72"",""558073""
","""event"",""trial"",""time""
""blur"",""1"",""7312""
""blur"",""71"",""540287""
""blur"",""72"",""551415""
","""event"",""trial"",""time""
""focus"",""1"",""129274""
""focus"",""71"",""547486""
""focus"",""72"",""558073""
","""event"",""trial"",""time""
""fullscreenenter"",""1"",""130845""
","""event"",""trial"",""time""
""fullscreenexit"",""51"",""372911""
","","","","","","1666","images/apple5.png","","","learning","-2","-2","1","1","apple","fruit","2","0","","good","[3]"
"html-keyboard-response","104","621719","0.0-9.0-2.0-0.15","4012","2","13","Female","approach_avoid_spark_v1","""event"",""trial"",""time""
""blur"",""1"",""7312""
""focus"",""1"",""129274""
""fullscreenenter"",""1"",""130845""
""fullscreenexit"",""51"",""372911""
""blur"",""71"",""540287""
""focus"",""71"",""547486""
""blur"",""72"",""551415""
""focus"",""72"",""558073""
","""event"",""trial"",""time""
""blur"",""1"",""7312""
""blur"",""71"",""540287""
""blur"",""72"",""551415""
","""event"",""trial"",""time""
""focus"",""1"",""129274""
""focus"",""71"",""547486""
""focus"",""72"",""558073""
","""event"",""trial"",""time""
""fullscreenenter"",""1"",""130845""
","""event"",""trial"",""time""
""fullscreenexit"",""51"",""372911""
","","","","","","null","<div style=""font-size:60px;"">+</div>","null","","fixation","","","","","","","","","","",""
"aa-learning-trial","105","624721","0.0-9.0-2.0-1.15","4012","2","13","Female","approach_avoid_spark_v1","""event"",""trial"",""time""
""blur"",""1"",""7312""
""focus"",""1"",""129274""
""fullscreenenter"",""1"",""130845""
""fullscreenexit"",""51"",""372911""
""blur"",""71"",""540287""
""focus"",""71"",""547486""
""blur"",""72"",""551415""
""focus"",""72"",""558073""
","""event"",""trial"",""time""
""blur"",""1"",""7312""
""blur"",""71"",""540287""
""blur"",""72"",""551415""
","""event"",""trial"",""time""
""focus"",""1"",""129274""
""focus"",""71"",""547486""
""focus"",""72"",""558073""
","""event"",""trial"",""time""
""fullscreenenter"",""1"",""130845""
","""event"",""trial"",""time""
""fullscreenexit"",""51"",""372911""
","","","","","","834","images/apple5.png","","","learning","-2","-2","1","1","apple","fruit","2","0","","good","[3]"
"html-keyboard-response","106","625222","0.0-9.0-2.0-0.16","4012","2","13","Female","approach_avoid_spark_v1","""event"",""trial"",""time""
""blur"",""1"",""7312""
""focus"",""1"",""129274""
""fullscreenenter"",""1"",""130845""
""fullscreenexit"",""51"",""372911""
""blur"",""71"",""540287""
""focus"",""71"",""547486""
""blur"",""72"",""551415""
""focus"",""72"",""558073""
","""event"",""trial"",""time""
""blur"",""1"",""7312""
""blur"",""71"",""540287""
""blur"",""72"",""551415""
","""event"",""trial"",""time""
""focus"",""1"",""129274""
""focus"",""71"",""547486""
""focus"",""72"",""558073""
","""event"",""trial"",""time""
""fullscreenenter"",""1"",""130845""
","""event"",""trial"",""time""
""fullscreenexit"",""51"",""372911""
","","","","","","null","<div style=""font-size:60px;"">+</div>","null","","fixation","","","","","","","","","","",""
"aa-learning-trial","107","628224","0.0-9.0-2.0-1.16","4012","2","13","Female","approach_avoid_spark_v1","""event"",""trial"",""time""
""blur"",""1"",""7312""
""focus"",""1"",""129274""
""fullscreenenter"",""1"",""130845""
""fullscreenexit"",""51"",""372911""
""blur"",""71"",""540287""
""focus"",""71"",""547486""
""blur"",""72"",""551415""
""focus"",""72"",""558073""
","""event"",""trial"",""time""
""blur"",""1"",""7312""
""blur"",""71"",""540287""
""blur"",""72"",""551415""
","""event"",""trial"",""time""
""focus"",""1"",""129274""
""focus"",""71"",""547486""
""focus"",""72"",""558073""
","""event"",""trial"",""time""
""fullscreenenter"",""1"",""130845""
","""event"",""trial"",""time""
""fullscreenexit"",""51"",""372911""
","","","","","","1059","images/straw2.png","","","learning","-8","-8","1","1","straw","fruit","2","0","","bad","[-6]"
"html-keyboard-response","108","628726","0.0-9.0-2.0-0.17","4012","2","13","Female","approach_avoid_spark_v1","""event"",""trial"",""time""
""blur"",""1"",""7312""
""focus"",""1"",""129274""
""fullscreenenter"",""1"",""130845""
""fullscreenexit"",""51"",""372911""
""blur"",""71"",""540287""
""focus"",""71"",""547486""
""blur"",""72"",""551415""
""focus"",""72"",""558073""
","""event"",""trial"",""time""
""blur"",""1"",""7312""
""blur"",""71"",""540287""
""blur"",""72"",""551415""
","""event"",""trial"",""time""
""focus"",""1"",""129274""
""focus"",""71"",""547486""
""focus"",""72"",""558073""
","""event"",""trial"",""time""
""fullscreenenter"",""1"",""130845""
","""event"",""trial"",""time""
""fullscreenexit"",""51"",""372911""
","","","","","","null","<div style=""font-size:60px;"">+</div>","null","","fixation","","","","","","","","","","",""
"aa-learning-trial","109","631729","0.0-9.0-2.0-1.17","4012","2","13","Female","approach_avoid_spark_v1","""event"",""trial"",""time""
""blur"",""1"",""7312""
""focus"",""1"",""129274""
""fullscreenenter"",""1"",""130845""
""fullscreenexit"",""51"",""372911""
""blur"",""71"",""540287""
""focus"",""71"",""547486""
""blur"",""72"",""551415""
""focus"",""72"",""558073""
","""event"",""trial"",""time""
""blur"",""1"",""7312""
""blur"",""71"",""540287""
""blur"",""72"",""551415""
","""event"",""trial"",""time""
""focus"",""1"",""129274""
""focus"",""71"",""547486""
""focus"",""72"",""558073""
","""event"",""trial"",""time""
""fullscreenenter"",""1"",""130845""
","""event"",""trial"",""time""
""fullscreenexit"",""51"",""372911""
","","","","","","682","images/apple7.png","","","learning","6","6","1","1","apple","fruit","2","0","","good","[3]"
"html-keyboard-response","110","632230","0.0-9.0-2.0-0.18","4012","2","13","Female","approach_avoid_spark_v1","""event"",""trial"",""time""
""blur"",""1"",""7312""
""focus"",""1"",""129274""
""fullscreenenter"",""1"",""130845""
""fullscreenexit"",""51"",""372911""
""blur"",""71"",""540287""
""focus"",""71"",""547486""
""blur"",""72"",""551415""
""focus"",""72"",""558073""
","""event"",""trial"",""time""
""blur"",""1"",""7312""
""blur"",""71"",""540287""
""blur"",""72"",""551415""
","""event"",""trial"",""time""
""focus"",""1"",""129274""
""focus"",""71"",""547486""
""focus"",""72"",""558073""
","""event"",""trial"",""time""
""fullscreenenter"",""1"",""130845""
","""event"",""trial"",""time""
""fullscreenexit"",""51"",""372911""
","","","","","","null","<div style=""font-size:60px;"">+</div>","null","","fixation","","","","","","","","","","",""
"aa-learning-trial","111","635233","0.0-9.0-2.0-1.18","4012","2","13","Female","approach_avoid_spark_v1","""event"",""trial"",""time""
""blur"",""1"",""7312""
""focus"",""1"",""129274""
""fullscreenenter"",""1"",""130845""
""fullscreenexit"",""51"",""372911""
""blur"",""71"",""540287""
""focus"",""71"",""547486""
""blur"",""72"",""551415""
""focus"",""72"",""558073""
","""event"",""trial"",""time""
""blur"",""1"",""7312""
""blur"",""71"",""540287""
""blur"",""72"",""551415""
","""event"",""trial"",""time""
""focus"",""1"",""129274""
""focus"",""71"",""547486""
""focus"",""72"",""558073""
","""event"",""trial"",""time""
""fullscreenenter"",""1"",""130845""
","""event"",""trial"",""time""
""fullscreenexit"",""51"",""372911""
","","","","","","1059","images/banana2.png","","","learning","-3","0","0","0","banana","fruit","2","0","","neutral","0"
"html-keyboard-response","112","635735","0.0-9.0-2.0-0.19","4012","2","13","Female","approach_avoid_spark_v1","""event"",""trial"",""time""
""blur"",""1"",""7312""
""focus"",""1"",""129274""
""fullscreenenter"",""1"",""130845""
""fullscreenexit"",""51"",""372911""
""blur"",""71"",""540287""
""focus"",""71"",""547486""
""blur"",""72"",""551415""
""focus"",""72"",""558073""
","""event"",""trial"",""time""
""blur"",""1"",""7312""
""blur"",""71"",""540287""
""blur"",""72"",""551415""
","""event"",""trial"",""time""
""focus"",""1"",""129274""
""focus"",""71"",""547486""
""focus"",""72"",""558073""
","""event"",""trial"",""time""
""fullscreenenter"",""1"",""130845""
","""event"",""trial"",""time""
""fullscreenexit"",""51"",""372911""
","","","","","","null","<div style=""font-size:60px;"">+</div>","null","","fixation","","","","","","","","","","",""
"aa-learning-trial","113","638737","0.0-9.0-2.0-1.19","4012","2","13","Female","approach_avoid_spark_v1","""event"",""trial"",""time""
""blur"",""1"",""7312""
""focus"",""1"",""129274""
""fullscreenenter"",""1"",""130845""
""fullscreenexit"",""51"",""372911""
""blur"",""71"",""540287""
""focus"",""71"",""547486""
""blur"",""72"",""551415""
""focus"",""72"",""558073""
","""event"",""trial"",""time""
""blur"",""1"",""7312""
""blur"",""71"",""540287""
""blur"",""72"",""551415""
","""event"",""trial"",""time""
""focus"",""1"",""129274""
""focus"",""71"",""547486""
""focus"",""72"",""558073""
","""event"",""trial"",""time""
""fullscreenenter"",""1"",""130845""
","""event"",""trial"",""time""
""fullscreenexit"",""51"",""372911""
","","","","","","1586","images/apple3.png","","","learning","-7","-7","1","1","apple","fruit","2","0","","good","[3]"
"html-keyboard-response","114","639239","0.0-9.0-2.0-0.20","4012","2","13","Female","approach_avoid_spark_v1","""event"",""trial"",""time""
""blur"",""1"",""7312""
""focus"",""1"",""129274""
""fullscreenenter"",""1"",""130845""
""fullscreenexit"",""51"",""372911""
""blur"",""71"",""540287""
""focus"",""71"",""547486""
""blur"",""72"",""551415""
""focus"",""72"",""558073""
","""event"",""trial"",""time""
""blur"",""1"",""7312""
""blur"",""71"",""540287""
""blur"",""72"",""551415""
","""event"",""trial"",""time""
""focus"",""1"",""129274""
""focus"",""71"",""547486""
""focus"",""72"",""558073""
","""event"",""trial"",""time""
""fullscreenenter"",""1"",""130845""
","""event"",""trial"",""time""
""fullscreenexit"",""51"",""372911""
","","","","","","null","<div style=""font-size:60px;"">+</div>","null","","fixation","","","","","","","","","","",""
"aa-learning-trial","115","642242","0.0-9.0-2.0-1.20","4012","2","13","Female","approach_avoid_spark_v1","""event"",""trial"",""time""
""blur"",""1"",""7312""
""focus"",""1"",""129274""
""fullscreenenter"",""1"",""130845""
""fullscreenexit"",""51"",""372911""
""blur"",""71"",""540287""
""focus"",""71"",""547486""
""blur"",""72"",""551415""
""focus"",""72"",""558073""
","""event"",""trial"",""time""
""blur"",""1"",""7312""
""blur"",""71"",""540287""
""blur"",""72"",""551415""
","""event"",""trial"",""time""
""focus"",""1"",""129274""
""focus"",""71"",""547486""
""focus"",""72"",""558073""
","""event"",""trial"",""time""
""fullscreenenter"",""1"",""130845""
","""event"",""trial"",""time""
""fullscreenexit"",""51"",""372911""
","","","","","","1361","images/banana4.png","","","learning","5","0","0","0","banana","fruit","2","0","","neutral","0"
"html-keyboard-response","116","642744","0.0-9.0-2.0-0.21","4012","2","13","Female","approach_avoid_spark_v1","""event"",""trial"",""time""
""blur"",""1"",""7312""
""focus"",""1"",""129274""
""fullscreenenter"",""1"",""130845""
""fullscreenexit"",""51"",""372911""
""blur"",""71"",""540287""
""focus"",""71"",""547486""
""blur"",""72"",""551415""
""focus"",""72"",""558073""
","""event"",""trial"",""time""
""blur"",""1"",""7312""
""blur"",""71"",""540287""
""blur"",""72"",""551415""
","""event"",""trial"",""time""
""focus"",""1"",""129274""
""focus"",""71"",""547486""
""focus"",""72"",""558073""
","""event"",""trial"",""time""
""fullscreenenter"",""1"",""130845""
","""event"",""trial"",""time""
""fullscreenexit"",""51"",""372911""
","","","","","","null","<div style=""font-size:60px;"">+</div>","null","","fixation","","","","","","","","","","",""
"aa-learning-trial","117","645746","0.0-9.0-2.0-1.21","4012","2","13","Female","approach_avoid_spark_v1","""event"",""trial"",""time""
""blur"",""1"",""7312""
""focus"",""1"",""129274""
""fullscreenenter"",""1"",""130845""
""fullscreenexit"",""51"",""372911""
""blur"",""71"",""540287""
""focus"",""71"",""547486""
""blur"",""72"",""551415""
""focus"",""72"",""558073""
","""event"",""trial"",""time""
""blur"",""1"",""7312""
""blur"",""71"",""540287""
""blur"",""72"",""551415""
","""event"",""trial"",""time""
""focus"",""1"",""129274""
""focus"",""71"",""547486""
""focus"",""72"",""558073""
","""event"",""trial"",""time""
""fullscreenenter"",""1"",""130845""
","""event"",""trial"",""time""
""fullscreenexit"",""51"",""372911""
","","","","","","768","images/apple8.png","","","learning","4","4","1","1","apple","fruit","2","0","","good","[3]"
"html-keyboard-response","118","646248","0.0-9.0-2.0-0.22","4012","2","13","Female","approach_avoid_spark_v1","""event"",""trial"",""time""
""blur"",""1"",""7312""
""focus"",""1"",""129274""
""fullscreenenter"",""1"",""130845""
""fullscreenexit"",""51"",""372911""
""blur"",""71"",""540287""
""focus"",""71"",""547486""
""blur"",""72"",""551415""
""focus"",""72"",""558073""
","""event"",""trial"",""time""
""blur"",""1"",""7312""
""blur"",""71"",""540287""
""blur"",""72"",""551415""
","""event"",""trial"",""time""
""focus"",""1"",""129274""
""focus"",""71"",""547486""
""focus"",""72"",""558073""
","""event"",""trial"",""time""
""fullscreenenter"",""1"",""130845""
","""event"",""trial"",""time""
""fullscreenexit"",""51"",""372911""
","","","","","","null","<div style=""font-size:60px;"">+</div>","null","","fixation","","","","","","","","","","",""
"aa-learning-trial","119","649249","0.0-9.0-2.0-1.22","4012","2","13","Female","approach_avoid_spark_v1","""event"",""trial"",""time""
""blur"",""1"",""7312""
""focus"",""1"",""129274""
""fullscreenenter"",""1"",""130845""
""fullscreenexit"",""51"",""372911""
""blur"",""71"",""540287""
""focus"",""71"",""547486""
""blur"",""72"",""551415""
""focus"",""72"",""558073""
","""event"",""trial"",""time""
""blur"",""1"",""7312""
""blur"",""71"",""540287""
""blur"",""72"",""551415""
","""event"",""trial"",""time""
""focus"",""1"",""129274""
""focus"",""71"",""547486""
""focus"",""72"",""558073""
","""event"",""trial"",""time""
""fullscreenenter"",""1"",""130845""
","""event"",""trial"",""time""
""fullscreenexit"",""51"",""372911""
","","","","","","1089","images/straw3.png","","","learning","3","0","0","0","straw","fruit","2","0","","bad","[-6]"
"html-keyboard-response","120","649751","0.0-9.0-2.0-0.23","4012","2","13","Female","approach_avoid_spark_v1","""event"",""trial"",""time""
""blur"",""1"",""7312""
""focus"",""1"",""129274""
""fullscreenenter"",""1"",""130845""
""fullscreenexit"",""51"",""372911""
""blur"",""71"",""540287""
""focus"",""71"",""547486""
""blur"",""72"",""551415""
""focus"",""72"",""558073""
","""event"",""trial"",""time""
""blur"",""1"",""7312""
""blur"",""71"",""540287""
""blur"",""72"",""551415""
","""event"",""trial"",""time""
""focus"",""1"",""129274""
""focus"",""71"",""547486""
""focus"",""72"",""558073""
","""event"",""trial"",""time""
""fullscreenenter"",""1"",""130845""
","""event"",""trial"",""time""
""fullscreenexit"",""51"",""372911""
","","","","","","null","<div style=""font-size:60px;"">+</div>","null","","fixation","","","","","","","","","","",""
"aa-learning-trial","121","652753","0.0-9.0-2.0-1.23","4012","2","13","Female","approach_avoid_spark_v1","""event"",""trial"",""time""
""blur"",""1"",""7312""
""focus"",""1"",""129274""
""fullscreenenter"",""1"",""130845""
""fullscreenexit"",""51"",""372911""
""blur"",""71"",""540287""
""focus"",""71"",""547486""
""blur"",""72"",""551415""
""focus"",""72"",""558073""
","""event"",""trial"",""time""
""blur"",""1"",""7312""
""blur"",""71"",""540287""
""blur"",""72"",""551415""
","""event"",""trial"",""time""
""focus"",""1"",""129274""
""focus"",""71"",""547486""
""focus"",""72"",""558073""
","""event"",""trial"",""time""
""fullscreenenter"",""1"",""130845""
","""event"",""trial"",""time""
""fullscreenexit"",""51"",""372911""
","","","","","","1481","images/apple3.png","","","learning","-7","0","0","0","apple","fruit","2","0","","good","[3]"
"html-keyboard-response","122","653255","0.0-9.0-2.0-0.24","4012","2","13","Female","approach_avoid_spark_v1","""event"",""trial"",""time""
""blur"",""1"",""7312""
""focus"",""1"",""129274""
""fullscreenenter"",""1"",""130845""
""fullscreenexit"",""51"",""372911""
""blur"",""71"",""540287""
""focus"",""71"",""547486""
""blur"",""72"",""551415""
""focus"",""72"",""558073""
","""event"",""trial"",""time""
""blur"",""1"",""7312""
""blur"",""71"",""540287""
""blur"",""72"",""551415""
","""event"",""trial"",""time""
""focus"",""1"",""129274""
""focus"",""71"",""547486""
""focus"",""72"",""558073""
","""event"",""trial"",""time""
""fullscreenenter"",""1"",""130845""
","""event"",""trial"",""time""
""fullscreenexit"",""51"",""372911""
","","","","","","null","<div style=""font-size:60px;"">+</div>","null","","fixation","","","","","","","","","","",""
"aa-learning-trial","123","656256","0.0-9.0-2.0-1.24","4012","2","13","Female","approach_avoid_spark_v1","""event"",""trial"",""time""
""blur"",""1"",""7312""
""focus"",""1"",""129274""
""fullscreenenter"",""1"",""130845""
""fullscreenexit"",""51"",""372911""
""blur"",""71"",""540287""
""focus"",""71"",""547486""
""blur"",""72"",""551415""
""focus"",""72"",""558073""
","""event"",""trial"",""time""
""blur"",""1"",""7312""
""blur"",""71"",""540287""
""blur"",""72"",""551415""
","""event"",""trial"",""time""
""focus"",""1"",""129274""
""focus"",""71"",""547486""
""focus"",""72"",""558073""
","""event"",""trial"",""time""
""fullscreenenter"",""1"",""130845""
","""event"",""trial"",""time""
""fullscreenexit"",""51"",""372911""
","","","","","","1666","images/banana5.png","","","learning","-6","-6","1","1","banana","fruit","2","0","","neutral","0"
"html-keyboard-response","124","656758","0.0-9.0-2.0-0.25","4012","2","13","Female","approach_avoid_spark_v1","""event"",""trial"",""time""
""blur"",""1"",""7312""
""focus"",""1"",""129274""
""fullscreenenter"",""1"",""130845""
""fullscreenexit"",""51"",""372911""
""blur"",""71"",""540287""
""focus"",""71"",""547486""
""blur"",""72"",""551415""
""focus"",""72"",""558073""
","""event"",""trial"",""time""
""blur"",""1"",""7312""
""blur"",""71"",""540287""
""blur"",""72"",""551415""
","""event"",""trial"",""time""
""focus"",""1"",""129274""
""focus"",""71"",""547486""
""focus"",""72"",""558073""
","""event"",""trial"",""time""
""fullscreenenter"",""1"",""130845""
","""event"",""trial"",""time""
""fullscreenexit"",""51"",""372911""
","","","","","","null","<div style=""font-size:60px;"">+</div>","null","","fixation","","","","","","","","","","",""
"aa-learning-trial","125","659760","0.0-9.0-2.0-1.25","4012","2","13","Female","approach_avoid_spark_v1","""event"",""trial"",""time""
""blur"",""1"",""7312""
""focus"",""1"",""129274""
""fullscreenenter"",""1"",""130845""
""fullscreenexit"",""51"",""372911""
""blur"",""71"",""540287""
""focus"",""71"",""547486""
""blur"",""72"",""551415""
""focus"",""72"",""558073""
","""event"",""trial"",""time""
""blur"",""1"",""7312""
""blur"",""71"",""540287""
""blur"",""72"",""551415""
","""event"",""trial"",""time""
""focus"",""1"",""129274""
""focus"",""71"",""547486""
""focus"",""72"",""558073""
","""event"",""trial"",""time""
""fullscreenenter"",""1"",""130845""
","""event"",""trial"",""time""
""fullscreenexit"",""51"",""372911""
","","","","","","1082","images/apple2.png","","","learning","-4","-4","1","1","apple","fruit","2","0","","good","[3]"
"html-keyboard-response","126","660261","0.0-9.0-2.0-0.26","4012","2","13","Female","approach_avoid_spark_v1","""event"",""trial"",""time""
""blur"",""1"",""7312""
""focus"",""1"",""129274""
""fullscreenenter"",""1"",""130845""
""fullscreenexit"",""51"",""372911""
""blur"",""71"",""540287""
""focus"",""71"",""547486""
""blur"",""72"",""551415""
""focus"",""72"",""558073""
""blur"",""127"",""661770""
","""event"",""trial"",""time""
""blur"",""1"",""7312""
""blur"",""71"",""540287""
""blur"",""72"",""551415""
""blur"",""127"",""661770""
","""event"",""trial"",""time""
""focus"",""1"",""129274""
""focus"",""71"",""547486""
""focus"",""72"",""558073""
","""event"",""trial"",""time""
""fullscreenenter"",""1"",""130845""
","""event"",""trial"",""time""
""fullscreenexit"",""51"",""372911""
","","","","","","null","<div style=""font-size:60px;"">+</div>","null","","fixation","","","","","","","","","","",""
"aa-learning-trial","127","663263","0.0-9.0-2.0-1.26","4012","2","13","Female","approach_avoid_spark_v1","""event"",""trial"",""time""
""blur"",""1"",""7312""
""focus"",""1"",""129274""
""fullscreenenter"",""1"",""130845""
""fullscreenexit"",""51"",""372911""
""blur"",""71"",""540287""
""focus"",""71"",""547486""
""blur"",""72"",""551415""
""focus"",""72"",""558073""
""blur"",""127"",""661770""
","""event"",""trial"",""time""
""blur"",""1"",""7312""
""blur"",""71"",""540287""
""blur"",""72"",""551415""
""blur"",""127"",""661770""
","""event"",""trial"",""time""
""focus"",""1"",""129274""
""focus"",""71"",""547486""
""focus"",""72"",""558073""
","""event"",""trial"",""time""
""fullscreenenter"",""1"",""130845""
","""event"",""trial"",""time""
""fullscreenexit"",""51"",""372911""
","","","","","","null","images/banana5.png","","","learning","-6","-5","","null","banana","fruit","2","0","","neutral","0"
"html-keyboard-response","128","663765","0.0-9.0-2.0-0.27","4012","2","13","Female","approach_avoid_spark_v1","""event"",""trial"",""time""
""blur"",""1"",""7312""
""focus"",""1"",""129274""
""fullscreenenter"",""1"",""130845""
""fullscreenexit"",""51"",""372911""
""blur"",""71"",""540287""
""focus"",""71"",""547486""
""blur"",""72"",""551415""
""focus"",""72"",""558073""
""blur"",""127"",""661770""
""focus"",""129"",""666652""
","""event"",""trial"",""time""
""blur"",""1"",""7312""
""blur"",""71"",""540287""
""blur"",""72"",""551415""
""blur"",""127"",""661770""
","""event"",""trial"",""time""
""focus"",""1"",""129274""
""focus"",""71"",""547486""
""focus"",""72"",""558073""
""focus"",""129"",""666652""
","""event"",""trial"",""time""
""fullscreenenter"",""1"",""130845""
","""event"",""trial"",""time""
""fullscreenexit"",""51"",""372911""
","","","","","","null","<div style=""font-size:60px;"">+</div>","null","","fixation","","","","","","","","","","",""
"aa-learning-trial","129","666767","0.0-9.0-2.0-1.27","4012","2","13","Female","approach_avoid_spark_v1","""event"",""trial"",""time""
""blur"",""1"",""7312""
""focus"",""1"",""129274""
""fullscreenenter"",""1"",""130845""
""fullscreenexit"",""51"",""372911""
""blur"",""71"",""540287""
""focus"",""71"",""547486""
""blur"",""72"",""551415""
""focus"",""72"",""558073""
""blur"",""127"",""661770""
""focus"",""129"",""666652""
","""event"",""trial"",""time""
""blur"",""1"",""7312""
""blur"",""71"",""540287""
""blur"",""72"",""551415""
""blur"",""127"",""661770""
","""event"",""trial"",""time""
""focus"",""1"",""129274""
""focus"",""71"",""547486""
""focus"",""72"",""558073""
""focus"",""129"",""666652""
","""event"",""trial"",""time""
""fullscreenenter"",""1"",""130845""
","""event"",""trial"",""time""
""fullscreenexit"",""51"",""372911""
","","","","","","null","images/apple5.png","","","learning","-2","-5","","null","apple","fruit","2","0","","good","[3]"
