"trial_type","trial_index","time_elapsed","internal_node_id","subject_id","task_condition","age","gender","task_version","interactions","blur_events","focus_events","fullscreenenter_events","fullscreenexit_events","success","timeout","failed_images","failed_audio","failed_video","rt","stimulus","response","button_pressed","task_part","approach_reward","points","key_press","option_selected","stim_cat","task_block","block_condition","block_number","correct","cat_type","mean_cat_reward"
"pavlovia","0","7","0.0-0.0","4855","1","15","Female","approach_avoid_spark_v1","""event"",""trial"",""time""
""fullscreenenter"",""1"",""2588""
","
","
","""event"",""trial"",""time""
""fullscreenenter"",""1"",""2588""
","
","","","","","","","","","","","","","","","","","","","","",""
"fullscreen","1","3566","0.0-1.0","4855","1","15","Female","approach_avoid_spark_v1","""event"",""trial"",""time""
""fullscreenenter"",""1"",""2588""
","
","
","""event"",""trial"",""time""
""fullscreenenter"",""1"",""2588""
","
","true","","","","","","","","","","","","","","","","","","","",""
"preload","2","7746","0.0-2.0","4855","1","15","Female","approach_avoid_spark_v1","""event"",""trial"",""time""
""fullscreenenter"",""1"",""2588""
","
","
","""event"",""trial"",""time""
""fullscreenenter"",""1"",""2588""
","
","true","false","[]","[]","[]","","","","","","","","","","","","","","","",""
"audio-keyboard-response","3","10571","0.0-3.0","4855","1","15","Female","approach_avoid_spark_v1","""event"",""trial"",""time""
""fullscreenenter"",""1"",""2588""
","
","
","""event"",""trial"",""time""
""fullscreenenter"",""1"",""2588""
","
","","","","","","2816","audio/beep_loop.wav"," ","","","","","","","","","","","","",""
"audio-button-response","4","12483","0.0-4.0","4855","1","15","Female","approach_avoid_spark_v1","""event"",""trial"",""time""
""fullscreenenter"",""1"",""2588""
","
","
","""event"",""trial"",""time""
""fullscreenenter"",""1"",""2588""
","
","","","","","","1909","audio/shark.wav","4","","","","","","","","","","","","",""
"audio-button-response","5","14930","0.0-5.0","4855","1","15","Female","approach_avoid_spark_v1","""event"",""trial"",""time""
""fullscreenenter"",""1"",""2588""
","
","
","""event"",""trial"",""time""
""fullscreenenter"",""1"",""2588""
","
","","","","","","1440","audio/turtle.wav","1","","","","","","","","","","","","",""
"preload","6","17868","0.0-6.0","4855","1","15","Female","approach_avoid_spark_v1","""event"",""trial"",""time""
""fullscreenenter"",""1"",""2588""
","
","
","""event"",""trial"",""time""
""fullscreenenter"",""1"",""2588""
","
","true","false","[]","[]","[]","","","","","","","","","","","","","","","",""
"html-keyboard-response","7","24731","0.0-7.0","4855","1","15","Female","approach_avoid_spark_v1","""event"",""trial"",""time""
""fullscreenenter"",""1"",""2588""
","
","
","""event"",""trial"",""time""
""fullscreenenter"",""1"",""2588""
","
","","","","","","6860.700000286102","Welcome to the experiment. Press any key to begin and to advance the instructions."," ","","","","","","","","","","","","",""
"learning-instructions","8","33690","0.0-8.0-0.0-0.0","4855","1","15","Female","approach_avoid_spark_v1","""event"",""trial"",""time""
""fullscreenenter"",""1"",""2588""
","
","
","""event"",""trial"",""time""
""fullscreenenter"",""1"",""2588""
","
","","","","","","2008.3000001907349","<p> Welcome! Today you are going to play 6 different rounds of a decision-making game. </p><p> Use the mouse to click next to continue. </p>","","0","instructions","","","","","","","","","","",""
"learning-instructions","9","37274","0.0-8.0-0.0-0.1","4855","1","15","Female","approach_avoid_spark_v1","""event"",""trial"",""time""
""fullscreenenter"",""1"",""2588""
","
","
","""event"",""trial"",""time""
""fullscreenenter"",""1"",""2588""
","
","","","","","","856.1999998092651","<p> You will start with a practice round to learn the rules. </p>","","0","instructions","","","","","","","","","","",""
"learning-instructions","10","42311","0.0-8.0-0.0-0.2","4855","1","15","Female","approach_avoid_spark_v1","""event"",""trial"",""time""
""fullscreenenter"",""1"",""2588""
","
","
","""event"",""trial"",""time""
""fullscreenenter"",""1"",""2588""
","
","","","","","","1573.8000001907349","<p> Your goal in this round is to give out sports equipment to kids. </p></div>","","0","instructions","","","","","","","","","","",""
"learning-instructions","11","50636","0.0-8.0-0.0-0.3","4855","1","15","Female","approach_avoid_spark_v1","""event"",""trial"",""time""
""fullscreenenter"",""1"",""2588""
","
","
","""event"",""trial"",""time""
""fullscreenenter"",""1"",""2588""
","
","","","","","","777.5999999046326","<p> The kids only like some of the equipment.  </p><p> On each turn, you will see a piece of sports equipment.   </p><p> You need to decide whether to give it to the kids or not.  </p>","","0","instructions","","","","","","","","","","",""
"learning-instructions","12","56323","0.0-8.0-0.0-0.4","4855","1","15","Female","approach_avoid_spark_v1","""event"",""trial"",""time""
""fullscreenenter"",""1"",""2588""
","
","
","""event"",""trial"",""time""
""fullscreenenter"",""1"",""2588""
","
","","","","","","929.5","<p> You can give them the equipment by pressing 1 and choose not to give it to them by pressing 0. </p><br><div class=""choice-instructions-grid""> <div class=""choice-option""><img src=""images/approach.png"" class=""choice-option-img"" stage=""instructions"" position=""0"" ><div class=""choice-option-text""> Press ""1."" </div></div><div class=""choice-option""><img src=""images/avoid.png"" class=""choice-option-img"" stage=""instructions"" position=""1"" ><div class=""choice-option-text""> Press ""0."" </div></div>","","0","instructions","","","","","","","","","","",""
"learning-instructions","13","64700","0.0-8.0-0.0-0.5","4855","1","15","Female","approach_avoid_spark_v1","""event"",""trial"",""time""
""fullscreenenter"",""1"",""2588""
","
","
","""event"",""trial"",""time""
""fullscreenenter"",""1"",""2588""
","
","","","","","","986","<p> If you give them a piece of equipment they like, they will be happy! </p><p> But if you give them a piece of equipment they do not like, they will be sad. </p>","","0","instructions","","","","","","","","","","",""
"learning-instructions","14","76193","0.0-8.0-0.0-0.6","4855","1","15","Female","approach_avoid_spark_v1","""event"",""trial"",""time""
""fullscreenenter"",""1"",""2588""
","
","
","""event"",""trial"",""time""
""fullscreenenter"",""1"",""2588""
","
","","","","","","959.0999999046326","<p> You will earn points based on how you make kids feel. </p><p> If you make them happy, you will WIN anywhere from 1 - 9 points, </p><p> but if you make them sad, you will LOSE anywhere from 1 - 9 points. </p>","","0","instructions","","","","","","","","","","",""
"learning-instructions","15","86503","0.0-8.0-0.0-0.7","4855","1","15","Female","approach_avoid_spark_v1","""event"",""trial"",""time""
""fullscreenenter"",""1"",""2588""
","
","
","""event"",""trial"",""time""
""fullscreenenter"",""1"",""2588""
","
","","","","","","751.5","<p> You will see how many points you won or lost in the center of the screen. </p><p> Here is what you would see if you won 6 points: </p><p style=""color:green;font-size:50px;font-weight:bolder"">6</p><p style=""color:green"">The text is GREEN because you WON points.</p>","","0","instructions","","","","","","","","","","",""
"learning-instructions","16","93150","0.0-8.0-0.0-0.8","4855","1","15","Female","approach_avoid_spark_v1","""event"",""trial"",""time""
""fullscreenenter"",""1"",""2588""
","
","
","""event"",""trial"",""time""
""fullscreenenter"",""1"",""2588""
","
","","","","","","1137.4000000953674","<p> And here is what you would see if you lost 4 points: </p><p style=""color:red;font-size:50px;font-weight:bolder"">-4</p><p style=""color:red"">The text is RED because you LOST points. </p>","","0","instructions","","","","","","","","","","",""
"learning-instructions","17","108544","0.0-8.0-0.0-0.9","4855","1","15","Female","approach_avoid_spark_v1","""event"",""trial"",""time""
""fullscreenenter"",""1"",""2588""
","
","
","""event"",""trial"",""time""
""fullscreenenter"",""1"",""2588""
","
","","","","","","678.7000002861023","<p> Some of the equipment will make the kids VERY happy or sad. </p><p> These pieces of equipment will make you win or lose LOTS of points. </p><p> Other pieces of equipment will only make the kids a little happy or sad. </p><p> These pieces of equipment will make you win or lose small amounts of points. </p>","","0","instructions","","","","","","","","","","",""
"learning-instructions","18","120077","0.0-8.0-0.0-0.10","4855","1","15","Female","approach_avoid_spark_v1","""event"",""trial"",""time""
""fullscreenenter"",""1"",""2588""
","
","
","""event"",""trial"",""time""
""fullscreenenter"",""1"",""2588""
","
","","","","","","895.9000000953674","<p> If you choose not to give them the equipment, you will not win or lose any points. </p><p>  However, in the center of the screen, you will see the number of points you WOULD HAVE won or lost if you had given them the equipment. </p>","","0","instructions","","","","","","","","","","",""
"learning-instructions","19","142508","0.0-8.0-0.0-0.11","4855","1","15","Female","approach_avoid_spark_v1","""event"",""trial"",""time""
""fullscreenenter"",""1"",""2588""
","
","
","""event"",""trial"",""time""
""fullscreenenter"",""1"",""2588""
","
","","","","","","895.5","<p> Here is what you might see if you did not give the equipment to the kids but it would have made them happy: </p><p style=""color:grey; font-size:50px; display: inline-block; border-spacing: 15px; border-width:3px; border-style:solid; border-color:red"">  &nbsp; 7 &nbsp; </p><p> Remember, in this case, you would not win or lose ANY points because you did not give them the equipment.  </p><p style=""color:grey"">The text is GREY because you earned ZERO points. </p><p style=""color:red"">However, choosing to give the kids the equipment would have made you win points. The box around the text is RED because you chose the worse option. </p>","","0","instructions","","","","","","","","","","",""
"learning-instructions","20","165873","0.0-8.0-0.0-0.12","4855","1","15","Female","approach_avoid_spark_v1","""event"",""trial"",""time""
""fullscreenenter"",""1"",""2588""
","
","
","""event"",""trial"",""time""
""fullscreenenter"",""1"",""2588""
","
","","","","","","2287.4000000953674","<p> Here is what you might see if you did not give the equipment to the kids but it would have made them sad: </p><p style=""color:grey;font-size:50px; display: inline-block; border-spacing: 15px; border-width:3px; border-style:solid; border-color:green"">  &nbsp; -8 &nbsp; </p><p> Remember, in this case, you would not win or lose ANY points because you did not give them the equipment.  </p><p style=""color:grey"">The text is GREY because you earned ZERO points. </p><p  style=""color:green""> Choosing to give the kids the equipment would have made you lose points. The box around the text is GREEN because you chose the better option.</p>","","0","instructions","","","","","","","","","","",""
"learning-instructions","21","176129","0.0-8.0-0.0-0.13","4855","1","15","Female","approach_avoid_spark_v1","""event"",""trial"",""time""
""fullscreenenter"",""1"",""2588""
","
","
","""event"",""trial"",""time""
""fullscreenenter"",""1"",""2588""
","
","","","","","","1183.4000000953674","<p> You will have 3 seconds to make each choice. Try to respond before time runs out! </p><p> You will lose 5 points each time you do not make a response. </p>","","0","instructions","","","","","","","","","","",""
"learning-instructions","22","182374","0.0-8.0-0.0-0.14","4855","1","15","Female","approach_avoid_spark_v1","""event"",""trial"",""time""
""fullscreenenter"",""1"",""2588""
","
","
","""event"",""trial"",""time""
""fullscreenenter"",""1"",""2588""
","
","","","","","","826.3000001907349","<p> This is just a practice round, but in the real game, your bonus payment will depend on your total number of points.","","0","instructions","","","","","","","","","","",""
"learning-instructions","23","188830","0.0-8.0-0.0-0.15","4855","1","15","Female","approach_avoid_spark_v1","""event"",""trial"",""time""
""fullscreenenter"",""1"",""2588""
","
","
","""event"",""trial"",""time""
""fullscreenenter"",""1"",""2588""
","
","","","","","","689.6999998092651","<p> Remember, you can give them the equipment by pressing 1 and choose not to give it to them by pressing 0. </p><br><div class=""choice-instructions-grid""> <div class=""choice-option""><img src=""images/approach.png"" class=""choice-option-img"" stage=""instructions"" position=""0"" ><div class=""choice-option-text""> Press ""1."" </div></div><div class=""choice-option""><img src=""images/avoid.png"" class=""choice-option-img"" stage=""instructions"" position=""1"" ><div class=""choice-option-text""> Press ""0."" </div></div>","","0","instructions","","","","","","","","","","",""
"html-button-response","24","191453","0.0-8.0-1.0","4855","1","15","Female","approach_avoid_spark_v1","""event"",""trial"",""time""
""fullscreenenter"",""1"",""2588""
","
","
","""event"",""trial"",""time""
""fullscreenenter"",""1"",""2588""
","
","","","","","","2513.300000190735","<p> Ready to practice? </p>","0","","","","","","","","","","","","",""
"html-keyboard-response","25","192081","0.0-8.0-2.0-0.0","4855","1","15","Female","approach_avoid_spark_v1","""event"",""trial"",""time""
""fullscreenenter"",""1"",""2588""
","
","
","""event"",""trial"",""time""
""fullscreenenter"",""1"",""2588""
","
","","","","","","null","<div style=""font-size:60px;"">+</div>","null","","fixation","","","","","","","","","","",""
"aa-learning-trial","26","195100","0.0-8.0-2.0-1.0","4855","1","15","Female","approach_avoid_spark_v1","""event"",""trial"",""time""
""fullscreenenter"",""1"",""2588""
","
","
","""event"",""trial"",""time""
""fullscreenenter"",""1"",""2588""
","
","","","","","","1433.6000003814697","images/racket2.png","","","learning","-3","-3","1","1","practice","practice","practice","-1","","",""
"html-keyboard-response","27","195615","0.0-8.0-2.0-0.1","4855","1","15","Female","approach_avoid_spark_v1","""event"",""trial"",""time""
""fullscreenenter"",""1"",""2588""
","
","
","""event"",""trial"",""time""
""fullscreenenter"",""1"",""2588""
","
","","","","","","null","<div style=""font-size:60px;"">+</div>","null","","fixation","","","","","","","","","","",""
"aa-learning-trial","28","198637","0.0-8.0-2.0-1.1","4855","1","15","Female","approach_avoid_spark_v1","""event"",""trial"",""time""
""fullscreenenter"",""1"",""2588""
","
","
","""event"",""trial"",""time""
""fullscreenenter"",""1"",""2588""
","
","","","","","","2101.9000000953674","images/racket3.png","","","learning","-8","0","0","0","practice","practice","practice","-1","","",""
"html-keyboard-response","29","199148","0.0-8.0-2.0-0.2","4855","1","15","Female","approach_avoid_spark_v1","""event"",""trial"",""time""
""fullscreenenter"",""1"",""2588""
","
","
","""event"",""trial"",""time""
""fullscreenenter"",""1"",""2588""
","
","","","","","","null","<div style=""font-size:60px;"">+</div>","null","","fixation","","","","","","","","","","",""
"aa-learning-trial","30","202161","0.0-8.0-2.0-1.2","4855","1","15","Female","approach_avoid_spark_v1","""event"",""trial"",""time""
""fullscreenenter"",""1"",""2588""
","
","
","""event"",""trial"",""time""
""fullscreenenter"",""1"",""2588""
","
","","","","","","1759.4000000953674","images/racket3.png","","","learning","-3","0","0","0","practice","practice","practice","-1","","",""
"html-keyboard-response","31","202674","0.0-8.0-2.0-0.3","4855","1","15","Female","approach_avoid_spark_v1","""event"",""trial"",""time""
""fullscreenenter"",""1"",""2588""
","
","
","""event"",""trial"",""time""
""fullscreenenter"",""1"",""2588""
","
","","","","","","null","<div style=""font-size:60px;"">+</div>","null","","fixation","","","","","","","","","","",""
"aa-learning-trial","32","205691","0.0-8.0-2.0-1.3","4855","1","15","Female","approach_avoid_spark_v1","""event"",""trial"",""time""
""fullscreenenter"",""1"",""2588""
","
","
","""event"",""trial"",""time""
""fullscreenenter"",""1"",""2588""
","
","","","","","","1058.1999998092651","images/ball4.png","","","learning","-9","-9","1","1","practice","practice","practice","-1","","",""
"html-keyboard-response","33","206208","0.0-8.0-2.0-0.4","4855","1","15","Female","approach_avoid_spark_v1","""event"",""trial"",""time""
""fullscreenenter"",""1"",""2588""
","
","
","""event"",""trial"",""time""
""fullscreenenter"",""1"",""2588""
","
","","","","","","null","<div style=""font-size:60px;"">+</div>","null","","fixation","","","","","","","","","","",""
"aa-learning-trial","34","209217","0.0-8.0-2.0-1.4","4855","1","15","Female","approach_avoid_spark_v1","""event"",""trial"",""time""
""fullscreenenter"",""1"",""2588""
","
","
","""event"",""trial"",""time""
""fullscreenenter"",""1"",""2588""
","
","","","","","","2206.8999996185303","images/racket1.png","","","learning","-7","0","0","0","practice","practice","practice","-1","","",""
"html-keyboard-response","35","209731","0.0-8.0-2.0-0.5","4855","1","15","Female","approach_avoid_spark_v1","""event"",""trial"",""time""
""fullscreenenter"",""1"",""2588""
","
","
","""event"",""trial"",""time""
""fullscreenenter"",""1"",""2588""
","
","","","","","","null","<div style=""font-size:60px;"">+</div>","null","","fixation","","","","","","","","","","",""
"aa-learning-trial","36","212735","0.0-8.0-2.0-1.5","4855","1","15","Female","approach_avoid_spark_v1","""event"",""trial"",""time""
""fullscreenenter"",""1"",""2588""
","
","
","""event"",""trial"",""time""
""fullscreenenter"",""1"",""2588""
","
","","","","","","1143.8999996185303","images/ball2.png","","","learning","2","0","0","0","practice","practice","practice","-1","","",""
"html-keyboard-response","37","213249","0.0-8.0-2.0-0.6","4855","1","15","Female","approach_avoid_spark_v1","""event"",""trial"",""time""
""fullscreenenter"",""1"",""2588""
","
","
","""event"",""trial"",""time""
""fullscreenenter"",""1"",""2588""
","
","","","","","","null","<div style=""font-size:60px;"">+</div>","null","","fixation","","","","","","","","","","",""
"aa-learning-trial","38","216255","0.0-8.0-2.0-1.6","4855","1","15","Female","approach_avoid_spark_v1","""event"",""trial"",""time""
""fullscreenenter"",""1"",""2588""
","
","
","""event"",""trial"",""time""
""fullscreenenter"",""1"",""2588""
","
","","","","","","1198.8000001907349","images/ball2.png","","","learning","-8","-8","1","1","practice","practice","practice","-1","","",""
"html-keyboard-response","39","216769","0.0-8.0-2.0-0.7","4855","1","15","Female","approach_avoid_spark_v1","""event"",""trial"",""time""
""fullscreenenter"",""1"",""2588""
","
","
","""event"",""trial"",""time""
""fullscreenenter"",""1"",""2588""
","
","","","","","","null","<div style=""font-size:60px;"">+</div>","null","","fixation","","","","","","","","","","",""
"aa-learning-trial","40","219774","0.0-8.0-2.0-1.7","4855","1","15","Female","approach_avoid_spark_v1","""event"",""trial"",""time""
""fullscreenenter"",""1"",""2588""
","
","
","""event"",""trial"",""time""
""fullscreenenter"",""1"",""2588""
","
","","","","","","1427.8999996185303","images/ball1.png","","","learning","2","2","1","1","practice","practice","practice","-1","","",""
"html-keyboard-response","41","220279","0.0-8.0-2.0-0.8","4855","1","15","Female","approach_avoid_spark_v1","""event"",""trial"",""time""
""fullscreenenter"",""1"",""2588""
","
","
","""event"",""trial"",""time""
""fullscreenenter"",""1"",""2588""
","
","","","","","","null","<div style=""font-size:60px;"">+</div>","null","","fixation","","","","","","","","","","",""
"aa-learning-trial","42","223287","0.0-8.0-2.0-1.8","4855","1","15","Female","approach_avoid_spark_v1","""event"",""trial"",""time""
""fullscreenenter"",""1"",""2588""
","
","
","""event"",""trial"",""time""
""fullscreenenter"",""1"",""2588""
","
","","","","","","2215.2999997138977","images/racket4.png","","","learning","-6","0","0","0","practice","practice","practice","-1","","",""
"html-keyboard-response","43","223791","0.0-8.0-2.0-0.9","4855","1","15","Female","approach_avoid_spark_v1","""event"",""trial"",""time""
""fullscreenenter"",""1"",""2588""
","
","
","""event"",""trial"",""time""
""fullscreenenter"",""1"",""2588""
","
","","","","","","null","<div style=""font-size:60px;"">+</div>","null","","fixation","","","","","","","","","","",""
"aa-learning-trial","44","226798","0.0-8.0-2.0-1.9","4855","1","15","Female","approach_avoid_spark_v1","""event"",""trial"",""time""
""fullscreenenter"",""1"",""2588""
","
","
","""event"",""trial"",""time""
""fullscreenenter"",""1"",""2588""
","
","","","","","","1083.7999997138977","images/racket1.png","","","learning","-8","0","0","0","practice","practice","practice","-1","","",""
"html-keyboard-response","45","227303","0.0-8.0-2.0-0.10","4855","1","15","Female","approach_avoid_spark_v1","""event"",""trial"",""time""
""fullscreenenter"",""1"",""2588""
","
","
","""event"",""trial"",""time""
""fullscreenenter"",""1"",""2588""
","
","","","","","","null","<div style=""font-size:60px;"">+</div>","null","","fixation","","","","","","","","","","",""
"aa-learning-trial","46","230310","0.0-8.0-2.0-1.10","4855","1","15","Female","approach_avoid_spark_v1","""event"",""trial"",""time""
""fullscreenenter"",""1"",""2588""
","
","
","""event"",""trial"",""time""
""fullscreenenter"",""1"",""2588""
","
","","","","","","876.7000002861023","images/racket1.png","","","learning","-1","0","0","0","practice","practice","practice","-1","","",""
"html-keyboard-response","47","230814","0.0-8.0-2.0-0.11","4855","1","15","Female","approach_avoid_spark_v1","""event"",""trial"",""time""
""fullscreenenter"",""1"",""2588""
","
","
","""event"",""trial"",""time""
""fullscreenenter"",""1"",""2588""
","
","","","","","","null","<div style=""font-size:60px;"">+</div>","null","","fixation","","","","","","","","","","",""
"aa-learning-trial","48","233823","0.0-8.0-2.0-1.11","4855","1","15","Female","approach_avoid_spark_v1","""event"",""trial"",""time""
""fullscreenenter"",""1"",""2588""
","
","
","""event"",""trial"",""time""
""fullscreenenter"",""1"",""2588""
","
","","","","","","937.7000002861023","images/ball4.png","","","learning","5","5","1","1","practice","practice","practice","-1","","",""
"html-button-response","49","236895","0.0-8.0-3.0","4855","1","15","Female","approach_avoid_spark_v1","""event"",""trial"",""time""
""fullscreenenter"",""1"",""2588""
","
","
","""event"",""trial"",""time""
""fullscreenenter"",""1"",""2588""
","
","","","","","","3067.800000190735","<p> You earned -13 points in the practice round! </p>","0","","break","","","","","","","","","","",""
"learning-instructions","50","244435","0.0-8.0-4.0-0.0","4855","1","15","Female","approach_avoid_spark_v1","""event"",""trial"",""time""
""fullscreenenter"",""1"",""2588""
","
","
","""event"",""trial"",""time""
""fullscreenenter"",""1"",""2588""
","
","","","","","","1574.3000001907349","<p> It's almost time to start the real game. </p><p> Before you start, we're going to ask you a few questions about how the game works. </p>","","0","instructions","","","","","","","","","","",""
"preload","51","245894","0.0-8.0-5.0","4855","1","15","Female","approach_avoid_spark_v1","""event"",""trial"",""time""
""fullscreenenter"",""1"",""2588""
","
","
","""event"",""trial"",""time""
""fullscreenenter"",""1"",""2588""
","
","true","false","[]","[]","[]","","","","","","","","","","","","","","","",""
"comp-q","52","251884","0.0-8.0-6.0-0.0","4855","1","15","Female","approach_avoid_spark_v1","""event"",""trial"",""time""
""fullscreenenter"",""1"",""2588""
","
","
","""event"",""trial"",""time""
""fullscreenenter"",""1"",""2588""
","
","","","","","","990.8000001907349","<p> <b> True or False? </b> </p><p> If you see a number in GREY, that means you earned that many points. </p>","","1","comp_question","","","","","","","","","true","",""
"comp-q","53","261453","0.0-8.0-6.0-1.0","4855","1","15","Female","approach_avoid_spark_v1","""event"",""trial"",""time""
""fullscreenenter"",""1"",""2588""
","
","
","""event"",""trial"",""time""
""fullscreenenter"",""1"",""2588""
","
","","","","","","1202","<p><b> That's right! </b> If you see a grey number, it means you earned ZERO points. <br> The grey numbers show the points you WOULD HAVE earned if you had made the other choice. </p>","","0","comp_answer","","","","","","","","","","",""
"comp-q","54","267061","0.0-8.0-7.0-0.0","4855","1","15","Female","approach_avoid_spark_v1","""event"",""trial"",""time""
""fullscreenenter"",""1"",""2588""
","
","
","""event"",""trial"",""time""
""fullscreenenter"",""1"",""2588""
","
","","","","","","925.3000001907349","<p> <b> True or False? </b> </p><p> You will have as much time as you want to make each choice. </p>","","1","comp_question","","","","","","","","","true","",""
"comp-q","55","272553","0.0-8.0-7.0-1.0","4855","1","15","Female","approach_avoid_spark_v1","""event"",""trial"",""time""
""fullscreenenter"",""1"",""2588""
","
","
","""event"",""trial"",""time""
""fullscreenenter"",""1"",""2588""
","
","","","","","","1446.5","<p> <b> That's right! </b> You will only have 3 seconds to make each choice. </p>","","0","comp_answer","","","","","","","","","","",""
"comp-q","56","277910","0.0-8.0-8.0-0.0","4855","1","15","Female","approach_avoid_spark_v1","""event"",""trial"",""time""
""fullscreenenter"",""1"",""2588""
","
","
","""event"",""trial"",""time""
""fullscreenenter"",""1"",""2588""
","
","","","","","","702.7000002861023","<p> <b> True or False? </b> </p><p> You should use the '1' and '0' keys to make your choices. </p>","","0","comp_question","","","","","","","","","true","",""
"comp-q","57","284137","0.0-8.0-8.0-1.0","4855","1","15","Female","approach_avoid_spark_v1","""event"",""trial"",""time""
""fullscreenenter"",""1"",""2588""
","
","
","""event"",""trial"",""time""
""fullscreenenter"",""1"",""2588""
","
","","","","","","1606.4000000953674","<p> <b> That's right! </b> You should use the '1' and '0' keys to make each choice. </p>","","0","comp_answer","","","","","","","","","","",""
"learning-instructions","58","292299","0.0-8.0-9.0-0.0","4855","1","15","Female","approach_avoid_spark_v1","""event"",""trial"",""time""
""fullscreenenter"",""1"",""2588""
","
","
","""event"",""trial"",""time""
""fullscreenenter"",""1"",""2588""
","
","","","","","","1897.1999998092651","<p> It's now time to start the real game. </p>Do your best, because the points you earn in the next rounds will influence your bonus payment. </p>","","0","instructions","","","","","","","","","","",""
"preload","59","292428","0.0-9.0-0.0","4855","1","15","Female","approach_avoid_spark_v1","""event"",""trial"",""time""
""fullscreenenter"",""1"",""2588""
","
","
","""event"",""trial"",""time""
""fullscreenenter"",""1"",""2588""
","
","true","false","[]","[]","[]","","","","","","","","","","","","","","","",""
"learning-instructions","60","300227","0.0-9.0-1.0-0.0","4855","1","15","Female","approach_avoid_spark_v1","""event"",""trial"",""time""
""fullscreenenter"",""1"",""2588""
","
","
","""event"",""trial"",""time""
""fullscreenenter"",""1"",""2588""
","
","","","","","","2657.5","<p> Your goal in this round is to sell different plants to a picky customer. </p></div>","","0","instructions","","","","","","","","","","",""
"learning-instructions","61","310757","0.0-9.0-1.0-0.1","4855","1","15","Female","approach_avoid_spark_v1","""event"",""trial"",""time""
""fullscreenenter"",""1"",""2588""
","
","
","""event"",""trial"",""time""
""fullscreenenter"",""1"",""2588""
","
","","","","","","1123.3000001907349","<p> The customer likes some plants and dislikes others.  </p><p> On each turn, you will see a plant.   </p><p> You need to decide whether to offer it to the customer or not.  </p>","","0","instructions","","","","","","","","","","",""
"learning-instructions","62","317284","0.0-9.0-1.0-0.2","4855","1","15","Female","approach_avoid_spark_v1","""event"",""trial"",""time""
""fullscreenenter"",""1"",""2588""
","
","
","""event"",""trial"",""time""
""fullscreenenter"",""1"",""2588""
","
","","","","","","769.2000002861023","<p> You can offer the plant by pressing 1 and decide to not offer it by pressing 0. </p><br><div class=""choice-instructions-grid""> <div class=""choice-option""><img src=""images/approach.png"" class=""choice-option-img"" stage=""instructions"" position=""0"" ><div class=""choice-option-text""> Press ""1."" </div></div><div class=""choice-option""><img src=""images/avoid.png"" class=""choice-option-img"" stage=""instructions"" position=""1"" ><div class=""choice-option-text""> Press ""0."" </div></div>","","0","instructions","","","","","","","","","","",""
"learning-instructions","63","327081","0.0-9.0-1.0-0.3","4855","1","15","Female","approach_avoid_spark_v1","""event"",""trial"",""time""
""fullscreenenter"",""1"",""2588""
","
","
","""event"",""trial"",""time""
""fullscreenenter"",""1"",""2588""
","
","","","","","","647.0999999046326","<p> If you offer a plant to the customer that she likes, she will be very pleased! </p><p> But if you offer a plant that she does NOT like, she will be annoyed. </p>","","0","instructions","","","","","","","","","","",""
"learning-instructions","64","341340","0.0-9.0-1.0-0.4","4855","1","15","Female","approach_avoid_spark_v1","""event"",""trial"",""time""
""fullscreenenter"",""1"",""2588""
","
","
","""event"",""trial"",""time""
""fullscreenenter"",""1"",""2588""
","
","","","","","","1668.1999998092651","<p> You will earn points based on how you made the customer feel. </p><p> If you made her pleased, you will WIN anywhere from 1 - 9 points, </p><p> but if you made her annoyed, you will LOSE anywhere from 1 - 9 points. </p>","","0","instructions","","","","","","","","","","",""
"learning-instructions","65","350343","0.0-9.0-1.0-0.5","4855","1","15","Female","approach_avoid_spark_v1","""event"",""trial"",""time""
""fullscreenenter"",""1"",""2588""
","
","
","""event"",""trial"",""time""
""fullscreenenter"",""1"",""2588""
","
","","","","","","1466","<p> You will see how many points you won or lost in the center of the screen. </p><p> Here is what you would see if you won 5 points: </p><p style=""color:green;font-size:50px;font-weight:bolder"">5</p>","","0","instructions","","","","","","","","","","",""
"learning-instructions","66","547736","0.0-9.0-1.0-0.6","4855","1","15","Female","approach_avoid_spark_v1","""event"",""trial"",""time""
""fullscreenenter"",""1"",""2588""
","
","
","""event"",""trial"",""time""
""fullscreenenter"",""1"",""2588""
","
","","","","","","193919.90000009537","<p> And here is what you would see if you lost 3 points: </p><p style=""color:red;font-size:50px;font-weight:bolder"">-3</p>","","0","instructions","","","","","","","","","","",""
"learning-instructions","67","565386","0.0-9.0-1.0-0.7","4855","1","15","Female","approach_avoid_spark_v1","""event"",""trial"",""time""
""fullscreenenter"",""1"",""2588""
","
","
","""event"",""trial"",""time""
""fullscreenenter"",""1"",""2588""
","
","","","","","","2513.199999809265","<p> Some plants will make the customer VERY pleased or annoyed. </p><p> These plants will make you win or lose LOTS of points. </p><p> The customer will have less strong feelings about other plants. </p><p> These plants will make you win or lose small amounts of points. </p>","","0","instructions","","","","","","","","","","",""
"learning-instructions","68","609106","0.0-9.0-1.0-0.8","4855","1","15","Female","approach_avoid_spark_v1","""event"",""trial"",""time""
""fullscreenenter"",""1"",""2588""
","
","
","""event"",""trial"",""time""
""fullscreenenter"",""1"",""2588""
","
","","","","","","30820.199999809265","<p> If you choose to not offer the plant to the customer, you will not win or lose any points. </p><p>  However, in the center of the screen, you will see the number of points you WOULD HAVE won or lost if you had offered the plant. </p>","","0","instructions","","","","","","","","","","",""
"learning-instructions","69","621566","0.0-9.0-1.0-0.9","4855","1","15","Female","approach_avoid_spark_v1","""event"",""trial"",""time""
""fullscreenenter"",""1"",""2588""
","
","
","""event"",""trial"",""time""
""fullscreenenter"",""1"",""2588""
","
","","","","","","840","<p> Here is what you might see if you did not offer the plant but the customer would have liked it: </p><p style=""color:grey; font-size:50px; display: inline-block; border-spacing: 15px; border-width:3px; border-style:solid; border-color:red"">  &nbsp; 6 &nbsp; </p><p> Remember, in this case, you would not win or lose ANY points because you did not offer the plant.  </p>","","0","instructions","","","","","","","","","","",""
"learning-instructions","70","630476","0.0-9.0-1.0-0.10","4855","1","15","Female","approach_avoid_spark_v1","""event"",""trial"",""time""
""fullscreenenter"",""1"",""2588""
","
","
","""event"",""trial"",""time""
""fullscreenenter"",""1"",""2588""
","
","","","","","","1131.4000000953674","<p> Try to make the best choice for each plant because </p><p> at the end of the game, you will earn bonus money based on how many points you earned. </p>","","0","instructions","","","","","","","","","","",""
"learning-instructions","71","639557","0.0-9.0-1.0-0.11","4855","1","15","Female","approach_avoid_spark_v1","""event"",""trial"",""time""
""fullscreenenter"",""1"",""2588""
","
","
","""event"",""trial"",""time""
""fullscreenenter"",""1"",""2588""
","
","","","","","","889.0999999046326","<p> You will have 3 seconds to make each choice. Try to respond before time runs out! </p><p> You will lose 5 points each time you do not make a response. </p>","","0","instructions","","","","","","","","","","",""
"html-keyboard-response","72","640181","0.0-9.0-2.0-0.0","4855","1","15","Female","approach_avoid_spark_v1","""event"",""trial"",""time""
""fullscreenenter"",""1"",""2588""
","
","
","""event"",""trial"",""time""
""fullscreenenter"",""1"",""2588""
","
","","","","","","null","<div style=""font-size:60px;"">+</div>","null","","fixation","","","","","","","","","","",""
"aa-learning-trial","73","643185","0.0-9.0-2.0-1.0","4855","1","15","Female","approach_avoid_spark_v1","""event"",""trial"",""time""
""fullscreenenter"",""1"",""2588""
","
","
","""event"",""trial"",""time""
""fullscreenenter"",""1"",""2588""
","
","","","","","","1647","images/cactus5.png","","","learning","6","6","1","1","cactus","plants","1","0","","good","[5]"
"html-keyboard-response","74","643693","0.0-9.0-2.0-0.1","4855","1","15","Female","approach_avoid_spark_v1","""event"",""trial"",""time""
""fullscreenenter"",""1"",""2588""
","
","
","""event"",""trial"",""time""
""fullscreenenter"",""1"",""2588""
","
","","","","","","null","<div style=""font-size:60px;"">+</div>","null","","fixation","","","","","","","","","","",""
"aa-learning-trial","75","646717","0.0-9.0-2.0-1.1","4855","1","15","Female","approach_avoid_spark_v1","""event"",""trial"",""time""
""fullscreenenter"",""1"",""2588""
","
","
","""event"",""trial"",""time""
""fullscreenenter"",""1"",""2588""
","
","","","","","","1136.3000001907349","images/bush8.png","","","learning","-5","0","0","0","bush","plants","1","0","","bad","[-5]"
"html-keyboard-response","76","647235","0.0-9.0-2.0-0.2","4855","1","15","Female","approach_avoid_spark_v1","""event"",""trial"",""time""
""fullscreenenter"",""1"",""2588""
","
","
","""event"",""trial"",""time""
""fullscreenenter"",""1"",""2588""
","
","","","","","","null","<div style=""font-size:60px;"">+</div>","null","","fixation","","","","","","","","","","",""
"aa-learning-trial","77","650249","0.0-9.0-2.0-1.2","4855","1","15","Female","approach_avoid_spark_v1","""event"",""trial"",""time""
""fullscreenenter"",""1"",""2588""
","
","
","""event"",""trial"",""time""
""fullscreenenter"",""1"",""2588""
","
","","","","","","778.3000001907349","images/bush3.png","","","learning","-6","0","0","0","bush","plants","1","0","","bad","[-5]"
"html-keyboard-response","78","650762","0.0-9.0-2.0-0.3","4855","1","15","Female","approach_avoid_spark_v1","""event"",""trial"",""time""
""fullscreenenter"",""1"",""2588""
","
","
","""event"",""trial"",""time""
""fullscreenenter"",""1"",""2588""
","
","","","","","","null","<div style=""font-size:60px;"">+</div>","null","","fixation","","","","","","","","","","",""
"aa-learning-trial","79","653781","0.0-9.0-2.0-1.3","4855","1","15","Female","approach_avoid_spark_v1","""event"",""trial"",""time""
""fullscreenenter"",""1"",""2588""
","
","
","""event"",""trial"",""time""
""fullscreenenter"",""1"",""2588""
","
","","","","","","562.7999997138977","images/cactus7.png","","","learning","6","6","1","1","cactus","plants","1","0","","good","[5]"
"html-keyboard-response","80","654293","0.0-9.0-2.0-0.4","4855","1","15","Female","approach_avoid_spark_v1","""event"",""trial"",""time""
""fullscreenenter"",""1"",""2588""
","
","
","""event"",""trial"",""time""
""fullscreenenter"",""1"",""2588""
","
","","","","","","null","<div style=""font-size:60px;"">+</div>","null","","fixation","","","","","","","","","","",""
"aa-learning-trial","81","657311","0.0-9.0-2.0-1.4","4855","1","15","Female","approach_avoid_spark_v1","""event"",""trial"",""time""
""fullscreenenter"",""1"",""2588""
","
","
","""event"",""trial"",""time""
""fullscreenenter"",""1"",""2588""
","
","","","","","","561.6000003814697","images/tree3.png","","","learning","1","0","0","0","tree","plants","1","0","","neutral","0"
"html-keyboard-response","82","657828","0.0-9.0-2.0-0.5","4855","1","15","Female","approach_avoid_spark_v1","""event"",""trial"",""time""
""fullscreenenter"",""1"",""2588""
","
","
","""event"",""trial"",""time""
""fullscreenenter"",""1"",""2588""
","
","","","","","","null","<div style=""font-size:60px;"">+</div>","null","","fixation","","","","","","","","","","",""
"aa-learning-trial","83","660851","0.0-9.0-2.0-1.5","4855","1","15","Female","approach_avoid_spark_v1","""event"",""trial"",""time""
""fullscreenenter"",""1"",""2588""
","
","
","""event"",""trial"",""time""
""fullscreenenter"",""1"",""2588""
","
","","","","","","681","images/bush8.png","","","learning","-6","0","0","0","bush","plants","1","0","","bad","[-5]"
"html-keyboard-response","84","661368","0.0-9.0-2.0-0.6","4855","1","15","Female","approach_avoid_spark_v1","""event"",""trial"",""time""
""fullscreenenter"",""1"",""2588""
","
","
","""event"",""trial"",""time""
""fullscreenenter"",""1"",""2588""
","
","","","","","","null","<div style=""font-size:60px;"">+</div>","null","","fixation","","","","","","","","","","",""
"aa-learning-trial","85","664382","0.0-9.0-2.0-1.6","4855","1","15","Female","approach_avoid_spark_v1","""event"",""trial"",""time""
""fullscreenenter"",""1"",""2588""
","
","
","""event"",""trial"",""time""
""fullscreenenter"",""1"",""2588""
","
","","","","","","476.2000002861023","images/cactus7.png","","","learning","5","5","1","1","cactus","plants","1","0","","good","[5]"
"html-keyboard-response","86","664898","0.0-9.0-2.0-0.7","4855","1","15","Female","approach_avoid_spark_v1","""event"",""trial"",""time""
""fullscreenenter"",""1"",""2588""
","
","
","""event"",""trial"",""time""
""fullscreenenter"",""1"",""2588""
","
","","","","","","null","<div style=""font-size:60px;"">+</div>","null","","fixation","","","","","","","","","","",""
"aa-learning-trial","87","667902","0.0-9.0-2.0-1.7","4855","1","15","Female","approach_avoid_spark_v1","""event"",""trial"",""time""
""fullscreenenter"",""1"",""2588""
","
","
","""event"",""trial"",""time""
""fullscreenenter"",""1"",""2588""
","
","","","","","","672.4000000953674","images/cactus1.png","","","learning","4","4","1","1","cactus","plants","1","0","","good","[5]"
"html-keyboard-response","88","668418","0.0-9.0-2.0-0.8","4855","1","15","Female","approach_avoid_spark_v1","""event"",""trial"",""time""
""fullscreenenter"",""1"",""2588""
","
","
","""event"",""trial"",""time""
""fullscreenenter"",""1"",""2588""
","
","","","","","","null","<div style=""font-size:60px;"">+</div>","null","","fixation","","","","","","","","","","",""
"aa-learning-trial","89","671421","0.0-9.0-2.0-1.8","4855","1","15","Female","approach_avoid_spark_v1","""event"",""trial"",""time""
""fullscreenenter"",""1"",""2588""
","
","
","""event"",""trial"",""time""
""fullscreenenter"",""1"",""2588""
","
","","","","","","539.3000001907349","images/bush6.png","","","learning","-7","0","0","0","bush","plants","1","0","","bad","[-5]"
"html-keyboard-response","90","671926","0.0-9.0-2.0-0.9","4855","1","15","Female","approach_avoid_spark_v1","""event"",""trial"",""time""
""fullscreenenter"",""1"",""2588""
","
","
","""event"",""trial"",""time""
""fullscreenenter"",""1"",""2588""
","
","","","","","","null","<div style=""font-size:60px;"">+</div>","null","","fixation","","","","","","","","","","",""
"aa-learning-trial","91","674935","0.0-9.0-2.0-1.9","4855","1","15","Female","approach_avoid_spark_v1","""event"",""trial"",""time""
""fullscreenenter"",""1"",""2588""
","
","
","""event"",""trial"",""time""
""fullscreenenter"",""1"",""2588""
","
","","","","","","718.8000001907349","images/tree3.png","","","learning","-1","-1","1","1","tree","plants","1","0","","neutral","0"
"html-keyboard-response","92","675439","0.0-9.0-2.0-0.10","4855","1","15","Female","approach_avoid_spark_v1","""event"",""trial"",""time""
""fullscreenenter"",""1"",""2588""
","
","
","""event"",""trial"",""time""
""fullscreenenter"",""1"",""2588""
","
","","","","","","null","<div style=""font-size:60px;"">+</div>","null","","fixation","","","","","","","","","","",""
"aa-learning-trial","93","678446","0.0-9.0-2.0-1.10","4855","1","15","Female","approach_avoid_spark_v1","""event"",""trial"",""time""
""fullscreenenter"",""1"",""2588""
","
","
","""event"",""trial"",""time""
""fullscreenenter"",""1"",""2588""
","
","","","","","","682.2000002861023","images/tree2.png","","","learning","-3","0","0","0","tree","plants","1","0","","neutral","0"
"html-keyboard-response","94","678950","0.0-9.0-2.0-0.11","4855","1","15","Female","approach_avoid_spark_v1","""event"",""trial"",""time""
""fullscreenenter"",""1"",""2588""
","
","
","""event"",""trial"",""time""
""fullscreenenter"",""1"",""2588""
","
","","","","","","null","<div style=""font-size:60px;"">+</div>","null","","fixation","","","","","","","","","","",""
"aa-learning-trial","95","681958","0.0-9.0-2.0-1.11","4855","1","15","Female","approach_avoid_spark_v1","""event"",""trial"",""time""
""fullscreenenter"",""1"",""2588""
","
","
","""event"",""trial"",""time""
""fullscreenenter"",""1"",""2588""
","
","","","","","","748.9000000953674","images/bush6.png","","","learning","-2","0","0","0","bush","plants","1","0","","bad","[-5]"
"html-keyboard-response","96","682462","0.0-9.0-2.0-0.12","4855","1","15","Female","approach_avoid_spark_v1","""event"",""trial"",""time""
""fullscreenenter"",""1"",""2588""
","
","
","""event"",""trial"",""time""
""fullscreenenter"",""1"",""2588""
","
","","","","","","null","<div style=""font-size:60px;"">+</div>","null","","fixation","","","","","","","","","","",""
"aa-learning-trial","97","685471","0.0-9.0-2.0-1.12","4855","1","15","Female","approach_avoid_spark_v1","""event"",""trial"",""time""
""fullscreenenter"",""1"",""2588""
","
","
","""event"",""trial"",""time""
""fullscreenenter"",""1"",""2588""
","
","","","","","","1020.7999997138977","images/tree7.png","","","learning","[-1]","0","0","0","tree","plants","1","0","","neutral","0"
"html-keyboard-response","98","685974","0.0-9.0-2.0-0.13","4855","1","15","Female","approach_avoid_spark_v1","""event"",""trial"",""time""
""fullscreenenter"",""1"",""2588""
","
","
","""event"",""trial"",""time""
""fullscreenenter"",""1"",""2588""
","
","","","","","","null","<div style=""font-size:60px;"">+</div>","null","","fixation","","","","","","","","","","",""
"aa-learning-trial","99","688982","0.0-9.0-2.0-1.13","4855","1","15","Female","approach_avoid_spark_v1","""event"",""trial"",""time""
""fullscreenenter"",""1"",""2588""
","
","
","""event"",""trial"",""time""
""fullscreenenter"",""1"",""2588""
","
","","","","","","659.2000002861023","images/tree2.png","","","learning","-1","0","0","0","tree","plants","1","0","","neutral","0"
"html-keyboard-response","100","689486","0.0-9.0-2.0-0.14","4855","1","15","Female","approach_avoid_spark_v1","""event"",""trial"",""time""
""fullscreenenter"",""1"",""2588""
","
","
","""event"",""trial"",""time""
""fullscreenenter"",""1"",""2588""
","
","","","","","","null","<div style=""font-size:60px;"">+</div>","null","","fixation","","","","","","","","","","",""
"aa-learning-trial","101","692495","0.0-9.0-2.0-1.14","4855","1","15","Female","approach_avoid_spark_v1","""event"",""trial"",""time""
""fullscreenenter"",""1"",""2588""
","
","
","""event"",""trial"",""time""
""fullscreenenter"",""1"",""2588""
","
","","","","","","464.3999996185303","images/cactus1.png","","","learning","4","4","1","1","cactus","plants","1","0","","good","[5]"
"html-keyboard-response","102","692998","0.0-9.0-2.0-0.15","4855","1","15","Female","approach_avoid_spark_v1","""event"",""trial"",""time""
""fullscreenenter"",""1"",""2588""
","
","
","""event"",""trial"",""time""
""fullscreenenter"",""1"",""2588""
","
","","","","","","null","<div style=""font-size:60px;"">+</div>","null","","fixation","","","","","","","","","","",""
"aa-learning-trial","103","696006","0.0-9.0-2.0-1.15","4855","1","15","Female","approach_avoid_spark_v1","""event"",""trial"",""time""
""fullscreenenter"",""1"",""2588""
","
","
","""event"",""trial"",""time""
""fullscreenenter"",""1"",""2588""
","
","","","","","","496.7999997138977","images/cactus7.png","","","learning","5","5","1","1","cactus","plants","1","0","","good","[5]"
"html-keyboard-response","104","696524","0.0-9.0-2.0-0.16","4855","1","15","Female","approach_avoid_spark_v1","""event"",""trial"",""time""
""fullscreenenter"",""1"",""2588""
","
","
","""event"",""trial"",""time""
""fullscreenenter"",""1"",""2588""
","
","","","","","","null","<div style=""font-size:60px;"">+</div>","null","","fixation","","","","","","","","","","",""
"aa-learning-trial","105","699535","0.0-9.0-2.0-1.16","4855","1","15","Female","approach_avoid_spark_v1","""event"",""trial"",""time""
""fullscreenenter"",""1"",""2588""
","
","
","""event"",""trial"",""time""
""fullscreenenter"",""1"",""2588""
","
","","","","","","594","images/bush8.png","","","learning","-6","0","0","0","bush","plants","1","0","","bad","[-5]"
"html-keyboard-response","106","700038","0.0-9.0-2.0-0.17","4855","1","15","Female","approach_avoid_spark_v1","""event"",""trial"",""time""
""fullscreenenter"",""1"",""2588""
","
","
","""event"",""trial"",""time""
""fullscreenenter"",""1"",""2588""
","
","","","","","","null","<div style=""font-size:60px;"">+</div>","null","","fixation","","","","","","","","","","",""
"aa-learning-trial","107","703046","0.0-9.0-2.0-1.17","4855","1","15","Female","approach_avoid_spark_v1","""event"",""trial"",""time""
""fullscreenenter"",""1"",""2588""
","
","
","""event"",""trial"",""time""
""fullscreenenter"",""1"",""2588""
","
","","","","","","670.5999999046326","images/tree2.png","","","learning","1","0","0","0","tree","plants","1","0","","neutral","0"
"html-keyboard-response","108","703550","0.0-9.0-2.0-0.18","4855","1","15","Female","approach_avoid_spark_v1","""event"",""trial"",""time""
""fullscreenenter"",""1"",""2588""
","
","
","""event"",""trial"",""time""
""fullscreenenter"",""1"",""2588""
","
","","","","","","null","<div style=""font-size:60px;"">+</div>","null","","fixation","","","","","","","","","","",""
"aa-learning-trial","109","706558","0.0-9.0-2.0-1.18","4855","1","15","Female","approach_avoid_spark_v1","""event"",""trial"",""time""
""fullscreenenter"",""1"",""2588""
","
","
","""event"",""trial"",""time""
""fullscreenenter"",""1"",""2588""
","
","","","","","","747","images/bush8.png","","","learning","-5","0","0","0","bush","plants","1","0","","bad","[-5]"
"html-keyboard-response","110","707062","0.0-9.0-2.0-0.19","4855","1","15","Female","approach_avoid_spark_v1","""event"",""trial"",""time""
""fullscreenenter"",""1"",""2588""
","
","
","""event"",""trial"",""time""
""fullscreenenter"",""1"",""2588""
","
","","","","","","null","<div style=""font-size:60px;"">+</div>","null","","fixation","","","","","","","","","","",""
"aa-learning-trial","111","710070","0.0-9.0-2.0-1.19","4855","1","15","Female","approach_avoid_spark_v1","""event"",""trial"",""time""
""fullscreenenter"",""1"",""2588""
","
","
","""event"",""trial"",""time""
""fullscreenenter"",""1"",""2588""
","
","","","","","","601.6999998092651","images/bush6.png","","","learning","-6","0","0","0","bush","plants","1","0","","bad","[-5]"
"html-keyboard-response","112","710584","0.0-9.0-2.0-0.20","4855","1","15","Female","approach_avoid_spark_v1","""event"",""trial"",""time""
""fullscreenenter"",""1"",""2588""
","
","
","""event"",""trial"",""time""
""fullscreenenter"",""1"",""2588""
","
","","","","","","null","<div style=""font-size:60px;"">+</div>","null","","fixation","","","","","","","","","","",""
"aa-learning-trial","113","713590","0.0-9.0-2.0-1.20","4855","1","15","Female","approach_avoid_spark_v1","""event"",""trial"",""time""
""fullscreenenter"",""1"",""2588""
","
","
","""event"",""trial"",""time""
""fullscreenenter"",""1"",""2588""
","
","","","","","","451.90000009536743","images/cactus1.png","","","learning","7","7","1","1","cactus","plants","1","0","","good","[5]"
"html-keyboard-response","114","714094","0.0-9.0-2.0-0.21","4855","1","15","Female","approach_avoid_spark_v1","""event"",""trial"",""time""
""fullscreenenter"",""1"",""2588""
","
","
","""event"",""trial"",""time""
""fullscreenenter"",""1"",""2588""
","
","","","","","","null","<div style=""font-size:60px;"">+</div>","null","","fixation","","","","","","","","","","",""
"aa-learning-trial","115","717103","0.0-9.0-2.0-1.21","4855","1","15","Female","approach_avoid_spark_v1","""event"",""trial"",""time""
""fullscreenenter"",""1"",""2588""
","
","
","""event"",""trial"",""time""
""fullscreenenter"",""1"",""2588""
","
","","","","","","527.2000002861023","images/bush6.png","","","learning","-7","0","0","0","bush","plants","1","0","","bad","[-5]"
"html-keyboard-response","116","717605","0.0-9.0-2.0-0.22","4855","1","15","Female","approach_avoid_spark_v1","""event"",""trial"",""time""
""fullscreenenter"",""1"",""2588""
","
","
","""event"",""trial"",""time""
""fullscreenenter"",""1"",""2588""
","
","","","","","","null","<div style=""font-size:60px;"">+</div>","null","","fixation","","","","","","","","","","",""
"aa-learning-trial","117","720615","0.0-9.0-2.0-1.22","4855","1","15","Female","approach_avoid_spark_v1","""event"",""trial"",""time""
""fullscreenenter"",""1"",""2588""
","
","
","""event"",""trial"",""time""
""fullscreenenter"",""1"",""2588""
","
","","","","","","779.7999997138977","images/tree3.png","","","learning","-2","0","0","0","tree","plants","1","0","","neutral","0"
"html-keyboard-response","118","721118","0.0-9.0-2.0-0.23","4855","1","15","Female","approach_avoid_spark_v1","""event"",""trial"",""time""
""fullscreenenter"",""1"",""2588""
","
","
","""event"",""trial"",""time""
""fullscreenenter"",""1"",""2588""
","
","","","","","","null","<div style=""font-size:60px;"">+</div>","null","","fixation","","","","","","","","","","",""
"aa-learning-trial","119","724127","0.0-9.0-2.0-1.23","4855","1","15","Female","approach_avoid_spark_v1","""event"",""trial"",""time""
""fullscreenenter"",""1"",""2588""
","
","
","""event"",""trial"",""time""
""fullscreenenter"",""1"",""2588""
","
","","","","","","621.3999996185303","images/cactus7.png","","","learning","4","4","1","1","cactus","plants","1","0","","good","[5]"
"html-keyboard-response","120","724630","0.0-9.0-2.0-0.24","4855","1","15","Female","approach_avoid_spark_v1","""event"",""trial"",""time""
""fullscreenenter"",""1"",""2588""
","
","
","""event"",""trial"",""time""
""fullscreenenter"",""1"",""2588""
","
","","","","","","null","<div style=""font-size:60px;"">+</div>","null","","fixation","","","","","","","","","","",""
"aa-learning-trial","121","727638","0.0-9.0-2.0-1.24","4855","1","15","Female","approach_avoid_spark_v1","""event"",""trial"",""time""
""fullscreenenter"",""1"",""2588""
","
","
","""event"",""trial"",""time""
""fullscreenenter"",""1"",""2588""
","
","","","","","","482.2000002861023","images/tree7.png","","","learning","-1","0","0","0","tree","plants","1","0","","neutral","0"
"html-keyboard-response","122","728143","0.0-9.0-2.0-0.25","4855","1","15","Female","approach_avoid_spark_v1","""event"",""trial"",""time""
""fullscreenenter"",""1"",""2588""
","
","
","""event"",""trial"",""time""
""fullscreenenter"",""1"",""2588""
","
","","","","","","null","<div style=""font-size:60px;"">+</div>","null","","fixation","","","","","","","","","","",""
"aa-learning-trial","123","731150","0.0-9.0-2.0-1.25","4855","1","15","Female","approach_avoid_spark_v1","""event"",""trial"",""time""
""fullscreenenter"",""1"",""2588""
","
","
","""event"",""trial"",""time""
""fullscreenenter"",""1"",""2588""
","
","","","","","","590","images/bush8.png","","","learning","-7","0","0","0","bush","plants","1","0","","bad","[-5]"
"html-keyboard-response","124","731654","0.0-9.0-2.0-0.26","4855","1","15","Female","approach_avoid_spark_v1","""event"",""trial"",""time""
""fullscreenenter"",""1"",""2588""
","
","
","""event"",""trial"",""time""
""fullscreenenter"",""1"",""2588""
","
","","","","","","null","<div style=""font-size:60px;"">+</div>","null","","fixation","","","","","","","","","","",""
"aa-learning-trial","125","734662","0.0-9.0-2.0-1.26","4855","1","15","Female","approach_avoid_spark_v1","""event"",""trial"",""time""
""fullscreenenter"",""1"",""2588""
","
","
","""event"",""trial"",""time""
""fullscreenenter"",""1"",""2588""
","
","","","","","","475.69999980926514","images/cactus1.png","","","learning","6","6","1","1","cactus","plants","1","0","","good","[5]"
"html-keyboard-response","126","735166","0.0-9.0-2.0-0.27","4855","1","15","Female","approach_avoid_spark_v1","""event"",""trial"",""time""
""fullscreenenter"",""1"",""2588""
","
","
","""event"",""trial"",""time""
""fullscreenenter"",""1"",""2588""
","
","","","","","","null","<div style=""font-size:60px;"">+</div>","null","","fixation","","","","","","","","","","",""
"aa-learning-trial","127","738174","0.0-9.0-2.0-1.27","4855","1","15","Female","approach_avoid_spark_v1","""event"",""trial"",""time""
""fullscreenenter"",""1"",""2588""
","
","
","""event"",""trial"",""time""
""fullscreenenter"",""1"",""2588""
","
","","","","","","442.19999980926514","images/tree2.png","","","learning","-1","0","0","0","tree","plants","1","0","","neutral","0"
"html-keyboard-response","128","738678","0.0-9.0-2.0-0.28","4855","1","15","Female","approach_avoid_spark_v1","""event"",""trial"",""time""
""fullscreenenter"",""1"",""2588""
","
","
","""event"",""trial"",""time""
""fullscreenenter"",""1"",""2588""
","
","","","","","","null","<div style=""font-size:60px;"">+</div>","null","","fixation","","","","","","","","","","",""
"aa-learning-trial","129","741686","0.0-9.0-2.0-1.28","4855","1","15","Female","approach_avoid_spark_v1","""event"",""trial"",""time""
""fullscreenenter"",""1"",""2588""
","
","
","""event"",""trial"",""time""
""fullscreenenter"",""1"",""2588""
","
","","","","","","528.3000001907349","images/cactus7.png","","","learning","6","6","1","1","cactus","plants","1","0","","good","[5]"
"html-keyboard-response","130","742190","0.0-9.0-2.0-0.29","4855","1","15","Female","approach_avoid_spark_v1","""event"",""trial"",""time""
""fullscreenenter"",""1"",""2588""
","
","
","""event"",""trial"",""time""
""fullscreenenter"",""1"",""2588""
","
","","","","","","null","<div style=""font-size:60px;"">+</div>","null","","fixation","","","","","","","","","","",""
"aa-learning-trial","131","745199","0.0-9.0-2.0-1.29","4855","1","15","Female","approach_avoid_spark_v1","""event"",""trial"",""time""
""fullscreenenter"",""1"",""2588""
","
","
","""event"",""trial"",""time""
""fullscreenenter"",""1"",""2588""
","
","","","","","","499.30000019073486","images/bush8.png","","","learning","-6","0","0","0","bush","plants","1","0","","bad","[-5]"
"html-keyboard-response","132","745702","0.0-9.0-2.0-0.30","4855","1","15","Female","approach_avoid_spark_v1","""event"",""trial"",""time""
""fullscreenenter"",""1"",""2588""
","
","
","""event"",""trial"",""time""
""fullscreenenter"",""1"",""2588""
","
","","","","","","null","<div style=""font-size:60px;"">+</div>","null","","fixation","","","","","","","","","","",""
"aa-learning-trial","133","748710","0.0-9.0-2.0-1.30","4855","1","15","Female","approach_avoid_spark_v1","""event"",""trial"",""time""
""fullscreenenter"",""1"",""2588""
","
","
","""event"",""trial"",""time""
""fullscreenenter"",""1"",""2588""
","
","","","","","","456.30000019073486","images/tree7.png","","","learning","-1","0","0","0","tree","plants","1","0","","neutral","0"
"html-keyboard-response","134","749214","0.0-9.0-2.0-0.31","4855","1","15","Female","approach_avoid_spark_v1","""event"",""trial"",""time""
""fullscreenenter"",""1"",""2588""
","
","
","""event"",""trial"",""time""
""fullscreenenter"",""1"",""2588""
","
","","","","","","null","<div style=""font-size:60px;"">+</div>","null","","fixation","","","","","","","","","","",""
"aa-learning-trial","135","752222","0.0-9.0-2.0-1.31","4855","1","15","Female","approach_avoid_spark_v1","""event"",""trial"",""time""
""fullscreenenter"",""1"",""2588""
","
","
","""event"",""trial"",""time""
""fullscreenenter"",""1"",""2588""
","
","","","","","","601.9000000953674","images/cactus4.png","","","learning","5","5","1","1","cactus","plants","1","0","","good","[5]"
"html-keyboard-response","136","752728","0.0-9.0-2.0-0.32","4855","1","15","Female","approach_avoid_spark_v1","""event"",""trial"",""time""
""fullscreenenter"",""1"",""2588""
","
","
","""event"",""trial"",""time""
""fullscreenenter"",""1"",""2588""
","
","","","","","","null","<div style=""font-size:60px;"">+</div>","null","","fixation","","","","","","","","","","",""
"aa-learning-trial","137","755734","0.0-9.0-2.0-1.32","4855","1","15","Female","approach_avoid_spark_v1","""event"",""trial"",""time""
""fullscreenenter"",""1"",""2588""
","
","
","""event"",""trial"",""time""
""fullscreenenter"",""1"",""2588""
","
","","","","","","606.5999999046326","images/bush3.png","","","learning","-6","0","0","0","bush","plants","1","0","","bad","[-5]"
"html-keyboard-response","138","756237","0.0-9.0-2.0-0.33","4855","1","15","Female","approach_avoid_spark_v1","""event"",""trial"",""time""
""fullscreenenter"",""1"",""2588""
","
","
","""event"",""trial"",""time""
""fullscreenenter"",""1"",""2588""
","
","","","","","","null","<div style=""font-size:60px;"">+</div>","null","","fixation","","","","","","","","","","",""
"aa-learning-trial","139","759246","0.0-9.0-2.0-1.33","4855","1","15","Female","approach_avoid_spark_v1","""event"",""trial"",""time""
""fullscreenenter"",""1"",""2588""
","
","
","""event"",""trial"",""time""
""fullscreenenter"",""1"",""2588""
","
","","","","","","603.9000000953674","images/bush6.png","","","learning","-5","0","0","0","bush","plants","1","0","","bad","[-5]"
"html-keyboard-response","140","759750","0.0-9.0-2.0-0.34","4855","1","15","Female","approach_avoid_spark_v1","""event"",""trial"",""time""
""fullscreenenter"",""1"",""2588""
","
","
","""event"",""trial"",""time""
""fullscreenenter"",""1"",""2588""
","
","","","","","","null","<div style=""font-size:60px;"">+</div>","null","","fixation","","","","","","","","","","",""
"aa-learning-trial","141","762764","0.0-9.0-2.0-1.34","4855","1","15","Female","approach_avoid_spark_v1","""event"",""trial"",""time""
""fullscreenenter"",""1"",""2588""
","
","
","""event"",""trial"",""time""
""fullscreenenter"",""1"",""2588""
","
","","","","","","701","images/tree8.png","","","learning","2","0","0","0","tree","plants","1","0","","neutral","0"
"html-keyboard-response","142","763270","0.0-9.0-2.0-0.35","4855","1","15","Female","approach_avoid_spark_v1","""event"",""trial"",""time""
""fullscreenenter"",""1"",""2588""
","
","
","""event"",""trial"",""time""
""fullscreenenter"",""1"",""2588""
","
","","","","","","null","<div style=""font-size:60px;"">+</div>","null","","fixation","","","","","","","","","","",""
"aa-learning-trial","143","766279","0.0-9.0-2.0-1.35","4855","1","15","Female","approach_avoid_spark_v1","""event"",""trial"",""time""
""fullscreenenter"",""1"",""2588""
","
","
","""event"",""trial"",""time""
""fullscreenenter"",""1"",""2588""
","
","","","","","","530","images/cactus1.png","","","learning","4","4","1","1","cactus","plants","1","0","","good","[5]"
"html-keyboard-response","144","766783","0.0-9.0-2.0-0.36","4855","1","15","Female","approach_avoid_spark_v1","""event"",""trial"",""time""
""fullscreenenter"",""1"",""2588""
","
","
","""event"",""trial"",""time""
""fullscreenenter"",""1"",""2588""
","
","","","","","","null","<div style=""font-size:60px;"">+</div>","null","","fixation","","","","","","","","","","",""
"aa-learning-trial","145","769789","0.0-9.0-2.0-1.36","4855","1","15","Female","approach_avoid_spark_v1","""event"",""trial"",""time""
""fullscreenenter"",""1"",""2588""
","
","
","""event"",""trial"",""time""
""fullscreenenter"",""1"",""2588""
","
","","","","","","812.2000002861023","images/bush2.png","","","learning","-3","0","0","0","bush","plants","1","0","","bad","[-5]"
"html-keyboard-response","146","770293","0.0-9.0-2.0-0.37","4855","1","15","Female","approach_avoid_spark_v1","""event"",""trial"",""time""
""fullscreenenter"",""1"",""2588""
","
","
","""event"",""trial"",""time""
""fullscreenenter"",""1"",""2588""
","
","","","","","","null","<div style=""font-size:60px;"">+</div>","null","","fixation","","","","","","","","","","",""
"aa-learning-trial","147","773302","0.0-9.0-2.0-1.37","4855","1","15","Female","approach_avoid_spark_v1","""event"",""trial"",""time""
""fullscreenenter"",""1"",""2588""
","
","
","""event"",""trial"",""time""
""fullscreenenter"",""1"",""2588""
","
","","","","","","573.9000000953674","images/cactus5.png","","","learning","7","7","1","1","cactus","plants","1","0","","good","[5]"
"html-keyboard-response","148","773806","0.0-9.0-2.0-0.38","4855","1","15","Female","approach_avoid_spark_v1","""event"",""trial"",""time""
""fullscreenenter"",""1"",""2588""
","
","
","""event"",""trial"",""time""
""fullscreenenter"",""1"",""2588""
","
","","","","","","null","<div style=""font-size:60px;"">+</div>","null","","fixation","","","","","","","","","","",""
"aa-learning-trial","149","776815","0.0-9.0-2.0-1.38","4855","1","15","Female","approach_avoid_spark_v1","""event"",""trial"",""time""
""fullscreenenter"",""1"",""2588""
","
","
","""event"",""trial"",""time""
""fullscreenenter"",""1"",""2588""
","
","","","","","","1267.9000000953674","images/tree2.png","","","learning","[-1]","0","0","0","tree","plants","1","0","","neutral","0"
"html-keyboard-response","150","777317","0.0-9.0-2.0-0.39","4855","1","15","Female","approach_avoid_spark_v1","""event"",""trial"",""time""
""fullscreenenter"",""1"",""2588""
","
","
","""event"",""trial"",""time""
""fullscreenenter"",""1"",""2588""
","
","","","","","","null","<div style=""font-size:60px;"">+</div>","null","","fixation","","","","","","","","","","",""
"aa-learning-trial","151","780326","0.0-9.0-2.0-1.39","4855","1","15","Female","approach_avoid_spark_v1","""event"",""trial"",""time""
""fullscreenenter"",""1"",""2588""
","
","
","""event"",""trial"",""time""
""fullscreenenter"",""1"",""2588""
","
","","","","","","844.5999999046326","images/tree3.png","","","learning","-1","0","0","0","tree","plants","1","0","","neutral","0"
"html-keyboard-response","152","780838","0.0-9.0-2.0-0.40","4855","1","15","Female","approach_avoid_spark_v1","""event"",""trial"",""time""
""fullscreenenter"",""1"",""2588""
","
","
","""event"",""trial"",""time""
""fullscreenenter"",""1"",""2588""
","
","","","","","","null","<div style=""font-size:60px;"">+</div>","null","","fixation","","","","","","","","","","",""
"aa-learning-trial","153","783846","0.0-9.0-2.0-1.40","4855","1","15","Female","approach_avoid_spark_v1","""event"",""trial"",""time""
""fullscreenenter"",""1"",""2588""
","
","
","""event"",""trial"",""time""
""fullscreenenter"",""1"",""2588""
","
","","","","","","733.5999999046326","images/cactus8.png","","","learning","4","4","1","1","cactus","plants","1","0","","good","[5]"
"html-keyboard-response","154","784350","0.0-9.0-2.0-0.41","4855","1","15","Female","approach_avoid_spark_v1","""event"",""trial"",""time""
""fullscreenenter"",""1"",""2588""
","
","
","""event"",""trial"",""time""
""fullscreenenter"",""1"",""2588""
","
","","","","","","null","<div style=""font-size:60px;"">+</div>","null","","fixation","","","","","","","","","","",""
"aa-learning-trial","155","787359","0.0-9.0-2.0-1.41","4855","1","15","Female","approach_avoid_spark_v1","""event"",""trial"",""time""
""fullscreenenter"",""1"",""2588""
","
","
","""event"",""trial"",""time""
""fullscreenenter"",""1"",""2588""
","
","","","","","","512.5","images/bush4.png","","","learning","-3","0","0","0","bush","plants","1","0","","bad","[-5]"
"html-keyboard-response","156","787889","0.0-9.0-2.0-0.42","4855","1","15","Female","approach_avoid_spark_v1","""event"",""trial"",""time""
""fullscreenenter"",""1"",""2588""
","
","
","""event"",""trial"",""time""
""fullscreenenter"",""1"",""2588""
","
","","","","","","null","<div style=""font-size:60px;"">+</div>","null","","fixation","","","","","","","","","","",""
"aa-learning-trial","157","790894","0.0-9.0-2.0-1.42","4855","1","15","Female","approach_avoid_spark_v1","""event"",""trial"",""time""
""fullscreenenter"",""1"",""2588""
","
","
","""event"",""trial"",""time""
""fullscreenenter"",""1"",""2588""
","
","","","","","","618.7999997138977","images/tree3.png","","","learning","3","0","0","0","tree","plants","1","0","","neutral","0"
"html-keyboard-response","158","791398","0.0-9.0-2.0-0.43","4855","1","15","Female","approach_avoid_spark_v1","""event"",""trial"",""time""
""fullscreenenter"",""1"",""2588""
","
","
","""event"",""trial"",""time""
""fullscreenenter"",""1"",""2588""
","
","","","","","","null","<div style=""font-size:60px;"">+</div>","null","","fixation","","","","","","","","","","",""
"aa-learning-trial","159","794406","0.0-9.0-2.0-1.43","4855","1","15","Female","approach_avoid_spark_v1","""event"",""trial"",""time""
""fullscreenenter"",""1"",""2588""
","
","
","""event"",""trial"",""time""
""fullscreenenter"",""1"",""2588""
","
","","","","","","646","images/tree2.png","","","learning","1","0","0","0","tree","plants","1","0","","neutral","0"
"html-keyboard-response","160","794910","0.0-9.0-2.0-0.44","4855","1","15","Female","approach_avoid_spark_v1","""event"",""trial"",""time""
""fullscreenenter"",""1"",""2588""
","
","
","""event"",""trial"",""time""
""fullscreenenter"",""1"",""2588""
","
","","","","","","null","<div style=""font-size:60px;"">+</div>","null","","fixation","","","","","","","","","","",""
"aa-learning-trial","161","797918","0.0-9.0-2.0-1.44","4855","1","15","Female","approach_avoid_spark_v1","""event"",""trial"",""time""
""fullscreenenter"",""1"",""2588""
","
","
","""event"",""trial"",""time""
""fullscreenenter"",""1"",""2588""
","
","","","","","","550.6999998092651","images/bush3.png","","","learning","-4","0","0","0","bush","plants","1","0","","bad","[-5]"
"html-keyboard-response","162","798428","0.0-9.0-2.0-0.45","4855","1","15","Female","approach_avoid_spark_v1","""event"",""trial"",""time""
""fullscreenenter"",""1"",""2588""
","
","
","""event"",""trial"",""time""
""fullscreenenter"",""1"",""2588""
","
","","","","","","null","<div style=""font-size:60px;"">+</div>","null","","fixation","","","","","","","","","","",""
"aa-learning-trial","163","801439","0.0-9.0-2.0-1.45","4855","1","15","Female","approach_avoid_spark_v1","""event"",""trial"",""time""
""fullscreenenter"",""1"",""2588""
","
","
","""event"",""trial"",""time""
""fullscreenenter"",""1"",""2588""
","
","","","","","","552.8999996185303","images/cactus5.png","","","learning","5","5","1","1","cactus","plants","1","0","","good","[5]"
"html-keyboard-response","164","801942","0.0-9.0-2.0-0.46","4855","1","15","Female","approach_avoid_spark_v1","""event"",""trial"",""time""
""fullscreenenter"",""1"",""2588""
","
","
","""event"",""trial"",""time""
""fullscreenenter"",""1"",""2588""
","
","","","","","","null","<div style=""font-size:60px;"">+</div>","null","","fixation","","","","","","","","","","",""
"aa-learning-trial","165","804950","0.0-9.0-2.0-1.46","4855","1","15","Female","approach_avoid_spark_v1","""event"",""trial"",""time""
""fullscreenenter"",""1"",""2588""
","
","
","""event"",""trial"",""time""
""fullscreenenter"",""1"",""2588""
","
","","","","","","465.40000009536743","images/cactus1.png","","","learning","6","6","1","1","cactus","plants","1","0","","good","[5]"
"html-keyboard-response","166","805455","0.0-9.0-2.0-0.47","4855","1","15","Female","approach_avoid_spark_v1","""event"",""trial"",""time""
""fullscreenenter"",""1"",""2588""
","
","
","""event"",""trial"",""time""
""fullscreenenter"",""1"",""2588""
","
","","","","","","null","<div style=""font-size:60px;"">+</div>","null","","fixation","","","","","","","","","","",""
"aa-learning-trial","167","808462","0.0-9.0-2.0-1.47","4855","1","15","Female","approach_avoid_spark_v1","""event"",""trial"",""time""
""fullscreenenter"",""1"",""2588""
","
","
","""event"",""trial"",""time""
""fullscreenenter"",""1"",""2588""
","
","","","","","","462.5","images/cactus7.png","","","learning","7","7","1","1","cactus","plants","1","0","","good","[5]"
"html-keyboard-response","168","808966","0.0-9.0-2.0-0.48","4855","1","15","Female","approach_avoid_spark_v1","""event"",""trial"",""time""
""fullscreenenter"",""1"",""2588""
","
","
","""event"",""trial"",""time""
""fullscreenenter"",""1"",""2588""
","
","","","","","","null","<div style=""font-size:60px;"">+</div>","null","","fixation","","","","","","","","","","",""
"aa-learning-trial","169","811974","0.0-9.0-2.0-1.48","4855","1","15","Female","approach_avoid_spark_v1","""event"",""trial"",""time""
""fullscreenenter"",""1"",""2588""
","
","
","""event"",""trial"",""time""
""fullscreenenter"",""1"",""2588""
","
","","","","","","512.3999996185303","images/bush6.png","","","learning","-8","0","0","0","bush","plants","1","0","","bad","[-5]"
"html-keyboard-response","170","812478","0.0-9.0-2.0-0.49","4855","1","15","Female","approach_avoid_spark_v1","""event"",""trial"",""time""
""fullscreenenter"",""1"",""2588""
","
","
","""event"",""trial"",""time""
""fullscreenenter"",""1"",""2588""
","
","","","","","","null","<div style=""font-size:60px;"">+</div>","null","","fixation","","","","","","","","","","",""
"aa-learning-trial","171","815487","0.0-9.0-2.0-1.49","4855","1","15","Female","approach_avoid_spark_v1","""event"",""trial"",""time""
""fullscreenenter"",""1"",""2588""
","
","
","""event"",""trial"",""time""
""fullscreenenter"",""1"",""2588""
","
","","","","","","609.6999998092651","images/tree3.png","","","learning","[1]","0","0","0","tree","plants","1","0","","neutral","0"
"html-keyboard-response","172","815990","0.0-9.0-2.0-0.50","4855","1","15","Female","approach_avoid_spark_v1","""event"",""trial"",""time""
""fullscreenenter"",""1"",""2588""
","
","
","""event"",""trial"",""time""
""fullscreenenter"",""1"",""2588""
","
","","","","","","null","<div style=""font-size:60px;"">+</div>","null","","fixation","","","","","","","","","","",""
"aa-learning-trial","173","818998","0.0-9.0-2.0-1.50","4855","1","15","Female","approach_avoid_spark_v1","""event"",""trial"",""time""
""fullscreenenter"",""1"",""2588""
","
","
","""event"",""trial"",""time""
""fullscreenenter"",""1"",""2588""
","
","","","","","","687","images/tree4.png","","","learning","1","0","0","0","tree","plants","1","0","","neutral","0"
"html-button-response","174","821889","0.0-9.0-3.0","4855","1","15","Female","approach_avoid_spark_v1","""event"",""trial"",""time""
""fullscreenenter"",""1"",""2588""
","
","
","""event"",""trial"",""time""
""fullscreenenter"",""1"",""2588""
","
","","","","","","2889.7000002861023","<p> You have completed the round! <p> In this round, you earned 90 points! </p>","0","","break","","","","","","","","","","",""
"html-button-response","175","823788","0.0-10.0","4855","1","15","Female","approach_avoid_spark_v1","""event"",""trial"",""time""
""fullscreenenter"",""1"",""2588""
","
","
","""event"",""trial"",""time""
""fullscreenenter"",""1"",""2588""
","
","","","","","","1897.1999998092651","<p> Now it's time to play another round. </p>","0","","transition_screen","","","","","","","","","","",""
"preload","176","823915","0.0-11.0-0.0","4855","1","15","Female","approach_avoid_spark_v1","""event"",""trial"",""time""
""fullscreenenter"",""1"",""2588""
","
","
","""event"",""trial"",""time""
""fullscreenenter"",""1"",""2588""
","
","true","false","[]","[]","[]","","","","","","","","","","","","","","","",""
"learning-instructions","177","831442","0.0-11.0-1.0-0.0","4855","1","15","Female","approach_avoid_spark_v1","""event"",""trial"",""time""
""fullscreenenter"",""1"",""2588""
","
","
","""event"",""trial"",""time""
""fullscreenenter"",""1"",""2588""
","
","","","","","","1930.6999998092651","<p> Your goal in this round is to take your friend for rides in different vehicles. </p></div>","","0","instructions","","","","","","","","","","",""
"learning-instructions","178","1058396","0.0-11.0-1.0-0.1","4855","1","15","Female","approach_avoid_spark_v1","""event"",""trial"",""time""
""fullscreenenter"",""1"",""2588""
","
","
","""event"",""trial"",""time""
""fullscreenenter"",""1"",""2588""
","
","","","","","","217161.80000019073","<p> Your friend enjoys riding in some vehicles but not in others.  </p><p> On each turn, you will see a vehicle.   </p><p> You need to decide whether to take your friend for a ride or not.  </p>","","0","instructions","","","","","","","","","","",""
"learning-instructions","179","1069882","0.0-11.0-1.0-0.2","4855","1","15","Female","approach_avoid_spark_v1","""event"",""trial"",""time""
""fullscreenenter"",""1"",""2588""
","
","
","""event"",""trial"",""time""
""fullscreenenter"",""1"",""2588""
","
","","","","","","4334.39999961853","<p> You can take your friend for a ride in the vehicle by pressing 1 and skip the ride by pressing 0. </p><br><div class=""choice-instructions-grid""> <div class=""choice-option""><img src=""images/approach.png"" class=""choice-option-img"" stage=""instructions"" position=""0"" ><div class=""choice-option-text""> Press ""1."" </div></div><div class=""choice-option""><img src=""images/avoid.png"" class=""choice-option-img"" stage=""instructions"" position=""1"" ><div class=""choice-option-text""> Press ""0."" </div></div>","","0","instructions","","","","","","","","","","",""
"learning-instructions","180","1214729","0.0-11.0-1.0-0.3","4855","1","15","Female","approach_avoid_spark_v1","""event"",""trial"",""time""
""fullscreenenter"",""1"",""2588""
","
","
","""event"",""trial"",""time""
""fullscreenenter"",""1"",""2588""
","
","","","","","","135816.60000038147","<p> If you take them for a ride in a vehicle they like, they will be thrilled! </p><p> But if you take them for a ride in a vehicle they do not like, they will be upset. </p>","","0","instructions","","","","","","","","","","",""
"learning-instructions","181","1234021","0.0-11.0-1.0-0.4","4855","1","15","Female","approach_avoid_spark_v1","""event"",""trial"",""time""
""fullscreenenter"",""1"",""2588""
","
","
","""event"",""trial"",""time""
""fullscreenenter"",""1"",""2588""
","
","","","","","","6820.800000190735","<p> You will earn points based on how you made your friend feel. </p><p> If you made him thrilled, you will WIN anywhere from 1 - 9 points, </p><p> but if you made him upset, you will LOSE anywhere from 1 - 9 points. </p>","","0","instructions","","","","","","","","","","",""
"learning-instructions","182","1265040","0.0-11.0-1.0-0.5","4855","1","15","Female","approach_avoid_spark_v1","""event"",""trial"",""time""
""fullscreenenter"",""1"",""2588""
","
","
","""event"",""trial"",""time""
""fullscreenenter"",""1"",""2588""
","
","","","","","","24367.5","<p> You will see how many points you won or lost in the center of the screen. </p><p> Here is what you would see if you won 5 points: </p><p style=""color:green;font-size:50px;font-weight:bolder"">5</p>","","0","instructions","","","","","","","","","","",""
"learning-instructions","183","1303576","0.0-11.0-1.0-0.6","4855","1","15","Female","approach_avoid_spark_v1","""event"",""trial"",""time""
""fullscreenenter"",""1"",""2588""
","
","
","""event"",""trial"",""time""
""fullscreenenter"",""1"",""2588""
","
","","","","","","35692","<p> And here is what you would see if you lost 3 points: </p><p style=""color:red;font-size:50px;font-weight:bolder"">-3</p>","","0","instructions","","","","","","","","","","",""
"learning-instructions","184","1370835","0.0-11.0-1.0-0.7","4855","1","15","Female","approach_avoid_spark_v1","""event"",""trial"",""time""
""fullscreenenter"",""1"",""2588""
","
","
","""event"",""trial"",""time""
""fullscreenenter"",""1"",""2588""
","
","","","","","","51951.40000009537","<p> Some vehicles will make your friend REALLY thrilled or upset. </p><p> These vehicles will make you win or lose LOTS of points. </p><p> Other vehicles will only make him feel a little thrilled or upset. </p><p> These vehicles will make you win or lose small amounts of points. </p>","","0","instructions","","","","","","","","","","",""
"learning-instructions","185","1386934","0.0-11.0-1.0-0.8","4855","1","15","Female","approach_avoid_spark_v1","""event"",""trial"",""time""
""fullscreenenter"",""1"",""2588""
","
","
","""event"",""trial"",""time""
""fullscreenenter"",""1"",""2588""
","
","","","","","","4025.9000000953674","<p> If you choose to skip the ride, you will not win or lose any points. </p><p>  However, in the center of the screen, you will see the number of points you WOULD HAVE won or lost if you had taken your friend for a ride. </p>","","0","instructions","","","","","","","","","","",""
"learning-instructions","186","1401963","0.0-11.0-1.0-0.9","4855","1","15","Female","approach_avoid_spark_v1","""event"",""trial"",""time""
""fullscreenenter"",""1"",""2588""
","
","
","""event"",""trial"",""time""
""fullscreenenter"",""1"",""2588""
","
","","","","","","4025.5","<p> Here is what you might see if you did not take your friend for a ride but he would have enjoyed it: </p><p style=""color:grey; font-size:50px; display: inline-block; border-spacing: 15px; border-width:3px; border-style:solid; border-color:red"">  &nbsp; 6 &nbsp; </p><p> Remember, in this case, you would not win or lose ANY points because you skipped the ride.  </p>","","0","instructions","","","","","","","","","","",""
"learning-instructions","187","1414795","0.0-11.0-1.0-0.10","4855","1","15","Female","approach_avoid_spark_v1","""event"",""trial"",""time""
""fullscreenenter"",""1"",""2588""
","
","
","""event"",""trial"",""time""
""fullscreenenter"",""1"",""2588""
","
","","","","","","4516.800000190735","<p> Try to make the best choice for each vehicle because </p><p> at the end of the game, you will earn bonus money based on how many points you earned. </p>","","0","instructions","","","","","","","","","","",""
"learning-instructions","188","1424320","0.0-11.0-1.0-0.11","4855","1","15","Female","approach_avoid_spark_v1","""event"",""trial"",""time""
""fullscreenenter"",""1"",""2588""
","
","
","""event"",""trial"",""time""
""fullscreenenter"",""1"",""2588""
","
","","","","","","1326.0999999046326","<p> You will have 3 seconds to make each choice. Try to respond before time runs out! </p><p> You will lose 5 points each time you do not make a response. </p>","","0","instructions","","","","","","","","","","",""
"html-keyboard-response","189","1424941","0.0-11.0-2.0-0.0","4855","1","15","Female","approach_avoid_spark_v1","""event"",""trial"",""time""
""fullscreenenter"",""1"",""2588""
","
","
","""event"",""trial"",""time""
""fullscreenenter"",""1"",""2588""
","
","","","","","","null","<div style=""font-size:60px;"">+</div>","null","","fixation","","","","","","","","","","",""
"aa-learning-trial","190","1427956","0.0-11.0-2.0-1.0","4855","1","15","Female","approach_avoid_spark_v1","""event"",""trial"",""time""
""fullscreenenter"",""1"",""2588""
","
","
","""event"",""trial"",""time""
""fullscreenenter"",""1"",""2588""
","
","","","","","","1624.1000003814697","images/train5.png","","","learning","6","0","0","0","train","vehicles","2","1","","good","[6]"
"html-keyboard-response","191","1428470","0.0-11.0-2.0-0.1","4855","1","15","Female","approach_avoid_spark_v1","""event"",""trial"",""time""
""fullscreenenter"",""1"",""2588""
","
","
","""event"",""trial"",""time""
""fullscreenenter"",""1"",""2588""
","
","","","","","","null","<div style=""font-size:60px;"">+</div>","null","","fixation","","","","","","","","","","",""
"aa-learning-trial","192","1431494","0.0-11.0-2.0-1.1","4855","1","15","Female","approach_avoid_spark_v1","""event"",""trial"",""time""
""fullscreenenter"",""1"",""2588""
","
","
","""event"",""trial"",""time""
""fullscreenenter"",""1"",""2588""
","
","","","","","","900.8000001907349","images/train5.png","","","learning","6","6","1","1","train","vehicles","2","1","","good","[6]"
"html-keyboard-response","193","1432002","0.0-11.0-2.0-0.2","4855","1","15","Female","approach_avoid_spark_v1","""event"",""trial"",""time""
""fullscreenenter"",""1"",""2588""
","
","
","""event"",""trial"",""time""
""fullscreenenter"",""1"",""2588""
","
","","","","","","null","<div style=""font-size:60px;"">+</div>","null","","fixation","","","","","","","","","","",""
"aa-learning-trial","194","1435013","0.0-11.0-2.0-1.2","4855","1","15","Female","approach_avoid_spark_v1","""event"",""trial"",""time""
""fullscreenenter"",""1"",""2588""
","
","
","""event"",""trial"",""time""
""fullscreenenter"",""1"",""2588""
","
","","","","","","954.3000001907349","images/boat8.png","","","learning","8","0","0","0","boat","vehicles","2","1","","bad","[-4]"
"html-keyboard-response","195","1435527","0.0-11.0-2.0-0.3","4855","1","15","Female","approach_avoid_spark_v1","""event"",""trial"",""time""
""fullscreenenter"",""1"",""2588""
","
","
","""event"",""trial"",""time""
""fullscreenenter"",""1"",""2588""
","
","","","","","","null","<div style=""font-size:60px;"">+</div>","null","","fixation","","","","","","","","","","",""
"aa-learning-trial","196","1438546","0.0-11.0-2.0-1.3","4855","1","15","Female","approach_avoid_spark_v1","""event"",""trial"",""time""
""fullscreenenter"",""1"",""2588""
","
","
","""event"",""trial"",""time""
""fullscreenenter"",""1"",""2588""
","
","","","","","","643.4000000953674","images/boat5.png","","","learning","-6","-6","1","1","boat","vehicles","2","1","","bad","[-4]"
"html-keyboard-response","197","1439066","0.0-11.0-2.0-0.4","4855","1","15","Female","approach_avoid_spark_v1","""event"",""trial"",""time""
""fullscreenenter"",""1"",""2588""
","
","
","""event"",""trial"",""time""
""fullscreenenter"",""1"",""2588""
","
","","","","","","null","<div style=""font-size:60px;"">+</div>","null","","fixation","","","","","","","","","","",""
"aa-learning-trial","198","1442073","0.0-11.0-2.0-1.4","4855","1","15","Female","approach_avoid_spark_v1","""event"",""trial"",""time""
""fullscreenenter"",""1"",""2588""
","
","
","""event"",""trial"",""time""
""fullscreenenter"",""1"",""2588""
","
","","","","","","2124.2000002861023","images/train2.png","","","learning","4","0","0","0","train","vehicles","2","1","","good","[6]"
"html-keyboard-response","199","1442586","0.0-11.0-2.0-0.5","4855","1","15","Female","approach_avoid_spark_v1","""event"",""trial"",""time""
""fullscreenenter"",""1"",""2588""
","
","
","""event"",""trial"",""time""
""fullscreenenter"",""1"",""2588""
","
","","","","","","null","<div style=""font-size:60px;"">+</div>","null","","fixation","","","","","","","","","","",""
"aa-learning-trial","200","1445590","0.0-11.0-2.0-1.5","4855","1","15","Female","approach_avoid_spark_v1","""event"",""trial"",""time""
""fullscreenenter"",""1"",""2588""
","
","
","""event"",""trial"",""time""
""fullscreenenter"",""1"",""2588""
","
","","","","","","668.6000003814697","images/train1.png","","","learning","-1","-1","1","1","train","vehicles","2","1","","good","[6]"
"html-keyboard-response","201","1446099","0.0-11.0-2.0-0.6","4855","1","15","Female","approach_avoid_spark_v1","""event"",""trial"",""time""
""fullscreenenter"",""1"",""2588""
","
","
","""event"",""trial"",""time""
""fullscreenenter"",""1"",""2588""
","
","","","","","","null","<div style=""font-size:60px;"">+</div>","null","","fixation","","","","","","","","","","",""
"aa-learning-trial","202","1449106","0.0-11.0-2.0-1.6","4855","1","15","Female","approach_avoid_spark_v1","""event"",""trial"",""time""
""fullscreenenter"",""1"",""2588""
","
","
","""event"",""trial"",""time""
""fullscreenenter"",""1"",""2588""
","
","","","","","","689.7999997138977","images/train2.png","","","learning","4","4","1","1","train","vehicles","2","1","","good","[6]"
"html-keyboard-response","203","1449619","0.0-11.0-2.0-0.7","4855","1","15","Female","approach_avoid_spark_v1","""event"",""trial"",""time""
""fullscreenenter"",""1"",""2588""
","
","
","""event"",""trial"",""time""
""fullscreenenter"",""1"",""2588""
","
","","","","","","null","<div style=""font-size:60px;"">+</div>","null","","fixation","","","","","","","","","","",""
"aa-learning-trial","204","1452628","0.0-11.0-2.0-1.7","4855","1","15","Female","approach_avoid_spark_v1","""event"",""trial"",""time""
""fullscreenenter"",""1"",""2588""
","
","
","""event"",""trial"",""time""
""fullscreenenter"",""1"",""2588""
","
","","","","","","896.6999998092651","images/boat3.png","","","learning","-4","-4","1","1","boat","vehicles","2","1","","bad","[-4]"
"html-keyboard-response","205","1453136","0.0-11.0-2.0-0.8","4855","1","15","Female","approach_avoid_spark_v1","""event"",""trial"",""time""
""fullscreenenter"",""1"",""2588""
","
","
","""event"",""trial"",""time""
""fullscreenenter"",""1"",""2588""
","
","","","","","","null","<div style=""font-size:60px;"">+</div>","null","","fixation","","","","","","","","","","",""
"aa-learning-trial","206","1456143","0.0-11.0-2.0-1.8","4855","1","15","Female","approach_avoid_spark_v1","""event"",""trial"",""time""
""fullscreenenter"",""1"",""2588""
","
","
","""event"",""trial"",""time""
""fullscreenenter"",""1"",""2588""
","
","","","","","","718.5","images/boat3.png","","","learning","-4","0","0","0","boat","vehicles","2","1","","bad","[-4]"
"html-keyboard-response","207","1456649","0.0-11.0-2.0-0.9","4855","1","15","Female","approach_avoid_spark_v1","""event"",""trial"",""time""
""fullscreenenter"",""1"",""2588""
","
","
","""event"",""trial"",""time""
""fullscreenenter"",""1"",""2588""
","
","","","","","","null","<div style=""font-size:60px;"">+</div>","null","","fixation","","","","","","","","","","",""
"aa-learning-trial","208","1459656","0.0-11.0-2.0-1.9","4855","1","15","Female","approach_avoid_spark_v1","""event"",""trial"",""time""
""fullscreenenter"",""1"",""2588""
","
","
","""event"",""trial"",""time""
""fullscreenenter"",""1"",""2588""
","
","","","","","","1012.3000001907349","images/plane2.png","","","learning","5","0","0","0","plane","vehicles","2","1","","neutral","0"
"html-keyboard-response","209","1460158","0.0-11.0-2.0-0.10","4855","1","15","Female","approach_avoid_spark_v1","""event"",""trial"",""time""
""fullscreenenter"",""1"",""2588""
","
","
","""event"",""trial"",""time""
""fullscreenenter"",""1"",""2588""
","
","","","","","","null","<div style=""font-size:60px;"">+</div>","null","","fixation","","","","","","","","","","",""
"aa-learning-trial","210","1463166","0.0-11.0-2.0-1.10","4855","1","15","Female","approach_avoid_spark_v1","""event"",""trial"",""time""
""fullscreenenter"",""1"",""2588""
","
","
","""event"",""trial"",""time""
""fullscreenenter"",""1"",""2588""
","
","","","","","","875.5","images/boat8.png","","","learning","8","8","1","1","boat","vehicles","2","1","","bad","[-4]"
"html-keyboard-response","211","1463670","0.0-11.0-2.0-0.11","4855","1","15","Female","approach_avoid_spark_v1","""event"",""trial"",""time""
""fullscreenenter"",""1"",""2588""
","
","
","""event"",""trial"",""time""
""fullscreenenter"",""1"",""2588""
","
","","","","","","null","<div style=""font-size:60px;"">+</div>","null","","fixation","","","","","","","","","","",""
"aa-learning-trial","212","1466681","0.0-11.0-2.0-1.11","4855","1","15","Female","approach_avoid_spark_v1","""event"",""trial"",""time""
""fullscreenenter"",""1"",""2588""
","
","
","""event"",""trial"",""time""
""fullscreenenter"",""1"",""2588""
","
","","","","","","1016.4000000953674","images/plane8.png","","","learning","1","0","0","0","plane","vehicles","2","1","","neutral","0"
"html-keyboard-response","213","1467183","0.0-11.0-2.0-0.12","4855","1","15","Female","approach_avoid_spark_v1","""event"",""trial"",""time""
""fullscreenenter"",""1"",""2588""
","
","
","""event"",""trial"",""time""
""fullscreenenter"",""1"",""2588""
","
","","","","","","null","<div style=""font-size:60px;"">+</div>","null","","fixation","","","","","","","","","","",""
"aa-learning-trial","214","1470191","0.0-11.0-2.0-1.12","4855","1","15","Female","approach_avoid_spark_v1","""event"",""trial"",""time""
""fullscreenenter"",""1"",""2588""
","
","
","""event"",""trial"",""time""
""fullscreenenter"",""1"",""2588""
","
","","","","","","1538","images/plane4.png","","","learning","9","0","0","0","plane","vehicles","2","1","","neutral","0"
"html-keyboard-response","215","1470694","0.0-11.0-2.0-0.13","4855","1","15","Female","approach_avoid_spark_v1","""event"",""trial"",""time""
""fullscreenenter"",""1"",""2588""
","
","
","""event"",""trial"",""time""
""fullscreenenter"",""1"",""2588""
","
","","","","","","null","<div style=""font-size:60px;"">+</div>","null","","fixation","","","","","","","","","","",""
"aa-learning-trial","216","1473704","0.0-11.0-2.0-1.13","4855","1","15","Female","approach_avoid_spark_v1","""event"",""trial"",""time""
""fullscreenenter"",""1"",""2588""
","
","
","""event"",""trial"",""time""
""fullscreenenter"",""1"",""2588""
","
","","","","","","1146.4000000953674","images/plane8.png","","","learning","1","1","1","1","plane","vehicles","2","1","","neutral","0"
"html-keyboard-response","217","1474217","0.0-11.0-2.0-0.14","4855","1","15","Female","approach_avoid_spark_v1","""event"",""trial"",""time""
""fullscreenenter"",""1"",""2588""
","
","
","""event"",""trial"",""time""
""fullscreenenter"",""1"",""2588""
","
","","","","","","null","<div style=""font-size:60px;"">+</div>","null","","fixation","","","","","","","","","","",""
"aa-learning-trial","218","1477223","0.0-11.0-2.0-1.14","4855","1","15","Female","approach_avoid_spark_v1","""event"",""trial"",""time""
""fullscreenenter"",""1"",""2588""
","
","
","""event"",""trial"",""time""
""fullscreenenter"",""1"",""2588""
","
","","","","","","546.3000001907349","images/plane4.png","","","learning","9","9","1","1","plane","vehicles","2","1","","neutral","0"
"html-keyboard-response","219","1477726","0.0-11.0-2.0-0.15","4855","1","15","Female","approach_avoid_spark_v1","""event"",""trial"",""time""
""fullscreenenter"",""1"",""2588""
","
","
","""event"",""trial"",""time""
""fullscreenenter"",""1"",""2588""
","
","","","","","","null","<div style=""font-size:60px;"">+</div>","null","","fixation","","","","","","","","","","",""
"aa-learning-trial","220","1480734","0.0-11.0-2.0-1.15","4855","1","15","Female","approach_avoid_spark_v1","""event"",""trial"",""time""
""fullscreenenter"",""1"",""2588""
","
","
","""event"",""trial"",""time""
""fullscreenenter"",""1"",""2588""
","
","","","","","","1309.3000001907349","images/train2.png","","","learning","4","4","1","1","train","vehicles","2","1","","good","[6]"
"html-keyboard-response","221","1481239","0.0-11.0-2.0-0.16","4855","1","15","Female","approach_avoid_spark_v1","""event"",""trial"",""time""
""fullscreenenter"",""1"",""2588""
","
","
","""event"",""trial"",""time""
""fullscreenenter"",""1"",""2588""
","
","","","","","","null","<div style=""font-size:60px;"">+</div>","null","","fixation","","","","","","","","","","",""
"aa-learning-trial","222","1484247","0.0-11.0-2.0-1.16","4855","1","15","Female","approach_avoid_spark_v1","""event"",""trial"",""time""
""fullscreenenter"",""1"",""2588""
","
","
","""event"",""trial"",""time""
""fullscreenenter"",""1"",""2588""
","
","","","","","","1152.6999998092651","images/boat8.png","","","learning","8","0","0","0","boat","vehicles","2","1","","bad","[-4]"
"html-keyboard-response","223","1484751","0.0-11.0-2.0-0.17","4855","1","15","Female","approach_avoid_spark_v1","""event"",""trial"",""time""
""fullscreenenter"",""1"",""2588""
","
","
","""event"",""trial"",""time""
""fullscreenenter"",""1"",""2588""
","
","","","","","","null","<div style=""font-size:60px;"">+</div>","null","","fixation","","","","","","","","","","",""
"aa-learning-trial","224","1487759","0.0-11.0-2.0-1.17","4855","1","15","Female","approach_avoid_spark_v1","""event"",""trial"",""time""
""fullscreenenter"",""1"",""2588""
","
","
","""event"",""trial"",""time""
""fullscreenenter"",""1"",""2588""
","
","","","","","","783.3000001907349","images/train5.png","","","learning","6","0","0","0","train","vehicles","2","1","","good","[6]"
"html-keyboard-response","225","1488262","0.0-11.0-2.0-0.18","4855","1","15","Female","approach_avoid_spark_v1","""event"",""trial"",""time""
""fullscreenenter"",""1"",""2588""
","
","
","""event"",""trial"",""time""
""fullscreenenter"",""1"",""2588""
","
","","","","","","null","<div style=""font-size:60px;"">+</div>","null","","fixation","","","","","","","","","","",""
"aa-learning-trial","226","1491271","0.0-11.0-2.0-1.18","4855","1","15","Female","approach_avoid_spark_v1","""event"",""trial"",""time""
""fullscreenenter"",""1"",""2588""
","
","
","""event"",""trial"",""time""
""fullscreenenter"",""1"",""2588""
","
","","","","","","916.7000002861023","images/boat3.png","","","learning","-4","0","0","0","boat","vehicles","2","1","","bad","[-4]"
"html-keyboard-response","227","1491774","0.0-11.0-2.0-0.19","4855","1","15","Female","approach_avoid_spark_v1","""event"",""trial"",""time""
""fullscreenenter"",""1"",""2588""
","
","
","""event"",""trial"",""time""
""fullscreenenter"",""1"",""2588""
","
","","","","","","null","<div style=""font-size:60px;"">+</div>","null","","fixation","","","","","","","","","","",""
"aa-learning-trial","228","1494783","0.0-11.0-2.0-1.19","4855","1","15","Female","approach_avoid_spark_v1","""event"",""trial"",""time""
""fullscreenenter"",""1"",""2588""
","
","
","""event"",""trial"",""time""
""fullscreenenter"",""1"",""2588""
","
","","","","","","775.5","images/plane4.png","","","learning","9","9","1","1","plane","vehicles","2","1","","neutral","0"
"html-keyboard-response","229","1495287","0.0-11.0-2.0-0.20","4855","1","15","Female","approach_avoid_spark_v1","""event"",""trial"",""time""
""fullscreenenter"",""1"",""2588""
","
","
","""event"",""trial"",""time""
""fullscreenenter"",""1"",""2588""
","
","","","","","","null","<div style=""font-size:60px;"">+</div>","null","","fixation","","","","","","","","","","",""
"aa-learning-trial","230","1498294","0.0-11.0-2.0-1.20","4855","1","15","Female","approach_avoid_spark_v1","""event"",""trial"",""time""
""fullscreenenter"",""1"",""2588""
","
","
","""event"",""trial"",""time""
""fullscreenenter"",""1"",""2588""
","
","","","","","","729.5","images/train2.png","","","learning","4","4","1","1","train","vehicles","2","1","","good","[6]"
"html-keyboard-response","231","1498799","0.0-11.0-2.0-0.21","4855","1","15","Female","approach_avoid_spark_v1","""event"",""trial"",""time""
""fullscreenenter"",""1"",""2588""
","
","
","""event"",""trial"",""time""
""fullscreenenter"",""1"",""2588""
","
","","","","","","null","<div style=""font-size:60px;"">+</div>","null","","fixation","","","","","","","","","","",""
"aa-learning-trial","232","1501807","0.0-11.0-2.0-1.21","4855","1","15","Female","approach_avoid_spark_v1","""event"",""trial"",""time""
""fullscreenenter"",""1"",""2588""
","
","
","""event"",""trial"",""time""
""fullscreenenter"",""1"",""2588""
","
","","","","","","663.9000000953674","images/plane4.png","","","learning","9","9","1","1","plane","vehicles","2","1","","neutral","0"
"html-keyboard-response","233","1502310","0.0-11.0-2.0-0.22","4855","1","15","Female","approach_avoid_spark_v1","""event"",""trial"",""time""
""fullscreenenter"",""1"",""2588""
","
","
","""event"",""trial"",""time""
""fullscreenenter"",""1"",""2588""
","
","","","","","","null","<div style=""font-size:60px;"">+</div>","null","","fixation","","","","","","","","","","",""
"aa-learning-trial","234","1505318","0.0-11.0-2.0-1.22","4855","1","15","Female","approach_avoid_spark_v1","""event"",""trial"",""time""
""fullscreenenter"",""1"",""2588""
","
","
","""event"",""trial"",""time""
""fullscreenenter"",""1"",""2588""
","
","","","","","","852.6999998092651","images/plane2.png","","","learning","5","5","1","1","plane","vehicles","2","1","","neutral","0"
"html-keyboard-response","235","1505822","0.0-11.0-2.0-0.23","4855","1","15","Female","approach_avoid_spark_v1","""event"",""trial"",""time""
""fullscreenenter"",""1"",""2588""
","
","
","""event"",""trial"",""time""
""fullscreenenter"",""1"",""2588""
","
","","","","","","null","<div style=""font-size:60px;"">+</div>","null","","fixation","","","","","","","","","","",""
"aa-learning-trial","236","1508831","0.0-11.0-2.0-1.23","4855","1","15","Female","approach_avoid_spark_v1","""event"",""trial"",""time""
""fullscreenenter"",""1"",""2588""
","
","
