"trial_type","trial_index","time_elapsed","internal_node_id","subject_id","task_condition","age","gender","task_version","interactions","blur_events","focus_events","fullscreenenter_events","fullscreenexit_events","success","timeout","failed_images","failed_audio","failed_video","rt","stimulus","response","button_pressed","task_part","approach_reward","points","key_press","option_selected","stim_cat","task_block","block_condition","block_number","correct","cat_type","mean_cat_reward"
"pavlovia","0","3","0.0-0.0","6491","1","17","Male","approach_avoid_spark_v1","""event"",""trial"",""time""
""fullscreenenter"",""1"",""1932""
","
","
","""event"",""trial"",""time""
""fullscreenenter"",""1"",""1932""
","
","","","","","","","","","","","","","","","","","","","","",""
"fullscreen","1","2923","0.0-1.0","6491","1","17","Male","approach_avoid_spark_v1","""event"",""trial"",""time""
""fullscreenenter"",""1"",""1932""
""blur"",""2"",""58143""
","""event"",""trial"",""time""
""blur"",""2"",""58143""
","
","""event"",""trial"",""time""
""fullscreenenter"",""1"",""1932""
","
","true","","","","","","","","","","","","","","","","","","","",""
"preload","2","91548","0.0-2.0","6491","1","17","Male","approach_avoid_spark_v1","""event"",""trial"",""time""
""fullscreenenter"",""1"",""1932""
""blur"",""2"",""58143""
""focus"",""3"",""95260""
","""event"",""trial"",""time""
""blur"",""2"",""58143""
","""event"",""trial"",""time""
""focus"",""3"",""95260""
","""event"",""trial"",""time""
""fullscreenenter"",""1"",""1932""
","
","true","false","[]","[]","[]","","","","","","","","","","","","","","","",""
"audio-keyboard-response","3","96233","0.0-3.0","6491","1","17","Male","approach_avoid_spark_v1","""event"",""trial"",""time""
""fullscreenenter"",""1"",""1932""
""blur"",""2"",""58143""
""focus"",""3"",""95260""
","""event"",""trial"",""time""
""blur"",""2"",""58143""
","""event"",""trial"",""time""
""focus"",""3"",""95260""
","""event"",""trial"",""time""
""fullscreenenter"",""1"",""1932""
","
","","","","","","4658.6666666666615","audio/beep_loop.wav"," ","","","","","","","","","","","","",""
"audio-button-response","4","97557","0.0-4.0","6491","1","17","Male","approach_avoid_spark_v1","""event"",""trial"",""time""
""fullscreenenter"",""1"",""1932""
""blur"",""2"",""58143""
""focus"",""3"",""95260""
","""event"",""trial"",""time""
""blur"",""2"",""58143""
","""event"",""trial"",""time""
""focus"",""3"",""95260""
","""event"",""trial"",""time""
""fullscreenenter"",""1"",""1932""
","
","","","","","","1320","audio/shark.wav","4","","","","","","","","","","","","",""
"audio-button-response","5","99702","0.0-5.0","6491","1","17","Male","approach_avoid_spark_v1","""event"",""trial"",""time""
""fullscreenenter"",""1"",""1932""
""blur"",""2"",""58143""
""focus"",""3"",""95260""
""blur"",""6"",""119977""
""focus"",""6"",""123114""
","""event"",""trial"",""time""
""blur"",""2"",""58143""
""blur"",""6"",""119977""
","""event"",""trial"",""time""
""focus"",""3"",""95260""
""focus"",""6"",""123114""
","""event"",""trial"",""time""
""fullscreenenter"",""1"",""1932""
","
","","","","","","1149","audio/turtle.wav","1","","","","","","","","","","","","",""
"preload","6","126383","0.0-6.0","6491","1","17","Male","approach_avoid_spark_v1","""event"",""trial"",""time""
""fullscreenenter"",""1"",""1932""
""blur"",""2"",""58143""
""focus"",""3"",""95260""
""blur"",""6"",""119977""
""focus"",""6"",""123114""
","""event"",""trial"",""time""
""blur"",""2"",""58143""
""blur"",""6"",""119977""
","""event"",""trial"",""time""
""focus"",""3"",""95260""
""focus"",""6"",""123114""
","""event"",""trial"",""time""
""fullscreenenter"",""1"",""1932""
","
","true","false","[]","[]","[]","","","","","","","","","","","","","","","",""
"html-keyboard-response","7","128107","0.0-7.0","6491","1","17","Male","approach_avoid_spark_v1","""event"",""trial"",""time""
""fullscreenenter"",""1"",""1932""
""blur"",""2"",""58143""
""focus"",""3"",""95260""
""blur"",""6"",""119977""
""focus"",""6"",""123114""
","""event"",""trial"",""time""
""blur"",""2"",""58143""
""blur"",""6"",""119977""
","""event"",""trial"",""time""
""focus"",""3"",""95260""
""focus"",""6"",""123114""
","""event"",""trial"",""time""
""fullscreenenter"",""1"",""1932""
","
","","","","","","1722.699999988079","Welcome to the experiment. Press any key to begin and to advance the instructions."," ","","","","","","","","","","","","",""
"learning-instructions","8","136041","0.0-8.0-0.0-0.0","6491","1","17","Male","approach_avoid_spark_v1","""event"",""trial"",""time""
""fullscreenenter"",""1"",""1932""
""blur"",""2"",""58143""
""focus"",""3"",""95260""
""blur"",""6"",""119977""
""focus"",""6"",""123114""
","""event"",""trial"",""time""
""blur"",""2"",""58143""
""blur"",""6"",""119977""
","""event"",""trial"",""time""
""focus"",""3"",""95260""
""focus"",""6"",""123114""
","""event"",""trial"",""time""
""fullscreenenter"",""1"",""1932""
","
","","","","","","979.5999999940395","<p> Welcome! Today you are going to play 6 different rounds of a decision-making game. </p><p> Use the mouse to click next to continue. </p>","","0","instructions","","","","","","","","","","",""
"learning-instructions","9","140389","0.0-8.0-0.0-0.1","6491","1","17","Male","approach_avoid_spark_v1","""event"",""trial"",""time""
""fullscreenenter"",""1"",""1932""
""blur"",""2"",""58143""
""focus"",""3"",""95260""
""blur"",""6"",""119977""
""focus"",""6"",""123114""
","""event"",""trial"",""time""
""blur"",""2"",""58143""
""blur"",""6"",""119977""
","""event"",""trial"",""time""
""focus"",""3"",""95260""
""focus"",""6"",""123114""
","""event"",""trial"",""time""
""fullscreenenter"",""1"",""1932""
","
","","","","","","1617.699999988079","<p> You will start with a practice round to learn the rules. </p>","","0","instructions","","","","","","","","","","",""
"learning-instructions","10","145275","0.0-8.0-0.0-0.2","6491","1","17","Male","approach_avoid_spark_v1","""event"",""trial"",""time""
""fullscreenenter"",""1"",""1932""
""blur"",""2"",""58143""
""focus"",""3"",""95260""
""blur"",""6"",""119977""
""focus"",""6"",""123114""
","""event"",""trial"",""time""
""blur"",""2"",""58143""
""blur"",""6"",""119977""
","""event"",""trial"",""time""
""focus"",""3"",""95260""
""focus"",""6"",""123114""
","""event"",""trial"",""time""
""fullscreenenter"",""1"",""1932""
","
","","","","","","1433.9000000059605","<p> Your goal in this round is to give out sports equipment to kids. </p></div>","","0","instructions","","","","","","","","","","",""
"learning-instructions","11","153689","0.0-8.0-0.0-0.3","6491","1","17","Male","approach_avoid_spark_v1","""event"",""trial"",""time""
""fullscreenenter"",""1"",""1932""
""blur"",""2"",""58143""
""focus"",""3"",""95260""
""blur"",""6"",""119977""
""focus"",""6"",""123114""
","""event"",""trial"",""time""
""blur"",""2"",""58143""
""blur"",""6"",""119977""
","""event"",""trial"",""time""
""focus"",""3"",""95260""
""focus"",""6"",""123114""
","""event"",""trial"",""time""
""fullscreenenter"",""1"",""1932""
","
","","","","","","867.9000000059605","<p> The kids only like some of the equipment.  </p><p> On each turn, you will see a piece of sports equipment.   </p><p> You need to decide whether to give it to the kids or not.  </p>","","0","instructions","","","","","","","","","","",""
"learning-instructions","12","161057","0.0-8.0-0.0-0.4","6491","1","17","Male","approach_avoid_spark_v1","""event"",""trial"",""time""
""fullscreenenter"",""1"",""1932""
""blur"",""2"",""58143""
""focus"",""3"",""95260""
""blur"",""6"",""119977""
""focus"",""6"",""123114""
","""event"",""trial"",""time""
""blur"",""2"",""58143""
""blur"",""6"",""119977""
","""event"",""trial"",""time""
""focus"",""3"",""95260""
""focus"",""6"",""123114""
","""event"",""trial"",""time""
""fullscreenenter"",""1"",""1932""
","
","","","","","","2605.5999999940395","<p> You can give them the equipment by pressing 1 and choose not to give it to them by pressing 0. </p><br><div class=""choice-instructions-grid""> <div class=""choice-option""><img src=""images/approach.png"" class=""choice-option-img"" stage=""instructions"" position=""0"" ><div class=""choice-option-text""> Press ""1."" </div></div><div class=""choice-option""><img src=""images/avoid.png"" class=""choice-option-img"" stage=""instructions"" position=""1"" ><div class=""choice-option-text""> Press ""0."" </div></div>","","0","instructions","","","","","","","","","","",""
"learning-instructions","13","169643","0.0-8.0-0.0-0.5","6491","1","17","Male","approach_avoid_spark_v1","""event"",""trial"",""time""
""fullscreenenter"",""1"",""1932""
""blur"",""2"",""58143""
""focus"",""3"",""95260""
""blur"",""6"",""119977""
""focus"",""6"",""123114""
","""event"",""trial"",""time""
""blur"",""2"",""58143""
""blur"",""6"",""119977""
","""event"",""trial"",""time""
""focus"",""3"",""95260""
""focus"",""6"",""123114""
","""event"",""trial"",""time""
""fullscreenenter"",""1"",""1932""
","
","","","","","","1201.800000011921","<p> If you give them a piece of equipment they like, they will be happy! </p><p> But if you give them a piece of equipment they do not like, they will be sad. </p>","","0","instructions","","","","","","","","","","",""
"learning-instructions","14","180613","0.0-8.0-0.0-0.6","6491","1","17","Male","approach_avoid_spark_v1","""event"",""trial"",""time""
""fullscreenenter"",""1"",""1932""
""blur"",""2"",""58143""
""focus"",""3"",""95260""
""blur"",""6"",""119977""
""focus"",""6"",""123114""
","""event"",""trial"",""time""
""blur"",""2"",""58143""
""blur"",""6"",""119977""
","""event"",""trial"",""time""
""focus"",""3"",""95260""
""focus"",""6"",""123114""
","""event"",""trial"",""time""
""fullscreenenter"",""1"",""1932""
","
","","","","","","451.90000000596046","<p> You will earn points based on how you make kids feel. </p><p> If you make them happy, you will WIN anywhere from 1 - 9 points, </p><p> but if you make them sad, you will LOSE anywhere from 1 - 9 points. </p>","","0","instructions","","","","","","","","","","",""
"learning-instructions","15","190921","0.0-8.0-0.0-0.7","6491","1","17","Male","approach_avoid_spark_v1","""event"",""trial"",""time""
""fullscreenenter"",""1"",""1932""
""blur"",""2"",""58143""
""focus"",""3"",""95260""
""blur"",""6"",""119977""
""focus"",""6"",""123114""
","""event"",""trial"",""time""
""blur"",""2"",""58143""
""blur"",""6"",""119977""
","""event"",""trial"",""time""
""focus"",""3"",""95260""
""focus"",""6"",""123114""
","""event"",""trial"",""time""
""fullscreenenter"",""1"",""1932""
","
","","","","","","749.2000000178814","<p> You will see how many points you won or lost in the center of the screen. </p><p> Here is what you would see if you won 6 points: </p><p style=""color:green;font-size:50px;font-weight:bolder"">6</p><p style=""color:green"">The text is GREEN because you WON points.</p>","","0","instructions","","","","","","","","","","",""
"learning-instructions","16","197577","0.0-8.0-0.0-0.8","6491","1","17","Male","approach_avoid_spark_v1","""event"",""trial"",""time""
""fullscreenenter"",""1"",""1932""
""blur"",""2"",""58143""
""focus"",""3"",""95260""
""blur"",""6"",""119977""
""focus"",""6"",""123114""
","""event"",""trial"",""time""
""blur"",""2"",""58143""
""blur"",""6"",""119977""
","""event"",""trial"",""time""
""focus"",""3"",""95260""
""focus"",""6"",""123114""
","""event"",""trial"",""time""
""fullscreenenter"",""1"",""1932""
","
","","","","","","1156.199999988079","<p> And here is what you would see if you lost 4 points: </p><p style=""color:red;font-size:50px;font-weight:bolder"">-4</p><p style=""color:red"">The text is RED because you LOST points. </p>","","0","instructions","","","","","","","","","","",""
"learning-instructions","17","214227","0.0-8.0-0.0-0.9","6491","1","17","Male","approach_avoid_spark_v1","""event"",""trial"",""time""
""fullscreenenter"",""1"",""1932""
""blur"",""2"",""58143""
""focus"",""3"",""95260""
""blur"",""6"",""119977""
""focus"",""6"",""123114""
","""event"",""trial"",""time""
""blur"",""2"",""58143""
""blur"",""6"",""119977""
","""event"",""trial"",""time""
""focus"",""3"",""95260""
""focus"",""6"",""123114""
","""event"",""trial"",""time""
""fullscreenenter"",""1"",""1932""
","
","","","","","","1935.9000000059605","<p> Some of the equipment will make the kids VERY happy or sad. </p><p> These pieces of equipment will make you win or lose LOTS of points. </p><p> Other pieces of equipment will only make the kids a little happy or sad. </p><p> These pieces of equipment will make you win or lose small amounts of points. </p>","","0","instructions","","","","","","","","","","",""
"learning-instructions","18","225861","0.0-8.0-0.0-0.10","6491","1","17","Male","approach_avoid_spark_v1","""event"",""trial"",""time""
""fullscreenenter"",""1"",""1932""
""blur"",""2"",""58143""
""focus"",""3"",""95260""
""blur"",""6"",""119977""
""focus"",""6"",""123114""
","""event"",""trial"",""time""
""blur"",""2"",""58143""
""blur"",""6"",""119977""
","""event"",""trial"",""time""
""focus"",""3"",""95260""
""focus"",""6"",""123114""
","""event"",""trial"",""time""
""fullscreenenter"",""1"",""1932""
","
","","","","","","1009.9000000059605","<p> If you choose not to give them the equipment, you will not win or lose any points. </p><p>  However, in the center of the screen, you will see the number of points you WOULD HAVE won or lost if you had given them the equipment. </p>","","0","instructions","","","","","","","","","","",""
"learning-instructions","19","248877","0.0-8.0-0.0-0.11","6491","1","17","Male","approach_avoid_spark_v1","""event"",""trial"",""time""
""fullscreenenter"",""1"",""1932""
""blur"",""2"",""58143""
""focus"",""3"",""95260""
""blur"",""6"",""119977""
""focus"",""6"",""123114""
","""event"",""trial"",""time""
""blur"",""2"",""58143""
""blur"",""6"",""119977""
","""event"",""trial"",""time""
""focus"",""3"",""95260""
""focus"",""6"",""123114""
","""event"",""trial"",""time""
""fullscreenenter"",""1"",""1932""
","
","","","","","","1476.7999999821186","<p> Here is what you might see if you did not give the equipment to the kids but it would have made them happy: </p><p style=""color:grey; font-size:50px; display: inline-block; border-spacing: 15px; border-width:3px; border-style:solid; border-color:red"">  &nbsp; 7 &nbsp; </p><p> Remember, in this case, you would not win or lose ANY points because you did not give them the equipment.  </p><p style=""color:grey"">The text is GREY because you earned ZERO points. </p><p style=""color:red"">However, choosing to give the kids the equipment would have made you win points. The box around the text is RED because you chose the worse option. </p>","","0","instructions","","","","","","","","","","",""
"learning-instructions","20","271822","0.0-8.0-0.0-0.12","6491","1","17","Male","approach_avoid_spark_v1","""event"",""trial"",""time""
""fullscreenenter"",""1"",""1932""
""blur"",""2"",""58143""
""focus"",""3"",""95260""
""blur"",""6"",""119977""
""focus"",""6"",""123114""
","""event"",""trial"",""time""
""blur"",""2"",""58143""
""blur"",""6"",""119977""
","""event"",""trial"",""time""
""focus"",""3"",""95260""
""focus"",""6"",""123114""
","""event"",""trial"",""time""
""fullscreenenter"",""1"",""1932""
","
","","","","","","1872.800000011921","<p> Here is what you might see if you did not give the equipment to the kids but it would have made them sad: </p><p style=""color:grey;font-size:50px; display: inline-block; border-spacing: 15px; border-width:3px; border-style:solid; border-color:green"">  &nbsp; -8 &nbsp; </p><p> Remember, in this case, you would not win or lose ANY points because you did not give them the equipment.  </p><p style=""color:grey"">The text is GREY because you earned ZERO points. </p><p  style=""color:green""> Choosing to give the kids the equipment would have made you lose points. The box around the text is GREEN because you chose the better option.</p>","","0","instructions","","","","","","","","","","",""
"learning-instructions","21","282820","0.0-8.0-0.0-0.13","6491","1","17","Male","approach_avoid_spark_v1","""event"",""trial"",""time""
""fullscreenenter"",""1"",""1932""
""blur"",""2"",""58143""
""focus"",""3"",""95260""
""blur"",""6"",""119977""
""focus"",""6"",""123114""
","""event"",""trial"",""time""
""blur"",""2"",""58143""
""blur"",""6"",""119977""
","""event"",""trial"",""time""
""focus"",""3"",""95260""
""focus"",""6"",""123114""
","""event"",""trial"",""time""
""fullscreenenter"",""1"",""1932""
","
","","","","","","1111","<p> You will have 3 seconds to make each choice. Try to respond before time runs out! </p><p> You will lose 5 points each time you do not make a response. </p>","","0","instructions","","","","","","","","","","",""
"learning-instructions","22","289703","0.0-8.0-0.0-0.14","6491","1","17","Male","approach_avoid_spark_v1","""event"",""trial"",""time""
""fullscreenenter"",""1"",""1932""
""blur"",""2"",""58143""
""focus"",""3"",""95260""
""blur"",""6"",""119977""
""focus"",""6"",""123114""
","""event"",""trial"",""time""
""blur"",""2"",""58143""
""blur"",""6"",""119977""
","""event"",""trial"",""time""
""focus"",""3"",""95260""
""focus"",""6"",""123114""
","""event"",""trial"",""time""
""fullscreenenter"",""1"",""1932""
","
","","","","","","1473.300000011921","<p> This is just a practice round, but in the real game, your bonus payment will depend on your total number of points.","","0","instructions","","","","","","","","","","",""
"learning-instructions","23","296695","0.0-8.0-0.0-0.15","6491","1","17","Male","approach_avoid_spark_v1","""event"",""trial"",""time""
""fullscreenenter"",""1"",""1932""
""blur"",""2"",""58143""
""focus"",""3"",""95260""
""blur"",""6"",""119977""
""focus"",""6"",""123114""
","""event"",""trial"",""time""
""blur"",""2"",""58143""
""blur"",""6"",""119977""
","""event"",""trial"",""time""
""focus"",""3"",""95260""
""focus"",""6"",""123114""
","""event"",""trial"",""time""
""fullscreenenter"",""1"",""1932""
","
","","","","","","1224.699999988079","<p> Remember, you can give them the equipment by pressing 1 and choose not to give it to them by pressing 0. </p><br><div class=""choice-instructions-grid""> <div class=""choice-option""><img src=""images/approach.png"" class=""choice-option-img"" stage=""instructions"" position=""0"" ><div class=""choice-option-text""> Press ""1."" </div></div><div class=""choice-option""><img src=""images/avoid.png"" class=""choice-option-img"" stage=""instructions"" position=""1"" ><div class=""choice-option-text""> Press ""0."" </div></div>","","0","instructions","","","","","","","","","","",""
"html-button-response","24","298335","0.0-8.0-1.0","6491","1","17","Male","approach_avoid_spark_v1","""event"",""trial"",""time""
""fullscreenenter"",""1"",""1932""
""blur"",""2"",""58143""
""focus"",""3"",""95260""
""blur"",""6"",""119977""
""focus"",""6"",""123114""
","""event"",""trial"",""time""
""blur"",""2"",""58143""
""blur"",""6"",""119977""
","""event"",""trial"",""time""
""focus"",""3"",""95260""
""focus"",""6"",""123114""
","""event"",""trial"",""time""
""fullscreenenter"",""1"",""1932""
","
","","","","","","1524","<p> Ready to practice? </p>","0","","","","","","","","","","","","",""
"html-keyboard-response","25","298943","0.0-8.0-2.0-0.0","6491","1","17","Male","approach_avoid_spark_v1","""event"",""trial"",""time""
""fullscreenenter"",""1"",""1932""
""blur"",""2"",""58143""
""focus"",""3"",""95260""
""blur"",""6"",""119977""
""focus"",""6"",""123114""
","""event"",""trial"",""time""
""blur"",""2"",""58143""
""blur"",""6"",""119977""
","""event"",""trial"",""time""
""focus"",""3"",""95260""
""focus"",""6"",""123114""
","""event"",""trial"",""time""
""fullscreenenter"",""1"",""1932""
","
","","","","","","null","<div style=""font-size:60px;"">+</div>","null","","fixation","","","","","","","","","","",""
"aa-learning-trial","26","301945","0.0-8.0-2.0-1.0","6491","1","17","Male","approach_avoid_spark_v1","""event"",""trial"",""time""
""fullscreenenter"",""1"",""1932""
""blur"",""2"",""58143""
""focus"",""3"",""95260""
""blur"",""6"",""119977""
""focus"",""6"",""123114""
","""event"",""trial"",""time""
""blur"",""2"",""58143""
""blur"",""6"",""119977""
","""event"",""trial"",""time""
""focus"",""3"",""95260""
""focus"",""6"",""123114""
","""event"",""trial"",""time""
""fullscreenenter"",""1"",""1932""
","
","","","","","","1107.4000000059605","images/ball4.png","","","learning","-7","-7","1","1","practice","practice","practice","-1","","",""
"html-keyboard-response","27","302456","0.0-8.0-2.0-0.1","6491","1","17","Male","approach_avoid_spark_v1","""event"",""trial"",""time""
""fullscreenenter"",""1"",""1932""
""blur"",""2"",""58143""
""focus"",""3"",""95260""
""blur"",""6"",""119977""
""focus"",""6"",""123114""
","""event"",""trial"",""time""
""blur"",""2"",""58143""
""blur"",""6"",""119977""
","""event"",""trial"",""time""
""focus"",""3"",""95260""
""focus"",""6"",""123114""
","""event"",""trial"",""time""
""fullscreenenter"",""1"",""1932""
","
","","","","","","null","<div style=""font-size:60px;"">+</div>","null","","fixation","","","","","","","","","","",""
"aa-learning-trial","28","305458","0.0-8.0-2.0-1.1","6491","1","17","Male","approach_avoid_spark_v1","""event"",""trial"",""time""
""fullscreenenter"",""1"",""1932""
""blur"",""2"",""58143""
""focus"",""3"",""95260""
""blur"",""6"",""119977""
""focus"",""6"",""123114""
","""event"",""trial"",""time""
""blur"",""2"",""58143""
""blur"",""6"",""119977""
","""event"",""trial"",""time""
""focus"",""3"",""95260""
""focus"",""6"",""123114""
","""event"",""trial"",""time""
""fullscreenenter"",""1"",""1932""
","
","","","","","","997.6000000238419","images/ball1.png","","","learning","-8","-8","1","1","practice","practice","practice","-1","","",""
"html-keyboard-response","29","305964","0.0-8.0-2.0-0.2","6491","1","17","Male","approach_avoid_spark_v1","""event"",""trial"",""time""
""fullscreenenter"",""1"",""1932""
""blur"",""2"",""58143""
""focus"",""3"",""95260""
""blur"",""6"",""119977""
""focus"",""6"",""123114""
","""event"",""trial"",""time""
""blur"",""2"",""58143""
""blur"",""6"",""119977""
","""event"",""trial"",""time""
""focus"",""3"",""95260""
""focus"",""6"",""123114""
","""event"",""trial"",""time""
""fullscreenenter"",""1"",""1932""
","
","","","","","","null","<div style=""font-size:60px;"">+</div>","null","","fixation","","","","","","","","","","",""
"aa-learning-trial","30","308969","0.0-8.0-2.0-1.2","6491","1","17","Male","approach_avoid_spark_v1","""event"",""trial"",""time""
""fullscreenenter"",""1"",""1932""
""blur"",""2"",""58143""
""focus"",""3"",""95260""
""blur"",""6"",""119977""
""focus"",""6"",""123114""
","""event"",""trial"",""time""
""blur"",""2"",""58143""
""blur"",""6"",""119977""
","""event"",""trial"",""time""
""focus"",""3"",""95260""
""focus"",""6"",""123114""
","""event"",""trial"",""time""
""fullscreenenter"",""1"",""1932""
","
","","","","","","1696.800000011921","images/racket3.png","","","learning","1","0","0","0","practice","practice","practice","-1","","",""
"html-keyboard-response","31","309471","0.0-8.0-2.0-0.3","6491","1","17","Male","approach_avoid_spark_v1","""event"",""trial"",""time""
""fullscreenenter"",""1"",""1932""
""blur"",""2"",""58143""
""focus"",""3"",""95260""
""blur"",""6"",""119977""
""focus"",""6"",""123114""
","""event"",""trial"",""time""
""blur"",""2"",""58143""
""blur"",""6"",""119977""
","""event"",""trial"",""time""
""focus"",""3"",""95260""
""focus"",""6"",""123114""
","""event"",""trial"",""time""
""fullscreenenter"",""1"",""1932""
","
","","","","","","null","<div style=""font-size:60px;"">+</div>","null","","fixation","","","","","","","","","","",""
"aa-learning-trial","32","312473","0.0-8.0-2.0-1.3","6491","1","17","Male","approach_avoid_spark_v1","""event"",""trial"",""time""
""fullscreenenter"",""1"",""1932""
""blur"",""2"",""58143""
""focus"",""3"",""95260""
""blur"",""6"",""119977""
""focus"",""6"",""123114""
","""event"",""trial"",""time""
""blur"",""2"",""58143""
""blur"",""6"",""119977""
","""event"",""trial"",""time""
""focus"",""3"",""95260""
""focus"",""6"",""123114""
","""event"",""trial"",""time""
""fullscreenenter"",""1"",""1932""
","
","","","","","","1549.5999999940395","images/ball3.png","","","learning","-2","-2","1","1","practice","practice","practice","-1","","",""
"html-keyboard-response","33","312975","0.0-8.0-2.0-0.4","6491","1","17","Male","approach_avoid_spark_v1","""event"",""trial"",""time""
""fullscreenenter"",""1"",""1932""
""blur"",""2"",""58143""
""focus"",""3"",""95260""
""blur"",""6"",""119977""
""focus"",""6"",""123114""
","""event"",""trial"",""time""
""blur"",""2"",""58143""
""blur"",""6"",""119977""
","""event"",""trial"",""time""
""focus"",""3"",""95260""
""focus"",""6"",""123114""
","""event"",""trial"",""time""
""fullscreenenter"",""1"",""1932""
","
","","","","","","null","<div style=""font-size:60px;"">+</div>","null","","fixation","","","","","","","","","","",""
"aa-learning-trial","34","315986","0.0-8.0-2.0-1.4","6491","1","17","Male","approach_avoid_spark_v1","""event"",""trial"",""time""
""fullscreenenter"",""1"",""1932""
""blur"",""2"",""58143""
""focus"",""3"",""95260""
""blur"",""6"",""119977""
""focus"",""6"",""123114""
","""event"",""trial"",""time""
""blur"",""2"",""58143""
""blur"",""6"",""119977""
","""event"",""trial"",""time""
""focus"",""3"",""95260""
""focus"",""6"",""123114""
","""event"",""trial"",""time""
""fullscreenenter"",""1"",""1932""
","
","","","","","","1478.1000000238419","images/racket2.png","","","learning","7","7","1","1","practice","practice","practice","-1","","",""
"html-keyboard-response","35","316493","0.0-8.0-2.0-0.5","6491","1","17","Male","approach_avoid_spark_v1","""event"",""trial"",""time""
""fullscreenenter"",""1"",""1932""
""blur"",""2"",""58143""
""focus"",""3"",""95260""
""blur"",""6"",""119977""
""focus"",""6"",""123114""
","""event"",""trial"",""time""
""blur"",""2"",""58143""
""blur"",""6"",""119977""
","""event"",""trial"",""time""
""focus"",""3"",""95260""
""focus"",""6"",""123114""
","""event"",""trial"",""time""
""fullscreenenter"",""1"",""1932""
","
","","","","","","null","<div style=""font-size:60px;"">+</div>","null","","fixation","","","","","","","","","","",""
"aa-learning-trial","36","319507","0.0-8.0-2.0-1.5","6491","1","17","Male","approach_avoid_spark_v1","""event"",""trial"",""time""
""fullscreenenter"",""1"",""1932""
""blur"",""2"",""58143""
""focus"",""3"",""95260""
""blur"",""6"",""119977""
""focus"",""6"",""123114""
","""event"",""trial"",""time""
""blur"",""2"",""58143""
""blur"",""6"",""119977""
","""event"",""trial"",""time""
""focus"",""3"",""95260""
""focus"",""6"",""123114""
","""event"",""trial"",""time""
""fullscreenenter"",""1"",""1932""
","
","","","","","","550.1999999880791","images/racket2.png","","","learning","1","1","1","1","practice","practice","practice","-1","","",""
"html-keyboard-response","37","320008","0.0-8.0-2.0-0.6","6491","1","17","Male","approach_avoid_spark_v1","""event"",""trial"",""time""
""fullscreenenter"",""1"",""1932""
""blur"",""2"",""58143""
""focus"",""3"",""95260""
""blur"",""6"",""119977""
""focus"",""6"",""123114""
","""event"",""trial"",""time""
""blur"",""2"",""58143""
""blur"",""6"",""119977""
","""event"",""trial"",""time""
""focus"",""3"",""95260""
""focus"",""6"",""123114""
","""event"",""trial"",""time""
""fullscreenenter"",""1"",""1932""
","
","","","","","","null","<div style=""font-size:60px;"">+</div>","null","","fixation","","","","","","","","","","",""
"aa-learning-trial","38","323014","0.0-8.0-2.0-1.6","6491","1","17","Male","approach_avoid_spark_v1","""event"",""trial"",""time""
""fullscreenenter"",""1"",""1932""
""blur"",""2"",""58143""
""focus"",""3"",""95260""
""blur"",""6"",""119977""
""focus"",""6"",""123114""
","""event"",""trial"",""time""
""blur"",""2"",""58143""
""blur"",""6"",""119977""
","""event"",""trial"",""time""
""focus"",""3"",""95260""
""focus"",""6"",""123114""
","""event"",""trial"",""time""
""fullscreenenter"",""1"",""1932""
","
","","","","","","552.8000000119209","images/racket1.png","","","learning","9","9","1","1","practice","practice","practice","-1","","",""
"html-keyboard-response","39","323522","0.0-8.0-2.0-0.7","6491","1","17","Male","approach_avoid_spark_v1","""event"",""trial"",""time""
""fullscreenenter"",""1"",""1932""
""blur"",""2"",""58143""
""focus"",""3"",""95260""
""blur"",""6"",""119977""
""focus"",""6"",""123114""
","""event"",""trial"",""time""
""blur"",""2"",""58143""
""blur"",""6"",""119977""
","""event"",""trial"",""time""
""focus"",""3"",""95260""
""focus"",""6"",""123114""
","""event"",""trial"",""time""
""fullscreenenter"",""1"",""1932""
","
","","","","","","null","<div style=""font-size:60px;"">+</div>","null","","fixation","","","","","","","","","","",""
"aa-learning-trial","40","326524","0.0-8.0-2.0-1.7","6491","1","17","Male","approach_avoid_spark_v1","""event"",""trial"",""time""
""fullscreenenter"",""1"",""1932""
""blur"",""2"",""58143""
""focus"",""3"",""95260""
""blur"",""6"",""119977""
""focus"",""6"",""123114""
","""event"",""trial"",""time""
""blur"",""2"",""58143""
""blur"",""6"",""119977""
","""event"",""trial"",""time""
""focus"",""3"",""95260""
""focus"",""6"",""123114""
","""event"",""trial"",""time""
""fullscreenenter"",""1"",""1932""
","
","","","","","","654.3000000119209","images/ball1.png","","","learning","-8","0","0","0","practice","practice","practice","-1","","",""
"html-keyboard-response","41","327025","0.0-8.0-2.0-0.8","6491","1","17","Male","approach_avoid_spark_v1","""event"",""trial"",""time""
""fullscreenenter"",""1"",""1932""
""blur"",""2"",""58143""
""focus"",""3"",""95260""
""blur"",""6"",""119977""
""focus"",""6"",""123114""
","""event"",""trial"",""time""
""blur"",""2"",""58143""
""blur"",""6"",""119977""
","""event"",""trial"",""time""
""focus"",""3"",""95260""
""focus"",""6"",""123114""
","""event"",""trial"",""time""
""fullscreenenter"",""1"",""1932""
","
","","","","","","null","<div style=""font-size:60px;"">+</div>","null","","fixation","","","","","","","","","","",""
"aa-learning-trial","42","330027","0.0-8.0-2.0-1.8","6491","1","17","Male","approach_avoid_spark_v1","""event"",""trial"",""time""
""fullscreenenter"",""1"",""1932""
""blur"",""2"",""58143""
""focus"",""3"",""95260""
""blur"",""6"",""119977""
""focus"",""6"",""123114""
","""event"",""trial"",""time""
""blur"",""2"",""58143""
""blur"",""6"",""119977""
","""event"",""trial"",""time""
""focus"",""3"",""95260""
""focus"",""6"",""123114""
","""event"",""trial"",""time""
""fullscreenenter"",""1"",""1932""
","
","","","","","","1098.7000000178814","images/ball4.png","","","learning","-9","0","0","0","practice","practice","practice","-1","","",""
"html-keyboard-response","43","330528","0.0-8.0-2.0-0.9","6491","1","17","Male","approach_avoid_spark_v1","""event"",""trial"",""time""
""fullscreenenter"",""1"",""1932""
""blur"",""2"",""58143""
""focus"",""3"",""95260""
""blur"",""6"",""119977""
""focus"",""6"",""123114""
","""event"",""trial"",""time""
""blur"",""2"",""58143""
""blur"",""6"",""119977""
","""event"",""trial"",""time""
""focus"",""3"",""95260""
""focus"",""6"",""123114""
","""event"",""trial"",""time""
""fullscreenenter"",""1"",""1932""
","
","","","","","","null","<div style=""font-size:60px;"">+</div>","null","","fixation","","","","","","","","","","",""
"aa-learning-trial","44","333529","0.0-8.0-2.0-1.9","6491","1","17","Male","approach_avoid_spark_v1","""event"",""trial"",""time""
""fullscreenenter"",""1"",""1932""
""blur"",""2"",""58143""
""focus"",""3"",""95260""
""blur"",""6"",""119977""
""focus"",""6"",""123114""
","""event"",""trial"",""time""
""blur"",""2"",""58143""
""blur"",""6"",""119977""
","""event"",""trial"",""time""
""focus"",""3"",""95260""
""focus"",""6"",""123114""
","""event"",""trial"",""time""
""fullscreenenter"",""1"",""1932""
","
","","","","","","483.5","images/ball2.png","","","learning","-4","0","0","0","practice","practice","practice","-1","","",""
"html-keyboard-response","45","334031","0.0-8.0-2.0-0.10","6491","1","17","Male","approach_avoid_spark_v1","""event"",""trial"",""time""
""fullscreenenter"",""1"",""1932""
""blur"",""2"",""58143""
""focus"",""3"",""95260""
""blur"",""6"",""119977""
""focus"",""6"",""123114""
","""event"",""trial"",""time""
""blur"",""2"",""58143""
""blur"",""6"",""119977""
","""event"",""trial"",""time""
""focus"",""3"",""95260""
""focus"",""6"",""123114""
","""event"",""trial"",""time""
""fullscreenenter"",""1"",""1932""
","
","","","","","","null","<div style=""font-size:60px;"">+</div>","null","","fixation","","","","","","","","","","",""
"aa-learning-trial","46","337033","0.0-8.0-2.0-1.10","6491","1","17","Male","approach_avoid_spark_v1","""event"",""trial"",""time""
""fullscreenenter"",""1"",""1932""
""blur"",""2"",""58143""
""focus"",""3"",""95260""
""blur"",""6"",""119977""
""focus"",""6"",""123114""
","""event"",""trial"",""time""
""blur"",""2"",""58143""
""blur"",""6"",""119977""
","""event"",""trial"",""time""
""focus"",""3"",""95260""
""focus"",""6"",""123114""
","""event"",""trial"",""time""
""fullscreenenter"",""1"",""1932""
","
","","","","","","656.0999999940395","images/racket2.png","","","learning","-1","-1","1","1","practice","practice","practice","-1","","",""
"html-keyboard-response","47","337533","0.0-8.0-2.0-0.11","6491","1","17","Male","approach_avoid_spark_v1","""event"",""trial"",""time""
""fullscreenenter"",""1"",""1932""
""blur"",""2"",""58143""
""focus"",""3"",""95260""
""blur"",""6"",""119977""
""focus"",""6"",""123114""
","""event"",""trial"",""time""
""blur"",""2"",""58143""
""blur"",""6"",""119977""
","""event"",""trial"",""time""
""focus"",""3"",""95260""
""focus"",""6"",""123114""
","""event"",""trial"",""time""
""fullscreenenter"",""1"",""1932""
","
","","","","","","null","<div style=""font-size:60px;"">+</div>","null","","fixation","","","","","","","","","","",""
"aa-learning-trial","48","340535","0.0-8.0-2.0-1.11","6491","1","17","Male","approach_avoid_spark_v1","""event"",""trial"",""time""
""fullscreenenter"",""1"",""1932""
""blur"",""2"",""58143""
""focus"",""3"",""95260""
""blur"",""6"",""119977""
""focus"",""6"",""123114""
","""event"",""trial"",""time""
""blur"",""2"",""58143""
""blur"",""6"",""119977""
","""event"",""trial"",""time""
""focus"",""3"",""95260""
""focus"",""6"",""123114""
","""event"",""trial"",""time""
""fullscreenenter"",""1"",""1932""
","
","","","","","","930.5999999940395","images/racket4.png","","","learning","8","8","1","1","practice","practice","practice","-1","","",""
"html-button-response","49","342251","0.0-8.0-3.0","6491","1","17","Male","approach_avoid_spark_v1","""event"",""trial"",""time""
""fullscreenenter"",""1"",""1932""
""blur"",""2"",""58143""
""focus"",""3"",""95260""
""blur"",""6"",""119977""
""focus"",""6"",""123114""
","""event"",""trial"",""time""
""blur"",""2"",""58143""
""blur"",""6"",""119977""
","""event"",""trial"",""time""
""focus"",""3"",""95260""
""focus"",""6"",""123114""
","""event"",""trial"",""time""
""fullscreenenter"",""1"",""1932""
","
","","","","","","1714.699999988079","<p> You earned 7 points in the practice round! </p>","0","","break","","","","","","","","","","",""
"learning-instructions","50","350557","0.0-8.0-4.0-0.0","6491","1","17","Male","approach_avoid_spark_v1","""event"",""trial"",""time""
""fullscreenenter"",""1"",""1932""
""blur"",""2"",""58143""
""focus"",""3"",""95260""
""blur"",""6"",""119977""
""focus"",""6"",""123114""
","""event"",""trial"",""time""
""blur"",""2"",""58143""
""blur"",""6"",""119977""
","""event"",""trial"",""time""
""focus"",""3"",""95260""
""focus"",""6"",""123114""
","""event"",""trial"",""time""
""fullscreenenter"",""1"",""1932""
","
","","","","","","2320","<p> It's almost time to start the real game. </p><p> Before you start, we're going to ask you a few questions about how the game works. </p>","","0","instructions","","","","","","","","","","",""
"preload","51","359352","0.0-8.0-5.0","6491","1","17","Male","approach_avoid_spark_v1","""event"",""trial"",""time""
""fullscreenenter"",""1"",""1932""
""blur"",""2"",""58143""
""focus"",""3"",""95260""
""blur"",""6"",""119977""
""focus"",""6"",""123114""
","""event"",""trial"",""time""
""blur"",""2"",""58143""
""blur"",""6"",""119977""
","""event"",""trial"",""time""
""focus"",""3"",""95260""
""focus"",""6"",""123114""
","""event"",""trial"",""time""
""fullscreenenter"",""1"",""1932""
","
","true","false","[]","[]","[]","","","","","","","","","","","","","","","",""
"comp-q","52","365245","0.0-8.0-6.0-0.0","6491","1","17","Male","approach_avoid_spark_v1","""event"",""trial"",""time""
""fullscreenenter"",""1"",""1932""
""blur"",""2"",""58143""
""focus"",""3"",""95260""
""blur"",""6"",""119977""
""focus"",""6"",""123114""
","""event"",""trial"",""time""
""blur"",""2"",""58143""
""blur"",""6"",""119977""
","""event"",""trial"",""time""
""focus"",""3"",""95260""
""focus"",""6"",""123114""
","""event"",""trial"",""time""
""fullscreenenter"",""1"",""1932""
","
","","","","","","898.5","<p> <b> True or False? </b> </p><p> If you see a number in GREY, that means you earned that many points. </p>","","1","comp_question","","","","","","","","","true","",""
"comp-q","53","374743","0.0-8.0-6.0-1.0","6491","1","17","Male","approach_avoid_spark_v1","""event"",""trial"",""time""
""fullscreenenter"",""1"",""1932""
""blur"",""2"",""58143""
""focus"",""3"",""95260""
""blur"",""6"",""119977""
""focus"",""6"",""123114""
","""event"",""trial"",""time""
""blur"",""2"",""58143""
""blur"",""6"",""119977""
","""event"",""trial"",""time""
""focus"",""3"",""95260""
""focus"",""6"",""123114""
","""event"",""trial"",""time""
""fullscreenenter"",""1"",""1932""
","
","","","","","","1136.7000000178814","<p><b> That's right! </b> If you see a grey number, it means you earned ZERO points. <br> The grey numbers show the points you WOULD HAVE earned if you had made the other choice. </p>","","0","comp_answer","","","","","","","","","","",""
"comp-q","54","380455","0.0-8.0-7.0-0.0","6491","1","17","Male","approach_avoid_spark_v1","""event"",""trial"",""time""
""fullscreenenter"",""1"",""1932""
""blur"",""2"",""58143""
""focus"",""3"",""95260""
""blur"",""6"",""119977""
""focus"",""6"",""123114""
","""event"",""trial"",""time""
""blur"",""2"",""58143""
""blur"",""6"",""119977""
","""event"",""trial"",""time""
""focus"",""3"",""95260""
""focus"",""6"",""123114""
","""event"",""trial"",""time""
""fullscreenenter"",""1"",""1932""
","
","","","","","","1029.1000000238419","<p> <b> True or False? </b> </p><p> You will have as much time as you want to make each choice. </p>","","1","comp_question","","","","","","","","","true","",""
"comp-q","55","385141","0.0-8.0-7.0-1.0","6491","1","17","Male","approach_avoid_spark_v1","""event"",""trial"",""time""
""fullscreenenter"",""1"",""1932""
""blur"",""2"",""58143""
""focus"",""3"",""95260""
""blur"",""6"",""119977""
""focus"",""6"",""123114""
","""event"",""trial"",""time""
""blur"",""2"",""58143""
""blur"",""6"",""119977""
","""event"",""trial"",""time""
""focus"",""3"",""95260""
""focus"",""6"",""123114""
","""event"",""trial"",""time""
""fullscreenenter"",""1"",""1932""
","
","","","","","","645","<p> <b> That's right! </b> You will only have 3 seconds to make each choice. </p>","","0","comp_answer","","","","","","","","","","",""
"comp-q","56","390517","0.0-8.0-8.0-0.0","6491","1","17","Male","approach_avoid_spark_v1","""event"",""trial"",""time""
""fullscreenenter"",""1"",""1932""
""blur"",""2"",""58143""
""focus"",""3"",""95260""
""blur"",""6"",""119977""
""focus"",""6"",""123114""
","""event"",""trial"",""time""
""blur"",""2"",""58143""
""blur"",""6"",""119977""
","""event"",""trial"",""time""
""focus"",""3"",""95260""
""focus"",""6"",""123114""
","""event"",""trial"",""time""
""fullscreenenter"",""1"",""1932""
","
","","","","","","710.9000000059605","<p> <b> True or False? </b> </p><p> You should use the '1' and '0' keys to make your choices. </p>","","0","comp_question","","","","","","","","","true","",""
"comp-q","57","395941","0.0-8.0-8.0-1.0","6491","1","17","Male","approach_avoid_spark_v1","""event"",""trial"",""time""
""fullscreenenter"",""1"",""1932""
""blur"",""2"",""58143""
""focus"",""3"",""95260""
""blur"",""6"",""119977""
""focus"",""6"",""123114""
","""event"",""trial"",""time""
""blur"",""2"",""58143""
""blur"",""6"",""119977""
","""event"",""trial"",""time""
""focus"",""3"",""95260""
""focus"",""6"",""123114""
","""event"",""trial"",""time""
""fullscreenenter"",""1"",""1932""
","
","","","","","","815","<p> <b> That's right! </b> You should use the '1' and '0' keys to make each choice. </p>","","0","comp_answer","","","","","","","","","","",""
"learning-instructions","58","403277","0.0-8.0-9.0-0.0","6491","1","17","Male","approach_avoid_spark_v1","""event"",""trial"",""time""
""fullscreenenter"",""1"",""1932""
""blur"",""2"",""58143""
""focus"",""3"",""95260""
""blur"",""6"",""119977""
""focus"",""6"",""123114""
","""event"",""trial"",""time""
""blur"",""2"",""58143""
""blur"",""6"",""119977""
","""event"",""trial"",""time""
""focus"",""3"",""95260""
""focus"",""6"",""123114""
","""event"",""trial"",""time""
""fullscreenenter"",""1"",""1932""
","
","","","","","","1061.199999988079","<p> It's now time to start the real game. </p>Do your best, because the points you earn in the next rounds will influence your bonus payment. </p>","","0","instructions","","","","","","","","","","",""
"preload","59","403395","0.0-9.0-0.0","6491","1","17","Male","approach_avoid_spark_v1","""event"",""trial"",""time""
""fullscreenenter"",""1"",""1932""
""blur"",""2"",""58143""
""focus"",""3"",""95260""
""blur"",""6"",""119977""
""focus"",""6"",""123114""
","""event"",""trial"",""time""
""blur"",""2"",""58143""
""blur"",""6"",""119977""
","""event"",""trial"",""time""
""focus"",""3"",""95260""
""focus"",""6"",""123114""
","""event"",""trial"",""time""
""fullscreenenter"",""1"",""1932""
","
","true","false","[]","[]","[]","","","","","","","","","","","","","","","",""
"learning-instructions","60","409539","0.0-9.0-1.0-0.0","6491","1","17","Male","approach_avoid_spark_v1","""event"",""trial"",""time""
""fullscreenenter"",""1"",""1932""
""blur"",""2"",""58143""
""focus"",""3"",""95260""
""blur"",""6"",""119977""
""focus"",""6"",""123114""
","""event"",""trial"",""time""
""blur"",""2"",""58143""
""blur"",""6"",""119977""
","""event"",""trial"",""time""
""focus"",""3"",""95260""
""focus"",""6"",""123114""
","""event"",""trial"",""time""
""fullscreenenter"",""1"",""1932""
","
","","","","","","1653","<p> Your goal in this round is to take care of lots of farm animals. </p></div>","","0","instructions","","","","","","","","","","",""
"learning-instructions","61","421925","0.0-9.0-1.0-0.1","6491","1","17","Male","approach_avoid_spark_v1","""event"",""trial"",""time""
""fullscreenenter"",""1"",""1932""
""blur"",""2"",""58143""
""focus"",""3"",""95260""
""blur"",""6"",""119977""
""focus"",""6"",""123114""
","""event"",""trial"",""time""
""blur"",""2"",""58143""
""blur"",""6"",""119977""
","""event"",""trial"",""time""
""focus"",""3"",""95260""
""focus"",""6"",""123114""
","""event"",""trial"",""time""
""fullscreenenter"",""1"",""1932""
","
","","","","","","1419.199999988079","<p> Some farm animals are hungry, while other farm animals are already full.  </p><p> On each turn, you will see a farm animal.   </p><p> You need to decide whether to feed it or not.  </p>","","0","instructions","","","","","","","","","","",""
"learning-instructions","62","428815","0.0-9.0-1.0-0.2","6491","1","17","Male","approach_avoid_spark_v1","""event"",""trial"",""time""
""fullscreenenter"",""1"",""1932""
""blur"",""2"",""58143""
""focus"",""3"",""95260""
""blur"",""6"",""119977""
""focus"",""6"",""123114""
","""event"",""trial"",""time""
""blur"",""2"",""58143""
""blur"",""6"",""119977""
","""event"",""trial"",""time""
""focus"",""3"",""95260""
""focus"",""6"",""123114""
","""event"",""trial"",""time""
""fullscreenenter"",""1"",""1932""
","
","","","","","","538.4000000059605","<p> You can feed the farm animal by pressing 1 and leave the farm animal alone by pressing 0. </p><br><div class=""choice-instructions-grid""> <div class=""choice-option""><img src=""images/approach.png"" class=""choice-option-img"" stage=""instructions"" position=""0"" ><div class=""choice-option-text""> Press ""1."" </div></div><div class=""choice-option""><img src=""images/avoid.png"" class=""choice-option-img"" stage=""instructions"" position=""1"" ><div class=""choice-option-text""> Press ""0."" </div></div>","","0","instructions","","","","","","","","","","",""
"learning-instructions","63","439763","0.0-9.0-1.0-0.3","6491","1","17","Male","approach_avoid_spark_v1","""event"",""trial"",""time""
""fullscreenenter"",""1"",""1932""
""blur"",""2"",""58143""
""focus"",""3"",""95260""
""blur"",""6"",""119977""
""focus"",""6"",""123114""
","""event"",""trial"",""time""
""blur"",""2"",""58143""
""blur"",""6"",""119977""
","""event"",""trial"",""time""
""focus"",""3"",""95260""
""focus"",""6"",""123114""
","""event"",""trial"",""time""
""fullscreenenter"",""1"",""1932""
","
","","","","","","497.5","<p> If you feed a hungry farm animal, you will make it feel satisfied! </p><p> But if you feed the farm animal and it was already full, you will make it feel sick. </p>","","0","instructions","","","","","","","","","","",""
"learning-instructions","64","453929","0.0-9.0-1.0-0.4","6491","1","17","Male","approach_avoid_spark_v1","""event"",""trial"",""time""
""fullscreenenter"",""1"",""1932""
""blur"",""2"",""58143""
""focus"",""3"",""95260""
""blur"",""6"",""119977""
""focus"",""6"",""123114""
","""event"",""trial"",""time""
""blur"",""2"",""58143""
""blur"",""6"",""119977""
","""event"",""trial"",""time""
""focus"",""3"",""95260""
""focus"",""6"",""123114""
","""event"",""trial"",""time""
""fullscreenenter"",""1"",""1932""
","
","","","","","","483.59999999403954","<p> You will earn points based on how you made the farm animal feel. </p><p> If you made it satisfied, you will WIN anywhere from 1 - 9 points, </p><p> but if you made it sick, you will LOSE anywhere from 1 - 9 points. </p>","","0","instructions","","","","","","","","","","",""
"learning-instructions","65","462387","0.0-9.0-1.0-0.5","6491","1","17","Male","approach_avoid_spark_v1","""event"",""trial"",""time""
""fullscreenenter"",""1"",""1932""
""blur"",""2"",""58143""
""focus"",""3"",""95260""
""blur"",""6"",""119977""
""focus"",""6"",""123114""
","""event"",""trial"",""time""
""blur"",""2"",""58143""
""blur"",""6"",""119977""
","""event"",""trial"",""time""
""focus"",""3"",""95260""
""focus"",""6"",""123114""
","""event"",""trial"",""time""
""fullscreenenter"",""1"",""1932""
","
","","","","","","401.59999999403954","<p> You will see how many points you won or lost in the center of the screen. </p><p> Here is what you would see if you won 5 points: </p><p style=""color:green;font-size:50px;font-weight:bolder"">5</p>","","0","instructions","","","","","","","","","","",""
"learning-instructions","66","466387","0.0-9.0-1.0-0.6","6491","1","17","Male","approach_avoid_spark_v1","""event"",""trial"",""time""
""fullscreenenter"",""1"",""1932""
""blur"",""2"",""58143""
""focus"",""3"",""95260""
""blur"",""6"",""119977""
""focus"",""6"",""123114""
","""event"",""trial"",""time""
""blur"",""2"",""58143""
""blur"",""6"",""119977""
","""event"",""trial"",""time""
""focus"",""3"",""95260""
""focus"",""6"",""123114""
","""event"",""trial"",""time""
""fullscreenenter"",""1"",""1932""
","
","","","","","","341.7999999821186","<p> And here is what you would see if you lost 3 points: </p><p style=""color:red;font-size:50px;font-weight:bolder"">-3</p>","","0","instructions","","","","","","","","","","",""
"learning-instructions","67","484155","0.0-9.0-1.0-0.7","6491","1","17","Male","approach_avoid_spark_v1","""event"",""trial"",""time""
""fullscreenenter"",""1"",""1932""
""blur"",""2"",""58143""
""focus"",""3"",""95260""
""blur"",""6"",""119977""
""focus"",""6"",""123114""
","""event"",""trial"",""time""
""blur"",""2"",""58143""
""blur"",""6"",""119977""
","""event"",""trial"",""time""
""focus"",""3"",""95260""
""focus"",""6"",""123114""
","""event"",""trial"",""time""
""fullscreenenter"",""1"",""1932""
","
","","","","","","559.5999999940395","<p> Some farm animals will become very satisfied or very sick. </p><p> These farm animals will make you win or lose LOTS of points. </p><p> Other farm animals have less strong feelings. </p><p> These farm animals will make you win or lose small amounts of points. </p>","","0","instructions","","","","","","","","","","",""
"learning-instructions","68","498003","0.0-9.0-1.0-0.8","6491","1","17","Male","approach_avoid_spark_v1","""event"",""trial"",""time""
""fullscreenenter"",""1"",""1932""
""blur"",""2"",""58143""
""focus"",""3"",""95260""
""blur"",""6"",""119977""
""focus"",""6"",""123114""
","""event"",""trial"",""time""
""blur"",""2"",""58143""
""blur"",""6"",""119977""
","""event"",""trial"",""time""
""focus"",""3"",""95260""
""focus"",""6"",""123114""
","""event"",""trial"",""time""
""fullscreenenter"",""1"",""1932""
","
","","","","","","448.09999999403954","<p> If you choose to leave the farm animal alone, you will not win or lose any points. </p><p>  However, in the center of the screen, you will see the number of points you WOULD HAVE won or lost if you had fed the farm animal. </p>","","0","instructions","","","","","","","","","","",""
"learning-instructions","69","512103","0.0-9.0-1.0-0.9","6491","1","17","Male","approach_avoid_spark_v1","""event"",""trial"",""time""
""fullscreenenter"",""1"",""1932""
""blur"",""2"",""58143""
""focus"",""3"",""95260""
""blur"",""6"",""119977""
""focus"",""6"",""123114""
","""event"",""trial"",""time""
""blur"",""2"",""58143""
""blur"",""6"",""119977""
","""event"",""trial"",""time""
""focus"",""3"",""95260""
""focus"",""6"",""123114""
","""event"",""trial"",""time""
""fullscreenenter"",""1"",""1932""
","
","","","","","","1668.0999999940395","<p> Here is what you might see if you did not feed the farm animal but the animal was hungry: </p><p style=""color:grey; font-size:50px; display: inline-block; border-spacing: 15px; border-width:3px; border-style:solid; border-color:red"">  &nbsp; 6 &nbsp; </p><p> Remember, in this case, you would not win or lose ANY points because you did not feed the farm animal.  </p>","","0","instructions","","","","","","","","","","",""
"learning-instructions","70","521227","0.0-9.0-1.0-0.10","6491","1","17","Male","approach_avoid_spark_v1","""event"",""trial"",""time""
""fullscreenenter"",""1"",""1932""
""blur"",""2"",""58143""
""focus"",""3"",""95260""
""blur"",""6"",""119977""
""focus"",""6"",""123114""
","""event"",""trial"",""time""
""blur"",""2"",""58143""
""blur"",""6"",""119977""
","""event"",""trial"",""time""
""focus"",""3"",""95260""
""focus"",""6"",""123114""
","""event"",""trial"",""time""
""fullscreenenter"",""1"",""1932""
","
","","","","","","632.0999999940395","<p> Try to make the best choice for each farm animal because </p><p> at the end of the game, you will earn bonus money based on how many points you earned. </p>","","0","instructions","","","","","","","","","","",""
"learning-instructions","71","529835","0.0-9.0-1.0-0.11","6491","1","17","Male","approach_avoid_spark_v1","""event"",""trial"",""time""
""fullscreenenter"",""1"",""1932""
""blur"",""2"",""58143""
""focus"",""3"",""95260""
""blur"",""6"",""119977""
""focus"",""6"",""123114""
","""event"",""trial"",""time""
""blur"",""2"",""58143""
""blur"",""6"",""119977""
","""event"",""trial"",""time""
""focus"",""3"",""95260""
""focus"",""6"",""123114""
","""event"",""trial"",""time""
""fullscreenenter"",""1"",""1932""
","
","","","","","","420.39999997615814","<p> You will have 3 seconds to make each choice. Try to respond before time runs out! </p><p> You will lose 5 points each time you do not make a response. </p>","","0","instructions","","","","","","","","","","",""
"html-keyboard-response","72","530447","0.0-9.0-2.0-0.0","6491","1","17","Male","approach_avoid_spark_v1","""event"",""trial"",""time""
""fullscreenenter"",""1"",""1932""
""blur"",""2"",""58143""
""focus"",""3"",""95260""
""blur"",""6"",""119977""
""focus"",""6"",""123114""
","""event"",""trial"",""time""
""blur"",""2"",""58143""
""blur"",""6"",""119977""
","""event"",""trial"",""time""
""focus"",""3"",""95260""
""focus"",""6"",""123114""
","""event"",""trial"",""time""
""fullscreenenter"",""1"",""1932""
","
","","","","","","null","<div style=""font-size:60px;"">+</div>","null","","fixation","","","","","","","","","","",""
"aa-learning-trial","73","533451","0.0-9.0-2.0-1.0","6491","1","17","Male","approach_avoid_spark_v1","""event"",""trial"",""time""
""fullscreenenter"",""1"",""1932""
""blur"",""2"",""58143""
""focus"",""3"",""95260""
""blur"",""6"",""119977""
""focus"",""6"",""123114""
","""event"",""trial"",""time""
""blur"",""2"",""58143""
""blur"",""6"",""119977""
","""event"",""trial"",""time""
""focus"",""3"",""95260""
""focus"",""6"",""123114""
","""event"",""trial"",""time""
""fullscreenenter"",""1"",""1932""
","
","","","","","","2326.9000000059605","images/goat6.png","","","learning","-4","-4","1","1","goat","animals","1","0","","bad","[-3]"
"html-keyboard-response","74","533952","0.0-9.0-2.0-0.1","6491","1","17","Male","approach_avoid_spark_v1","""event"",""trial"",""time""
""fullscreenenter"",""1"",""1932""
""blur"",""2"",""58143""
""focus"",""3"",""95260""
""blur"",""6"",""119977""
""focus"",""6"",""123114""
","""event"",""trial"",""time""
""blur"",""2"",""58143""
""blur"",""6"",""119977""
","""event"",""trial"",""time""
""focus"",""3"",""95260""
""focus"",""6"",""123114""
","""event"",""trial"",""time""
""fullscreenenter"",""1"",""1932""
","
","","","","","","null","<div style=""font-size:60px;"">+</div>","null","","fixation","","","","","","","","","","",""
"aa-learning-trial","75","536968","0.0-9.0-2.0-1.1","6491","1","17","Male","approach_avoid_spark_v1","""event"",""trial"",""time""
""fullscreenenter"",""1"",""1932""
""blur"",""2"",""58143""
""focus"",""3"",""95260""
""blur"",""6"",""119977""
""focus"",""6"",""123114""
","""event"",""trial"",""time""
""blur"",""2"",""58143""
""blur"",""6"",""119977""
","""event"",""trial"",""time""
""focus"",""3"",""95260""
""focus"",""6"",""123114""
","""event"",""trial"",""time""
""fullscreenenter"",""1"",""1932""
","
","","","","","","1153.2999999821186","images/goat3.png","","","learning","-2","0","0","0","goat","animals","1","0","","bad","[-3]"
"html-keyboard-response","76","537470","0.0-9.0-2.0-0.2","6491","1","17","Male","approach_avoid_spark_v1","""event"",""trial"",""time""
""fullscreenenter"",""1"",""1932""
""blur"",""2"",""58143""
""focus"",""3"",""95260""
""blur"",""6"",""119977""
""focus"",""6"",""123114""
","""event"",""trial"",""time""
""blur"",""2"",""58143""
""blur"",""6"",""119977""
","""event"",""trial"",""time""
""focus"",""3"",""95260""
""focus"",""6"",""123114""
","""event"",""trial"",""time""
""fullscreenenter"",""1"",""1932""
","
","","","","","","null","<div style=""font-size:60px;"">+</div>","null","","fixation","","","","","","","","","","",""
"aa-learning-trial","77","540472","0.0-9.0-2.0-1.2","6491","1","17","Male","approach_avoid_spark_v1","""event"",""trial"",""time""
""fullscreenenter"",""1"",""1932""
""blur"",""2"",""58143""
""focus"",""3"",""95260""
""blur"",""6"",""119977""
""focus"",""6"",""123114""
","""event"",""trial"",""time""
""blur"",""2"",""58143""
""blur"",""6"",""119977""
","""event"",""trial"",""time""
""focus"",""3"",""95260""
""focus"",""6"",""123114""
","""event"",""trial"",""time""
""fullscreenenter"",""1"",""1932""
","
","","","","","","808.5","images/sheep5.png","","","learning","2","2","1","1","sheep","animals","1","0","","good","[6]"
"html-keyboard-response","78","540973","0.0-9.0-2.0-0.3","6491","1","17","Male","approach_avoid_spark_v1","""event"",""trial"",""time""
""fullscreenenter"",""1"",""1932""
""blur"",""2"",""58143""
""focus"",""3"",""95260""
""blur"",""6"",""119977""
""focus"",""6"",""123114""
","""event"",""trial"",""time""
""blur"",""2"",""58143""
""blur"",""6"",""119977""
","""event"",""trial"",""time""
""focus"",""3"",""95260""
""focus"",""6"",""123114""
","""event"",""trial"",""time""
""fullscreenenter"",""1"",""1932""
","
","","","","","","null","<div style=""font-size:60px;"">+</div>","null","","fixation","","","","","","","","","","",""
"aa-learning-trial","79","543975","0.0-9.0-2.0-1.3","6491","1","17","Male","approach_avoid_spark_v1","""event"",""trial"",""time""
""fullscreenenter"",""1"",""1932""
""blur"",""2"",""58143""
""focus"",""3"",""95260""
""blur"",""6"",""119977""
""focus"",""6"",""123114""
","""event"",""trial"",""time""
""blur"",""2"",""58143""
""blur"",""6"",""119977""
","""event"",""trial"",""time""
""focus"",""3"",""95260""
""focus"",""6"",""123114""
","""event"",""trial"",""time""
""fullscreenenter"",""1"",""1932""
","
","","","","","","795.4000000059605","images/goat3.png","","","learning","-2","0","0","0","goat","animals","1","0","","bad","[-3]"
"html-keyboard-response","80","544491","0.0-9.0-2.0-0.4","6491","1","17","Male","approach_avoid_spark_v1","""event"",""trial"",""time""
""fullscreenenter"",""1"",""1932""
""blur"",""2"",""58143""
""focus"",""3"",""95260""
""blur"",""6"",""119977""
""focus"",""6"",""123114""
","""event"",""trial"",""time""
""blur"",""2"",""58143""
""blur"",""6"",""119977""
","""event"",""trial"",""time""
""focus"",""3"",""95260""
""focus"",""6"",""123114""
","""event"",""trial"",""time""
""fullscreenenter"",""1"",""1932""
","
","","","","","","null","<div style=""font-size:60px;"">+</div>","null","","fixation","","","","","","","","","","",""
"aa-learning-trial","81","547492","0.0-9.0-2.0-1.4","6491","1","17","Male","approach_avoid_spark_v1","""event"",""trial"",""time""
""fullscreenenter"",""1"",""1932""
""blur"",""2"",""58143""
""focus"",""3"",""95260""
""blur"",""6"",""119977""
""focus"",""6"",""123114""
","""event"",""trial"",""time""
""blur"",""2"",""58143""
""blur"",""6"",""119977""
","""event"",""trial"",""time""
""focus"",""3"",""95260""
""focus"",""6"",""123114""
","""event"",""trial"",""time""
""fullscreenenter"",""1"",""1932""
","
","","","","","","752.8000000119209","images/goat6.png","","","learning","-4","0","0","0","goat","animals","1","0","","bad","[-3]"
"html-keyboard-response","82","547993","0.0-9.0-2.0-0.5","6491","1","17","Male","approach_avoid_spark_v1","""event"",""trial"",""time""
""fullscreenenter"",""1"",""1932""
""blur"",""2"",""58143""
""focus"",""3"",""95260""
""blur"",""6"",""119977""
""focus"",""6"",""123114""
","""event"",""trial"",""time""
""blur"",""2"",""58143""
""blur"",""6"",""119977""
","""event"",""trial"",""time""
""focus"",""3"",""95260""
""focus"",""6"",""123114""
","""event"",""trial"",""time""
""fullscreenenter"",""1"",""1932""
","
","","","","","","null","<div style=""font-size:60px;"">+</div>","null","","fixation","","","","","","","","","","",""
"aa-learning-trial","83","550995","0.0-9.0-2.0-1.5","6491","1","17","Male","approach_avoid_spark_v1","""event"",""trial"",""time""
""fullscreenenter"",""1"",""1932""
""blur"",""2"",""58143""
""focus"",""3"",""95260""
""blur"",""6"",""119977""
""focus"",""6"",""123114""
","""event"",""trial"",""time""
""blur"",""2"",""58143""
""blur"",""6"",""119977""
","""event"",""trial"",""time""
""focus"",""3"",""95260""
""focus"",""6"",""123114""
","""event"",""trial"",""time""
""fullscreenenter"",""1"",""1932""
","
","","","","","","683.5","images/horse7.png","","","learning","1","1","1","1","horse","animals","1","0","","neutral","0"
"html-keyboard-response","84","551497","0.0-9.0-2.0-0.6","6491","1","17","Male","approach_avoid_spark_v1","""event"",""trial"",""time""
""fullscreenenter"",""1"",""1932""
""blur"",""2"",""58143""
""focus"",""3"",""95260""
""blur"",""6"",""119977""
""focus"",""6"",""123114""
","""event"",""trial"",""time""
""blur"",""2"",""58143""
""blur"",""6"",""119977""
","""event"",""trial"",""time""
""focus"",""3"",""95260""
""focus"",""6"",""123114""
","""event"",""trial"",""time""
""fullscreenenter"",""1"",""1932""
","
","","","","","","null","<div style=""font-size:60px;"">+</div>","null","","fixation","","","","","","","","","","",""
"aa-learning-trial","85","554511","0.0-9.0-2.0-1.6","6491","1","17","Male","approach_avoid_spark_v1","""event"",""trial"",""time""
""fullscreenenter"",""1"",""1932""
""blur"",""2"",""58143""
""focus"",""3"",""95260""
""blur"",""6"",""119977""
""focus"",""6"",""123114""
","""event"",""trial"",""time""
""blur"",""2"",""58143""
""blur"",""6"",""119977""
","""event"",""trial"",""time""
""focus"",""3"",""95260""
""focus"",""6"",""123114""
","""event"",""trial"",""time""
""fullscreenenter"",""1"",""1932""
","
","","","","","","1127.5999999940395","images/sheep5.png","","","learning","6","6","1","1","sheep","animals","1","0","","good","[6]"
"html-keyboard-response","86","555012","0.0-9.0-2.0-0.7","6491","1","17","Male","approach_avoid_spark_v1","""event"",""trial"",""time""
""fullscreenenter"",""1"",""1932""
""blur"",""2"",""58143""
""focus"",""3"",""95260""
""blur"",""6"",""119977""
""focus"",""6"",""123114""
","""event"",""trial"",""time""
""blur"",""2"",""58143""
""blur"",""6"",""119977""
","""event"",""trial"",""time""
""focus"",""3"",""95260""
""focus"",""6"",""123114""
","""event"",""trial"",""time""
""fullscreenenter"",""1"",""1932""
","
","","","","","","null","<div style=""font-size:60px;"">+</div>","null","","fixation","","","","","","","","","","",""
"aa-learning-trial","87","558019","0.0-9.0-2.0-1.7","6491","1","17","Male","approach_avoid_spark_v1","""event"",""trial"",""time""
""fullscreenenter"",""1"",""1932""
""blur"",""2"",""58143""
""focus"",""3"",""95260""
""blur"",""6"",""119977""
""focus"",""6"",""123114""
","""event"",""trial"",""time""
""blur"",""2"",""58143""
""blur"",""6"",""119977""
","""event"",""trial"",""time""
""focus"",""3"",""95260""
""focus"",""6"",""123114""
","""event"",""trial"",""time""
""fullscreenenter"",""1"",""1932""
","
","","","","","","944.6999999880791","images/sheep8.png","","","learning","6","6","1","1","sheep","animals","1","0","","good","[6]"
"html-keyboard-response","88","558526","0.0-9.0-2.0-0.8","6491","1","17","Male","approach_avoid_spark_v1","""event"",""trial"",""time""
""fullscreenenter"",""1"",""1932""
""blur"",""2"",""58143""
""focus"",""3"",""95260""
""blur"",""6"",""119977""
""focus"",""6"",""123114""
","""event"",""trial"",""time""
""blur"",""2"",""58143""
""blur"",""6"",""119977""
","""event"",""trial"",""time""
""focus"",""3"",""95260""
""focus"",""6"",""123114""
","""event"",""trial"",""time""
""fullscreenenter"",""1"",""1932""
","
","","","","","","null","<div style=""font-size:60px;"">+</div>","null","","fixation","","","","","","","","","","",""
"aa-learning-trial","89","561527","0.0-9.0-2.0-1.8","6491","1","17","Male","approach_avoid_spark_v1","""event"",""trial"",""time""
""fullscreenenter"",""1"",""1932""
""blur"",""2"",""58143""
""focus"",""3"",""95260""
""blur"",""6"",""119977""
""focus"",""6"",""123114""
","""event"",""trial"",""time""
""blur"",""2"",""58143""
""blur"",""6"",""119977""
","""event"",""trial"",""time""
""focus"",""3"",""95260""
""focus"",""6"",""123114""
","""event"",""trial"",""time""
""fullscreenenter"",""1"",""1932""
","
","","","","","","676.2000000178814","images/goat8.png","","","learning","-2","0","0","0","goat","animals","1","0","","bad","[-3]"
"html-keyboard-response","90","562029","0.0-9.0-2.0-0.9","6491","1","17","Male","approach_avoid_spark_v1","""event"",""trial"",""time""
""fullscreenenter"",""1"",""1932""
""blur"",""2"",""58143""
""focus"",""3"",""95260""
""blur"",""6"",""119977""
""focus"",""6"",""123114""
","""event"",""trial"",""time""
""blur"",""2"",""58143""
""blur"",""6"",""119977""
","""event"",""trial"",""time""
""focus"",""3"",""95260""
""focus"",""6"",""123114""
","""event"",""trial"",""time""
""fullscreenenter"",""1"",""1932""
","
","","","","","","null","<div style=""font-size:60px;"">+</div>","null","","fixation","","","","","","","","","","",""
"aa-learning-trial","91","565030","0.0-9.0-2.0-1.9","6491","1","17","Male","approach_avoid_spark_v1","""event"",""trial"",""time""
""fullscreenenter"",""1"",""1932""
""blur"",""2"",""58143""
""focus"",""3"",""95260""
""blur"",""6"",""119977""
""focus"",""6"",""123114""
","""event"",""trial"",""time""
""blur"",""2"",""58143""
""blur"",""6"",""119977""
","""event"",""trial"",""time""
""focus"",""3"",""95260""
""focus"",""6"",""123114""
","""event"",""trial"",""time""
""fullscreenenter"",""1"",""1932""
","
","","","","","","663.1999999880791","images/horse6.png","","","learning","[-1]","-1","1","1","horse","animals","1","0","","neutral","0"
"html-keyboard-response","92","565531","0.0-9.0-2.0-0.10","6491","1","17","Male","approach_avoid_spark_v1","""event"",""trial"",""time""
""fullscreenenter"",""1"",""1932""
""blur"",""2"",""58143""
""focus"",""3"",""95260""
""blur"",""6"",""119977""
""focus"",""6"",""123114""
","""event"",""trial"",""time""
""blur"",""2"",""58143""
""blur"",""6"",""119977""
","""event"",""trial"",""time""
""focus"",""3"",""95260""
""focus"",""6"",""123114""
","""event"",""trial"",""time""
""fullscreenenter"",""1"",""1932""
","
","","","","","","null","<div style=""font-size:60px;"">+</div>","null","","fixation","","","","","","","","","","",""
"aa-learning-trial","93","568533","0.0-9.0-2.0-1.10","6491","1","17","Male","approach_avoid_spark_v1","""event"",""trial"",""time""
""fullscreenenter"",""1"",""1932""
""blur"",""2"",""58143""
""focus"",""3"",""95260""
""blur"",""6"",""119977""
""focus"",""6"",""123114""
","""event"",""trial"",""time""
""blur"",""2"",""58143""
""blur"",""6"",""119977""
","""event"",""trial"",""time""
""focus"",""3"",""95260""
""focus"",""6"",""123114""
","""event"",""trial"",""time""
""fullscreenenter"",""1"",""1932""
","
","","","","","","1062.699999988079","images/sheep3.png","","","learning","7","7","1","1","sheep","animals","1","0","","good","[6]"
"html-keyboard-response","94","569034","0.0-9.0-2.0-0.11","6491","1","17","Male","approach_avoid_spark_v1","""event"",""trial"",""time""
""fullscreenenter"",""1"",""1932""
""blur"",""2"",""58143""
""focus"",""3"",""95260""
""blur"",""6"",""119977""
""focus"",""6"",""123114""
","""event"",""trial"",""time""
""blur"",""2"",""58143""
""blur"",""6"",""119977""
","""event"",""trial"",""time""
""focus"",""3"",""95260""
""focus"",""6"",""123114""
","""event"",""trial"",""time""
""fullscreenenter"",""1"",""1932""
","
","","","","","","null","<div style=""font-size:60px;"">+</div>","null","","fixation","","","","","","","","","","",""
"aa-learning-trial","95","572035","0.0-9.0-2.0-1.11","6491","1","17","Male","approach_avoid_spark_v1","""event"",""trial"",""time""
""fullscreenenter"",""1"",""1932""
""blur"",""2"",""58143""
""focus"",""3"",""95260""
""blur"",""6"",""119977""
""focus"",""6"",""123114""
","""event"",""trial"",""time""
""blur"",""2"",""58143""
""blur"",""6"",""119977""
","""event"",""trial"",""time""
""focus"",""3"",""95260""
""focus"",""6"",""123114""
","""event"",""trial"",""time""
""fullscreenenter"",""1"",""1932""
","
","","","","","","866.9000000059605","images/horse1.png","","","learning","1","1","1","1","horse","animals","1","0","","neutral","0"
"html-keyboard-response","96","572536","0.0-9.0-2.0-0.12","6491","1","17","Male","approach_avoid_spark_v1","""event"",""trial"",""time""
""fullscreenenter"",""1"",""1932""
""blur"",""2"",""58143""
""focus"",""3"",""95260""
""blur"",""6"",""119977""
""focus"",""6"",""123114""
","""event"",""trial"",""time""
""blur"",""2"",""58143""
""blur"",""6"",""119977""
","""event"",""trial"",""time""
""focus"",""3"",""95260""
""focus"",""6"",""123114""
","""event"",""trial"",""time""
""fullscreenenter"",""1"",""1932""
","
","","","","","","null","<div style=""font-size:60px;"">+</div>","null","","fixation","","","","","","","","","","",""
"aa-learning-trial","97","575538","0.0-9.0-2.0-1.12","6491","1","17","Male","approach_avoid_spark_v1","""event"",""trial"",""time""
""fullscreenenter"",""1"",""1932""
""blur"",""2"",""58143""
""focus"",""3"",""95260""
""blur"",""6"",""119977""
""focus"",""6"",""123114""
","""event"",""trial"",""time""
""blur"",""2"",""58143""
""blur"",""6"",""119977""
","""event"",""trial"",""time""
""focus"",""3"",""95260""
""focus"",""6"",""123114""
","""event"",""trial"",""time""
""fullscreenenter"",""1"",""1932""
","
","","","","","","652.6999999880791","images/sheep3.png","","","learning","5","5","1","1","sheep","animals","1","0","","good","[6]"
"html-keyboard-response","98","576038","0.0-9.0-2.0-0.13","6491","1","17","Male","approach_avoid_spark_v1","""event"",""trial"",""time""
""fullscreenenter"",""1"",""1932""
""blur"",""2"",""58143""
""focus"",""3"",""95260""
""blur"",""6"",""119977""
""focus"",""6"",""123114""
","""event"",""trial"",""time""
""blur"",""2"",""58143""
""blur"",""6"",""119977""
","""event"",""trial"",""time""
""focus"",""3"",""95260""
""focus"",""6"",""123114""
","""event"",""trial"",""time""
""fullscreenenter"",""1"",""1932""
","
","","","","","","null","<div style=""font-size:60px;"">+</div>","null","","fixation","","","","","","","","","","",""
"aa-learning-trial","99","579040","0.0-9.0-2.0-1.13","6491","1","17","Male","approach_avoid_spark_v1","""event"",""trial"",""time""
""fullscreenenter"",""1"",""1932""
""blur"",""2"",""58143""
""focus"",""3"",""95260""
""blur"",""6"",""119977""
""focus"",""6"",""123114""
","""event"",""trial"",""time""
""blur"",""2"",""58143""
""blur"",""6"",""119977""
","""event"",""trial"",""time""
""focus"",""3"",""95260""
""focus"",""6"",""123114""
","""event"",""trial"",""time""
""fullscreenenter"",""1"",""1932""
","
","","","","","","425.19999998807907","images/horse1.png","","","learning","4","4","1","1","horse","animals","1","0","","neutral","0"
"html-keyboard-response","100","579541","0.0-9.0-2.0-0.14","6491","1","17","Male","approach_avoid_spark_v1","""event"",""trial"",""time""
""fullscreenenter"",""1"",""1932""
""blur"",""2"",""58143""
""focus"",""3"",""95260""
""blur"",""6"",""119977""
""focus"",""6"",""123114""
","""event"",""trial"",""time""
""blur"",""2"",""58143""
""blur"",""6"",""119977""
","""event"",""trial"",""time""
""focus"",""3"",""95260""
""focus"",""6"",""123114""
","""event"",""trial"",""time""
""fullscreenenter"",""1"",""1932""
","
","","","","","","null","<div style=""font-size:60px;"">+</div>","null","","fixation","","","","","","","","","","",""
"aa-learning-trial","101","582543","0.0-9.0-2.0-1.14","6491","1","17","Male","approach_avoid_spark_v1","""event"",""trial"",""time""
""fullscreenenter"",""1"",""1932""
""blur"",""2"",""58143""
""focus"",""3"",""95260""
""blur"",""6"",""119977""
""focus"",""6"",""123114""
","""event"",""trial"",""time""
""blur"",""2"",""58143""
""blur"",""6"",""119977""
","""event"",""trial"",""time""
""focus"",""3"",""95260""
""focus"",""6"",""123114""
","""event"",""trial"",""time""
""fullscreenenter"",""1"",""1932""
","
","","","","","","540.5","images/horse7.png","","","learning","1","1","1","1","horse","animals","1","0","","neutral","0"
"html-keyboard-response","102","583044","0.0-9.0-2.0-0.15","6491","1","17","Male","approach_avoid_spark_v1","""event"",""trial"",""time""
""fullscreenenter"",""1"",""1932""
""blur"",""2"",""58143""
""focus"",""3"",""95260""
""blur"",""6"",""119977""
""focus"",""6"",""123114""
","""event"",""trial"",""time""
""blur"",""2"",""58143""
""blur"",""6"",""119977""
","""event"",""trial"",""time""
""focus"",""3"",""95260""
""focus"",""6"",""123114""
","""event"",""trial"",""time""
""fullscreenenter"",""1"",""1932""
","
","","","","","","null","<div style=""font-size:60px;"">+</div>","null","","fixation","","","","","","","","","","",""
"aa-learning-trial","103","586046","0.0-9.0-2.0-1.15","6491","1","17","Male","approach_avoid_spark_v1","""event"",""trial"",""time""
""fullscreenenter"",""1"",""1932""
""blur"",""2"",""58143""
""focus"",""3"",""95260""
""blur"",""6"",""119977""
""focus"",""6"",""123114""
","""event"",""trial"",""time""
""blur"",""2"",""58143""
""blur"",""6"",""119977""
","""event"",""trial"",""time""
""focus"",""3"",""95260""
""focus"",""6"",""123114""
","""event"",""trial"",""time""
""fullscreenenter"",""1"",""1932""
","
","","","","","","555.5999999940395","images/horse1.png","","","learning","2","2","1","1","horse","animals","1","0","","neutral","0"
"html-keyboard-response","104","586561","0.0-9.0-2.0-0.16","6491","1","17","Male","approach_avoid_spark_v1","""event"",""trial"",""time""
""fullscreenenter"",""1"",""1932""
""blur"",""2"",""58143""
""focus"",""3"",""95260""
""blur"",""6"",""119977""
""focus"",""6"",""123114""
","""event"",""trial"",""time""
""blur"",""2"",""58143""
""blur"",""6"",""119977""
","""event"",""trial"",""time""
""focus"",""3"",""95260""
""focus"",""6"",""123114""
","""event"",""trial"",""time""
""fullscreenenter"",""1"",""1932""
","
","","","","","","null","<div style=""font-size:60px;"">+</div>","null","","fixation","","","","","","","","","","",""
"aa-learning-trial","105","589563","0.0-9.0-2.0-1.16","6491","1","17","Male","approach_avoid_spark_v1","""event"",""trial"",""time""
""fullscreenenter"",""1"",""1932""
""blur"",""2"",""58143""
""focus"",""3"",""95260""
""blur"",""6"",""119977""
""focus"",""6"",""123114""
","""event"",""trial"",""time""
""blur"",""2"",""58143""
""blur"",""6"",""119977""
","""event"",""trial"",""time""
""focus"",""3"",""95260""
""focus"",""6"",""123114""
","""event"",""trial"",""time""
""fullscreenenter"",""1"",""1932""
","
","","","","","","625.2000000178814","images/sheep8.png","","","learning","8","8","1","1","sheep","animals","1","0","","good","[6]"
"html-keyboard-response","106","590064","0.0-9.0-2.0-0.17","6491","1","17","Male","approach_avoid_spark_v1","""event"",""trial"",""time""
""fullscreenenter"",""1"",""1932""
""blur"",""2"",""58143""
""focus"",""3"",""95260""
""blur"",""6"",""119977""
""focus"",""6"",""123114""
","""event"",""trial"",""time""
""blur"",""2"",""58143""
""blur"",""6"",""119977""
","""event"",""trial"",""time""
""focus"",""3"",""95260""
""focus"",""6"",""123114""
","""event"",""trial"",""time""
""fullscreenenter"",""1"",""1932""
","
","","","","","","null","<div style=""font-size:60px;"">+</div>","null","","fixation","","","","","","","","","","",""
"aa-learning-trial","107","593066","0.0-9.0-2.0-1.17","6491","1","17","Male","approach_avoid_spark_v1","""event"",""trial"",""time""
""fullscreenenter"",""1"",""1932""
""blur"",""2"",""58143""
""focus"",""3"",""95260""
""blur"",""6"",""119977""
""focus"",""6"",""123114""
","""event"",""trial"",""time""
""blur"",""2"",""58143""
""blur"",""6"",""119977""
","""event"",""trial"",""time""
""focus"",""3"",""95260""
""focus"",""6"",""123114""
","""event"",""trial"",""time""
""fullscreenenter"",""1"",""1932""
","
","","","","","","555.5999999940395","images/goat1.png","","","learning","-5","0","0","0","goat","animals","1","0","","bad","[-3]"
"html-keyboard-response","108","593567","0.0-9.0-2.0-0.18","6491","1","17","Male","approach_avoid_spark_v1","""event"",""trial"",""time""
""fullscreenenter"",""1"",""1932""
""blur"",""2"",""58143""
""focus"",""3"",""95260""
""blur"",""6"",""119977""
""focus"",""6"",""123114""
","""event"",""trial"",""time""
""blur"",""2"",""58143""
""blur"",""6"",""119977""
","""event"",""trial"",""time""
""focus"",""3"",""95260""
""focus"",""6"",""123114""
","""event"",""trial"",""time""
""fullscreenenter"",""1"",""1932""
","
","","","","","","null","<div style=""font-size:60px;"">+</div>","null","","fixation","","","","","","","","","","",""
"aa-learning-trial","109","596569","0.0-9.0-2.0-1.18","6491","1","17","Male","approach_avoid_spark_v1","""event"",""trial"",""time""
""fullscreenenter"",""1"",""1932""
""blur"",""2"",""58143""
""focus"",""3"",""95260""
""blur"",""6"",""119977""
""focus"",""6"",""123114""
","""event"",""trial"",""time""
""blur"",""2"",""58143""
""blur"",""6"",""119977""
","""event"",""trial"",""time""
""focus"",""3"",""95260""
""focus"",""6"",""123114""
","""event"",""trial"",""time""
""fullscreenenter"",""1"",""1932""
","
","","","","","","1244","images/horse5.png","","","learning","-1","0","0","0","horse","animals","1","0","","neutral","0"
"html-keyboard-response","110","597070","0.0-9.0-2.0-0.19","6491","1","17","Male","approach_avoid_spark_v1","""event"",""trial"",""time""
""fullscreenenter"",""1"",""1932""
""blur"",""2"",""58143""
""focus"",""3"",""95260""
""blur"",""6"",""119977""
""focus"",""6"",""123114""
","""event"",""trial"",""time""
""blur"",""2"",""58143""
""blur"",""6"",""119977""
","""event"",""trial"",""time""
""focus"",""3"",""95260""
""focus"",""6"",""123114""
","""event"",""trial"",""time""
""fullscreenenter"",""1"",""1932""
","
","","","","","","null","<div style=""font-size:60px;"">+</div>","null","","fixation","","","","","","","","","","",""
"aa-learning-trial","111","600072","0.0-9.0-2.0-1.19","6491","1","17","Male","approach_avoid_spark_v1","""event"",""trial"",""time""
""fullscreenenter"",""1"",""1932""
""blur"",""2"",""58143""
""focus"",""3"",""95260""
""blur"",""6"",""119977""
""focus"",""6"",""123114""
","""event"",""trial"",""time""
""blur"",""2"",""58143""
""blur"",""6"",""119977""
","""event"",""trial"",""time""
""focus"",""3"",""95260""
""focus"",""6"",""123114""
","""event"",""trial"",""time""
""fullscreenenter"",""1"",""1932""
","
","","","","","","542.0999999940395","images/goat4.png","","","learning","2","2","1","1","goat","animals","1","0","","bad","[-3]"
"html-keyboard-response","112","600574","0.0-9.0-2.0-0.20","6491","1","17","Male","approach_avoid_spark_v1","""event"",""trial"",""time""
""fullscreenenter"",""1"",""1932""
""blur"",""2"",""58143""
""focus"",""3"",""95260""
""blur"",""6"",""119977""
""focus"",""6"",""123114""
","""event"",""trial"",""time""
""blur"",""2"",""58143""
""blur"",""6"",""119977""
","""event"",""trial"",""time""
""focus"",""3"",""95260""
""focus"",""6"",""123114""
","""event"",""trial"",""time""
""fullscreenenter"",""1"",""1932""
","
","","","","","","null","<div style=""font-size:60px;"">+</div>","null","","fixation","","","","","","","","","","",""
"aa-learning-trial","113","603575","0.0-9.0-2.0-1.20","6491","1","17","Male","approach_avoid_spark_v1","""event"",""trial"",""time""
""fullscreenenter"",""1"",""1932""
""blur"",""2"",""58143""
""focus"",""3"",""95260""
""blur"",""6"",""119977""
""focus"",""6"",""123114""
","""event"",""trial"",""time""
""blur"",""2"",""58143""
""blur"",""6"",""119977""
","""event"",""trial"",""time""
""focus"",""3"",""95260""
""focus"",""6"",""123114""
","""event"",""trial"",""time""
""fullscreenenter"",""1"",""1932""
","
","","","","","","471.2000000178814","images/horse7.png","","","learning","[-1]","-1","1","1","horse","animals","1","0","","neutral","0"
"html-keyboard-response","114","604076","0.0-9.0-2.0-0.21","6491","1","17","Male","approach_avoid_spark_v1","""event"",""trial"",""time""
""fullscreenenter"",""1"",""1932""
""blur"",""2"",""58143""
""focus"",""3"",""95260""
""blur"",""6"",""119977""
""focus"",""6"",""123114""
","""event"",""trial"",""time""
""blur"",""2"",""58143""
""blur"",""6"",""119977""
","""event"",""trial"",""time""
""focus"",""3"",""95260""
""focus"",""6"",""123114""
","""event"",""trial"",""time""
""fullscreenenter"",""1"",""1932""
","
","","","","","","null","<div style=""font-size:60px;"">+</div>","null","","fixation","","","","","","","","","","",""
"aa-learning-trial","115","607078","0.0-9.0-2.0-1.21","6491","1","17","Male","approach_avoid_spark_v1","""event"",""trial"",""time""
""fullscreenenter"",""1"",""1932""
""blur"",""2"",""58143""
""focus"",""3"",""95260""
""blur"",""6"",""119977""
""focus"",""6"",""123114""
","""event"",""trial"",""time""
""blur"",""2"",""58143""
""blur"",""6"",""119977""
","""event"",""trial"",""time""
""focus"",""3"",""95260""
""focus"",""6"",""123114""
","""event"",""trial"",""time""
""fullscreenenter"",""1"",""1932""
","
","","","","","","2320.199999988079","images/goat6.png","","","learning","-1","-1","1","1","goat","animals","1","0","","bad","[-3]"
"html-keyboard-response","116","607580","0.0-9.0-2.0-0.22","6491","1","17","Male","approach_avoid_spark_v1","""event"",""trial"",""time""
""fullscreenenter"",""1"",""1932""
""blur"",""2"",""58143""
""focus"",""3"",""95260""
""blur"",""6"",""119977""
""focus"",""6"",""123114""
","""event"",""trial"",""time""
""blur"",""2"",""58143""
""blur"",""6"",""119977""
","""event"",""trial"",""time""
""focus"",""3"",""95260""
""focus"",""6"",""123114""
","""event"",""trial"",""time""
""fullscreenenter"",""1"",""1932""
","
","","","","","","null","<div style=""font-size:60px;"">+</div>","null","","fixation","","","","","","","","","","",""
"aa-learning-trial","117","610590","0.0-9.0-2.0-1.22","6491","1","17","Male","approach_avoid_spark_v1","""event"",""trial"",""time""
""fullscreenenter"",""1"",""1932""
""blur"",""2"",""58143""
""focus"",""3"",""95260""
""blur"",""6"",""119977""
""focus"",""6"",""123114""
","""event"",""trial"",""time""
""blur"",""2"",""58143""
""blur"",""6"",""119977""
","""event"",""trial"",""time""
""focus"",""3"",""95260""
""focus"",""6"",""123114""
","""event"",""trial"",""time""
""fullscreenenter"",""1"",""1932""
","
","","","","","","903.2000000178814","images/sheep2.png","","","learning","6","6","1","1","sheep","animals","1","0","","good","[6]"
"html-keyboard-response","118","611091","0.0-9.0-2.0-0.23","6491","1","17","Male","approach_avoid_spark_v1","""event"",""trial"",""time""
""fullscreenenter"",""1"",""1932""
""blur"",""2"",""58143""
""focus"",""3"",""95260""
""blur"",""6"",""119977""
""focus"",""6"",""123114""
","""event"",""trial"",""time""
""blur"",""2"",""58143""
""blur"",""6"",""119977""
","""event"",""trial"",""time""
""focus"",""3"",""95260""
""focus"",""6"",""123114""
","""event"",""trial"",""time""
""fullscreenenter"",""1"",""1932""
","
","","","","","","null","<div style=""font-size:60px;"">+</div>","null","","fixation","","","","","","","","","","",""
"aa-learning-trial","119","614092","0.0-9.0-2.0-1.23","6491","1","17","Male","approach_avoid_spark_v1","""event"",""trial"",""time""
""fullscreenenter"",""1"",""1932""
""blur"",""2"",""58143""
""focus"",""3"",""95260""
""blur"",""6"",""119977""
""focus"",""6"",""123114""
","""event"",""trial"",""time""
""blur"",""2"",""58143""
""blur"",""6"",""119977""
","""event"",""trial"",""time""
""focus"",""3"",""95260""
""focus"",""6"",""123114""
","""event"",""trial"",""time""
""fullscreenenter"",""1"",""1932""
","
","","","","","","796.4000000059605","images/horse6.png","","","learning","-1","0","0","0","horse","animals","1","0","","neutral","0"
"html-keyboard-response","120","614593","0.0-9.0-2.0-0.24","6491","1","17","Male","approach_avoid_spark_v1","""event"",""trial"",""time""
""fullscreenenter"",""1"",""1932""
""blur"",""2"",""58143""
""focus"",""3"",""95260""
""blur"",""6"",""119977""
""focus"",""6"",""123114""
","""event"",""trial"",""time""
""blur"",""2"",""58143""
""blur"",""6"",""119977""
","""event"",""trial"",""time""
""focus"",""3"",""95260""
""focus"",""6"",""123114""
","""event"",""trial"",""time""
""fullscreenenter"",""1"",""1932""
","
","","","","","","null","<div style=""font-size:60px;"">+</div>","null","","fixation","","","","","","","","","","",""
"aa-learning-trial","121","617595","0.0-9.0-2.0-1.24","6491","1","17","Male","approach_avoid_spark_v1","""event"",""trial"",""time""
""fullscreenenter"",""1"",""1932""
""blur"",""2"",""58143""
""focus"",""3"",""95260""
""blur"",""6"",""119977""
""focus"",""6"",""123114""
","""event"",""trial"",""time""
""blur"",""2"",""58143""
""blur"",""6"",""119977""
","""event"",""trial"",""time""
""focus"",""3"",""95260""
""focus"",""6"",""123114""
","""event"",""trial"",""time""
""fullscreenenter"",""1"",""1932""
","
","","","","","","840.8000000119209","images/horse4.png","","","learning","-1","0","0","0","horse","animals","1","0","","neutral","0"
"html-keyboard-response","122","618096","0.0-9.0-2.0-0.25","6491","1","17","Male","approach_avoid_spark_v1","""event"",""trial"",""time""
""fullscreenenter"",""1"",""1932""
""blur"",""2"",""58143""
""focus"",""3"",""95260""
""blur"",""6"",""119977""
""focus"",""6"",""123114""
","""event"",""trial"",""time""
""blur"",""2"",""58143""
""blur"",""6"",""119977""
","""event"",""trial"",""time""
""focus"",""3"",""95260""
""focus"",""6"",""123114""
","""event"",""trial"",""time""
""fullscreenenter"",""1"",""1932""
","
","","","","","","null","<div style=""font-size:60px;"">+</div>","null","","fixation","","","","","","","","","","",""
"aa-learning-trial","123","621097","0.0-9.0-2.0-1.25","6491","1","17","Male","approach_avoid_spark_v1","""event"",""trial"",""time""
""fullscreenenter"",""1"",""1932""
""blur"",""2"",""58143""
""focus"",""3"",""95260""
""blur"",""6"",""119977""
""focus"",""6"",""123114""
","""event"",""trial"",""time""
""blur"",""2"",""58143""
""blur"",""6"",""119977""
","""event"",""trial"",""time""
""focus"",""3"",""95260""
""focus"",""6"",""123114""
","""event"",""trial"",""time""
""fullscreenenter"",""1"",""1932""
","
","","","","","","899.4000000059605","images/horse7.png","","","learning","2","2","1","1","horse","animals","1","0","","neutral","0"
"html-keyboard-response","124","621598","0.0-9.0-2.0-0.26","6491","1","17","Male","approach_avoid_spark_v1","""event"",""trial"",""time""
""fullscreenenter"",""1"",""1932""
""blur"",""2"",""58143""
""focus"",""3"",""95260""
""blur"",""6"",""119977""
""focus"",""6"",""123114""
","""event"",""trial"",""time""
""blur"",""2"",""58143""
""blur"",""6"",""119977""
","""event"",""trial"",""time""
""focus"",""3"",""95260""
""focus"",""6"",""123114""
","""event"",""trial"",""time""
""fullscreenenter"",""1"",""1932""
","
","","","","","","null","<div style=""font-size:60px;"">+</div>","null","","fixation","","","","","","","","","","",""
"aa-learning-trial","125","624600","0.0-9.0-2.0-1.26","6491","1","17","Male","approach_avoid_spark_v1","""event"",""trial"",""time""
""fullscreenenter"",""1"",""1932""
""blur"",""2"",""58143""
""focus"",""3"",""95260""
""blur"",""6"",""119977""
""focus"",""6"",""123114""
","""event"",""trial"",""time""
""blur"",""2"",""58143""
""blur"",""6"",""119977""
","""event"",""trial"",""time""
""focus"",""3"",""95260""
""focus"",""6"",""123114""
","""event"",""trial"",""time""
""fullscreenenter"",""1"",""1932""
","
","","","","","","614.3000000119209","images/horse7.png","","","learning","2","2","1","1","horse","animals","1","0","","neutral","0"
"html-keyboard-response","126","625101","0.0-9.0-2.0-0.27","6491","1","17","Male","approach_avoid_spark_v1","""event"",""trial"",""time""
""fullscreenenter"",""1"",""1932""
""blur"",""2"",""58143""
""focus"",""3"",""95260""
""blur"",""6"",""119977""
""focus"",""6"",""123114""
","""event"",""trial"",""time""
""blur"",""2"",""58143""
""blur"",""6"",""119977""
","""event"",""trial"",""time""
""focus"",""3"",""95260""
""focus"",""6"",""123114""
","""event"",""trial"",""time""
""fullscreenenter"",""1"",""1932""
","
","","","","","","null","<div style=""font-size:60px;"">+</div>","null","","fixation","","","","","","","","","","",""
"aa-learning-trial","127","628104","0.0-9.0-2.0-1.27","6491","1","17","Male","approach_avoid_spark_v1","""event"",""trial"",""time""
""fullscreenenter"",""1"",""1932""
""blur"",""2"",""58143""
""focus"",""3"",""95260""
""blur"",""6"",""119977""
""focus"",""6"",""123114""
","""event"",""trial"",""time""
""blur"",""2"",""58143""
""blur"",""6"",""119977""
","""event"",""trial"",""time""
""focus"",""3"",""95260""
""focus"",""6"",""123114""
","""event"",""trial"",""time""
""fullscreenenter"",""1"",""1932""
","
","","","","","","1428.8999999761581","images/goat3.png","","","learning","-4","0","0","0","goat","animals","1","0","","bad","[-3]"
"html-keyboard-response","128","628604","0.0-9.0-2.0-0.28","6491","1","17","Male","approach_avoid_spark_v1","""event"",""trial"",""time""
""fullscreenenter"",""1"",""1932""
""blur"",""2"",""58143""
""focus"",""3"",""95260""
""blur"",""6"",""119977""
""focus"",""6"",""123114""
","""event"",""trial"",""time""
""blur"",""2"",""58143""
""blur"",""6"",""119977""
","""event"",""trial"",""time""
""focus"",""3"",""95260""
""focus"",""6"",""123114""
","""event"",""trial"",""time""
""fullscreenenter"",""1"",""1932""
","
","","","","","","null","<div style=""font-size:60px;"">+</div>","null","","fixation","","","","","","","","","","",""
"aa-learning-trial","129","631606","0.0-9.0-2.0-1.28","6491","1","17","Male","approach_avoid_spark_v1","""event"",""trial"",""time""
""fullscreenenter"",""1"",""1932""
""blur"",""2"",""58143""
""focus"",""3"",""95260""
""blur"",""6"",""119977""
""focus"",""6"",""123114""
","""event"",""trial"",""time""
""blur"",""2"",""58143""
""blur"",""6"",""119977""
","""event"",""trial"",""time""
""focus"",""3"",""95260""
""focus"",""6"",""123114""
","""event"",""trial"",""time""
""fullscreenenter"",""1"",""1932""
","
","","","","","","927.8000000119209","images/horse6.png","","","learning","-1","0","0","0","horse","animals","1","0","","neutral","0"
"html-keyboard-response","130","632107","0.0-9.0-2.0-0.29","6491","1","17","Male","approach_avoid_spark_v1","""event"",""trial"",""time""
""fullscreenenter"",""1"",""1932""
""blur"",""2"",""58143""
""focus"",""3"",""95260""
""blur"",""6"",""119977""
""focus"",""6"",""123114""
","""event"",""trial"",""time""
""blur"",""2"",""58143""
""blur"",""6"",""119977""
","""event"",""trial"",""time""
""focus"",""3"",""95260""
""focus"",""6"",""123114""
","""event"",""trial"",""time""
""fullscreenenter"",""1"",""1932""
","
","","","","","","null","<div style=""font-size:60px;"">+</div>","null","","fixation","","","","","","","","","","",""
"aa-learning-trial","131","635109","0.0-9.0-2.0-1.29","6491","1","17","Male","approach_avoid_spark_v1","""event"",""trial"",""time""
""fullscreenenter"",""1"",""1932""
""blur"",""2"",""58143""
""focus"",""3"",""95260""
""blur"",""6"",""119977""
""focus"",""6"",""123114""
","""event"",""trial"",""time""
""blur"",""2"",""58143""
""blur"",""6"",""119977""
","""event"",""trial"",""time""
""focus"",""3"",""95260""
""focus"",""6"",""123114""
","""event"",""trial"",""time""
""fullscreenenter"",""1"",""1932""
","
","","","","","","560.6000000238419","images/horse1.png","","","learning","3","3","1","1","horse","animals","1","0","","neutral","0"
"html-keyboard-response","132","635610","0.0-9.0-2.0-0.30","6491","1","17","Male","approach_avoid_spark_v1","""event"",""trial"",""time""
""fullscreenenter"",""1"",""1932""
""blur"",""2"",""58143""
""focus"",""3"",""95260""
""blur"",""6"",""119977""
""focus"",""6"",""123114""
","""event"",""trial"",""time""
""blur"",""2"",""58143""
""blur"",""6"",""119977""
","""event"",""trial"",""time""
""focus"",""3"",""95260""
""focus"",""6"",""123114""
","""event"",""trial"",""time""
""fullscreenenter"",""1"",""1932""
","
","","","","","","null","<div style=""font-size:60px;"">+</div>","null","","fixation","","","","","","","","","","",""
"aa-learning-trial","133","638612","0.0-9.0-2.0-1.30","6491","1","17","Male","approach_avoid_spark_v1","""event"",""trial"",""time""
""fullscreenenter"",""1"",""1932""
""blur"",""2"",""58143""
""focus"",""3"",""95260""
""blur"",""6"",""119977""
""focus"",""6"",""123114""
","""event"",""trial"",""time""
""blur"",""2"",""58143""
""blur"",""6"",""119977""
","""event"",""trial"",""time""
""focus"",""3"",""95260""
""focus"",""6"",""123114""
","""event"",""trial"",""time""
""fullscreenenter"",""1"",""1932""
","
","","","","","","1073.300000011921","images/goat8.png","","","learning","2","0","0","0","goat","animals","1","0","","bad","[-3]"
"html-keyboard-response","134","639114","0.0-9.0-2.0-0.31","6491","1","17","Male","approach_avoid_spark_v1","""event"",""trial"",""time""
""fullscreenenter"",""1"",""1932""
""blur"",""2"",""58143""
""focus"",""3"",""95260""
""blur"",""6"",""119977""
""focus"",""6"",""123114""
","""event"",""trial"",""time""
""blur"",""2"",""58143""
""blur"",""6"",""119977""
","""event"",""trial"",""time""
""focus"",""3"",""95260""
""focus"",""6"",""123114""
","""event"",""trial"",""time""
""fullscreenenter"",""1"",""1932""
","
","","","","","","null","<div style=""font-size:60px;"">+</div>","null","","fixation","","","","","","","","","","",""
"aa-learning-trial","135","642115","0.0-9.0-2.0-1.31","6491","1","17","Male","approach_avoid_spark_v1","""event"",""trial"",""time""
""fullscreenenter"",""1"",""1932""
""blur"",""2"",""58143""
""focus"",""3"",""95260""
""blur"",""6"",""119977""
""focus"",""6"",""123114""
","""event"",""trial"",""time""
""blur"",""2"",""58143""
""blur"",""6"",""119977""
","""event"",""trial"",""time""
""focus"",""3"",""95260""
""focus"",""6"",""123114""
","""event"",""trial"",""time""
""fullscreenenter"",""1"",""1932""
","
","","","","","","475.30000001192093","images/horse1.png","","","learning","[-1]","-1","1","1","horse","animals","1","0","","neutral","0"
"html-keyboard-response","136","642616","0.0-9.0-2.0-0.32","6491","1","17","Male","approach_avoid_spark_v1","""event"",""trial"",""time""
""fullscreenenter"",""1"",""1932""
""blur"",""2"",""58143""
""focus"",""3"",""95260""
""blur"",""6"",""119977""
""focus"",""6"",""123114""
","""event"",""trial"",""time""
""blur"",""2"",""58143""
""blur"",""6"",""119977""
","""event"",""trial"",""time""
""focus"",""3"",""95260""
""focus"",""6"",""123114""
","""event"",""trial"",""time""
""fullscreenenter"",""1"",""1932""
","
","","","","","","null","<div style=""font-size:60px;"">+</div>","null","","fixation","","","","","","","","","","",""
"aa-learning-trial","137","645618","0.0-9.0-2.0-1.32","6491","1","17","Male","approach_avoid_spark_v1","""event"",""trial"",""time""
""fullscreenenter"",""1"",""1932""
""blur"",""2"",""58143""
""focus"",""3"",""95260""
""blur"",""6"",""119977""
""focus"",""6"",""123114""
","""event"",""trial"",""time""
""blur"",""2"",""58143""
""blur"",""6"",""119977""
","""event"",""trial"",""time""
""focus"",""3"",""95260""
""focus"",""6"",""123114""
","""event"",""trial"",""time""
""fullscreenenter"",""1"",""1932""
","
","","","","","","717.0999999940395","images/sheep5.png","","","learning","6","6","1","1","sheep","animals","1","0","","good","[6]"
"html-keyboard-response","138","646119","0.0-9.0-2.0-0.33","6491","1","17","Male","approach_avoid_spark_v1","""event"",""trial"",""time""
""fullscreenenter"",""1"",""1932""
""blur"",""2"",""58143""
""focus"",""3"",""95260""
""blur"",""6"",""119977""
""focus"",""6"",""123114""
","""event"",""trial"",""time""
""blur"",""2"",""58143""
""blur"",""6"",""119977""
","""event"",""trial"",""time""
""focus"",""3"",""95260""
""focus"",""6"",""123114""
","""event"",""trial"",""time""
""fullscreenenter"",""1"",""1932""
","
","","","","","","null","<div style=""font-size:60px;"">+</div>","null","","fixation","","","","","","","","","","",""
"aa-learning-trial","139","649120","0.0-9.0-2.0-1.33","6491","1","17","Male","approach_avoid_spark_v1","""event"",""trial"",""time""
""fullscreenenter"",""1"",""1932""
""blur"",""2"",""58143""
""focus"",""3"",""95260""
""blur"",""6"",""119977""
""focus"",""6"",""123114""
","""event"",""trial"",""time""
""blur"",""2"",""58143""
""blur"",""6"",""119977""
","""event"",""trial"",""time""
""focus"",""3"",""95260""
""focus"",""6"",""123114""
","""event"",""trial"",""time""
""fullscreenenter"",""1"",""1932""
","
","","","","","","2235.5","images/goat6.png","","","learning","2","2","1","1","goat","animals","1","0","","bad","[-3]"
"html-keyboard-response","140","649621","0.0-9.0-2.0-0.34","6491","1","17","Male","approach_avoid_spark_v1","""event"",""trial"",""time""
""fullscreenenter"",""1"",""1932""
""blur"",""2"",""58143""
""focus"",""3"",""95260""
""blur"",""6"",""119977""
""focus"",""6"",""123114""
","""event"",""trial"",""time""
""blur"",""2"",""58143""
""blur"",""6"",""119977""
","""event"",""trial"",""time""
""focus"",""3"",""95260""
""focus"",""6"",""123114""
","""event"",""trial"",""time""
""fullscreenenter"",""1"",""1932""
","
","","","","","","null","<div style=""font-size:60px;"">+</div>","null","","fixation","","","","","","","","","","",""
"aa-learning-trial","141","652623","0.0-9.0-2.0-1.34","6491","1","17","Male","approach_avoid_spark_v1","""event"",""trial"",""time""
""fullscreenenter"",""1"",""1932""
""blur"",""2"",""58143""
""focus"",""3"",""95260""
""blur"",""6"",""119977""
""focus"",""6"",""123114""
","""event"",""trial"",""time""
""blur"",""2"",""58143""
""blur"",""6"",""119977""
","""event"",""trial"",""time""
""focus"",""3"",""95260""
""focus"",""6"",""123114""
","""event"",""trial"",""time""
""fullscreenenter"",""1"",""1932""
","
","","","","","","777.9000000059605","images/sheep5.png","","","learning","6","6","1","1","sheep","animals","1","0","","good","[6]"
"html-keyboard-response","142","653124","0.0-9.0-2.0-0.35","6491","1","17","Male","approach_avoid_spark_v1","""event"",""trial"",""time""
""fullscreenenter"",""1"",""1932""
""blur"",""2"",""58143""
""focus"",""3"",""95260""
""blur"",""6"",""119977""
""focus"",""6"",""123114""
","""event"",""trial"",""time""
""blur"",""2"",""58143""
""blur"",""6"",""119977""
","""event"",""trial"",""time""
""focus"",""3"",""95260""
""focus"",""6"",""123114""
","""event"",""trial"",""time""
""fullscreenenter"",""1"",""1932""
","
","","","","","","null","<div style=""font-size:60px;"">+</div>","null","","fixation","","","","","","","","","","",""
"aa-learning-trial","143","656127","0.0-9.0-2.0-1.35","6491","1","17","Male","approach_avoid_spark_v1","""event"",""trial"",""time""
""fullscreenenter"",""1"",""1932""
""blur"",""2"",""58143""
""focus"",""3"",""95260""
""blur"",""6"",""119977""
""focus"",""6"",""123114""
","""event"",""trial"",""time""
""blur"",""2"",""58143""
""blur"",""6"",""119977""
","""event"",""trial"",""time""
