"trial_type","trial_index","time_elapsed","internal_node_id","subject_id","task_condition","age","gender","task_version","interactions","blur_events","focus_events","fullscreenenter_events","fullscreenexit_events","success","timeout","failed_images","failed_audio","failed_video","rt","stimulus","response","button_pressed","task_part","approach_reward","points","key_press","option_selected","stim_cat","task_block","block_condition","block_number","correct","cat_type","mean_cat_reward"
"pavlovia","0","2","0.0-0.0","7654","2","18","Male","approach_avoid_spark_v1","""event"",""trial"",""time""
""fullscreenenter"",""1"",""3108""
","
","
","""event"",""trial"",""time""
""fullscreenenter"",""1"",""3108""
","
","","","","","","","","","","","","","","","","","","","","",""
"fullscreen","1","4098","0.0-1.0","7654","2","18","Male","approach_avoid_spark_v1","""event"",""trial"",""time""
""fullscreenenter"",""1"",""3108""
","
","
","""event"",""trial"",""time""
""fullscreenenter"",""1"",""3108""
","
","true","","","","","","","","","","","","","","","","","","","",""
"preload","2","12086","0.0-2.0","7654","2","18","Male","approach_avoid_spark_v1","""event"",""trial"",""time""
""fullscreenenter"",""1"",""3108""
","
","
","""event"",""trial"",""time""
""fullscreenenter"",""1"",""3108""
","
","true","false","[]","[]","[]","","","","","","","","","","","","","","","",""
"audio-keyboard-response","3","14867","0.0-3.0","7654","2","18","Male","approach_avoid_spark_v1","""event"",""trial"",""time""
""fullscreenenter"",""1"",""3108""
","
","
","""event"",""trial"",""time""
""fullscreenenter"",""1"",""3108""
","
","","","","","","2778.666666666667","audio/beep_loop.wav"," ","","","","","","","","","","","","",""
"audio-button-response","4","17032","0.0-4.0","7654","2","18","Male","approach_avoid_spark_v1","""event"",""trial"",""time""
""fullscreenenter"",""1"",""3108""
","
","
","""event"",""trial"",""time""
""fullscreenenter"",""1"",""3108""
","
","","","","","","2171","audio/shark.wav","4","","","","","","","","","","","","",""
"audio-button-response","5","19550","0.0-5.0","7654","2","18","Male","approach_avoid_spark_v1","""event"",""trial"",""time""
""fullscreenenter"",""1"",""3108""
","
","
","""event"",""trial"",""time""
""fullscreenenter"",""1"",""3108""
","
","","","","","","1509","audio/turtle.wav","1","","","","","","","","","","","","",""
"preload","6","22707","0.0-6.0","7654","2","18","Male","approach_avoid_spark_v1","""event"",""trial"",""time""
""fullscreenenter"",""1"",""3108""
","
","
","""event"",""trial"",""time""
""fullscreenenter"",""1"",""3108""
","
","true","false","[]","[]","[]","","","","","","","","","","","","","","","",""
"html-keyboard-response","7","24763","0.0-7.0","7654","2","18","Male","approach_avoid_spark_v1","""event"",""trial"",""time""
""fullscreenenter"",""1"",""3108""
","
","
","""event"",""trial"",""time""
""fullscreenenter"",""1"",""3108""
","
","","","","","","2055","Welcome to the experiment. Press any key to begin and to advance the instructions.","enter","","","","","","","","","","","","",""
"learning-instructions","8","32506","0.0-8.0-0.0-0.0","7654","2","18","Male","approach_avoid_spark_v1","""event"",""trial"",""time""
""fullscreenenter"",""1"",""3108""
","
","
","""event"",""trial"",""time""
""fullscreenenter"",""1"",""3108""
","
","","","","","","786.2999999523163","<p> Welcome! Today you are going to play 6 different rounds of a decision-making game. </p><p> Use the mouse to click next to continue. </p>","","0","instructions","","","","","","","","","","",""
"learning-instructions","9","36022","0.0-8.0-0.0-0.1","7654","2","18","Male","approach_avoid_spark_v1","""event"",""trial"",""time""
""fullscreenenter"",""1"",""3108""
","
","
","""event"",""trial"",""time""
""fullscreenenter"",""1"",""3108""
","
","","","","","","781.2999999523163","<p> You will start with a practice round to learn the rules. </p>","","0","instructions","","","","","","","","","","",""
"learning-instructions","10","39857","0.0-8.0-0.0-0.2","7654","2","18","Male","approach_avoid_spark_v1","""event"",""trial"",""time""
""fullscreenenter"",""1"",""3108""
","
","
","""event"",""trial"",""time""
""fullscreenenter"",""1"",""3108""
","
","","","","","","376.7999999523163","<p> Your goal in this round is to give out sports equipment to kids. </p></div>","","0","instructions","","","","","","","","","","",""
"learning-instructions","11","59944","0.0-8.0-0.0-0.3","7654","2","18","Male","approach_avoid_spark_v1","""event"",""trial"",""time""
""fullscreenenter"",""1"",""3108""
","
","
","""event"",""trial"",""time""
""fullscreenenter"",""1"",""3108""
","
","","","","","","12534.399999856949","<p> The kids only like some of the equipment.  </p><p> On each turn, you will see a piece of sports equipment.   </p><p> You need to decide whether to give it to the kids or not.  </p>","","0","instructions","","","","","","","","","","",""
"learning-instructions","12","65115","0.0-8.0-0.0-0.4","7654","2","18","Male","approach_avoid_spark_v1","""event"",""trial"",""time""
""fullscreenenter"",""1"",""3108""
","
","
","""event"",""trial"",""time""
""fullscreenenter"",""1"",""3108""
","
","","","","","","413.60000014305115","<p> You can give them the equipment by pressing 1 and choose not to give it to them by pressing 0. </p><br><div class=""choice-instructions-grid""> <div class=""choice-option""><img src=""images/approach.png"" class=""choice-option-img"" stage=""instructions"" position=""0"" ><div class=""choice-option-text""> Press ""1."" </div></div><div class=""choice-option""><img src=""images/avoid.png"" class=""choice-option-img"" stage=""instructions"" position=""1"" ><div class=""choice-option-text""> Press ""0."" </div></div>","","0","instructions","","","","","","","","","","",""
"learning-instructions","13","72959","0.0-8.0-0.0-0.5","7654","2","18","Male","approach_avoid_spark_v1","""event"",""trial"",""time""
""fullscreenenter"",""1"",""3108""
","
","
","""event"",""trial"",""time""
""fullscreenenter"",""1"",""3108""
","
","","","","","","458.7999999523163","<p> If you give them a piece of equipment they like, they will be happy! </p><p> But if you give them a piece of equipment they do not like, they will be sad. </p>","","0","instructions","","","","","","","","","","",""
"learning-instructions","14","83833","0.0-8.0-0.0-0.6","7654","2","18","Male","approach_avoid_spark_v1","""event"",""trial"",""time""
""fullscreenenter"",""1"",""3108""
","
","
","""event"",""trial"",""time""
""fullscreenenter"",""1"",""3108""
","
","","","","","","362.5","<p> You will earn points based on how you make kids feel. </p><p> If you make them happy, you will WIN anywhere from 1 - 9 points, </p><p> but if you make them sad, you will LOSE anywhere from 1 - 9 points. </p>","","0","instructions","","","","","","","","","","",""
"learning-instructions","15","93802","0.0-8.0-0.0-0.7","7654","2","18","Male","approach_avoid_spark_v1","""event"",""trial"",""time""
""fullscreenenter"",""1"",""3108""
","
","
","""event"",""trial"",""time""
""fullscreenenter"",""1"",""3108""
","
","","","","","","421.30000019073486","<p> You will see how many points you won or lost in the center of the screen. </p><p> Here is what you would see if you won 6 points: </p><p style=""color:green;font-size:50px;font-weight:bolder"">6</p><p style=""color:green"">The text is GREEN because you WON points.</p>","","0","instructions","","","","","","","","","","",""
"learning-instructions","16","99630","0.0-8.0-0.0-0.8","7654","2","18","Male","approach_avoid_spark_v1","""event"",""trial"",""time""
""fullscreenenter"",""1"",""3108""
","
","
","""event"",""trial"",""time""
""fullscreenenter"",""1"",""3108""
","
","","","","","","320.59999990463257","<p> And here is what you would see if you lost 4 points: </p><p style=""color:red;font-size:50px;font-weight:bolder"">-4</p><p style=""color:red"">The text is RED because you LOST points. </p>","","0","instructions","","","","","","","","","","",""
"learning-instructions","17","115437","0.0-8.0-0.0-0.9","7654","2","18","Male","approach_avoid_spark_v1","""event"",""trial"",""time""
""fullscreenenter"",""1"",""3108""
","
","
","""event"",""trial"",""time""
""fullscreenenter"",""1"",""3108""
","
","","","","","","1086.5","<p> Some of the equipment will make the kids VERY happy or sad. </p><p> These pieces of equipment will make you win or lose LOTS of points. </p><p> Other pieces of equipment will only make the kids a little happy or sad. </p><p> These pieces of equipment will make you win or lose small amounts of points. </p>","","0","instructions","","","","","","","","","","",""
"learning-instructions","18","128047","0.0-8.0-0.0-0.10","7654","2","18","Male","approach_avoid_spark_v1","""event"",""trial"",""time""
""fullscreenenter"",""1"",""3108""
","
","
","""event"",""trial"",""time""
""fullscreenenter"",""1"",""3108""
","
","","","","","","1986.7999999523163","<p> If you choose not to give them the equipment, you will not win or lose any points. </p><p>  However, in the center of the screen, you will see the number of points you WOULD HAVE won or lost if you had given them the equipment. </p>","","0","instructions","","","","","","","","","","",""
"learning-instructions","19","150144","0.0-8.0-0.0-0.11","7654","2","18","Male","approach_avoid_spark_v1","""event"",""trial"",""time""
""fullscreenenter"",""1"",""3108""
","
","
","""event"",""trial"",""time""
""fullscreenenter"",""1"",""3108""
","
","","","","","","564.2000000476837","<p> Here is what you might see if you did not give the equipment to the kids but it would have made them happy: </p><p style=""color:grey; font-size:50px; display: inline-block; border-spacing: 15px; border-width:3px; border-style:solid; border-color:red"">  &nbsp; 7 &nbsp; </p><p> Remember, in this case, you would not win or lose ANY points because you did not give them the equipment.  </p><p style=""color:grey"">The text is GREY because you earned ZERO points. </p><p style=""color:red"">However, choosing to give the kids the equipment would have made you win points. The box around the text is RED because you chose the worse option. </p>","","0","instructions","","","","","","","","","","",""
"learning-instructions","20","171625","0.0-8.0-0.0-0.12","7654","2","18","Male","approach_avoid_spark_v1","""event"",""trial"",""time""
""fullscreenenter"",""1"",""3108""
","
","
","""event"",""trial"",""time""
""fullscreenenter"",""1"",""3108""
","
","","","","","","414.40000009536743","<p> Here is what you might see if you did not give the equipment to the kids but it would have made them sad: </p><p style=""color:grey;font-size:50px; display: inline-block; border-spacing: 15px; border-width:3px; border-style:solid; border-color:green"">  &nbsp; -8 &nbsp; </p><p> Remember, in this case, you would not win or lose ANY points because you did not give them the equipment.  </p><p style=""color:grey"">The text is GREY because you earned ZERO points. </p><p  style=""color:green""> Choosing to give the kids the equipment would have made you lose points. The box around the text is GREEN because you chose the better option.</p>","","0","instructions","","","","","","","","","","",""
"learning-instructions","21","181007","0.0-8.0-0.0-0.13","7654","2","18","Male","approach_avoid_spark_v1","""event"",""trial"",""time""
""fullscreenenter"",""1"",""3108""
","
","
","""event"",""trial"",""time""
""fullscreenenter"",""1"",""3108""
","
","","","","","","296.7000000476837","<p> You will have 3 seconds to make each choice. Try to respond before time runs out! </p><p> You will lose 5 points each time you do not make a response. </p>","","0","instructions","","","","","","","","","","",""
"learning-instructions","22","186893","0.0-8.0-0.0-0.14","7654","2","18","Male","approach_avoid_spark_v1","""event"",""trial"",""time""
""fullscreenenter"",""1"",""3108""
","
","
","""event"",""trial"",""time""
""fullscreenenter"",""1"",""3108""
","
","","","","","","462.7000000476837","<p> This is just a practice round, but in the real game, your bonus payment will depend on your total number of points.","","0","instructions","","","","","","","","","","",""
"learning-instructions","23","192970","0.0-8.0-0.0-0.15","7654","2","18","Male","approach_avoid_spark_v1","""event"",""trial"",""time""
""fullscreenenter"",""1"",""3108""
","
","
","""event"",""trial"",""time""
""fullscreenenter"",""1"",""3108""
","
","","","","","","310.39999985694885","<p> Remember, you can give them the equipment by pressing 1 and choose not to give it to them by pressing 0. </p><br><div class=""choice-instructions-grid""> <div class=""choice-option""><img src=""images/approach.png"" class=""choice-option-img"" stage=""instructions"" position=""0"" ><div class=""choice-option-text""> Press ""1."" </div></div><div class=""choice-option""><img src=""images/avoid.png"" class=""choice-option-img"" stage=""instructions"" position=""1"" ><div class=""choice-option-text""> Press ""0."" </div></div>","","0","instructions","","","","","","","","","","",""
"html-button-response","24","194273","0.0-8.0-1.0","7654","2","18","Male","approach_avoid_spark_v1","""event"",""trial"",""time""
""fullscreenenter"",""1"",""3108""
","
","
","""event"",""trial"",""time""
""fullscreenenter"",""1"",""3108""
","
","","","","","","1200.5999999046326","<p> Ready to practice? </p>","0","","","","","","","","","","","","",""
"html-keyboard-response","25","194874","0.0-8.0-2.0-0.0","7654","2","18","Male","approach_avoid_spark_v1","""event"",""trial"",""time""
""fullscreenenter"",""1"",""3108""
","
","
","""event"",""trial"",""time""
""fullscreenenter"",""1"",""3108""
","
","","","","","","null","<div style=""font-size:60px;"">+</div>","null","","fixation","","","","","","","","","","",""
"aa-learning-trial","26","197880","0.0-8.0-2.0-1.0","7654","2","18","Male","approach_avoid_spark_v1","""event"",""trial"",""time""
""fullscreenenter"",""1"",""3108""
","
","
","""event"",""trial"",""time""
""fullscreenenter"",""1"",""3108""
","
","","","","","","1686.6999998092651","images/ball2.png","","","learning","3","3","1","1","practice","practice","practice","-1","","",""
"html-keyboard-response","27","198382","0.0-8.0-2.0-0.1","7654","2","18","Male","approach_avoid_spark_v1","""event"",""trial"",""time""
""fullscreenenter"",""1"",""3108""
","
","
","""event"",""trial"",""time""
""fullscreenenter"",""1"",""3108""
","
","","","","","","null","<div style=""font-size:60px;"">+</div>","null","","fixation","","","","","","","","","","",""
"aa-learning-trial","28","201395","0.0-8.0-2.0-1.1","7654","2","18","Male","approach_avoid_spark_v1","""event"",""trial"",""time""
""fullscreenenter"",""1"",""3108""
","
","
","""event"",""trial"",""time""
""fullscreenenter"",""1"",""3108""
","
","","","","","","964.2999999523163","images/racket4.png","","","learning","-7","-7","1","1","practice","practice","practice","-1","","",""
"html-keyboard-response","29","201896","0.0-8.0-2.0-0.2","7654","2","18","Male","approach_avoid_spark_v1","""event"",""trial"",""time""
""fullscreenenter"",""1"",""3108""
","
","
","""event"",""trial"",""time""
""fullscreenenter"",""1"",""3108""
","
","","","","","","null","<div style=""font-size:60px;"">+</div>","null","","fixation","","","","","","","","","","",""
"aa-learning-trial","30","204901","0.0-8.0-2.0-1.2","7654","2","18","Male","approach_avoid_spark_v1","""event"",""trial"",""time""
""fullscreenenter"",""1"",""3108""
","
","
","""event"",""trial"",""time""
""fullscreenenter"",""1"",""3108""
","
","","","","","","1224.7999999523163","images/racket4.png","","","learning","-6","0","0","0","practice","practice","practice","-1","","",""
"html-keyboard-response","31","205414","0.0-8.0-2.0-0.3","7654","2","18","Male","approach_avoid_spark_v1","""event"",""trial"",""time""
""fullscreenenter"",""1"",""3108""
","
","
","""event"",""trial"",""time""
""fullscreenenter"",""1"",""3108""
","
","","","","","","null","<div style=""font-size:60px;"">+</div>","null","","fixation","","","","","","","","","","",""
"aa-learning-trial","32","208425","0.0-8.0-2.0-1.3","7654","2","18","Male","approach_avoid_spark_v1","""event"",""trial"",""time""
""fullscreenenter"",""1"",""3108""
","
","
","""event"",""trial"",""time""
""fullscreenenter"",""1"",""3108""
","
","","","","","","1099.1000001430511","images/racket2.png","","","learning","-8","0","0","0","practice","practice","practice","-1","","",""
"html-keyboard-response","33","208938","0.0-8.0-2.0-0.4","7654","2","18","Male","approach_avoid_spark_v1","""event"",""trial"",""time""
""fullscreenenter"",""1"",""3108""
","
","
","""event"",""trial"",""time""
""fullscreenenter"",""1"",""3108""
","
","","","","","","null","<div style=""font-size:60px;"">+</div>","null","","fixation","","","","","","","","","","",""
"aa-learning-trial","34","211946","0.0-8.0-2.0-1.4","7654","2","18","Male","approach_avoid_spark_v1","""event"",""trial"",""time""
""fullscreenenter"",""1"",""3108""
","
","
","""event"",""trial"",""time""
""fullscreenenter"",""1"",""3108""
","
","","","","","","741.9000000953674","images/ball2.png","","","learning","-9","-9","1","1","practice","practice","practice","-1","","",""
"html-keyboard-response","35","212461","0.0-8.0-2.0-0.5","7654","2","18","Male","approach_avoid_spark_v1","""event"",""trial"",""time""
""fullscreenenter"",""1"",""3108""
","
","
","""event"",""trial"",""time""
""fullscreenenter"",""1"",""3108""
","
","","","","","","null","<div style=""font-size:60px;"">+</div>","null","","fixation","","","","","","","","","","",""
"aa-learning-trial","36","215473","0.0-8.0-2.0-1.5","7654","2","18","Male","approach_avoid_spark_v1","""event"",""trial"",""time""
""fullscreenenter"",""1"",""3108""
","
","
","""event"",""trial"",""time""
""fullscreenenter"",""1"",""3108""
","
","","","","","","1867.9000000953674","images/racket1.png","","","learning","-1","0","0","0","practice","practice","practice","-1","","",""
"html-keyboard-response","37","215990","0.0-8.0-2.0-0.6","7654","2","18","Male","approach_avoid_spark_v1","""event"",""trial"",""time""
""fullscreenenter"",""1"",""3108""
","
","
","""event"",""trial"",""time""
""fullscreenenter"",""1"",""3108""
","
","","","","","","null","<div style=""font-size:60px;"">+</div>","null","","fixation","","","","","","","","","","",""
"aa-learning-trial","38","219001","0.0-8.0-2.0-1.6","7654","2","18","Male","approach_avoid_spark_v1","""event"",""trial"",""time""
""fullscreenenter"",""1"",""3108""
","
","
","""event"",""trial"",""time""
""fullscreenenter"",""1"",""3108""
","
","","","","","","2028.0999999046326","images/ball3.png","","","learning","7","7","1","1","practice","practice","practice","-1","","",""
"html-keyboard-response","39","219515","0.0-8.0-2.0-0.7","7654","2","18","Male","approach_avoid_spark_v1","""event"",""trial"",""time""
""fullscreenenter"",""1"",""3108""
","
","
","""event"",""trial"",""time""
""fullscreenenter"",""1"",""3108""
","
","","","","","","null","<div style=""font-size:60px;"">+</div>","null","","fixation","","","","","","","","","","",""
"aa-learning-trial","40","222528","0.0-8.0-2.0-1.7","7654","2","18","Male","approach_avoid_spark_v1","""event"",""trial"",""time""
""fullscreenenter"",""1"",""3108""
","
","
","""event"",""trial"",""time""
""fullscreenenter"",""1"",""3108""
","
","","","","","","1134.7000000476837","images/racket1.png","","","learning","8","0","0","0","practice","practice","practice","-1","","",""
"html-keyboard-response","41","223029","0.0-8.0-2.0-0.8","7654","2","18","Male","approach_avoid_spark_v1","""event"",""trial"",""time""
""fullscreenenter"",""1"",""3108""
","
","
","""event"",""trial"",""time""
""fullscreenenter"",""1"",""3108""
","
","","","","","","null","<div style=""font-size:60px;"">+</div>","null","","fixation","","","","","","","","","","",""
"aa-learning-trial","42","226031","0.0-8.0-2.0-1.8","7654","2","18","Male","approach_avoid_spark_v1","""event"",""trial"",""time""
""fullscreenenter"",""1"",""3108""
","
","
","""event"",""trial"",""time""
""fullscreenenter"",""1"",""3108""
","
","","","","","","940.7000000476837","images/ball3.png","","","learning","-4","-4","1","1","practice","practice","practice","-1","","",""
"html-keyboard-response","43","226533","0.0-8.0-2.0-0.9","7654","2","18","Male","approach_avoid_spark_v1","""event"",""trial"",""time""
""fullscreenenter"",""1"",""3108""
","
","
","""event"",""trial"",""time""
""fullscreenenter"",""1"",""3108""
","
","","","","","","null","<div style=""font-size:60px;"">+</div>","null","","fixation","","","","","","","","","","",""
"aa-learning-trial","44","229536","0.0-8.0-2.0-1.9","7654","2","18","Male","approach_avoid_spark_v1","""event"",""trial"",""time""
""fullscreenenter"",""1"",""3108""
","
","
","""event"",""trial"",""time""
""fullscreenenter"",""1"",""3108""
","
","","","","","","2027.3000001907349","images/racket3.png","","","learning","3","0","0","0","practice","practice","practice","-1","","",""
"html-keyboard-response","45","230039","0.0-8.0-2.0-0.10","7654","2","18","Male","approach_avoid_spark_v1","""event"",""trial"",""time""
""fullscreenenter"",""1"",""3108""
","
","
","""event"",""trial"",""time""
""fullscreenenter"",""1"",""3108""
","
","","","","","","null","<div style=""font-size:60px;"">+</div>","null","","fixation","","","","","","","","","","",""
"aa-learning-trial","46","233043","0.0-8.0-2.0-1.10","7654","2","18","Male","approach_avoid_spark_v1","""event"",""trial"",""time""
""fullscreenenter"",""1"",""3108""
","
","
","""event"",""trial"",""time""
""fullscreenenter"",""1"",""3108""
","
","","","","","","1490.4000000953674","images/racket1.png","","","learning","8","0","0","0","practice","practice","practice","-1","","",""
"html-keyboard-response","47","233544","0.0-8.0-2.0-0.11","7654","2","18","Male","approach_avoid_spark_v1","""event"",""trial"",""time""
""fullscreenenter"",""1"",""3108""
","
","
","""event"",""trial"",""time""
""fullscreenenter"",""1"",""3108""
","
","","","","","","null","<div style=""font-size:60px;"">+</div>","null","","fixation","","","","","","","","","","",""
"aa-learning-trial","48","236548","0.0-8.0-2.0-1.11","7654","2","18","Male","approach_avoid_spark_v1","""event"",""trial"",""time""
""fullscreenenter"",""1"",""3108""
","
","
","""event"",""trial"",""time""
""fullscreenenter"",""1"",""3108""
","
","","","","","","760.7000000476837","images/racket1.png","","","learning","7","0","0","0","practice","practice","practice","-1","","",""
"html-button-response","49","240355","0.0-8.0-3.0","7654","2","18","Male","approach_avoid_spark_v1","""event"",""trial"",""time""
""fullscreenenter"",""1"",""3108""
","
","
","""event"",""trial"",""time""
""fullscreenenter"",""1"",""3108""
","
","","","","","","3803","<p> You earned -10 points in the practice round! </p>","0","","break","","","","","","","","","","",""
"learning-instructions","50","247052","0.0-8.0-4.0-0.0","7654","2","18","Male","approach_avoid_spark_v1","""event"",""trial"",""time""
""fullscreenenter"",""1"",""3108""
","
","
","""event"",""trial"",""time""
""fullscreenenter"",""1"",""3108""
","
","","","","","","691.9000000953674","<p> It's almost time to start the real game. </p><p> Before you start, we're going to ask you a few questions about how the game works. </p>","","0","instructions","","","","","","","","","","",""
"preload","51","248575","0.0-8.0-5.0","7654","2","18","Male","approach_avoid_spark_v1","""event"",""trial"",""time""
""fullscreenenter"",""1"",""3108""
","
","
","""event"",""trial"",""time""
""fullscreenenter"",""1"",""3108""
","
","true","false","[]","[]","[]","","","","","","","","","","","","","","","",""
"comp-q","52","254301","0.0-8.0-6.0-0.0","7654","2","18","Male","approach_avoid_spark_v1","""event"",""trial"",""time""
""fullscreenenter"",""1"",""3108""
","
","
","""event"",""trial"",""time""
""fullscreenenter"",""1"",""3108""
","
","","","","","","730","<p> <b> True or False? </b> </p><p> If you see a number in GREY, that means you earned that many points. </p>","","1","comp_question","","","","","","","","","true","",""
"comp-q","53","263142","0.0-8.0-6.0-1.0","7654","2","18","Male","approach_avoid_spark_v1","""event"",""trial"",""time""
""fullscreenenter"",""1"",""3108""
","
","
","""event"",""trial"",""time""
""fullscreenenter"",""1"",""3108""
","
","","","","","","481.2999999523163","<p><b> That's right! </b> If you see a grey number, it means you earned ZERO points. <br> The grey numbers show the points you WOULD HAVE earned if you had made the other choice. </p>","","0","comp_answer","","","","","","","","","","",""
"comp-q","54","268962","0.0-8.0-7.0-0.0","7654","2","18","Male","approach_avoid_spark_v1","""event"",""trial"",""time""
""fullscreenenter"",""1"",""3108""
","
","
","""event"",""trial"",""time""
""fullscreenenter"",""1"",""3108""
","
","","","","","","1131.5","<p> <b> True or False? </b> </p><p> You will have as much time as you want to make each choice. </p>","","1","comp_question","","","","","","","","","true","",""
"comp-q","55","273622","0.0-8.0-7.0-1.0","7654","2","18","Male","approach_avoid_spark_v1","""event"",""trial"",""time""
""fullscreenenter"",""1"",""3108""
","
","
","""event"",""trial"",""time""
""fullscreenenter"",""1"",""3108""
","
","","","","","","621.7000000476837","<p> <b> That's right! </b> You will only have 3 seconds to make each choice. </p>","","0","comp_answer","","","","","","","","","","",""
"comp-q","56","278692","0.0-8.0-8.0-0.0","7654","2","18","Male","approach_avoid_spark_v1","""event"",""trial"",""time""
""fullscreenenter"",""1"",""3108""
","
","
","""event"",""trial"",""time""
""fullscreenenter"",""1"",""3108""
","
","","","","","","411.7000000476837","<p> <b> True or False? </b> </p><p> You should use the '1' and '0' keys to make your choices. </p>","","0","comp_question","","","","","","","","","true","",""
"comp-q","57","283952","0.0-8.0-8.0-1.0","7654","2","18","Male","approach_avoid_spark_v1","""event"",""trial"",""time""
""fullscreenenter"",""1"",""3108""
","
","
","""event"",""trial"",""time""
""fullscreenenter"",""1"",""3108""
","
","","","","","","652.2000000476837","<p> <b> That's right! </b> You should use the '1' and '0' keys to make each choice. </p>","","0","comp_answer","","","","","","","","","","",""
"learning-instructions","58","292127","0.0-8.0-9.0-0.0","7654","2","18","Male","approach_avoid_spark_v1","""event"",""trial"",""time""
""fullscreenenter"",""1"",""3108""
","
","
","""event"",""trial"",""time""
""fullscreenenter"",""1"",""3108""
","
","","","","","","1896.5","<p> It's now time to start the real game. </p>Do your best, because the points you earn in the next rounds will influence your bonus payment. </p>","","0","instructions","","","","","","","","","","",""
"preload","59","292240","0.0-9.0-0.0","7654","2","18","Male","approach_avoid_spark_v1","""event"",""trial"",""time""
""fullscreenenter"",""1"",""3108""
","
","
","""event"",""trial"",""time""
""fullscreenenter"",""1"",""3108""
","
","true","false","[]","[]","[]","","","","","","","","","","","","","","","",""
"learning-instructions","60","298079","0.0-9.0-1.0-0.0","7654","2","18","Male","approach_avoid_spark_v1","""event"",""trial"",""time""
""fullscreenenter"",""1"",""3108""
","
","
","""event"",""trial"",""time""
""fullscreenenter"",""1"",""3108""
","
","","","","","","1368.0999999046326","<p> Your goal in this round is to decorate your friend's new house with furniture. </p></div>","","0","instructions","","","","","","","","","","",""
"learning-instructions","61","308247","0.0-9.0-1.0-0.1","7654","2","18","Male","approach_avoid_spark_v1","""event"",""trial"",""time""
""fullscreenenter"",""1"",""3108""
","
","
","""event"",""trial"",""time""
""fullscreenenter"",""1"",""3108""
","
","","","","","","576.2999999523163","<p> Your friend likes some pieces of furniture but not others.  </p><p> On each turn, you will see a piece of furniture.   </p><p> You need to decide whether to put it in your friend's house or not.  </p>","","0","instructions","","","","","","","","","","",""
"learning-instructions","62","314339","0.0-9.0-1.0-0.2","7654","2","18","Male","approach_avoid_spark_v1","""event"",""trial"",""time""
""fullscreenenter"",""1"",""3108""
","
","
","""event"",""trial"",""time""
""fullscreenenter"",""1"",""3108""
","
","","","","","","547.5","<p> You can put the furniture in her house by pressing 1 and deliver it elsewhere by pressing 0. </p><br><div class=""choice-instructions-grid""> <div class=""choice-option""><img src=""images/approach.png"" class=""choice-option-img"" stage=""instructions"" position=""0"" ><div class=""choice-option-text""> Press ""1."" </div></div><div class=""choice-option""><img src=""images/avoid.png"" class=""choice-option-img"" stage=""instructions"" position=""1"" ><div class=""choice-option-text""> Press ""0."" </div></div>","","0","instructions","","","","","","","","","","",""
"learning-instructions","63","325309","0.0-9.0-1.0-0.3","7654","2","18","Male","approach_avoid_spark_v1","""event"",""trial"",""time""
""fullscreenenter"",""1"",""3108""
","
","
","""event"",""trial"",""time""
""fullscreenenter"",""1"",""3108""
","
","","","","","","387.7000000476837","<p> If you decorate your friend's house with furniture she likes, she will be happy! </p><p> But if you give her furniture that she does not like, she will be annoyed. </p>","","0","instructions","","","","","","","","","","",""
"learning-instructions","64","339327","0.0-9.0-1.0-0.4","7654","2","18","Male","approach_avoid_spark_v1","""event"",""trial"",""time""
""fullscreenenter"",""1"",""3108""
","
","
","""event"",""trial"",""time""
""fullscreenenter"",""1"",""3108""
","
","","","","","","295.69999980926514","<p> You will earn points based on how you made your friend feel. </p><p> If you made her happy, you will WIN anywhere from 1 - 9 points, </p><p> but if you made her annoyed you will LOSE anywhere from 1 - 9 points. </p>","","0","instructions","","","","","","","","","","",""
"learning-instructions","65","347613","0.0-9.0-1.0-0.5","7654","2","18","Male","approach_avoid_spark_v1","""event"",""trial"",""time""
""fullscreenenter"",""1"",""3108""
","
","
","""event"",""trial"",""time""
""fullscreenenter"",""1"",""3108""
","
","","","","","","291.2000000476837","<p> You will see how many points you won or lost in the center of the screen. </p><p> Here is what you would see if you won 5 points: </p><p style=""color:green;font-size:50px;font-weight:bolder"">5</p>","","0","instructions","","","","","","","","","","",""
"learning-instructions","66","351487","0.0-9.0-1.0-0.6","7654","2","18","Male","approach_avoid_spark_v1","""event"",""trial"",""time""
""fullscreenenter"",""1"",""3108""
","
","
","""event"",""trial"",""time""
""fullscreenenter"",""1"",""3108""
","
","","","","","","386.60000014305115","<p> And here is what you would see if you lost 3 points: </p><p style=""color:red;font-size:50px;font-weight:bolder"">-3</p>","","0","instructions","","","","","","","","","","",""
"learning-instructions","67","372116","0.0-9.0-1.0-0.7","7654","2","18","Male","approach_avoid_spark_v1","""event"",""trial"",""time""
""fullscreenenter"",""1"",""3108""
","
","
","""event"",""trial"",""time""
""fullscreenenter"",""1"",""3108""
","
","","","","","","2815.9000000953674","<p> Some pieces of furniture will make her feel very happy or very annoyed. </p><p> These pieces of furniture will make you win or lose LOTS of points. </p><p> Other pieces of furniture will only make her feel a little happy or a little annoyed. </p><p> These pieces of furniture will make you win or lose small amounts of points. </p>","","0","instructions","","","","","","","","","","",""
"learning-instructions","68","385804","0.0-9.0-1.0-0.8","7654","2","18","Male","approach_avoid_spark_v1","""event"",""trial"",""time""
""fullscreenenter"",""1"",""3108""
","
","
","""event"",""trial"",""time""
""fullscreenenter"",""1"",""3108""
","
","","","","","","764.2000000476837","<p> If you choose to deliver a piece of furniture elsewhere, you will not win or lose any points. </p><p>  However, in the center of the screen, you will see the number of points you WOULD HAVE won or lost if you had given the furniture to your friend. </p>","","0","instructions","","","","","","","","","","",""
"learning-instructions","69","397562","0.0-9.0-1.0-0.9","7654","2","18","Male","approach_avoid_spark_v1","""event"",""trial"",""time""
""fullscreenenter"",""1"",""3108""
","
","
","""event"",""trial"",""time""
""fullscreenenter"",""1"",""3108""
","
","","","","","","341.7000000476837","<p> Here is what you might see if you did not give a piece of furniture to your friend that would have made her happy: </p><p style=""color:grey; font-size:50px; display: inline-block; border-spacing: 15px; border-width:3px; border-style:solid; border-color:red"">  &nbsp; 6 &nbsp; </p><p> Remember, in this case, you would not win or lose ANY points because you did not give her the furniture.  </p>","","0","instructions","","","","","","","","","","",""
"learning-instructions","70","405934","0.0-9.0-1.0-0.10","7654","2","18","Male","approach_avoid_spark_v1","""event"",""trial"",""time""
""fullscreenenter"",""1"",""3108""
","
","
","""event"",""trial"",""time""
""fullscreenenter"",""1"",""3108""
","
","","","","","","843.8999998569489","<p> Try to make the best choice for each piece of furniture because </p><p> at the end of the game, you will earn bonus money based on how many points you earned. </p>","","0","instructions","","","","","","","","","","",""
"learning-instructions","71","414614","0.0-9.0-1.0-0.11","7654","2","18","Male","approach_avoid_spark_v1","""event"",""trial"",""time""
""fullscreenenter"",""1"",""3108""
","
","
","""event"",""trial"",""time""
""fullscreenenter"",""1"",""3108""
","
","","","","","","493.39999985694885","<p> You will have 3 seconds to make each choice. Try to respond before time runs out! </p><p> You will lose 5 points each time you do not make a response. </p>","","0","instructions","","","","","","","","","","",""
"html-keyboard-response","72","415240","0.0-9.0-2.0-0.0","7654","2","18","Male","approach_avoid_spark_v1","""event"",""trial"",""time""
""fullscreenenter"",""1"",""3108""
","
","
","""event"",""trial"",""time""
""fullscreenenter"",""1"",""3108""
","
","","","","","","null","<div style=""font-size:60px;"">+</div>","null","","fixation","","","","","","","","","","",""
"aa-learning-trial","73","418247","0.0-9.0-2.0-1.0","7654","2","18","Male","approach_avoid_spark_v1","""event"",""trial"",""time""
""fullscreenenter"",""1"",""3108""
","
","
","""event"",""trial"",""time""
""fullscreenenter"",""1"",""3108""
","
","","","","","","1831.2000000476837","images/chair1.png","","","learning","3","3","1","1","chair","furniture","2","0","","neutral","0"
"html-keyboard-response","74","418750","0.0-9.0-2.0-0.1","7654","2","18","Male","approach_avoid_spark_v1","""event"",""trial"",""time""
""fullscreenenter"",""1"",""3108""
","
","
","""event"",""trial"",""time""
""fullscreenenter"",""1"",""3108""
","
","","","","","","null","<div style=""font-size:60px;"">+</div>","null","","fixation","","","","","","","","","","",""
"aa-learning-trial","75","421757","0.0-9.0-2.0-1.1","7654","2","18","Male","approach_avoid_spark_v1","""event"",""trial"",""time""
""fullscreenenter"",""1"",""3108""
","
","
","""event"",""trial"",""time""
""fullscreenenter"",""1"",""3108""
","
","","","","","","1082.9000000953674","images/table8.png","","","learning","-5","-5","1","1","table","furniture","2","0","","good","[3]"
"html-keyboard-response","76","422260","0.0-9.0-2.0-0.2","7654","2","18","Male","approach_avoid_spark_v1","""event"",""trial"",""time""
""fullscreenenter"",""1"",""3108""
","
","
","""event"",""trial"",""time""
""fullscreenenter"",""1"",""3108""
","
","","","","","","null","<div style=""font-size:60px;"">+</div>","null","","fixation","","","","","","","","","","",""
"aa-learning-trial","77","425263","0.0-9.0-2.0-1.2","7654","2","18","Male","approach_avoid_spark_v1","""event"",""trial"",""time""
""fullscreenenter"",""1"",""3108""
","
","
","""event"",""trial"",""time""
""fullscreenenter"",""1"",""3108""
","
","","","","","","1925.2000000476837","images/sofa7.png","","","learning","-3","0","0","0","sofa","furniture","2","0","","bad","[-4]"
"html-keyboard-response","78","425777","0.0-9.0-2.0-0.3","7654","2","18","Male","approach_avoid_spark_v1","""event"",""trial"",""time""
""fullscreenenter"",""1"",""3108""
","
","
","""event"",""trial"",""time""
""fullscreenenter"",""1"",""3108""
","
","","","","","","null","<div style=""font-size:60px;"">+</div>","null","","fixation","","","","","","","","","","",""
"aa-learning-trial","79","428782","0.0-9.0-2.0-1.3","7654","2","18","Male","approach_avoid_spark_v1","""event"",""trial"",""time""
""fullscreenenter"",""1"",""3108""
","
","
","""event"",""trial"",""time""
""fullscreenenter"",""1"",""3108""
","
","","","","","","1009.0999999046326","images/table7.png","","","learning","1","0","0","0","table","furniture","2","0","","good","[3]"
"html-keyboard-response","80","429298","0.0-9.0-2.0-0.4","7654","2","18","Male","approach_avoid_spark_v1","""event"",""trial"",""time""
""fullscreenenter"",""1"",""3108""
","
","
","""event"",""trial"",""time""
""fullscreenenter"",""1"",""3108""
","
","","","","","","null","<div style=""font-size:60px;"">+</div>","null","","fixation","","","","","","","","","","",""
"aa-learning-trial","81","432304","0.0-9.0-2.0-1.4","7654","2","18","Male","approach_avoid_spark_v1","""event"",""trial"",""time""
""fullscreenenter"",""1"",""3108""
","
","
","""event"",""trial"",""time""
""fullscreenenter"",""1"",""3108""
","
","","","","","","1879.2000000476837","images/chair8.png","","","learning","-4","0","0","0","chair","furniture","2","0","","neutral","0"
"html-keyboard-response","82","432815","0.0-9.0-2.0-0.5","7654","2","18","Male","approach_avoid_spark_v1","""event"",""trial"",""time""
""fullscreenenter"",""1"",""3108""
","
","
","""event"",""trial"",""time""
""fullscreenenter"",""1"",""3108""
","
","","","","","","null","<div style=""font-size:60px;"">+</div>","null","","fixation","","","","","","","","","","",""
"aa-learning-trial","83","435829","0.0-9.0-2.0-1.5","7654","2","18","Male","approach_avoid_spark_v1","""event"",""trial"",""time""
""fullscreenenter"",""1"",""3108""
","
","
","""event"",""trial"",""time""
""fullscreenenter"",""1"",""3108""
","
","","","","","","1833.4000000953674","images/sofa7.png","","","learning","-3","0","0","0","sofa","furniture","2","0","","bad","[-4]"
"html-keyboard-response","84","436332","0.0-9.0-2.0-0.6","7654","2","18","Male","approach_avoid_spark_v1","""event"",""trial"",""time""
""fullscreenenter"",""1"",""3108""
","
","
","""event"",""trial"",""time""
""fullscreenenter"",""1"",""3108""
","
","","","","","","null","<div style=""font-size:60px;"">+</div>","null","","fixation","","","","","","","","","","",""
"aa-learning-trial","85","439334","0.0-9.0-2.0-1.6","7654","2","18","Male","approach_avoid_spark_v1","""event"",""trial"",""time""
""fullscreenenter"",""1"",""3108""
","
","
","""event"",""trial"",""time""
""fullscreenenter"",""1"",""3108""
","
","","","","","","1508.2999999523163","images/chair1.png","","","learning","3","3","1","1","chair","furniture","2","0","","neutral","0"
"html-keyboard-response","86","439834","0.0-9.0-2.0-0.7","7654","2","18","Male","approach_avoid_spark_v1","""event"",""trial"",""time""
""fullscreenenter"",""1"",""3108""
","
","
","""event"",""trial"",""time""
""fullscreenenter"",""1"",""3108""
","
","","","","","","null","<div style=""font-size:60px;"">+</div>","null","","fixation","","","","","","","","","","",""
"aa-learning-trial","87","442840","0.0-9.0-2.0-1.7","7654","2","18","Male","approach_avoid_spark_v1","""event"",""trial"",""time""
""fullscreenenter"",""1"",""3108""
","
","
","""event"",""trial"",""time""
""fullscreenenter"",""1"",""3108""
","
","","","","","","2126.2999999523163","images/table8.png","","","learning","-5","-5","1","1","table","furniture","2","0","","good","[3]"
"html-keyboard-response","88","443348","0.0-9.0-2.0-0.8","7654","2","18","Male","approach_avoid_spark_v1","""event"",""trial"",""time""
""fullscreenenter"",""1"",""3108""
","
","
","""event"",""trial"",""time""
""fullscreenenter"",""1"",""3108""
","
","","","","","","null","<div style=""font-size:60px;"">+</div>","null","","fixation","","","","","","","","","","",""
"aa-learning-trial","89","446350","0.0-9.0-2.0-1.8","7654","2","18","Male","approach_avoid_spark_v1","""event"",""trial"",""time""
""fullscreenenter"",""1"",""3108""
","
","
","""event"",""trial"",""time""
""fullscreenenter"",""1"",""3108""
","
","","","","","","957","images/chair4.png","","","learning","-9","0","0","0","chair","furniture","2","0","","neutral","0"
"html-keyboard-response","90","446853","0.0-9.0-2.0-0.9","7654","2","18","Male","approach_avoid_spark_v1","""event"",""trial"",""time""
""fullscreenenter"",""1"",""3108""
","
","
","""event"",""trial"",""time""
""fullscreenenter"",""1"",""3108""
","
","","","","","","null","<div style=""font-size:60px;"">+</div>","null","","fixation","","","","","","","","","","",""
"aa-learning-trial","91","449857","0.0-9.0-2.0-1.9","7654","2","18","Male","approach_avoid_spark_v1","""event"",""trial"",""time""
""fullscreenenter"",""1"",""3108""
","
","
","""event"",""trial"",""time""
""fullscreenenter"",""1"",""3108""
","
","","","","","","1020.7000000476837","images/sofa4.png","","","learning","-2","0","0","0","sofa","furniture","2","0","","bad","[-4]"
"html-keyboard-response","92","450371","0.0-9.0-2.0-0.10","7654","2","18","Male","approach_avoid_spark_v1","""event"",""trial"",""time""
""fullscreenenter"",""1"",""3108""
","
","
","""event"",""trial"",""time""
""fullscreenenter"",""1"",""3108""
","
","","","","","","null","<div style=""font-size:60px;"">+</div>","null","","fixation","","","","","","","","","","",""
"aa-learning-trial","93","453376","0.0-9.0-2.0-1.10","7654","2","18","Male","approach_avoid_spark_v1","""event"",""trial"",""time""
""fullscreenenter"",""1"",""3108""
","
","
","""event"",""trial"",""time""
""fullscreenenter"",""1"",""3108""
","
","","","","","","956.7999999523163","images/table1.png","","","learning","6","0","0","0","table","furniture","2","0","","good","[3]"
"html-keyboard-response","94","453878","0.0-9.0-2.0-0.11","7654","2","18","Male","approach_avoid_spark_v1","""event"",""trial"",""time""
""fullscreenenter"",""1"",""3108""
","
","
","""event"",""trial"",""time""
""fullscreenenter"",""1"",""3108""
","
","","","","","","null","<div style=""font-size:60px;"">+</div>","null","","fixation","","","","","","","","","","",""
"aa-learning-trial","95","456881","0.0-9.0-2.0-1.11","7654","2","18","Male","approach_avoid_spark_v1","""event"",""trial"",""time""
""fullscreenenter"",""1"",""3108""
","
","
","""event"",""trial"",""time""
""fullscreenenter"",""1"",""3108""
","
","","","","","","1026","images/chair4.png","","","learning","-9","0","0","0","chair","furniture","2","0","","neutral","0"
"html-keyboard-response","96","457383","0.0-9.0-2.0-0.12","7654","2","18","Male","approach_avoid_spark_v1","""event"",""trial"",""time""
""fullscreenenter"",""1"",""3108""
","
","
","""event"",""trial"",""time""
""fullscreenenter"",""1"",""3108""
","
","","","","","","null","<div style=""font-size:60px;"">+</div>","null","","fixation","","","","","","","","","","",""
"aa-learning-trial","97","460387","0.0-9.0-2.0-1.12","7654","2","18","Male","approach_avoid_spark_v1","""event"",""trial"",""time""
""fullscreenenter"",""1"",""3108""
","
","
","""event"",""trial"",""time""
""fullscreenenter"",""1"",""3108""
","
","","","","","","754.4000000953674","images/table1.png","","","learning","6","6","1","1","table","furniture","2","0","","good","[3]"
"html-keyboard-response","98","460889","0.0-9.0-2.0-0.13","7654","2","18","Male","approach_avoid_spark_v1","""event"",""trial"",""time""
""fullscreenenter"",""1"",""3108""
","
","
","""event"",""trial"",""time""
""fullscreenenter"",""1"",""3108""
","
","","","","","","null","<div style=""font-size:60px;"">+</div>","null","","fixation","","","","","","","","","","",""
"aa-learning-trial","99","463893","0.0-9.0-2.0-1.13","7654","2","18","Male","approach_avoid_spark_v1","""event"",""trial"",""time""
""fullscreenenter"",""1"",""3108""
","
","
","""event"",""trial"",""time""
""fullscreenenter"",""1"",""3108""
","
","","","","","","1166.7999999523163","images/sofa6.png","","","learning","4","0","0","0","sofa","furniture","2","0","","bad","[-4]"
"html-keyboard-response","100","464396","0.0-9.0-2.0-0.14","7654","2","18","Male","approach_avoid_spark_v1","""event"",""trial"",""time""
""fullscreenenter"",""1"",""3108""
","
","
","""event"",""trial"",""time""
""fullscreenenter"",""1"",""3108""
","
","","","","","","null","<div style=""font-size:60px;"">+</div>","null","","fixation","","","","","","","","","","",""
"aa-learning-trial","101","467400","0.0-9.0-2.0-1.14","7654","2","18","Male","approach_avoid_spark_v1","""event"",""trial"",""time""
""fullscreenenter"",""1"",""3108""
","
","
","""event"",""trial"",""time""
""fullscreenenter"",""1"",""3108""
","
","","","","","","1147.6999998092651","images/sofa4.png","","","learning","-2","0","0","0","sofa","furniture","2","0","","bad","[-4]"
"html-keyboard-response","102","467902","0.0-9.0-2.0-0.15","7654","2","18","Male","approach_avoid_spark_v1","""event"",""trial"",""time""
""fullscreenenter"",""1"",""3108""
","
","
","""event"",""trial"",""time""
""fullscreenenter"",""1"",""3108""
","
","","","","","","null","<div style=""font-size:60px;"">+</div>","null","","fixation","","","","","","","","","","",""
"aa-learning-trial","103","470907","0.0-9.0-2.0-1.15","7654","2","18","Male","approach_avoid_spark_v1","""event"",""trial"",""time""
""fullscreenenter"",""1"",""3108""
","
","
","""event"",""trial"",""time""
""fullscreenenter"",""1"",""3108""
","
","","","","","","1170.2999999523163","images/sofa7.png","","","learning","-3","0","0","0","sofa","furniture","2","0","","bad","[-4]"
"html-keyboard-response","104","471414","0.0-9.0-2.0-0.16","7654","2","18","Male","approach_avoid_spark_v1","""event"",""trial"",""time""
""fullscreenenter"",""1"",""3108""
","
","
","""event"",""trial"",""time""
""fullscreenenter"",""1"",""3108""
","
","","","","","","null","<div style=""font-size:60px;"">+</div>","null","","fixation","","","","","","","","","","",""
"aa-learning-trial","105","474418","0.0-9.0-2.0-1.16","7654","2","18","Male","approach_avoid_spark_v1","""event"",""trial"",""time""
""fullscreenenter"",""1"",""3108""
","
","
","""event"",""trial"",""time""
""fullscreenenter"",""1"",""3108""
","
","","","","","","1722.5","images/sofa6.png","","","learning","4","0","0","0","sofa","furniture","2","0","","bad","[-4]"
"html-keyboard-response","106","474919","0.0-9.0-2.0-0.17","7654","2","18","Male","approach_avoid_spark_v1","""event"",""trial"",""time""
""fullscreenenter"",""1"",""3108""
","
","
","""event"",""trial"",""time""
""fullscreenenter"",""1"",""3108""
","
","","","","","","null","<div style=""font-size:60px;"">+</div>","null","","fixation","","","","","","","","","","",""
"aa-learning-trial","107","477923","0.0-9.0-2.0-1.17","7654","2","18","Male","approach_avoid_spark_v1","""event"",""trial"",""time""
""fullscreenenter"",""1"",""3108""
","
","
","""event"",""trial"",""time""
""fullscreenenter"",""1"",""3108""
","
","","","","","","1272.3000001907349","images/chair8.png","","","learning","-4","-4","1","1","chair","furniture","2","0","","neutral","0"
"html-keyboard-response","108","478425","0.0-9.0-2.0-0.18","7654","2","18","Male","approach_avoid_spark_v1","""event"",""trial"",""time""
""fullscreenenter"",""1"",""3108""
","
","
","""event"",""trial"",""time""
""fullscreenenter"",""1"",""3108""
","
","","","","","","null","<div style=""font-size:60px;"">+</div>","null","","fixation","","","","","","","","","","",""
"aa-learning-trial","109","481429","0.0-9.0-2.0-1.18","7654","2","18","Male","approach_avoid_spark_v1","""event"",""trial"",""time""
""fullscreenenter"",""1"",""3108""
","
","
","""event"",""trial"",""time""
""fullscreenenter"",""1"",""3108""
","
","","","","","","1016.0999999046326","images/sofa3.png","","","learning","9","0","0","0","sofa","furniture","2","0","","bad","[-4]"
"html-keyboard-response","110","481932","0.0-9.0-2.0-0.19","7654","2","18","Male","approach_avoid_spark_v1","""event"",""trial"",""time""
""fullscreenenter"",""1"",""3108""
","
","
","""event"",""trial"",""time""
""fullscreenenter"",""1"",""3108""
","
","","","","","","null","<div style=""font-size:60px;"">+</div>","null","","fixation","","","","","","","","","","",""
"aa-learning-trial","111","484936","0.0-9.0-2.0-1.19","7654","2","18","Male","approach_avoid_spark_v1","""event"",""trial"",""time""
""fullscreenenter"",""1"",""3108""
","
","
","""event"",""trial"",""time""
""fullscreenenter"",""1"",""3108""
","
","","","","","","1412.2000000476837","images/chair1.png","","","learning","3","3","1","1","chair","furniture","2","0","","neutral","0"
"html-keyboard-response","112","485438","0.0-9.0-2.0-0.20","7654","2","18","Male","approach_avoid_spark_v1","""event"",""trial"",""time""
""fullscreenenter"",""1"",""3108""
","
","
","""event"",""trial"",""time""
""fullscreenenter"",""1"",""3108""
","
","","","","","","null","<div style=""font-size:60px;"">+</div>","null","","fixation","","","","","","","","","","",""
"aa-learning-trial","113","488441","0.0-9.0-2.0-1.20","7654","2","18","Male","approach_avoid_spark_v1","""event"",""trial"",""time""
""fullscreenenter"",""1"",""3108""
","
","
","""event"",""trial"",""time""
""fullscreenenter"",""1"",""3108""
","
","","","","","","954.7999999523163","images/table1.png","","","learning","6","6","1","1","table","furniture","2","0","","good","[3]"
"html-keyboard-response","114","488943","0.0-9.0-2.0-0.21","7654","2","18","Male","approach_avoid_spark_v1","""event"",""trial"",""time""
""fullscreenenter"",""1"",""3108""
","
","
","""event"",""trial"",""time""
""fullscreenenter"",""1"",""3108""
","
","","","","","","null","<div style=""font-size:60px;"">+</div>","null","","fixation","","","","","","","","","","",""
"aa-learning-trial","115","491947","0.0-9.0-2.0-1.21","7654","2","18","Male","approach_avoid_spark_v1","""event"",""trial"",""time""
""fullscreenenter"",""1"",""3108""
","
","
","""event"",""trial"",""time""
""fullscreenenter"",""1"",""3108""
","
","","","","","","986","images/sofa4.png","","","learning","-2","0","0","0","sofa","furniture","2","0","","bad","[-4]"
"html-keyboard-response","116","492455","0.0-9.0-2.0-0.22","7654","2","18","Male","approach_avoid_spark_v1","""event"",""trial"",""time""
""fullscreenenter"",""1"",""3108""
","
","
","""event"",""trial"",""time""
""fullscreenenter"",""1"",""3108""
","
","","","","","","null","<div style=""font-size:60px;"">+</div>","null","","fixation","","","","","","","","","","",""
"aa-learning-trial","117","495460","0.0-9.0-2.0-1.22","7654","2","18","Male","approach_avoid_spark_v1","""event"",""trial"",""time""
""fullscreenenter"",""1"",""3108""
","
","
","""event"",""trial"",""time""
""fullscreenenter"",""1"",""3108""
","
","","","","","","1600.7999999523163","images/chair4.png","","","learning","-9","0","0","0","chair","furniture","2","0","","neutral","0"
"html-keyboard-response","118","495962","0.0-9.0-2.0-0.23","7654","2","18","Male","approach_avoid_spark_v1","""event"",""trial"",""time""
""fullscreenenter"",""1"",""3108""
","
","
","""event"",""trial"",""time""
""fullscreenenter"",""1"",""3108""
","
","","","","","","null","<div style=""font-size:60px;"">+</div>","null","","fixation","","","","","","","","","","",""
"aa-learning-trial","119","498966","0.0-9.0-2.0-1.23","7654","2","18","Male","approach_avoid_spark_v1","""event"",""trial"",""time""
""fullscreenenter"",""1"",""3108""
","
","
","""event"",""trial"",""time""
""fullscreenenter"",""1"",""3108""
","
","","","","","","1389.7999999523163","images/table7.png","","","learning","1","1","1","1","table","furniture","2","0","","good","[3]"
"html-keyboard-response","120","499469","0.0-9.0-2.0-0.24","7654","2","18","Male","approach_avoid_spark_v1","""event"",""trial"",""time""
""fullscreenenter"",""1"",""3108""
","
","
","""event"",""trial"",""time""
""fullscreenenter"",""1"",""3108""
","
","","","","","","null","<div style=""font-size:60px;"">+</div>","null","","fixation","","","","","","","","","","",""
"aa-learning-trial","121","502472","0.0-9.0-2.0-1.24","7654","2","18","Male","approach_avoid_spark_v1","""event"",""trial"",""time""
""fullscreenenter"",""1"",""3108""
","
","
","""event"",""trial"",""time""
""fullscreenenter"",""1"",""3108""
","
","","","","","","661.8999998569489","images/chair4.png","","","learning","-9","-9","1","1","chair","furniture","2","0","","neutral","0"
"html-keyboard-response","122","502974","0.0-9.0-2.0-0.25","7654","2","18","Male","approach_avoid_spark_v1","""event"",""trial"",""time""
""fullscreenenter"",""1"",""3108""
","
","
","""event"",""trial"",""time""
""fullscreenenter"",""1"",""3108""
","
","","","","","","null","<div style=""font-size:60px;"">+</div>","null","","fixation","","","","","","","","","","",""
"aa-learning-trial","123","505978","0.0-9.0-2.0-1.25","7654","2","18","Male","approach_avoid_spark_v1","""event"",""trial"",""time""
""fullscreenenter"",""1"",""3108""
","
","
","""event"",""trial"",""time""
""fullscreenenter"",""1"",""3108""
","
","","","","","","1338.6999998092651","images/table8.png","","","learning","-5","0","0","0","table","furniture","2","0","","good","[3]"
"html-keyboard-response","124","506480","0.0-9.0-2.0-0.26","7654","2","18","Male","approach_avoid_spark_v1","""event"",""trial"",""time""
""fullscreenenter"",""1"",""3108""
","
","
","""event"",""trial"",""time""
""fullscreenenter"",""1"",""3108""
","
","","","","","","null","<div style=""font-size:60px;"">+</div>","null","","fixation","","","","","","","","","","",""
"aa-learning-trial","125","509483","0.0-9.0-2.0-1.26","7654","2","18","Male","approach_avoid_spark_v1","""event"",""trial"",""time""
""fullscreenenter"",""1"",""3108""
","
","
","""event"",""trial"",""time""
""fullscreenenter"",""1"",""3108""
","
","","","","","","1544.6000001430511","images/table7.png","","","learning","1","1","1","1","table","furniture","2","0","","good","[3]"
"html-keyboard-response","126","509988","0.0-9.0-2.0-0.27","7654","2","18","Male","approach_avoid_spark_v1","""event"",""trial"",""time""
""fullscreenenter"",""1"",""3108""
","
","
","""event"",""trial"",""time""
""fullscreenenter"",""1"",""3108""
","
","","","","","","null","<div style=""font-size:60px;"">+</div>","null","","fixation","","","","","","","","","","",""
"aa-learning-trial","127","512992","0.0-9.0-2.0-1.27","7654","2","18","Male","approach_avoid_spark_v1","""event"",""trial"",""time""
""fullscreenenter"",""1"",""3108""
","
","
","""event"",""trial"",""time""
""fullscreenenter"",""1"",""3108""
","
","","","","","","1381.4000000953674","images/chair4.png","","","learning","-9","0","0","0","chair","furniture","2","0","","neutral","0"
"html-keyboard-response","128","513495","0.0-9.0-2.0-0.28","7654","2","18","Male","approach_avoid_spark_v1","""event"",""trial"",""time""
""fullscreenenter"",""1"",""3108""
","
","
","""event"",""trial"",""time""
""fullscreenenter"",""1"",""3108""
","
","","","","","","null","<div style=""font-size:60px;"">+</div>","null","","fixation","","","","","","","","","","",""
"aa-learning-trial","129","516498","0.0-9.0-2.0-1.28","7654","2","18","Male","approach_avoid_spark_v1","""event"",""trial"",""time""
""fullscreenenter"",""1"",""3108""
","
","
","""event"",""trial"",""time""
""fullscreenenter"",""1"",""3108""
","
","","","","","","1042.2000000476837","images/sofa7.png","","","learning","-3","0","0","0","sofa","furniture","2","0","","bad","[-4]"
"html-keyboard-response","130","517000","0.0-9.0-2.0-0.29","7654","2","18","Male","approach_avoid_spark_v1","""event"",""trial"",""time""
""fullscreenenter"",""1"",""3108""
","
","
","""event"",""trial"",""time""
""fullscreenenter"",""1"",""3108""
","
","","","","","","null","<div style=""font-size:60px;"">+</div>","null","","fixation","","","","","","","","","","",""
"aa-learning-trial","131","520005","0.0-9.0-2.0-1.29","7654","2","18","Male","approach_avoid_spark_v1","""event"",""trial"",""time""
""fullscreenenter"",""1"",""3108""
","
","
","""event"",""trial"",""time""
""fullscreenenter"",""1"",""3108""
","
","","","","","","1416.5999999046326","images/table8.png","","","learning","-5","-5","1","1","table","furniture","2","0","","good","[3]"
"html-keyboard-response","132","520507","0.0-9.0-2.0-0.30","7654","2","18","Male","approach_avoid_spark_v1","""event"",""trial"",""time""
""fullscreenenter"",""1"",""3108""
","
","
","""event"",""trial"",""time""
""fullscreenenter"",""1"",""3108""
","
","","","","","","null","<div style=""font-size:60px;"">+</div>","null","","fixation","","","","","","","","","","",""
"aa-learning-trial","133","523511","0.0-9.0-2.0-1.30","7654","2","18","Male","approach_avoid_spark_v1","""event"",""trial"",""time""
""fullscreenenter"",""1"",""3108""
","
","
","""event"",""trial"",""time""
""fullscreenenter"",""1"",""3108""
","
","","","","","","797.4000000953674","images/sofa4.png","","","learning","-2","-2","1","1","sofa","furniture","2","0","","bad","[-4]"
"html-keyboard-response","134","524013","0.0-9.0-2.0-0.31","7654","2","18","Male","approach_avoid_spark_v1","""event"",""trial"",""time""
""fullscreenenter"",""1"",""3108""
","
","
","""event"",""trial"",""time""
""fullscreenenter"",""1"",""3108""
","
","","","","","","null","<div style=""font-size:60px;"">+</div>","null","","fixation","","","","","","","","","","",""
"aa-learning-trial","135","527018","0.0-9.0-2.0-1.31","7654","2","18","Male","approach_avoid_spark_v1","""event"",""trial"",""time""
""fullscreenenter"",""1"",""3108""
","
","
","""event"",""trial"",""time""
""fullscreenenter"",""1"",""3108""
","
","","","","","","708","images/sofa7.png","","","learning","-3","-3","1","1","sofa","furniture","2","0","","bad","[-4]"
"html-keyboard-response","136","527520","0.0-9.0-2.0-0.32","7654","2","18","Male","approach_avoid_spark_v1","""event"",""trial"",""time""
""fullscreenenter"",""1"",""3108""
","
","
","""event"",""trial"",""time""
""fullscreenenter"",""1"",""3108""
","
","","","","","","null","<div style=""font-size:60px;"">+</div>","null","","fixation","","","","","","","","","","",""
"aa-learning-trial","137","530523","0.0-9.0-2.0-1.32","7654","2","18","Male","approach_avoid_spark_v1","""event"",""trial"",""time""
""fullscreenenter"",""1"",""3108""
","
","
","""event"",""trial"",""time""
""fullscreenenter"",""1"",""3108""
","
","","","","","","785.2000000476837","images/chair1.png","","","learning","3","3","1","1","chair","furniture","2","0","","neutral","0"
"html-keyboard-response","138","531026","0.0-9.0-2.0-0.33","7654","2","18","Male","approach_avoid_spark_v1","""event"",""trial"",""time""
""fullscreenenter"",""1"",""3108""
","
","
","""event"",""trial"",""time""
""fullscreenenter"",""1"",""3108""
","
","","","","","","null","<div style=""font-size:60px;"">+</div>","null","","fixation","","","","","","","","","","",""
"aa-learning-trial","139","534030","0.0-9.0-2.0-1.33","7654","2","18","Male","approach_avoid_spark_v1","""event"",""trial"",""time""
""fullscreenenter"",""1"",""3108""
","
","
","""event"",""trial"",""time""
""fullscreenenter"",""1"",""3108""
","
","","","","","","934.5","images/chair4.png","","","learning","-9","-9","1","1","chair","furniture","2","0","","neutral","0"
"html-keyboard-response","140","534532","0.0-9.0-2.0-0.34","7654","2","18","Male","approach_avoid_spark_v1","""event"",""trial"",""time""
""fullscreenenter"",""1"",""3108""
","
","
","""event"",""trial"",""time""
""fullscreenenter"",""1"",""3108""
","
","","","","","","null","<div style=""font-size:60px;"">+</div>","null","","fixation","","","","","","","","","","",""
"aa-learning-trial","141","537537","0.0-9.0-2.0-1.34","7654","2","18","Male","approach_avoid_spark_v1","""event"",""trial"",""time""
""fullscreenenter"",""1"",""3108""
","
","
","""event"",""trial"",""time""
""fullscreenenter"",""1"",""3108""
","
","","","","","","1133.2000000476837","images/sofa2.png","","","learning","-8","-8","1","1","sofa","furniture","2","0","","bad","[-4]"
"html-keyboard-response","142","538039","0.0-9.0-2.0-0.35","7654","2","18","Male","approach_avoid_spark_v1","""event"",""trial"",""time""
""fullscreenenter"",""1"",""3108""
","
","
","""event"",""trial"",""time""
""fullscreenenter"",""1"",""3108""
","
","","","","","","null","<div style=""font-size:60px;"">+</div>","null","","fixation","","","","","","","","","","",""
"aa-learning-trial","143","541043","0.0-9.0-2.0-1.35","7654","2","18","Male","approach_avoid_spark_v1","""event"",""trial"",""time""
""fullscreenenter"",""1"",""3108""
","
","
","""event"",""trial"",""time""
""fullscreenenter"",""1"",""3108""
","
","","","","","","993.5999999046326","images/table3.png","","","learning","5","0","0","0","table","furniture","2","0","","good","[3]"
"html-keyboard-response","144","541545","0.0-9.0-2.0-0.36","7654","2","18","Male","approach_avoid_spark_v1","""event"",""trial"",""time""
""fullscreenenter"",""1"",""3108""
","
","
","""event"",""trial"",""time""
""fullscreenenter"",""1"",""3108""
","
","","","","","","null","<div style=""font-size:60px;"">+</div>","null","","fixation","","","","","","","","","","",""
"aa-learning-trial","145","544548","0.0-9.0-2.0-1.36","7654","2","18","Male","approach_avoid_spark_v1","""event"",""trial"",""time""
""fullscreenenter"",""1"",""3108""
","
","
","""event"",""trial"",""time""
""fullscreenenter"",""1"",""3108""
","
","","","","","","864.7000000476837","images/table1.png","","","learning","6","6","1","1","table","furniture","2","0","","good","[3]"
"html-keyboard-response","146","545053","0.0-9.0-2.0-0.37","7654","2","18","Male","approach_avoid_spark_v1","""event"",""trial"",""time""
""fullscreenenter"",""1"",""3108""
","
","
","""event"",""trial"",""time""
""fullscreenenter"",""1"",""3108""
","
","","","","","","null","<div style=""font-size:60px;"">+</div>","null","","fixation","","","","","","","","","","",""
"aa-learning-trial","147","548058","0.0-9.0-2.0-1.37","7654","2","18","Male","approach_avoid_spark_v1","""event"",""trial"",""time""
""fullscreenenter"",""1"",""3108""
","
","
","""event"",""trial"",""time""
""fullscreenenter"",""1"",""3108""
","
","","","","","","1876.1000001430511","images/chair2.png","","","learning","7","7","1","1","chair","furniture","2","0","","neutral","0"
"html-keyboard-response","148","548560","0.0-9.0-2.0-0.38","7654","2","18","Male","approach_avoid_spark_v1","""event"",""trial"",""time""
""fullscreenenter"",""1"",""3108""
","
","
","""event"",""trial"",""time""
""fullscreenenter"",""1"",""3108""
","
","","","","","","null","<div style=""font-size:60px;"">+</div>","null","","fixation","","","","","","","","","","",""
"aa-learning-trial","149","551563","0.0-9.0-2.0-1.38","7654","2","18","Male","approach_avoid_spark_v1","""event"",""trial"",""time""
""fullscreenenter"",""1"",""3108""
","
","
","""event"",""trial"",""time""
""fullscreenenter"",""1"",""3108""
","
","","","","","","1057.5","images/table5.png","","","learning","-7","0","0","0","table","furniture","2","0","","good","[3]"
"html-keyboard-response","150","552071","0.0-9.0-2.0-0.39","7654","2","18","Male","approach_avoid_spark_v1","""event"",""trial"",""time""
""fullscreenenter"",""1"",""3108""
","
","
","""event"",""trial"",""time""
""fullscreenenter"",""1"",""3108""
","
","","","","","","null","<div style=""font-size:60px;"">+</div>","null","","fixation","","","","","","","","","","",""
"aa-learning-trial","151","555075","0.0-9.0-2.0-1.39","7654","2","18","Male","approach_avoid_spark_v1","""event"",""trial"",""time""
""fullscreenenter"",""1"",""3108""
","
","
","""event"",""trial"",""time""
""fullscreenenter"",""1"",""3108""
","
","","","","","","1784.7999999523163","images/table1.png","","","learning","6","6","1","1","table","furniture","2","0","","good","[3]"
"html-keyboard-response","152","555576","0.0-9.0-2.0-0.40","7654","2","18","Male","approach_avoid_spark_v1","""event"",""trial"",""time""
""fullscreenenter"",""1"",""3108""
","
","
","""event"",""trial"",""time""
""fullscreenenter"",""1"",""3108""
","
","","","","","","null","<div style=""font-size:60px;"">+</div>","null","","fixation","","","","","","","","","","",""
"aa-learning-trial","153","558603","0.0-9.0-2.0-1.40","7654","2","18","Male","approach_avoid_spark_v1","""event"",""trial"",""time""
""fullscreenenter"",""1"",""3108""
","
","
","""event"",""trial"",""time""
""fullscreenenter"",""1"",""3108""
","
","","","","","","1122.6999998092651","images/sofa4.png","","","learning","-2","-2","1","1","sofa","furniture","2","0","","bad","[-4]"
"html-keyboard-response","154","559104","0.0-9.0-2.0-0.41","7654","2","18","Male","approach_avoid_spark_v1","""event"",""trial"",""time""
""fullscreenenter"",""1"",""3108""
","
","
","""event"",""trial"",""time""
""fullscreenenter"",""1"",""3108""
","
","","","","","","null","<div style=""font-size:60px;"">+</div>","null","","fixation","","","","","","","","","","",""
"aa-learning-trial","155","562109","0.0-9.0-2.0-1.41","7654","2","18","Male","approach_avoid_spark_v1","""event"",""trial"",""time""
""fullscreenenter"",""1"",""3108""
","
","
","""event"",""trial"",""time""
""fullscreenenter"",""1"",""3108""
","
","","","","","","1455.9000000953674","images/chair8.png","","","learning","-4","-4","1","1","chair","furniture","2","0","","neutral","0"
"html-keyboard-response","156","562611","0.0-9.0-2.0-0.42","7654","2","18","Male","approach_avoid_spark_v1","""event"",""trial"",""time""
""fullscreenenter"",""1"",""3108""
","
","
","""event"",""trial"",""time""
""fullscreenenter"",""1"",""3108""
","
","","","","","","null","<div style=""font-size:60px;"">+</div>","null","","fixation","","","","","","","","","","",""
"aa-learning-trial","157","565616","0.0-9.0-2.0-1.42","7654","2","18","Male","approach_avoid_spark_v1","""event"",""trial"",""time""
""fullscreenenter"",""1"",""3108""
","
","
","""event"",""trial"",""time""
""fullscreenenter"",""1"",""3108""
","
","","","","","","1644.6999998092651","images/sofa7.png","","","learning","-3","-3","1","1","sofa","furniture","2","0","","bad","[-4]"
"html-keyboard-response","158","566118","0.0-9.0-2.0-0.43","7654","2","18","Male","approach_avoid_spark_v1","""event"",""trial"",""time""
""fullscreenenter"",""1"",""3108""
","
","
","""event"",""trial"",""time""
""fullscreenenter"",""1"",""3108""
","
","","","","","","null","<div style=""font-size:60px;"">+</div>","null","","fixation","","","","","","","","","","",""
"aa-learning-trial","159","569122","0.0-9.0-2.0-1.43","7654","2","18","Male","approach_avoid_spark_v1","""event"",""trial"",""time""
""fullscreenenter"",""1"",""3108""
","
","
","""event"",""trial"",""time""
""fullscreenenter"",""1"",""3108""
","
","","","","","","1842.2000000476837","images/sofa6.png","","","learning","4","0","0","0","sofa","furniture","2","0","","bad","[-4]"
"html-keyboard-response","160","569624","0.0-9.0-2.0-0.44","7654","2","18","Male","approach_avoid_spark_v1","""event"",""trial"",""time""
""fullscreenenter"",""1"",""3108""
","
","
","""event"",""trial"",""time""
""fullscreenenter"",""1"",""3108""
","
","","","","","","null","<div style=""font-size:60px;"">+</div>","null","","fixation","","","","","","","","","","",""
"aa-learning-trial","161","572628","0.0-9.0-2.0-1.44","7654","2","18","Male","approach_avoid_spark_v1","""event"",""trial"",""time""
""fullscreenenter"",""1"",""3108""
","
","
","""event"",""trial"",""time""
""fullscreenenter"",""1"",""3108""
","
","","","","","","1329.5","images/table8.png","","","learning","-5","0","0","0","table","furniture","2","0","","good","[3]"
"html-keyboard-response","162","573130","0.0-9.0-2.0-0.45","7654","2","18","Male","approach_avoid_spark_v1","""event"",""trial"",""time""
""fullscreenenter"",""1"",""3108""
","
","
","""event"",""trial"",""time""
""fullscreenenter"",""1"",""3108""
","
","","","","","","null","<div style=""font-size:60px;"">+</div>","null","","fixation","","","","","","","","","","",""
"aa-learning-trial","163","576134","0.0-9.0-2.0-1.45","7654","2","18","Male","approach_avoid_spark_v1","""event"",""trial"",""time""
""fullscreenenter"",""1"",""3108""
","
","
","""event"",""trial"",""time""
""fullscreenenter"",""1"",""3108""
","
","","","","","","1525.9000000953674","images/chair1.png","","","learning","3","3","1","1","chair","furniture","2","0","","neutral","0"
"html-keyboard-response","164","576636","0.0-9.0-2.0-0.46","7654","2","18","Male","approach_avoid_spark_v1","""event"",""trial"",""time""
""fullscreenenter"",""1"",""3108""
","
","
","""event"",""trial"",""time""
""fullscreenenter"",""1"",""3108""
","
","","","","","","null","<div style=""font-size:60px;"">+</div>","null","","fixation","","","","","","","","","","",""
"aa-learning-trial","165","579641","0.0-9.0-2.0-1.46","7654","2","18","Male","approach_avoid_spark_v1","""event"",""trial"",""time""
""fullscreenenter"",""1"",""3108""
","
","
","""event"",""trial"",""time""
""fullscreenenter"",""1"",""3108""
","
","","","","","","1107.2000000476837","images/table1.png","","","learning","6","6","1","1","table","furniture","2","0","","good","[3]"
"html-keyboard-response","166","580143","0.0-9.0-2.0-0.47","7654","2","18","Male","approach_avoid_spark_v1","""event"",""trial"",""time""
""fullscreenenter"",""1"",""3108""
","
","
","""event"",""trial"",""time""
""fullscreenenter"",""1"",""3108""
","
","","","","","","null","<div style=""font-size:60px;"">+</div>","null","","fixation","","","","","","","","","","",""
"aa-learning-trial","167","583147","0.0-9.0-2.0-1.47","7654","2","18","Male","approach_avoid_spark_v1","""event"",""trial"",""time""
""fullscreenenter"",""1"",""3108""
","
","
","""event"",""trial"",""time""
""fullscreenenter"",""1"",""3108""
","
","","","","","","945.7999999523163","images/table8.png","","","learning","-5","0","0","0","table","furniture","2","0","","good","[3]"
"html-keyboard-response","168","583649","0.0-9.0-2.0-0.48","7654","2","18","Male","approach_avoid_spark_v1","""event"",""trial"",""time""
""fullscreenenter"",""1"",""3108""
","
","
","""event"",""trial"",""time""
""fullscreenenter"",""1"",""3108""
","
","","","","","","null","<div style=""font-size:60px;"">+</div>","null","","fixation","","","","","","","","","","",""
"aa-learning-trial","169","586653","0.0-9.0-2.0-1.48","7654","2","18","Male","approach_avoid_spark_v1","""event"",""trial"",""time""
""fullscreenenter"",""1"",""3108""
","
","
","""event"",""trial"",""time""
""fullscreenenter"",""1"",""3108""
","
","","","","","","959.5","images/sofa4.png","","","learning","-2","0","0","0","sofa","furniture","2","0","","bad","[-4]"
"html-keyboard-response","170","587155","0.0-9.0-2.0-0.49","7654","2","18","Male","approach_avoid_spark_v1","""event"",""trial"",""time""
""fullscreenenter"",""1"",""3108""
","
","
","""event"",""trial"",""time""
""fullscreenenter"",""1"",""3108""
","
","","","","","","null","<div style=""font-size:60px;"">+</div>","null","","fixation","","","","","","","","","","",""
"aa-learning-trial","171","590159","0.0-9.0-2.0-1.49","7654","2","18","Male","approach_avoid_spark_v1","""event"",""trial"",""time""
""fullscreenenter"",""1"",""3108""
","
","
","""event"",""trial"",""time""
""fullscreenenter"",""1"",""3108""
","
","","","","","","1380.5","images/chair1.png","","","learning","3","0","0","0","chair","furniture","2","0","","neutral","0"
"html-keyboard-response","172","590661","0.0-9.0-2.0-0.50","7654","2","18","Male","approach_avoid_spark_v1","""event"",""trial"",""time""
""fullscreenenter"",""1"",""3108""
","
","
","""event"",""trial"",""time""
""fullscreenenter"",""1"",""3108""
","
","","","","","","null","<div style=""font-size:60px;"">+</div>","null","","fixation","","","","","","","","","","",""
"aa-learning-trial","173","593666","0.0-9.0-2.0-1.50","7654","2","18","Male","approach_avoid_spark_v1","""event"",""trial"",""time""
""fullscreenenter"",""1"",""3108""
","
","
","""event"",""trial"",""time""
""fullscreenenter"",""1"",""3108""
","
","","","","","","1225.2999999523163","images/chair6.png","","","learning","2","2","1","1","chair","furniture","2","0","","neutral","0"
"html-button-response","174","596338","0.0-9.0-3.0","7654","2","18","Male","approach_avoid_spark_v1","""event"",""trial"",""time""
""fullscreenenter"",""1"",""3108""
","
","
","""event"",""trial"",""time""
""fullscreenenter"",""1"",""3108""
","
","","","","","","2670.100000143051","<p> You have completed the round! <p> In this round, you earned -3 points! </p>","0","","break","","","","","","","","","","",""
"html-button-response","175","600614","0.0-10.0","7654","2","18","Male","approach_avoid_spark_v1","""event"",""trial"",""time""
""fullscreenenter"",""1"",""3108""
","
","
","""event"",""trial"",""time""
""fullscreenenter"",""1"",""3108""
","
","","","","","","4275.099999904633","<p> Now it's time to play another round. </p>","0","","transition_screen","","","","","","","","","","",""
"preload","176","600743","0.0-11.0-0.0","7654","2","18","Male","approach_avoid_spark_v1","""event"",""trial"",""time""
""fullscreenenter"",""1"",""3108""
","
","
","""event"",""trial"",""time""
""fullscreenenter"",""1"",""3108""
","
","true","false","[]","[]","[]","","","","","","","","","","","","","","","",""
"learning-instructions","177","612498","0.0-11.0-1.0-0.0","7654","2","18","Male","approach_avoid_spark_v1","""event"",""trial"",""time""
""fullscreenenter"",""1"",""3108""
","
","
","""event"",""trial"",""time""
""fullscreenenter"",""1"",""3108""
","
","","","","","","6150.699999809265","<p> Your goal in this round is to sell different plants to a picky customer. </p></div>","","0","instructions","","","","","","","","","","",""
"learning-instructions","178","622242","0.0-11.0-1.0-0.1","7654","2","18","Male","approach_avoid_spark_v1","""event"",""trial"",""time""
""fullscreenenter"",""1"",""3108""
","
","
","""event"",""trial"",""time""
""fullscreenenter"",""1"",""3108""
","
","","","","","","525.1000001430511","<p> The customer likes some plants and dislikes others.  </p><p> On each turn, you will see a plant.   </p><p> You need to decide whether to offer it to the customer or not.  </p>","","0","instructions","","","","","","","","","","",""
"learning-instructions","179","628360","0.0-11.0-1.0-0.2","7654","2","18","Male","approach_avoid_spark_v1","""event"",""trial"",""time""
""fullscreenenter"",""1"",""3108""
","
","
","""event"",""trial"",""time""
""fullscreenenter"",""1"",""3108""
","
","","","","","","562.4000000953674","<p> You can offer the plant by pressing 1 and decide to not offer it by pressing 0. </p><br><div class=""choice-instructions-grid""> <div class=""choice-option""><img src=""images/approach.png"" class=""choice-option-img"" stage=""instructions"" position=""0"" ><div class=""choice-option-text""> Press ""1."" </div></div><div class=""choice-option""><img src=""images/avoid.png"" class=""choice-option-img"" stage=""instructions"" position=""1"" ><div class=""choice-option-text""> Press ""0."" </div></div>","","0","instructions","","","","","","","","","","",""
"learning-instructions","180","637778","0.0-11.0-1.0-0.3","7654","2","18","Male","approach_avoid_spark_v1","""event"",""trial"",""time""
""fullscreenenter"",""1"",""3108""
","
","
","""event"",""trial"",""time""
""fullscreenenter"",""1"",""3108""
","
","","","","","","350.7000000476837","<p> If you offer a plant to the customer that she likes, she will be very pleased! </p><p> But if you offer a plant that she does NOT like, she will be annoyed. </p>","","0","instructions","","","","","","","","","","",""
"learning-instructions","181","650462","0.0-11.0-1.0-0.4","7654","2","18","Male","approach_avoid_spark_v1","""event"",""trial"",""time""
""fullscreenenter"",""1"",""3108""
","
","
","""event"",""trial"",""time""
""fullscreenenter"",""1"",""3108""
","
","","","","","","265.2999999523163","<p> You will earn points based on how you made the customer feel. </p><p> If you made her pleased, you will WIN anywhere from 1 - 9 points, </p><p> but if you made her annoyed, you will LOSE anywhere from 1 - 9 points. </p>","","0","instructions","","","","","","","","","","",""
"learning-instructions","182","657252","0.0-11.0-1.0-0.5","7654","2","18","Male","approach_avoid_spark_v1","""event"",""trial"",""time""
""fullscreenenter"",""1"",""3108""
","
","
","""event"",""trial"",""time""
""fullscreenenter"",""1"",""3108""
","
","","","","","","135.5","<p> You will see how many points you won or lost in the center of the screen. </p><p> Here is what you would see if you won 5 points: </p><p style=""color:green;font-size:50px;font-weight:bolder"">5</p>","","0","instructions","","","","","","","","","","",""
"learning-instructions","183","660358","0.0-11.0-1.0-0.6","7654","2","18","Male","approach_avoid_spark_v1","""event"",""trial"",""time""
""fullscreenenter"",""1"",""3108""
","
","
","""event"",""trial"",""time""
""fullscreenenter"",""1"",""3108""
","
","","","","","","271.2000000476837","<p> And here is what you would see if you lost 3 points: </p><p style=""color:red;font-size:50px;font-weight:bolder"">-3</p>","","0","instructions","","","","","","","","","","",""
"learning-instructions","184","675476","0.0-11.0-1.0-0.7","7654","2","18","Male","approach_avoid_spark_v1","""event"",""trial"",""time""
""fullscreenenter"",""1"",""3108""
","
","
","""event"",""trial"",""time""
""fullscreenenter"",""1"",""3108""
","
","","","","","","537.8999998569489","<p> Some plants will make the customer VERY pleased or annoyed. </p><p> These plants will make you win or lose LOTS of points. </p><p> The customer will have less strong feelings about other plants. </p><p> These plants will make you win or lose small amounts of points. </p>","","0","instructions","","","","","","","","","","",""
"learning-instructions","185","688316","0.0-11.0-1.0-0.8","7654","2","18","Male","approach_avoid_spark_v1","""event"",""trial"",""time""
""fullscreenenter"",""1"",""3108""
","
","
","""event"",""trial"",""time""
""fullscreenenter"",""1"",""3108""
","
","","","","","","399.2000000476837","<p> If you choose to not offer the plant to the customer, you will not win or lose any points. </p><p>  However, in the center of the screen, you will see the number of points you WOULD HAVE won or lost if you had offered the plant. </p>","","0","instructions","","","","","","","","","","",""
"learning-instructions","186","700366","0.0-11.0-1.0-0.9","7654","2","18","Male","approach_avoid_spark_v1","""event"",""trial"",""time""
""fullscreenenter"",""1"",""3108""
","
","
","""event"",""trial"",""time""
""fullscreenenter"",""1"",""3108""
","
","","","","","","719.3000001907349","<p> Here is what you might see if you did not offer the plant but the customer would have liked it: </p><p style=""color:grey; font-size:50px; display: inline-block; border-spacing: 15px; border-width:3px; border-style:solid; border-color:red"">  &nbsp; 6 &nbsp; </p><p> Remember, in this case, you would not win or lose ANY points because you did not offer the plant.  </p>","","0","instructions","","","","","","","","","","",""
"learning-instructions","187","708306","0.0-11.0-1.0-0.10","7654","2","18","Male","approach_avoid_spark_v1","""event"",""trial"",""time""
""fullscreenenter"",""1"",""3108""
","
","
","""event"",""trial"",""time""
""fullscreenenter"",""1"",""3108""
","
","","","","","","299.40000009536743","<p> Try to make the best choice for each plant because </p><p> at the end of the game, you will earn bonus money based on how many points you earned. </p>","","0","instructions","","","","","","","","","","",""
"learning-instructions","188","716810","0.0-11.0-1.0-0.11","7654","2","18","Male","approach_avoid_spark_v1","""event"",""trial"",""time""
""fullscreenenter"",""1"",""3108""
","
","
","""event"",""trial"",""time""
""fullscreenenter"",""1"",""3108""
","
","","","","","","313.10000014305115","<p> You will have 3 seconds to make each choice. Try to respond before time runs out! </p><p> You will lose 5 points each time you do not make a response. </p>","","0","instructions","","","","","","","","","","",""
"html-keyboard-response","189","717435","0.0-11.0-2.0-0.0","7654","2","18","Male","approach_avoid_spark_v1","""event"",""trial"",""time""
""fullscreenenter"",""1"",""3108""
","
","
","""event"",""trial"",""time""
""fullscreenenter"",""1"",""3108""
","
","","","","","","null","<div style=""font-size:60px;"">+</div>","null","","fixation","","","","","","","","","","",""
"aa-learning-trial","190","720450","0.0-11.0-2.0-1.0","7654","2","18","Male","approach_avoid_spark_v1","""event"",""trial"",""time""
""fullscreenenter"",""1"",""3108""
","
","
","""event"",""trial"",""time""
""fullscreenenter"",""1"",""3108""
","
","","","","","","1606.0999999046326","images/flower2.png","","","learning","1","1","1","1","flower","plants","1","1","","neutral","0"
"html-keyboard-response","191","720951","0.0-11.0-2.0-0.1","7654","2","18","Male","approach_avoid_spark_v1","""event"",""trial"",""time""
""fullscreenenter"",""1"",""3108""
","
","
","""event"",""trial"",""time""
""fullscreenenter"",""1"",""3108""
","
","","","","","","null","<div style=""font-size:60px;"">+</div>","null","","fixation","","","","","","","","","","",""
"aa-learning-trial","192","723955","0.0-11.0-2.0-1.1","7654","2","18","Male","approach_avoid_spark_v1","""event"",""trial"",""time""
""fullscreenenter"",""1"",""3108""
","
","
","""event"",""trial"",""time""
""fullscreenenter"",""1"",""3108""
","
","","","","","","890.7000000476837","images/flower4.png","","","learning","1","1","1","1","flower","plants","1","1","","neutral","0"
"html-keyboard-response","193","724468","0.0-11.0-2.0-0.2","7654","2","18","Male","approach_avoid_spark_v1","""event"",""trial"",""time""
""fullscreenenter"",""1"",""3108""
","
","
","""event"",""trial"",""time""
""fullscreenenter"",""1"",""3108""
","
","","","","","","null","<div style=""font-size:60px;"">+</div>","null","","fixation","","","","","","","","","","",""
"aa-learning-trial","194","727479","0.0-11.0-2.0-1.2","7654","2","18","Male","approach_avoid_spark_v1","""event"",""trial"",""time""
""fullscreenenter"",""1"",""3108""
","
","
","""event"",""trial"",""time""
""fullscreenenter"",""1"",""3108""
","
","","","","","","884.2000000476837","images/flower8.png","","","learning","1","1","1","1","flower","plants","1","1","","neutral","0"
"html-keyboard-response","195","727994","0.0-11.0-2.0-0.3","7654","2","18","Male","approach_avoid_spark_v1","""event"",""trial"",""time""
""fullscreenenter"",""1"",""3108""
","
","
","""event"",""trial"",""time""
""fullscreenenter"",""1"",""3108""
","
","","","","","","null","<div style=""font-size:60px;"">+</div>","null","","fixation","","","","","","","","","","",""
"aa-learning-trial","196","731004","0.0-11.0-2.0-1.3","7654","2","18","Male","approach_avoid_spark_v1","""event"",""trial"",""time""
""fullscreenenter"",""1"",""3108""
","
","
","""event"",""trial"",""time""
""fullscreenenter"",""1"",""3108""
","
","","","","","","710.6000001430511","images/cactus4.png","","","learning","-6","0","0","0","cactus","plants","1","1","","bad","[-5]"
"html-keyboard-response","197","731517","0.0-11.0-2.0-0.4","7654","2","18","Male","approach_avoid_spark_v1","""event"",""trial"",""time""
""fullscreenenter"",""1"",""3108""
","
","
","""event"",""trial"",""time""
""fullscreenenter"",""1"",""3108""
","
","","","","","","null","<div style=""font-size:60px;"">+</div>","null","","fixation","","","","","","","","","","",""
"aa-learning-trial","198","734532","0.0-11.0-2.0-1.4","7654","2","18","Male","approach_avoid_spark_v1","""event"",""trial"",""time""
""fullscreenenter"",""1"",""3108""
","
","
","""event"",""trial"",""time""
""fullscreenenter"",""1"",""3108""
","
","","","","","","804.0999999046326","images/flower2.png","","","learning","1","1","1","1","flower","plants","1","1","","neutral","0"
"html-keyboard-response","199","735047","0.0-11.0-2.0-0.5","7654","2","18","Male","approach_avoid_spark_v1","""event"",""trial"",""time""
""fullscreenenter"",""1"",""3108""
","
","
","""event"",""trial"",""time""
""fullscreenenter"",""1"",""3108""
","
","","","","","","null","<div style=""font-size:60px;"">+</div>","null","","fixation","","","","","","","","","","",""
"aa-learning-trial","200","738051","0.0-11.0-2.0-1.5","7654","2","18","Male","approach_avoid_spark_v1","""event"",""trial"",""time""
""fullscreenenter"",""1"",""3108""
","
","
","""event"",""trial"",""time""
""fullscreenenter"",""1"",""3108""
","
","","","","","","1130.2000000476837","images/cactus7.png","","","learning","-3","-3","1","1","cactus","plants","1","1","","bad","[-5]"
"html-keyboard-response","201","738567","0.0-11.0-2.0-0.6","7654","2","18","Male","approach_avoid_spark_v1","""event"",""trial"",""time""
""fullscreenenter"",""1"",""3108""
","
","
","""event"",""trial"",""time""
""fullscreenenter"",""1"",""3108""
","
","","","","","","null","<div style=""font-size:60px;"">+</div>","null","","fixation","","","","","","","","","","",""
"aa-learning-trial","202","741581","0.0-11.0-2.0-1.6","7654","2","18","Male","approach_avoid_spark_v1","""event"",""trial"",""time""
""fullscreenenter"",""1"",""3108""
","
","
","""event"",""trial"",""time""
""fullscreenenter"",""1"",""3108""
","
","","","","","","1146.5999999046326","images/cactus7.png","","","learning","-6","0","0","0","cactus","plants","1","1","","bad","[-5]"
"html-keyboard-response","203","742093","0.0-11.0-2.0-0.7","7654","2","18","Male","approach_avoid_spark_v1","""event"",""trial"",""time""
""fullscreenenter"",""1"",""3108""
","
","
","""event"",""trial"",""time""
""fullscreenenter"",""1"",""3108""
","
","","","","","","null","<div style=""font-size:60px;"">+</div>","null","","fixation","","","","","","","","","","",""
"aa-learning-trial","204","745107","0.0-11.0-2.0-1.7","7654","2","18","Male","approach_avoid_spark_v1","""event"",""trial"",""time""
""fullscreenenter"",""1"",""3108""
","
","
","""event"",""trial"",""time""
""fullscreenenter"",""1"",""3108""
","
","","","","","","1661.2000000476837","images/cactus5.png","","","learning","-8","-8","1","1","cactus","plants","1","1","","bad","[-5]"
"html-keyboard-response","205","745609","0.0-11.0-2.0-0.8","7654","2","18","Male","approach_avoid_spark_v1","""event"",""trial"",""time""
""fullscreenenter"",""1"",""3108""
","
","
","""event"",""trial"",""time""
""fullscreenenter"",""1"",""3108""
","
","","","","","","null","<div style=""font-size:60px;"">+</div>","null","","fixation","","","","","","","","","","",""
"aa-learning-trial","206","748611","0.0-11.0-2.0-1.8","7654","2","18","Male","approach_avoid_spark_v1","""event"",""trial"",""time""
""fullscreenenter"",""1"",""3108""
","
","
","""event"",""trial"",""time""
""fullscreenenter"",""1"",""3108""
","
","","","","","","1385.5999999046326","images/tree7.png","","","learning","6","0","0","0","tree","plants","1","1","","good","[5]"
"html-keyboard-response","207","749114","0.0-11.0-2.0-0.9","7654","2","18","Male","approach_avoid_spark_v1","""event"",""trial"",""time""
""fullscreenenter"",""1"",""3108""
","
","
","""event"",""trial"",""time""
""fullscreenenter"",""1"",""3108""
","
","","","","","","null","<div style=""font-size:60px;"">+</div>","null","","fixation","","","","","","","","","","",""
"aa-learning-trial","208","752117","0.0-11.0-2.0-1.9","7654","2","18","Male","approach_avoid_spark_v1","""event"",""trial"",""time""
""fullscreenenter"",""1"",""3108""
","
","
","""event"",""trial"",""time""
""fullscreenenter"",""1"",""3108""
","
","","","","","","2239.399999856949","images/tree5.png","","","learning","5","5","1","1","tree","plants","1","1","","good","[5]"
"html-keyboard-response","209","752620","0.0-11.0-2.0-0.10","7654","2","18","Male","approach_avoid_spark_v1","""event"",""trial"",""time""
""fullscreenenter"",""1"",""3108""
","
","
","""event"",""trial"",""time""
""fullscreenenter"",""1"",""3108""
","
","","","","","","null","<div style=""font-size:60px;"">+</div>","null","","fixation","","","","","","","","","","",""
"aa-learning-trial","210","755623","0.0-11.0-2.0-1.10","7654","2","18","Male","approach_avoid_spark_v1","""event"",""trial"",""time""
""fullscreenenter"",""1"",""3108""
","
","
","""event"",""trial"",""time""
""fullscreenenter"",""1"",""3108""
","
","","","","","","669.7000000476837","images/flower8.png","","","learning","-1","-1","1","1","flower","plants","1","1","","neutral","0"
"html-keyboard-response","211","756125","0.0-11.0-2.0-0.11","7654","2","18","Male","approach_avoid_spark_v1","""event"",""trial"",""time""
""fullscreenenter"",""1"",""3108""
","
","
","""event"",""trial"",""time""
""fullscreenenter"",""1"",""3108""
","
","","","","","","null","<div style=""font-size:60px;"">+</div>","null","","fixation","","","","","","","","","","",""
"aa-learning-trial","212","759129","0.0-11.0-2.0-1.11","7654","2","18","Male","approach_avoid_spark_v1","""event"",""trial"",""time""
""fullscreenenter"",""1"",""3108""
","
","
","""event"",""trial"",""time""
""fullscreenenter"",""1"",""3108""
","
","","","","","","1300.0999999046326","images/tree7.png","","","learning","7","7","1","1","tree","plants","1","1","","good","[5]"
"html-keyboard-response","213","759631","0.0-11.0-2.0-0.12","7654","2","18","Male","approach_avoid_spark_v1","""event"",""trial"",""time""
""fullscreenenter"",""1"",""3108""
","
","
","""event"",""trial"",""time""
""fullscreenenter"",""1"",""3108""
","
","","","","","","null","<div style=""font-size:60px;"">+</div>","null","","fixation","","","","","","","","","","",""
"aa-learning-trial","214","762634","0.0-11.0-2.0-1.12","7654","2","18","Male","approach_avoid_spark_v1","""event"",""trial"",""time""
""fullscreenenter"",""1"",""3108""
","
","
","""event"",""trial"",""time""
""fullscreenenter"",""1"",""3108""
","
","","","","","","2314","images/cactus5.png","","","learning","-4","0","0","0","cactus","plants","1","1","","bad","[-5]"
"html-keyboard-response","215","763137","0.0-11.0-2.0-0.13","7654","2","18","Male","approach_avoid_spark_v1","""event"",""trial"",""time""
""fullscreenenter"",""1"",""3108""
","
","
","""event"",""trial"",""time""
""fullscreenenter"",""1"",""3108""
","
","","","","","","null","<div style=""font-size:60px;"">+</div>","null","","fixation","","","","","","","","","","",""
"aa-learning-trial","216","766141","0.0-11.0-2.0-1.13","7654","2","18","Male","approach_avoid_spark_v1","""event"",""trial"",""time""
""fullscreenenter"",""1"",""3108""
","
","
","""event"",""trial"",""time""
""fullscreenenter"",""1"",""3108""
","
","","","","","","1152.5","images/tree5.png","","","learning","7","7","1","1","tree","plants","1","1","","good","[5]"
"html-keyboard-response","217","766643","0.0-11.0-2.0-0.14","7654","2","18","Male","approach_avoid_spark_v1","""event"",""trial"",""time""
""fullscreenenter"",""1"",""3108""
","
","
","""event"",""trial"",""time""
""fullscreenenter"",""1"",""3108""
","
","","","","","","null","<div style=""font-size:60px;"">+</div>","null","","fixation","","","","","","","","","","",""
"aa-learning-trial","218","769647","0.0-11.0-2.0-1.14","7654","2","18","Male","approach_avoid_spark_v1","""event"",""trial"",""time""
""fullscreenenter"",""1"",""3108""
","
","
","""event"",""trial"",""time""
""fullscreenenter"",""1"",""3108""
","
","","","","","","1070.3999998569489","images/tree8.png","","","learning","6","0","0","0","tree","plants","1","1","","good","[5]"
"html-keyboard-response","219","770149","0.0-11.0-2.0-0.15","7654","2","18","Male","approach_avoid_spark_v1","""event"",""trial"",""time""
""fullscreenenter"",""1"",""3108""
","
","
","""event"",""trial"",""time""
""fullscreenenter"",""1"",""3108""
","
","","","","","","null","<div style=""font-size:60px;"">+</div>","null","","fixation","","","","","","","","","","",""
"aa-learning-trial","220","773153","0.0-11.0-2.0-1.15","7654","2","18","Male","approach_avoid_spark_v1","""event"",""trial"",""time""
""fullscreenenter"",""1"",""3108""
","
","
","""event"",""trial"",""time""
""fullscreenenter"",""1"",""3108""
","
","","","","","","2579.100000143051","images/flower2.png","","","learning","[1]","1","1","1","flower","plants","1","1","","neutral","0"
"html-keyboard-response","221","773656","0.0-11.0-2.0-0.16","7654","2","18","Male","approach_avoid_spark_v1","""event"",""trial"",""time""
""fullscreenenter"",""1"",""3108""
","
","
","""event"",""trial"",""time""
""fullscreenenter"",""1"",""3108""
","
","","","","","","null","<div style=""font-size:60px;"">+</div>","null","","fixation","","","","","","","","","","",""
"aa-learning-trial","222","776660","0.0-11.0-2.0-1.16","7654","2","18","Male","approach_avoid_spark_v1","""event"",""trial"",""time""
""fullscreenenter"",""1"",""3108""
","
","
","""event"",""trial"",""time""
""fullscreenenter"",""1"",""3108""
","
","","","","","","1080.0999999046326","images/tree5.png","","","learning","6","6","1","1","tree","plants","1","1","","good","[5]"
"html-keyboard-response","223","777162","0.0-11.0-2.0-0.17","7654","2","18","Male","approach_avoid_spark_v1","""event"",""trial"",""time""
""fullscreenenter"",""1"",""3108""
","
","
","""event"",""trial"",""time""
""fullscreenenter"",""1"",""3108""
","
","","","","","","null","<div style=""font-size:60px;"">+</div>","null","","fixation","","","","","","","","","","",""
"aa-learning-trial","224","780166","0.0-11.0-2.0-1.17","7654","2","18","Male","approach_avoid_spark_v1","""event"",""trial"",""time""
""fullscreenenter"",""1"",""3108""
","
","
","""event"",""trial"",""time""
""fullscreenenter"",""1"",""3108""
","
","","","","","","647.9000000953674","images/flower2.png","","","learning","[-1]","-1","1","1","flower","plants","1","1","","neutral","0"
"html-keyboard-response","225","780671","0.0-11.0-2.0-0.18","7654","2","18","Male","approach_avoid_spark_v1","""event"",""trial"",""time""
""fullscreenenter"",""1"",""3108""
","
","
","""event"",""trial"",""time""
""fullscreenenter"",""1"",""3108""
","
","","","","","","null","<div style=""font-size:60px;"">+</div>","null","","fixation","","","","","","","","","","",""
"aa-learning-trial","226","783676","0.0-11.0-2.0-1.18","7654","2","18","Male","approach_avoid_spark_v1","""event"",""trial"",""time""
""fullscreenenter"",""1"",""3108""
","
","
","""event"",""trial"",""time""
""fullscreenenter"",""1"",""3108""
","
","","","","","","1569.3999998569489","images/cactus5.png","","","learning","-5","0","0","0","cactus","plants","1","1","","bad","[-5]"
"html-keyboard-response","227","784178","0.0-11.0-2.0-0.19","7654","2","18","Male","approach_avoid_spark_v1","""event"",""trial"",""time""
""fullscreenenter"",""1"",""3108""
","
","
","""event"",""trial"",""time""
""fullscreenenter"",""1"",""3108""
","
","","","","","","null","<div style=""font-size:60px;"">+</div>","null","","fixation","","","","","","","","","","",""
"aa-learning-trial","228","787182","0.0-11.0-2.0-1.19","7654","2","18","Male","approach_avoid_spark_v1","""event"",""trial"",""time""
""fullscreenenter"",""1"",""3108""
","
","
","""event"",""trial"",""time""
""fullscreenenter"",""1"",""3108""
","
","","","","","","1358.5999999046326","images/flower5.png","","","learning","[-1]","0","0","0","flower","plants","1","1","","neutral","0"
"html-keyboard-response","229","787685","0.0-11.0-2.0-0.20","7654","2","18","Male","approach_avoid_spark_v1","""event"",""trial"",""time""
""fullscreenenter"",""1"",""3108""
","
","
","""event"",""trial"",""time""
""fullscreenenter"",""1"",""3108""
","
","","","","","","null","<div style=""font-size:60px;"">+</div>","null","","fixation","","","","","","","","","","",""
"aa-learning-trial","230","790689","0.0-11.0-2.0-1.20","7654","2","18","Male","approach_avoid_spark_v1","""event"",""trial"",""time""
""fullscreenenter"",""1"",""3108""
","
","
","""event"",""trial"",""time""
""fullscreenenter"",""1"",""3108""
","
","","","","","","1205.2000000476837","images/cactus7.png","","","learning","-2","0","0","0","cactus","plants","1","1","","bad","[-5]"
"html-keyboard-response","231","791191","0.0-11.0-2.0-0.21","7654","2","18","Male","approach_avoid_spark_v1","""event"",""trial"",""time""
""fullscreenenter"",""1"",""3108""
","
","
","""event"",""trial"",""time""
""fullscreenenter"",""1"",""3108""
","
","","","","","","null","<div style=""font-size:60px;"">+</div>","null","","fixation","","","","","","","","","","",""
"aa-learning-trial","232","794194","0.0-11.0-2.0-1.21","7654","2","18","Male","approach_avoid_spark_v1","""event"",""trial"",""time""
""fullscreenenter"",""1"",""3108""
","
","
","""event"",""trial"",""time""
""fullscreenenter"",""1"",""3108""
","
","","","","","","962.2999999523163","images/cactus6.png","","","learning","-6","-6","1","1","cactus","plants","1","1","","bad","[-5]"
"html-keyboard-response","233","794696","0.0-11.0-2.0-0.22","7654","2","18","Male","approach_avoid_spark_v1","""event"",""trial"",""time""
""fullscreenenter"",""1"",""3108""
","
","
","""event"",""trial"",""time""
""fullscreenenter"",""1"",""3108""
","
","","","","","","null","<div style=""font-size:60px;"">+</div>","null","","fixation","","","","","","","","","","",""
"aa-learning-trial","234","797699","0.0-11.0-2.0-1.22","7654","2","18","Male","approach_avoid_spark_v1","""event"",""trial"",""time""
""fullscreenenter"",""1"",""3108""
","
","
","""event"",""trial"",""time""
""fullscreenenter"",""1"",""3108""
","
","","","","","","673","images/flower8.png","","","learning","1","1","1","1","flower","plants","1","1","","neutral","0"
"html-keyboard-response","235","798201","0.0-11.0-2.0-0.23","7654","2","18","Male","approach_avoid_spark_v1","""event"",""trial"",""time""
""fullscreenenter"",""1"",""3108""
","
","
","""event"",""trial"",""time""
""fullscreenenter"",""1"",""3108""
","
","","","","","","null","<div style=""font-size:60px;"">+</div>","null","","fixation","","","","","","","","","","",""
"aa-learning-trial","236","801206","0.0-11.0-2.0-1.23","7654","2","18","Male","approach_avoid_spark_v1","""event"",""trial"",""time""
""fullscreenenter"",""1"",""3108""
","
","
","""event"",""trial"",""time""
""fullscreenenter"",""1"",""3108""
","
