"trial_type","trial_index","time_elapsed","internal_node_id","subject_id","task_condition","age","gender","task_version","interactions","blur_events","focus_events","fullscreenenter_events","fullscreenexit_events","success","timeout","failed_images","failed_audio","failed_video","rt","stimulus","response","button_pressed","task_part","approach_reward","points","key_press","option_selected","stim_cat","task_block","block_condition","block_number","correct","cat_type","mean_cat_reward"
"pavlovia","0","19","0.0-0.0","7805","2","11","Female","approach_avoid_spark_v1","""event"",""trial"",""time""
""fullscreenenter"",""1"",""35476""
","
","
","""event"",""trial"",""time""
""fullscreenenter"",""1"",""35476""
","
","","","","","","","","","","","","","","","","","","","","",""
"fullscreen","1","36443","0.0-1.0","7805","2","11","Female","approach_avoid_spark_v1","""event"",""trial"",""time""
""fullscreenenter"",""1"",""35476""
","
","
","""event"",""trial"",""time""
""fullscreenenter"",""1"",""35476""
","
","true","","","","","","","","","","","","","","","","","","","",""
"preload","2","48306","0.0-2.0","7805","2","11","Female","approach_avoid_spark_v1","""event"",""trial"",""time""
""fullscreenenter"",""1"",""35476""
","
","
","""event"",""trial"",""time""
""fullscreenenter"",""1"",""35476""
","
","true","false","[]","[]","[]","","","","","","","","","","","","","","","",""
"audio-keyboard-response","3","55465","0.0-3.0","7805","2","11","Female","approach_avoid_spark_v1","""event"",""trial"",""time""
""fullscreenenter"",""1"",""35476""
","
","
","""event"",""trial"",""time""
""fullscreenenter"",""1"",""35476""
","
","","","","","","7157.333333333334","audio/beep_loop.wav"," ","","","","","","","","","","","","",""
"audio-button-response","4","58931","0.0-4.0","7805","2","11","Female","approach_avoid_spark_v1","""event"",""trial"",""time""
""fullscreenenter"",""1"",""35476""
","
","
","""event"",""trial"",""time""
""fullscreenenter"",""1"",""35476""
","
","","","","","","3456","audio/shark.wav","4","","","","","","","","","","","","",""
"audio-button-response","5","61540","0.0-5.0","7805","2","11","Female","approach_avoid_spark_v1","""event"",""trial"",""time""
""fullscreenenter"",""1"",""35476""
","
","
","""event"",""trial"",""time""
""fullscreenenter"",""1"",""35476""
","
","","","","","","1600","audio/turtle.wav","1","","","","","","","","","","","","",""
"preload","6","66532","0.0-6.0","7805","2","11","Female","approach_avoid_spark_v1","""event"",""trial"",""time""
""fullscreenenter"",""1"",""35476""
","
","
","""event"",""trial"",""time""
""fullscreenenter"",""1"",""35476""
","
","true","false","[]","[]","[]","","","","","","","","","","","","","","","",""
"html-keyboard-response","7","69913","0.0-7.0","7805","2","11","Female","approach_avoid_spark_v1","""event"",""trial"",""time""
""fullscreenenter"",""1"",""35476""
","
","
","""event"",""trial"",""time""
""fullscreenenter"",""1"",""35476""
","
","","","","","","3371.900000002235","Welcome to the experiment. Press any key to begin and to advance the instructions."," ","","","","","","","","","","","","",""
"learning-instructions","8","78271","0.0-8.0-0.0-0.0","7805","2","11","Female","approach_avoid_spark_v1","""event"",""trial"",""time""
""fullscreenenter"",""1"",""35476""
","
","
","""event"",""trial"",""time""
""fullscreenenter"",""1"",""35476""
","
","","","","","","1399.199999999255","<p> Welcome! Today you are going to play 6 different rounds of a decision-making game. </p><p> Use the mouse to click next to continue. </p>","","0","instructions","","","","","","","","","","",""
"learning-instructions","9","81626","0.0-8.0-0.0-0.1","7805","2","11","Female","approach_avoid_spark_v1","""event"",""trial"",""time""
""fullscreenenter"",""1"",""35476""
","
","
","""event"",""trial"",""time""
""fullscreenenter"",""1"",""35476""
","
","","","","","","626.0999999977648","<p> You will start with a practice round to learn the rules. </p>","","0","instructions","","","","","","","","","","",""
"learning-instructions","10","85691","0.0-8.0-0.0-0.2","7805","2","11","Female","approach_avoid_spark_v1","""event"",""trial"",""time""
""fullscreenenter"",""1"",""35476""
","
","
","""event"",""trial"",""time""
""fullscreenenter"",""1"",""35476""
","
","","","","","","604.0999999977648","<p> Your goal in this round is to give out sports equipment to kids. </p></div>","","0","instructions","","","","","","","","","","",""
"learning-instructions","11","94218","0.0-8.0-0.0-0.3","7805","2","11","Female","approach_avoid_spark_v1","""event"",""trial"",""time""
""fullscreenenter"",""1"",""35476""
","
","
","""event"",""trial"",""time""
""fullscreenenter"",""1"",""35476""
","
","","","","","","973.8999999985099","<p> The kids only like some of the equipment.  </p><p> On each turn, you will see a piece of sports equipment.   </p><p> You need to decide whether to give it to the kids or not.  </p>","","0","instructions","","","","","","","","","","",""
"learning-instructions","12","101065","0.0-8.0-0.0-0.4","7805","2","11","Female","approach_avoid_spark_v1","""event"",""trial"",""time""
""fullscreenenter"",""1"",""35476""
","
","
","""event"",""trial"",""time""
""fullscreenenter"",""1"",""35476""
","
","","","","","","2092","<p> You can give them the equipment by pressing 1 and choose not to give it to them by pressing 0. </p><br><div class=""choice-instructions-grid""> <div class=""choice-option""><img src=""images/approach.png"" class=""choice-option-img"" stage=""instructions"" position=""0"" ><div class=""choice-option-text""> Press ""1."" </div></div><div class=""choice-option""><img src=""images/avoid.png"" class=""choice-option-img"" stage=""instructions"" position=""1"" ><div class=""choice-option-text""> Press ""0."" </div></div>","","0","instructions","","","","","","","","","","",""
"learning-instructions","13","109339","0.0-8.0-0.0-0.5","7805","2","11","Female","approach_avoid_spark_v1","""event"",""trial"",""time""
""fullscreenenter"",""1"",""35476""
","
","
","""event"",""trial"",""time""
""fullscreenenter"",""1"",""35476""
","
","","","","","","883.9000000022352","<p> If you give them a piece of equipment they like, they will be happy! </p><p> But if you give them a piece of equipment they do not like, they will be sad. </p>","","0","instructions","","","","","","","","","","",""
"learning-instructions","14","120338","0.0-8.0-0.0-0.6","7805","2","11","Female","approach_avoid_spark_v1","""event"",""trial"",""time""
""fullscreenenter"",""1"",""35476""
","
","
","""event"",""trial"",""time""
""fullscreenenter"",""1"",""35476""
","
","","","","","","480.0999999977648","<p> You will earn points based on how you make kids feel. </p><p> If you make them happy, you will WIN anywhere from 1 - 9 points, </p><p> but if you make them sad, you will LOSE anywhere from 1 - 9 points. </p>","","0","instructions","","","","","","","","","","",""
"learning-instructions","15","130434","0.0-8.0-0.0-0.7","7805","2","11","Female","approach_avoid_spark_v1","""event"",""trial"",""time""
""fullscreenenter"",""1"",""35476""
","
","
","""event"",""trial"",""time""
""fullscreenenter"",""1"",""35476""
","
","","","","","","549.5","<p> You will see how many points you won or lost in the center of the screen. </p><p> Here is what you would see if you won 6 points: </p><p style=""color:green;font-size:50px;font-weight:bolder"">6</p><p style=""color:green"">The text is GREEN because you WON points.</p>","","0","instructions","","","","","","","","","","",""
"learning-instructions","16","136457","0.0-8.0-0.0-0.8","7805","2","11","Female","approach_avoid_spark_v1","""event"",""trial"",""time""
""fullscreenenter"",""1"",""35476""
","
","
","""event"",""trial"",""time""
""fullscreenenter"",""1"",""35476""
","
","","","","","","513.6999999992549","<p> And here is what you would see if you lost 4 points: </p><p style=""color:red;font-size:50px;font-weight:bolder"">-4</p><p style=""color:red"">The text is RED because you LOST points. </p>","","0","instructions","","","","","","","","","","",""
"learning-instructions","17","151908","0.0-8.0-0.0-0.9","7805","2","11","Female","approach_avoid_spark_v1","""event"",""trial"",""time""
""fullscreenenter"",""1"",""35476""
","
","
","""event"",""trial"",""time""
""fullscreenenter"",""1"",""35476""
","
","","","","","","732.3999999985099","<p> Some of the equipment will make the kids VERY happy or sad. </p><p> These pieces of equipment will make you win or lose LOTS of points. </p><p> Other pieces of equipment will only make the kids a little happy or sad. </p><p> These pieces of equipment will make you win or lose small amounts of points. </p>","","0","instructions","","","","","","","","","","",""
"learning-instructions","18","163030","0.0-8.0-0.0-0.10","7805","2","11","Female","approach_avoid_spark_v1","""event"",""trial"",""time""
""fullscreenenter"",""1"",""35476""
","
","
","""event"",""trial"",""time""
""fullscreenenter"",""1"",""35476""
","
","","","","","","494.5","<p> If you choose not to give them the equipment, you will not win or lose any points. </p><p>  However, in the center of the screen, you will see the number of points you WOULD HAVE won or lost if you had given them the equipment. </p>","","0","instructions","","","","","","","","","","",""
"learning-instructions","19","185739","0.0-8.0-0.0-0.11","7805","2","11","Female","approach_avoid_spark_v1","""event"",""trial"",""time""
""fullscreenenter"",""1"",""35476""
","
","
","""event"",""trial"",""time""
""fullscreenenter"",""1"",""35476""
","
","","","","","","1177","<p> Here is what you might see if you did not give the equipment to the kids but it would have made them happy: </p><p style=""color:grey; font-size:50px; display: inline-block; border-spacing: 15px; border-width:3px; border-style:solid; border-color:red"">  &nbsp; 7 &nbsp; </p><p> Remember, in this case, you would not win or lose ANY points because you did not give them the equipment.  </p><p style=""color:grey"">The text is GREY because you earned ZERO points. </p><p style=""color:red"">However, choosing to give the kids the equipment would have made you win points. The box around the text is RED because you chose the worse option. </p>","","0","instructions","","","","","","","","","","",""
"learning-instructions","20","207525","0.0-8.0-0.0-0.12","7805","2","11","Female","approach_avoid_spark_v1","""event"",""trial"",""time""
""fullscreenenter"",""1"",""35476""
","
","
","""event"",""trial"",""time""
""fullscreenenter"",""1"",""35476""
","
","","","","","","706.8000000007451","<p> Here is what you might see if you did not give the equipment to the kids but it would have made them sad: </p><p style=""color:grey;font-size:50px; display: inline-block; border-spacing: 15px; border-width:3px; border-style:solid; border-color:green"">  &nbsp; -8 &nbsp; </p><p> Remember, in this case, you would not win or lose ANY points because you did not give them the equipment.  </p><p style=""color:grey"">The text is GREY because you earned ZERO points. </p><p  style=""color:green""> Choosing to give the kids the equipment would have made you lose points. The box around the text is GREEN because you chose the better option.</p>","","0","instructions","","","","","","","","","","",""
"learning-instructions","21","217508","0.0-8.0-0.0-0.13","7805","2","11","Female","approach_avoid_spark_v1","""event"",""trial"",""time""
""fullscreenenter"",""1"",""35476""
","
","
","""event"",""trial"",""time""
""fullscreenenter"",""1"",""35476""
","
","","","","","","858.1999999992549","<p> You will have 3 seconds to make each choice. Try to respond before time runs out! </p><p> You will lose 5 points each time you do not make a response. </p>","","0","instructions","","","","","","","","","","",""
"learning-instructions","22","223608","0.0-8.0-0.0-0.14","7805","2","11","Female","approach_avoid_spark_v1","""event"",""trial"",""time""
""fullscreenenter"",""1"",""35476""
","
","
","""event"",""trial"",""time""
""fullscreenenter"",""1"",""35476""
","
","","","","","","675.8000000007451","<p> This is just a practice round, but in the real game, your bonus payment will depend on your total number of points.","","0","instructions","","","","","","","","","","",""
"learning-instructions","23","229877","0.0-8.0-0.0-0.15","7805","2","11","Female","approach_avoid_spark_v1","""event"",""trial"",""time""
""fullscreenenter"",""1"",""35476""
","
","
","""event"",""trial"",""time""
""fullscreenenter"",""1"",""35476""
","
","","","","","","489.69999999925494","<p> Remember, you can give them the equipment by pressing 1 and choose not to give it to them by pressing 0. </p><br><div class=""choice-instructions-grid""> <div class=""choice-option""><img src=""images/approach.png"" class=""choice-option-img"" stage=""instructions"" position=""0"" ><div class=""choice-option-text""> Press ""1."" </div></div><div class=""choice-option""><img src=""images/avoid.png"" class=""choice-option-img"" stage=""instructions"" position=""1"" ><div class=""choice-option-text""> Press ""0."" </div></div>","","0","instructions","","","","","","","","","","",""
"html-button-response","24","232063","0.0-8.0-1.0","7805","2","11","Female","approach_avoid_spark_v1","""event"",""trial"",""time""
""fullscreenenter"",""1"",""35476""
","
","
","""event"",""trial"",""time""
""fullscreenenter"",""1"",""35476""
","
","","","","","","2075.2000000029802","<p> Ready to practice? </p>","0","","","","","","","","","","","","",""
"html-keyboard-response","25","232667","0.0-8.0-2.0-0.0","7805","2","11","Female","approach_avoid_spark_v1","""event"",""trial"",""time""
""fullscreenenter"",""1"",""35476""
","
","
","""event"",""trial"",""time""
""fullscreenenter"",""1"",""35476""
","
","","","","","","null","<div style=""font-size:60px;"">+</div>","null","","fixation","","","","","","","","","","",""
"aa-learning-trial","26","235682","0.0-8.0-2.0-1.0","7805","2","11","Female","approach_avoid_spark_v1","""event"",""trial"",""time""
""fullscreenenter"",""1"",""35476""
","
","
","""event"",""trial"",""time""
""fullscreenenter"",""1"",""35476""
","
","","","","","","2615.39999999851","images/racket4.png","","","learning","-3","-3","1","1","practice","practice","practice","-1","","",""
"html-keyboard-response","27","236187","0.0-8.0-2.0-0.1","7805","2","11","Female","approach_avoid_spark_v1","""event"",""trial"",""time""
""fullscreenenter"",""1"",""35476""
","
","
","""event"",""trial"",""time""
""fullscreenenter"",""1"",""35476""
","
","","","","","","null","<div style=""font-size:60px;"">+</div>","null","","fixation","","","","","","","","","","",""
"aa-learning-trial","28","239198","0.0-8.0-2.0-1.1","7805","2","11","Female","approach_avoid_spark_v1","""event"",""trial"",""time""
""fullscreenenter"",""1"",""35476""
","
","
","""event"",""trial"",""time""
""fullscreenenter"",""1"",""35476""
","
","","","","","","1578.0999999977648","images/racket2.png","","","learning","9","9","1","1","practice","practice","practice","-1","","",""
"html-keyboard-response","29","239703","0.0-8.0-2.0-0.2","7805","2","11","Female","approach_avoid_spark_v1","""event"",""trial"",""time""
""fullscreenenter"",""1"",""35476""
","
","
","""event"",""trial"",""time""
""fullscreenenter"",""1"",""35476""
","
","","","","","","null","<div style=""font-size:60px;"">+</div>","null","","fixation","","","","","","","","","","",""
"aa-learning-trial","30","242715","0.0-8.0-2.0-1.2","7805","2","11","Female","approach_avoid_spark_v1","""event"",""trial"",""time""
""fullscreenenter"",""1"",""35476""
","
","
","""event"",""trial"",""time""
""fullscreenenter"",""1"",""35476""
","
","","","","","","1749.300000000745","images/ball2.png","","","learning","3","3","1","1","practice","practice","practice","-1","","",""
"html-keyboard-response","31","243221","0.0-8.0-2.0-0.3","7805","2","11","Female","approach_avoid_spark_v1","""event"",""trial"",""time""
""fullscreenenter"",""1"",""35476""
","
","
","""event"",""trial"",""time""
""fullscreenenter"",""1"",""35476""
","
","","","","","","null","<div style=""font-size:60px;"">+</div>","null","","fixation","","","","","","","","","","",""
"aa-learning-trial","32","246235","0.0-8.0-2.0-1.3","7805","2","11","Female","approach_avoid_spark_v1","""event"",""trial"",""time""
""fullscreenenter"",""1"",""35476""
","
","
","""event"",""trial"",""time""
""fullscreenenter"",""1"",""35476""
","
","","","","","","1317.5","images/racket1.png","","","learning","-6","0","0","0","practice","practice","practice","-1","","",""
"html-keyboard-response","33","246740","0.0-8.0-2.0-0.4","7805","2","11","Female","approach_avoid_spark_v1","""event"",""trial"",""time""
""fullscreenenter"",""1"",""35476""
","
","
","""event"",""trial"",""time""
""fullscreenenter"",""1"",""35476""
","
","","","","","","null","<div style=""font-size:60px;"">+</div>","null","","fixation","","","","","","","","","","",""
"aa-learning-trial","34","249751","0.0-8.0-2.0-1.4","7805","2","11","Female","approach_avoid_spark_v1","""event"",""trial"",""time""
""fullscreenenter"",""1"",""35476""
","
","
","""event"",""trial"",""time""
""fullscreenenter"",""1"",""35476""
","
","","","","","","1283.699999999255","images/racket3.png","","","learning","8","0","0","0","practice","practice","practice","-1","","",""
"html-keyboard-response","35","250256","0.0-8.0-2.0-0.5","7805","2","11","Female","approach_avoid_spark_v1","""event"",""trial"",""time""
""fullscreenenter"",""1"",""35476""
","
","
","""event"",""trial"",""time""
""fullscreenenter"",""1"",""35476""
","
","","","","","","null","<div style=""font-size:60px;"">+</div>","null","","fixation","","","","","","","","","","",""
"aa-learning-trial","36","253268","0.0-8.0-2.0-1.5","7805","2","11","Female","approach_avoid_spark_v1","""event"",""trial"",""time""
""fullscreenenter"",""1"",""35476""
","
","
","""event"",""trial"",""time""
""fullscreenenter"",""1"",""35476""
","
","","","","","","464.70000000298023","images/racket1.png","","","learning","6","6","1","1","practice","practice","practice","-1","","",""
"html-keyboard-response","37","253770","0.0-8.0-2.0-0.6","7805","2","11","Female","approach_avoid_spark_v1","""event"",""trial"",""time""
""fullscreenenter"",""1"",""35476""
","
","
","""event"",""trial"",""time""
""fullscreenenter"",""1"",""35476""
","
","","","","","","null","<div style=""font-size:60px;"">+</div>","null","","fixation","","","","","","","","","","",""
"aa-learning-trial","38","256779","0.0-8.0-2.0-1.6","7805","2","11","Female","approach_avoid_spark_v1","""event"",""trial"",""time""
""fullscreenenter"",""1"",""35476""
","
","
","""event"",""trial"",""time""
""fullscreenenter"",""1"",""35476""
","
","","","","","","698.1000000014901","images/racket3.png","","","learning","8","0","0","0","practice","practice","practice","-1","","",""
"html-keyboard-response","39","257282","0.0-8.0-2.0-0.7","7805","2","11","Female","approach_avoid_spark_v1","""event"",""trial"",""time""
""fullscreenenter"",""1"",""35476""
","
","
","""event"",""trial"",""time""
""fullscreenenter"",""1"",""35476""
","
","","","","","","null","<div style=""font-size:60px;"">+</div>","null","","fixation","","","","","","","","","","",""
"aa-learning-trial","40","260293","0.0-8.0-2.0-1.7","7805","2","11","Female","approach_avoid_spark_v1","""event"",""trial"",""time""
""fullscreenenter"",""1"",""35476""
","
","
","""event"",""trial"",""time""
""fullscreenenter"",""1"",""35476""
","
","","","","","","560.5","images/racket2.png","","","learning","7","7","1","1","practice","practice","practice","-1","","",""
"html-keyboard-response","41","260798","0.0-8.0-2.0-0.8","7805","2","11","Female","approach_avoid_spark_v1","""event"",""trial"",""time""
""fullscreenenter"",""1"",""35476""
","
","
","""event"",""trial"",""time""
""fullscreenenter"",""1"",""35476""
","
","","","","","","null","<div style=""font-size:60px;"">+</div>","null","","fixation","","","","","","","","","","",""
"aa-learning-trial","42","263811","0.0-8.0-2.0-1.8","7805","2","11","Female","approach_avoid_spark_v1","""event"",""trial"",""time""
""fullscreenenter"",""1"",""35476""
","
","
","""event"",""trial"",""time""
""fullscreenenter"",""1"",""35476""
","
","","","","","","751.1999999992549","images/ball2.png","","","learning","-7","0","0","0","practice","practice","practice","-1","","",""
"html-keyboard-response","43","264318","0.0-8.0-2.0-0.9","7805","2","11","Female","approach_avoid_spark_v1","""event"",""trial"",""time""
""fullscreenenter"",""1"",""35476""
","
","
","""event"",""trial"",""time""
""fullscreenenter"",""1"",""35476""
","
","","","","","","null","<div style=""font-size:60px;"">+</div>","null","","fixation","","","","","","","","","","",""
"aa-learning-trial","44","267333","0.0-8.0-2.0-1.9","7805","2","11","Female","approach_avoid_spark_v1","""event"",""trial"",""time""
""fullscreenenter"",""1"",""35476""
","
","
","""event"",""trial"",""time""
""fullscreenenter"",""1"",""35476""
","
","","","","","","496.80000000074506","images/racket2.png","","","learning","-7","-7","1","1","practice","practice","practice","-1","","",""
"html-keyboard-response","45","267838","0.0-8.0-2.0-0.10","7805","2","11","Female","approach_avoid_spark_v1","""event"",""trial"",""time""
""fullscreenenter"",""1"",""35476""
","
","
","""event"",""trial"",""time""
""fullscreenenter"",""1"",""35476""
","
","","","","","","null","<div style=""font-size:60px;"">+</div>","null","","fixation","","","","","","","","","","",""
"aa-learning-trial","46","270855","0.0-8.0-2.0-1.10","7805","2","11","Female","approach_avoid_spark_v1","""event"",""trial"",""time""
""fullscreenenter"",""1"",""35476""
","
","
","""event"",""trial"",""time""
""fullscreenenter"",""1"",""35476""
","
","","","","","","891.8999999985099","images/racket4.png","","","learning","7","0","0","0","practice","practice","practice","-1","","",""
"html-keyboard-response","47","271359","0.0-8.0-2.0-0.11","7805","2","11","Female","approach_avoid_spark_v1","""event"",""trial"",""time""
""fullscreenenter"",""1"",""35476""
","
","
","""event"",""trial"",""time""
""fullscreenenter"",""1"",""35476""
","
","","","","","","null","<div style=""font-size:60px;"">+</div>","null","","fixation","","","","","","","","","","",""
"aa-learning-trial","48","274366","0.0-8.0-2.0-1.11","7805","2","11","Female","approach_avoid_spark_v1","""event"",""trial"",""time""
""fullscreenenter"",""1"",""35476""
","
","
","""event"",""trial"",""time""
""fullscreenenter"",""1"",""35476""
","
","","","","","","843.2999999970198","images/racket3.png","","","learning","-5","-5","1","1","practice","practice","practice","-1","","",""
"html-button-response","49","277631","0.0-8.0-3.0","7805","2","11","Female","approach_avoid_spark_v1","""event"",""trial"",""time""
""fullscreenenter"",""1"",""35476""
","
","
","""event"",""trial"",""time""
""fullscreenenter"",""1"",""35476""
","
","","","","","","3249.800000000745","<p> You earned 10 points in the practice round! </p>","0","","break","","","","","","","","","","",""
"learning-instructions","50","285197","0.0-8.0-4.0-0.0","7805","2","11","Female","approach_avoid_spark_v1","""event"",""trial"",""time""
""fullscreenenter"",""1"",""35476""
","
","
","""event"",""trial"",""time""
""fullscreenenter"",""1"",""35476""
","
","","","","","","1597.800000000745","<p> It's almost time to start the real game. </p><p> Before you start, we're going to ask you a few questions about how the game works. </p>","","0","instructions","","","","","","","","","","",""
"preload","51","286804","0.0-8.0-5.0","7805","2","11","Female","approach_avoid_spark_v1","""event"",""trial"",""time""
""fullscreenenter"",""1"",""35476""
","
","
","""event"",""trial"",""time""
""fullscreenenter"",""1"",""35476""
","
","true","false","[]","[]","[]","","","","","","","","","","","","","","","",""
"comp-q","52","292873","0.0-8.0-6.0-0.0","7805","2","11","Female","approach_avoid_spark_v1","""event"",""trial"",""time""
""fullscreenenter"",""1"",""35476""
","
","
","""event"",""trial"",""time""
""fullscreenenter"",""1"",""35476""
","
","","","","","","1058.800000000745","<p> <b> True or False? </b> </p><p> If you see a number in GREY, that means you earned that many points. </p>","","1","comp_question","","","","","","","","","true","",""
"comp-q","53","302436","0.0-8.0-6.0-1.0","7805","2","11","Female","approach_avoid_spark_v1","""event"",""trial"",""time""
""fullscreenenter"",""1"",""35476""
","
","
","""event"",""trial"",""time""
""fullscreenenter"",""1"",""35476""
","
","","","","","","1203.199999999255","<p><b> That's right! </b> If you see a grey number, it means you earned ZERO points. <br> The grey numbers show the points you WOULD HAVE earned if you had made the other choice. </p>","","0","comp_answer","","","","","","","","","","",""
"comp-q","54","307666","0.0-8.0-7.0-0.0","7805","2","11","Female","approach_avoid_spark_v1","""event"",""trial"",""time""
""fullscreenenter"",""1"",""35476""
","
","
","""event"",""trial"",""time""
""fullscreenenter"",""1"",""35476""
","
","","","","","","535.8000000007451","<p> <b> True or False? </b> </p><p> You will have as much time as you want to make each choice. </p>","","1","comp_question","","","","","","","","","true","",""
"comp-q","55","313023","0.0-8.0-7.0-1.0","7805","2","11","Female","approach_avoid_spark_v1","""event"",""trial"",""time""
""fullscreenenter"",""1"",""35476""
","
","
","""event"",""trial"",""time""
""fullscreenenter"",""1"",""35476""
","
","","","","","","1315.699999999255","<p> <b> That's right! </b> You will only have 3 seconds to make each choice. </p>","","0","comp_answer","","","","","","","","","","",""
"comp-q","56","318130","0.0-8.0-8.0-0.0","7805","2","11","Female","approach_avoid_spark_v1","""event"",""trial"",""time""
""fullscreenenter"",""1"",""35476""
","
","
","""event"",""trial"",""time""
""fullscreenenter"",""1"",""35476""
","
","","","","","","439.6000000014901","<p> <b> True or False? </b> </p><p> You should use the '1' and '0' keys to make your choices. </p>","","0","comp_question","","","","","","","","","true","",""
"comp-q","57","323657","0.0-8.0-8.0-1.0","7805","2","11","Female","approach_avoid_spark_v1","""event"",""trial"",""time""
""fullscreenenter"",""1"",""35476""
","
","
","""event"",""trial"",""time""
""fullscreenenter"",""1"",""35476""
","
","","","","","","910.3000000007451","<p> <b> That's right! </b> You should use the '1' and '0' keys to make each choice. </p>","","0","comp_answer","","","","","","","","","","",""
"learning-instructions","58","331380","0.0-8.0-9.0-0.0","7805","2","11","Female","approach_avoid_spark_v1","""event"",""trial"",""time""
""fullscreenenter"",""1"",""35476""
","
","
","""event"",""trial"",""time""
""fullscreenenter"",""1"",""35476""
","
","","","","","","1455.0999999977648","<p> It's now time to start the real game. </p>Do your best, because the points you earn in the next rounds will influence your bonus payment. </p>","","0","instructions","","","","","","","","","","",""
"preload","59","331567","0.0-9.0-0.0","7805","2","11","Female","approach_avoid_spark_v1","""event"",""trial"",""time""
""fullscreenenter"",""1"",""35476""
","
","
","""event"",""trial"",""time""
""fullscreenenter"",""1"",""35476""
","
","true","false","[]","[]","[]","","","","","","","","","","","","","","","",""
"learning-instructions","60","347014","0.0-9.0-1.0-0.0","7805","2","11","Female","approach_avoid_spark_v1","""event"",""trial"",""time""
""fullscreenenter"",""1"",""35476""
","
","
","""event"",""trial"",""time""
""fullscreenenter"",""1"",""35476""
","
","","","","","","1877.8999999985099","<p> Your goal in this round is to take care of lots of animals. </p></div>","","0","instructions","","","","","","","","","","",""
"learning-instructions","61","359155","0.0-9.0-1.0-0.1","7805","2","11","Female","approach_avoid_spark_v1","""event"",""trial"",""time""
""fullscreenenter"",""1"",""35476""
","
","
","""event"",""trial"",""time""
""fullscreenenter"",""1"",""35476""
","
","","","","","","1165.0999999977648","<p> Some animals want to be pet, while other animals want to be left alone.  </p><p> On each turn, you will see an animal.   </p><p> You need to decide whether to pet it or not.  </p>","","0","instructions","","","","","","","","","","",""
"learning-instructions","62","365873","0.0-9.0-1.0-0.2","7805","2","11","Female","approach_avoid_spark_v1","""event"",""trial"",""time""
""fullscreenenter"",""1"",""35476""
","
","
","""event"",""trial"",""time""
""fullscreenenter"",""1"",""35476""
","
","","","","","","1168.300000000745","<p> You can pet the animal by pressing 1 and leave the animal alone by pressing 0. </p><br><div class=""choice-instructions-grid""> <div class=""choice-option""><img src=""images/approach.png"" class=""choice-option-img"" stage=""instructions"" position=""0"" ><div class=""choice-option-text""> Press ""1."" </div></div><div class=""choice-option""><img src=""images/avoid.png"" class=""choice-option-img"" stage=""instructions"" position=""1"" ><div class=""choice-option-text""> Press ""0."" </div></div>","","0","instructions","","","","","","","","","","",""
"learning-instructions","63","376961","0.0-9.0-1.0-0.3","7805","2","11","Female","approach_avoid_spark_v1","""event"",""trial"",""time""
""fullscreenenter"",""1"",""35476""
","
","
","""event"",""trial"",""time""
""fullscreenenter"",""1"",""35476""
","
","","","","","","828.4000000022352","<p> If you pet an animal that wants to be pet, you will make it feel happy! </p><p> But if you pet an animal that wants to be left alone, you will make it feel angry. </p>","","0","instructions","","","","","","","","","","",""
"learning-instructions","64","390963","0.0-9.0-1.0-0.4","7805","2","11","Female","approach_avoid_spark_v1","""event"",""trial"",""time""
""fullscreenenter"",""1"",""35476""
","
","
","""event"",""trial"",""time""
""fullscreenenter"",""1"",""35476""
","
","","","","","","928.5","<p> You will earn points based on how you made the animal feel. </p><p> If you made it feel happy, you will WIN anywhere from 1 - 9 points, </p><p> but if you made it feel angry, you will LOSE anywhere from 1 - 9 points. </p>","","0","instructions","","","","","","","","","","",""
"learning-instructions","65","399356","0.0-9.0-1.0-0.5","7805","2","11","Female","approach_avoid_spark_v1","""event"",""trial"",""time""
""fullscreenenter"",""1"",""35476""
","
","
","""event"",""trial"",""time""
""fullscreenenter"",""1"",""35476""
","
","","","","","","578.3000000007451","<p> You will see how many points you won or lost in the center of the screen. </p><p> Here is what you would see if you won 5 points: </p><p style=""color:green;font-size:50px;font-weight:bolder"">5</p>","","0","instructions","","","","","","","","","","",""
"learning-instructions","66","403365","0.0-9.0-1.0-0.6","7805","2","11","Female","approach_avoid_spark_v1","""event"",""trial"",""time""
""fullscreenenter"",""1"",""35476""
","
","
","""event"",""trial"",""time""
""fullscreenenter"",""1"",""35476""
","
","","","","","","470","<p> And here is what you would see if you lost 3 points: </p><p style=""color:red;font-size:50px;font-weight:bolder"">-3</p>","","0","instructions","","","","","","","","","","",""
"learning-instructions","67","418467","0.0-9.0-1.0-0.7","7805","2","11","Female","approach_avoid_spark_v1","""event"",""trial"",""time""
""fullscreenenter"",""1"",""35476""
","
","
","""event"",""trial"",""time""
""fullscreenenter"",""1"",""35476""
","
","","","","","","447.4000000022352","<p> Some animals will become very happy or very angry. </p><p> These animals will make you win or lose LOTS of points. </p><p> Other animals have less strong feelings. </p><p> These animals will make you win or lose small amounts of points. </p>","","0","instructions","","","","","","","","","","",""
"learning-instructions","68","430274","0.0-9.0-1.0-0.8","7805","2","11","Female","approach_avoid_spark_v1","""event"",""trial"",""time""
""fullscreenenter"",""1"",""35476""
","
","
","""event"",""trial"",""time""
""fullscreenenter"",""1"",""35476""
","
","","","","","","498.3999999985099","<p> If you choose to leave the animal alone, you will not win or lose any points. </p><p>  However, in the center of the screen, you will see the number of points you WOULD HAVE won or lost if you had pet the animal. </p>","","0","instructions","","","","","","","","","","",""
"learning-instructions","69","442984","0.0-9.0-1.0-0.9","7805","2","11","Female","approach_avoid_spark_v1","""event"",""trial"",""time""
""fullscreenenter"",""1"",""35476""
","
","
","""event"",""trial"",""time""
""fullscreenenter"",""1"",""35476""
","
","","","","","","1111.4000000022352","<p> Here is what you might see if you did not pet the animal but the animal wanted to be pet: </p><p style=""color:grey; font-size:50px; display: inline-block; border-spacing: 15px; border-width:3px; border-style:solid; border-color:red"">  &nbsp; 6 &nbsp; </p><p> Remember, in this case, you would not win or lose ANY points because you did not pet the animal.  </p>","","0","instructions","","","","","","","","","","",""
"learning-instructions","70","450892","0.0-9.0-1.0-0.10","7805","2","11","Female","approach_avoid_spark_v1","""event"",""trial"",""time""
""fullscreenenter"",""1"",""35476""
","
","
","""event"",""trial"",""time""
""fullscreenenter"",""1"",""35476""
","
","","","","","","850.2000000029802","<p> Try to make the best choice for each animal because </p><p> at the end of the game, you will earn bonus money based on how many points you earned. </p>","","0","instructions","","","","","","","","","","",""
"learning-instructions","71","459608","0.0-9.0-1.0-0.11","7805","2","11","Female","approach_avoid_spark_v1","""event"",""trial"",""time""
""fullscreenenter"",""1"",""35476""
","
","
","""event"",""trial"",""time""
""fullscreenenter"",""1"",""35476""
","
","","","","","","521.2999999970198","<p> You will have 3 seconds to make each choice. Try to respond before time runs out! </p><p> You will lose 5 points each time you do not make a response. </p>","","0","instructions","","","","","","","","","","",""
"html-keyboard-response","72","460213","0.0-9.0-2.0-0.0","7805","2","11","Female","approach_avoid_spark_v1","""event"",""trial"",""time""
""fullscreenenter"",""1"",""35476""
","
","
","""event"",""trial"",""time""
""fullscreenenter"",""1"",""35476""
","
","","","","","","null","<div style=""font-size:60px;"">+</div>","null","","fixation","","","","","","","","","","",""
"aa-learning-trial","73","463227","0.0-9.0-2.0-1.0","7805","2","11","Female","approach_avoid_spark_v1","""event"",""trial"",""time""
""fullscreenenter"",""1"",""35476""
","
","
","""event"",""trial"",""time""
""fullscreenenter"",""1"",""35476""
","
","","","","","","2228","images/dog1.png","","","learning","-4","-4","1","1","dog","pets","2","0","","neutral","0"
"html-keyboard-response","74","463730","0.0-9.0-2.0-0.1","7805","2","11","Female","approach_avoid_spark_v1","""event"",""trial"",""time""
""fullscreenenter"",""1"",""35476""
","
","
","""event"",""trial"",""time""
""fullscreenenter"",""1"",""35476""
","
","","","","","","null","<div style=""font-size:60px;"">+</div>","null","","fixation","","","","","","","","","","",""
"aa-learning-trial","75","466740","0.0-9.0-2.0-1.1","7805","2","11","Female","approach_avoid_spark_v1","""event"",""trial"",""time""
""fullscreenenter"",""1"",""35476""
","
","
","""event"",""trial"",""time""
""fullscreenenter"",""1"",""35476""
","
","","","","","","1306.699999999255","images/rabbit5.png","","","learning","3","0","0","0","rabbit","pets","2","0","","bad","[-5]"
"html-keyboard-response","76","467246","0.0-9.0-2.0-0.2","7805","2","11","Female","approach_avoid_spark_v1","""event"",""trial"",""time""
""fullscreenenter"",""1"",""35476""
","
","
","""event"",""trial"",""time""
""fullscreenenter"",""1"",""35476""
","
","","","","","","null","<div style=""font-size:60px;"">+</div>","null","","fixation","","","","","","","","","","",""
"aa-learning-trial","77","470258","0.0-9.0-2.0-1.2","7805","2","11","Female","approach_avoid_spark_v1","""event"",""trial"",""time""
""fullscreenenter"",""1"",""35476""
","
","
","""event"",""trial"",""time""
""fullscreenenter"",""1"",""35476""
","
","","","","","","1002","images/rodent5.png","","","learning","8","0","0","0","rodent","pets","2","0","","good","[6]"
"html-keyboard-response","78","470763","0.0-9.0-2.0-0.3","7805","2","11","Female","approach_avoid_spark_v1","""event"",""trial"",""time""
""fullscreenenter"",""1"",""35476""
","
","
","""event"",""trial"",""time""
""fullscreenenter"",""1"",""35476""
","
","","","","","","null","<div style=""font-size:60px;"">+</div>","null","","fixation","","","","","","","","","","",""
"aa-learning-trial","79","473775","0.0-9.0-2.0-1.3","7805","2","11","Female","approach_avoid_spark_v1","""event"",""trial"",""time""
""fullscreenenter"",""1"",""35476""
","
","
","""event"",""trial"",""time""
""fullscreenenter"",""1"",""35476""
","
","","","","","","957.8000000007451","images/dog8.png","","","learning","6","6","1","1","dog","pets","2","0","","neutral","0"
"html-keyboard-response","80","474278","0.0-9.0-2.0-0.4","7805","2","11","Female","approach_avoid_spark_v1","""event"",""trial"",""time""
""fullscreenenter"",""1"",""35476""
","
","
","""event"",""trial"",""time""
""fullscreenenter"",""1"",""35476""
","
","","","","","","null","<div style=""font-size:60px;"">+</div>","null","","fixation","","","","","","","","","","",""
"aa-learning-trial","81","477288","0.0-9.0-2.0-1.4","7805","2","11","Female","approach_avoid_spark_v1","""event"",""trial"",""time""
""fullscreenenter"",""1"",""35476""
","
","
","""event"",""trial"",""time""
""fullscreenenter"",""1"",""35476""
","
","","","","","","1263","images/rodent5.png","","","learning","8","0","0","0","rodent","pets","2","0","","good","[6]"
"html-keyboard-response","82","477792","0.0-9.0-2.0-0.5","7805","2","11","Female","approach_avoid_spark_v1","""event"",""trial"",""time""
""fullscreenenter"",""1"",""35476""
","
","
","""event"",""trial"",""time""
""fullscreenenter"",""1"",""35476""
","
","","","","","","null","<div style=""font-size:60px;"">+</div>","null","","fixation","","","","","","","","","","",""
"aa-learning-trial","83","480798","0.0-9.0-2.0-1.5","7805","2","11","Female","approach_avoid_spark_v1","""event"",""trial"",""time""
""fullscreenenter"",""1"",""35476""
","
","
","""event"",""trial"",""time""
""fullscreenenter"",""1"",""35476""
","
","","","","","","1693.8999999985099","images/dog7.png","","","learning","4","0","0","0","dog","pets","2","0","","neutral","0"
"html-keyboard-response","84","481303","0.0-9.0-2.0-0.6","7805","2","11","Female","approach_avoid_spark_v1","""event"",""trial"",""time""
""fullscreenenter"",""1"",""35476""
","
","
","""event"",""trial"",""time""
""fullscreenenter"",""1"",""35476""
","
","","","","","","null","<div style=""font-size:60px;"">+</div>","null","","fixation","","","","","","","","","","",""
"aa-learning-trial","85","484315","0.0-9.0-2.0-1.6","7805","2","11","Female","approach_avoid_spark_v1","""event"",""trial"",""time""
""fullscreenenter"",""1"",""35476""
","
","
","""event"",""trial"",""time""
""fullscreenenter"",""1"",""35476""
","
","","","","","","687.4000000022352","images/rabbit6.png","","","learning","-2","-2","1","1","rabbit","pets","2","0","","bad","[-5]"
"html-keyboard-response","86","484820","0.0-9.0-2.0-0.7","7805","2","11","Female","approach_avoid_spark_v1","""event"",""trial"",""time""
""fullscreenenter"",""1"",""35476""
","
","
","""event"",""trial"",""time""
""fullscreenenter"",""1"",""35476""
","
","","","","","","null","<div style=""font-size:60px;"">+</div>","null","","fixation","","","","","","","","","","",""
"aa-learning-trial","87","487837","0.0-9.0-2.0-1.7","7805","2","11","Female","approach_avoid_spark_v1","""event"",""trial"",""time""
""fullscreenenter"",""1"",""35476""
","
","
","""event"",""trial"",""time""
""fullscreenenter"",""1"",""35476""
","
","","","","","","1225.2999999970198","images/rodent8.png","","","learning","-3","-3","1","1","rodent","pets","2","0","","good","[6]"
"html-keyboard-response","88","488342","0.0-9.0-2.0-0.8","7805","2","11","Female","approach_avoid_spark_v1","""event"",""trial"",""time""
""fullscreenenter"",""1"",""35476""
","
","
","""event"",""trial"",""time""
""fullscreenenter"",""1"",""35476""
","
","","","","","","null","<div style=""font-size:60px;"">+</div>","null","","fixation","","","","","","","","","","",""
"aa-learning-trial","89","491357","0.0-9.0-2.0-1.8","7805","2","11","Female","approach_avoid_spark_v1","""event"",""trial"",""time""
""fullscreenenter"",""1"",""35476""
","
","
","""event"",""trial"",""time""
""fullscreenenter"",""1"",""35476""
","
","","","","","","495.8999999985099","images/rabbit5.png","","","learning","3","0","0","0","rabbit","pets","2","0","","bad","[-5]"
"html-keyboard-response","90","491861","0.0-9.0-2.0-0.9","7805","2","11","Female","approach_avoid_spark_v1","""event"",""trial"",""time""
""fullscreenenter"",""1"",""35476""
","
","
","""event"",""trial"",""time""
""fullscreenenter"",""1"",""35476""
","
","","","","","","null","<div style=""font-size:60px;"">+</div>","null","","fixation","","","","","","","","","","",""
"aa-learning-trial","91","494867","0.0-9.0-2.0-1.9","7805","2","11","Female","approach_avoid_spark_v1","""event"",""trial"",""time""
""fullscreenenter"",""1"",""35476""
","
","
","""event"",""trial"",""time""
""fullscreenenter"",""1"",""35476""
","
","","","","","","1058.1000000014901","images/rabbit6.png","","","learning","-2","0","0","0","rabbit","pets","2","0","","bad","[-5]"
"html-keyboard-response","92","495371","0.0-9.0-2.0-0.10","7805","2","11","Female","approach_avoid_spark_v1","""event"",""trial"",""time""
""fullscreenenter"",""1"",""35476""
","
","
","""event"",""trial"",""time""
""fullscreenenter"",""1"",""35476""
","
","","","","","","null","<div style=""font-size:60px;"">+</div>","null","","fixation","","","","","","","","","","",""
"aa-learning-trial","93","498377","0.0-9.0-2.0-1.10","7805","2","11","Female","approach_avoid_spark_v1","""event"",""trial"",""time""
""fullscreenenter"",""1"",""35476""
","
","
","""event"",""trial"",""time""
""fullscreenenter"",""1"",""35476""
","
","","","","","","1726.300000000745","images/rodent6.png","","","learning","5","5","1","1","rodent","pets","2","0","","good","[6]"
"html-keyboard-response","94","498886","0.0-9.0-2.0-0.11","7805","2","11","Female","approach_avoid_spark_v1","""event"",""trial"",""time""
""fullscreenenter"",""1"",""35476""
","
","
","""event"",""trial"",""time""
""fullscreenenter"",""1"",""35476""
","
","","","","","","null","<div style=""font-size:60px;"">+</div>","null","","fixation","","","","","","","","","","",""
"aa-learning-trial","95","501899","0.0-9.0-2.0-1.11","7805","2","11","Female","approach_avoid_spark_v1","""event"",""trial"",""time""
""fullscreenenter"",""1"",""35476""
","
","
","""event"",""trial"",""time""
""fullscreenenter"",""1"",""35476""
","
","","","","","","1349.5999999977648","images/rodent8.png","","","learning","-3","-3","1","1","rodent","pets","2","0","","good","[6]"
"html-keyboard-response","96","502403","0.0-9.0-2.0-0.12","7805","2","11","Female","approach_avoid_spark_v1","""event"",""trial"",""time""
""fullscreenenter"",""1"",""35476""
","
","
","""event"",""trial"",""time""
""fullscreenenter"",""1"",""35476""
","
","","","","","","null","<div style=""font-size:60px;"">+</div>","null","","fixation","","","","","","","","","","",""
"aa-learning-trial","97","505416","0.0-9.0-2.0-1.12","7805","2","11","Female","approach_avoid_spark_v1","""event"",""trial"",""time""
""fullscreenenter"",""1"",""35476""
","
","
","""event"",""trial"",""time""
""fullscreenenter"",""1"",""35476""
","
","","","","","","902","images/dog1.png","","","learning","-4","-4","1","1","dog","pets","2","0","","neutral","0"
"html-keyboard-response","98","505920","0.0-9.0-2.0-0.13","7805","2","11","Female","approach_avoid_spark_v1","""event"",""trial"",""time""
""fullscreenenter"",""1"",""35476""
","
","
","""event"",""trial"",""time""
""fullscreenenter"",""1"",""35476""
","
","","","","","","null","<div style=""font-size:60px;"">+</div>","null","","fixation","","","","","","","","","","",""
"aa-learning-trial","99","508932","0.0-9.0-2.0-1.13","7805","2","11","Female","approach_avoid_spark_v1","""event"",""trial"",""time""
""fullscreenenter"",""1"",""35476""
","
","
","""event"",""trial"",""time""
""fullscreenenter"",""1"",""35476""
","
","","","","","","661","images/dog7.png","","","learning","4","0","0","0","dog","pets","2","0","","neutral","0"
"html-keyboard-response","100","509440","0.0-9.0-2.0-0.14","7805","2","11","Female","approach_avoid_spark_v1","""event"",""trial"",""time""
""fullscreenenter"",""1"",""35476""
","
","
","""event"",""trial"",""time""
""fullscreenenter"",""1"",""35476""
","
","","","","","","null","<div style=""font-size:60px;"">+</div>","null","","fixation","","","","","","","","","","",""
"aa-learning-trial","101","512453","0.0-9.0-2.0-1.14","7805","2","11","Female","approach_avoid_spark_v1","""event"",""trial"",""time""
""fullscreenenter"",""1"",""35476""
","
","
","""event"",""trial"",""time""
""fullscreenenter"",""1"",""35476""
","
","","","","","","1096.199999999255","images/rabbit4.png","","","learning","-6","-6","1","1","rabbit","pets","2","0","","bad","[-5]"
"html-keyboard-response","102","512958","0.0-9.0-2.0-0.15","7805","2","11","Female","approach_avoid_spark_v1","""event"",""trial"",""time""
""fullscreenenter"",""1"",""35476""
","
","
","""event"",""trial"",""time""
""fullscreenenter"",""1"",""35476""
","
","","","","","","null","<div style=""font-size:60px;"">+</div>","null","","fixation","","","","","","","","","","",""
"aa-learning-trial","103","515970","0.0-9.0-2.0-1.15","7805","2","11","Female","approach_avoid_spark_v1","""event"",""trial"",""time""
""fullscreenenter"",""1"",""35476""
","
","
","""event"",""trial"",""time""
""fullscreenenter"",""1"",""35476""
","
","","","","","","484.5","images/rodent5.png","","","learning","8","0","0","0","rodent","pets","2","0","","good","[6]"
"html-keyboard-response","104","516474","0.0-9.0-2.0-0.16","7805","2","11","Female","approach_avoid_spark_v1","""event"",""trial"",""time""
""fullscreenenter"",""1"",""35476""
","
","
","""event"",""trial"",""time""
""fullscreenenter"",""1"",""35476""
","
","","","","","","null","<div style=""font-size:60px;"">+</div>","null","","fixation","","","","","","","","","","",""
"aa-learning-trial","105","519486","0.0-9.0-2.0-1.16","7805","2","11","Female","approach_avoid_spark_v1","""event"",""trial"",""time""
""fullscreenenter"",""1"",""35476""
","
","
","""event"",""trial"",""time""
""fullscreenenter"",""1"",""35476""
","
","","","","","","1262.199999999255","images/rabbit6.png","","","learning","-2","-2","1","1","rabbit","pets","2","0","","bad","[-5]"
"html-keyboard-response","106","519990","0.0-9.0-2.0-0.17","7805","2","11","Female","approach_avoid_spark_v1","""event"",""trial"",""time""
""fullscreenenter"",""1"",""35476""
","
","
","""event"",""trial"",""time""
""fullscreenenter"",""1"",""35476""
","
","","","","","","null","<div style=""font-size:60px;"">+</div>","null","","fixation","","","","","","","","","","",""
"aa-learning-trial","107","523000","0.0-9.0-2.0-1.17","7805","2","11","Female","approach_avoid_spark_v1","""event"",""trial"",""time""
""fullscreenenter"",""1"",""35476""
","
","
","""event"",""trial"",""time""
""fullscreenenter"",""1"",""35476""
","
","","","","","","1468.5","images/rabbit5.png","","","learning","3","0","0","0","rabbit","pets","2","0","","bad","[-5]"
"html-keyboard-response","108","523505","0.0-9.0-2.0-0.18","7805","2","11","Female","approach_avoid_spark_v1","""event"",""trial"",""time""
""fullscreenenter"",""1"",""35476""
","
","
","""event"",""trial"",""time""
""fullscreenenter"",""1"",""35476""
","
","","","","","","null","<div style=""font-size:60px;"">+</div>","null","","fixation","","","","","","","","","","",""
"aa-learning-trial","109","526516","0.0-9.0-2.0-1.18","7805","2","11","Female","approach_avoid_spark_v1","""event"",""trial"",""time""
""fullscreenenter"",""1"",""35476""
","
","
","""event"",""trial"",""time""
""fullscreenenter"",""1"",""35476""
","
","","","","","","1273.199999999255","images/dog7.png","","","learning","4","4","1","1","dog","pets","2","0","","neutral","0"
"html-keyboard-response","110","527021","0.0-9.0-2.0-0.19","7805","2","11","Female","approach_avoid_spark_v1","""event"",""trial"",""time""
""fullscreenenter"",""1"",""35476""
","
","
","""event"",""trial"",""time""
""fullscreenenter"",""1"",""35476""
","
","","","","","","null","<div style=""font-size:60px;"">+</div>","null","","fixation","","","","","","","","","","",""
"aa-learning-trial","111","530034","0.0-9.0-2.0-1.19","7805","2","11","Female","approach_avoid_spark_v1","""event"",""trial"",""time""
""fullscreenenter"",""1"",""35476""
","
","
","""event"",""trial"",""time""
""fullscreenenter"",""1"",""35476""
","
","","","","","","1145.699999999255","images/rodent1.png","","","learning","-8","-8","1","1","rodent","pets","2","0","","good","[6]"
"html-keyboard-response","112","530539","0.0-9.0-2.0-0.20","7805","2","11","Female","approach_avoid_spark_v1","""event"",""trial"",""time""
""fullscreenenter"",""1"",""35476""
","
","
","""event"",""trial"",""time""
""fullscreenenter"",""1"",""35476""
","
","","","","","","null","<div style=""font-size:60px;"">+</div>","null","","fixation","","","","","","","","","","",""
"aa-learning-trial","113","533545","0.0-9.0-2.0-1.20","7805","2","11","Female","approach_avoid_spark_v1","""event"",""trial"",""time""
""fullscreenenter"",""1"",""35476""
","
","
","""event"",""trial"",""time""
""fullscreenenter"",""1"",""35476""
","
","","","","","","1269.699999999255","images/rabbit4.png","","","learning","-6","-6","1","1","rabbit","pets","2","0","","bad","[-5]"
"html-keyboard-response","114","534048","0.0-9.0-2.0-0.21","7805","2","11","Female","approach_avoid_spark_v1","""event"",""trial"",""time""
""fullscreenenter"",""1"",""35476""
","
","
","""event"",""trial"",""time""
""fullscreenenter"",""1"",""35476""
","
","","","","","","null","<div style=""font-size:60px;"">+</div>","null","","fixation","","","","","","","","","","",""
"aa-learning-trial","115","537059","0.0-9.0-2.0-1.21","7805","2","11","Female","approach_avoid_spark_v1","""event"",""trial"",""time""
""fullscreenenter"",""1"",""35476""
","
","
","""event"",""trial"",""time""
""fullscreenenter"",""1"",""35476""
","
","","","","","","1236.800000000745","images/rabbit4.png","","","learning","-6","0","0","0","rabbit","pets","2","0","","bad","[-5]"
"html-keyboard-response","116","537563","0.0-9.0-2.0-0.22","7805","2","11","Female","approach_avoid_spark_v1","""event"",""trial"",""time""
""fullscreenenter"",""1"",""35476""
","
","
","""event"",""trial"",""time""
""fullscreenenter"",""1"",""35476""
","
","","","","","","null","<div style=""font-size:60px;"">+</div>","null","","fixation","","","","","","","","","","",""
"aa-learning-trial","117","540573","0.0-9.0-2.0-1.22","7805","2","11","Female","approach_avoid_spark_v1","""event"",""trial"",""time""
""fullscreenenter"",""1"",""35476""
","
","
","""event"",""trial"",""time""
""fullscreenenter"",""1"",""35476""
","
","","","","","","1647.199999999255","images/dog7.png","","","learning","4","0","0","0","dog","pets","2","0","","neutral","0"
"html-keyboard-response","118","541076","0.0-9.0-2.0-0.23","7805","2","11","Female","approach_avoid_spark_v1","""event"",""trial"",""time""
""fullscreenenter"",""1"",""35476""
","
","
","""event"",""trial"",""time""
""fullscreenenter"",""1"",""35476""
","
","","","","","","null","<div style=""font-size:60px;"">+</div>","null","","fixation","","","","","","","","","","",""
"aa-learning-trial","119","544090","0.0-9.0-2.0-1.23","7805","2","11","Female","approach_avoid_spark_v1","""event"",""trial"",""time""
""fullscreenenter"",""1"",""35476""
","
","
","""event"",""trial"",""time""
""fullscreenenter"",""1"",""35476""
","
","","","","","","1053.5","images/rodent8.png","","","learning","-3","-3","1","1","rodent","pets","2","0","","good","[6]"
"html-keyboard-response","120","544594","0.0-9.0-2.0-0.24","7805","2","11","Female","approach_avoid_spark_v1","""event"",""trial"",""time""
""fullscreenenter"",""1"",""35476""
","
","
","""event"",""trial"",""time""
""fullscreenenter"",""1"",""35476""
","
","","","","","","null","<div style=""font-size:60px;"">+</div>","null","","fixation","","","","","","","","","","",""
"aa-learning-trial","121","547604","0.0-9.0-2.0-1.24","7805","2","11","Female","approach_avoid_spark_v1","""event"",""trial"",""time""
""fullscreenenter"",""1"",""35476""
","
","
","""event"",""trial"",""time""
""fullscreenenter"",""1"",""35476""
","
","","","","","","587.3999999985099","images/rabbit5.png","","","learning","3","0","0","0","rabbit","pets","2","0","","bad","[-5]"
"html-keyboard-response","122","548109","0.0-9.0-2.0-0.25","7805","2","11","Female","approach_avoid_spark_v1","""event"",""trial"",""time""
""fullscreenenter"",""1"",""35476""
","
","
","""event"",""trial"",""time""
""fullscreenenter"",""1"",""35476""
","
","","","","","","null","<div style=""font-size:60px;"">+</div>","null","","fixation","","","","","","","","","","",""
"aa-learning-trial","123","551122","0.0-9.0-2.0-1.25","7805","2","11","Female","approach_avoid_spark_v1","""event"",""trial"",""time""
""fullscreenenter"",""1"",""35476""
","
","
","""event"",""trial"",""time""
""fullscreenenter"",""1"",""35476""
","
","","","","","","1871","images/dog7.png","","","learning","4","0","0","0","dog","pets","2","0","","neutral","0"
"html-keyboard-response","124","551628","0.0-9.0-2.0-0.26","7805","2","11","Female","approach_avoid_spark_v1","""event"",""trial"",""time""
""fullscreenenter"",""1"",""35476""
","
","
","""event"",""trial"",""time""
""fullscreenenter"",""1"",""35476""
","
","","","","","","null","<div style=""font-size:60px;"">+</div>","null","","fixation","","","","","","","","","","",""
"aa-learning-trial","125","554642","0.0-9.0-2.0-1.26","7805","2","11","Female","approach_avoid_spark_v1","""event"",""trial"",""time""
""fullscreenenter"",""1"",""35476""
","
","
","""event"",""trial"",""time""
""fullscreenenter"",""1"",""35476""
","
","","","","","","781.6000000014901","images/dog8.png","","","learning","6","0","0","0","dog","pets","2","0","","neutral","0"
"html-keyboard-response","126","555147","0.0-9.0-2.0-0.27","7805","2","11","Female","approach_avoid_spark_v1","""event"",""trial"",""time""
""fullscreenenter"",""1"",""35476""
","
","
","""event"",""trial"",""time""
""fullscreenenter"",""1"",""35476""
","
","","","","","","null","<div style=""font-size:60px;"">+</div>","null","","fixation","","","","","","","","","","",""
"aa-learning-trial","127","558158","0.0-9.0-2.0-1.27","7805","2","11","Female","approach_avoid_spark_v1","""event"",""trial"",""time""
""fullscreenenter"",""1"",""35476""
","
","
","""event"",""trial"",""time""
""fullscreenenter"",""1"",""35476""
","
","","","","","","556.1000000014901","images/rabbit6.png","","","learning","-2","-2","1","1","rabbit","pets","2","0","","bad","[-5]"
"html-keyboard-response","128","558664","0.0-9.0-2.0-0.28","7805","2","11","Female","approach_avoid_spark_v1","""event"",""trial"",""time""
""fullscreenenter"",""1"",""35476""
","
","
","""event"",""trial"",""time""
""fullscreenenter"",""1"",""35476""
","
","","","","","","null","<div style=""font-size:60px;"">+</div>","null","","fixation","","","","","","","","","","",""
"aa-learning-trial","129","561677","0.0-9.0-2.0-1.28","7805","2","11","Female","approach_avoid_spark_v1","""event"",""trial"",""time""
""fullscreenenter"",""1"",""35476""
","
","
","""event"",""trial"",""time""
""fullscreenenter"",""1"",""35476""
","
","","","","","","528.6000000014901","images/dog1.png","","","learning","-4","-4","1","1","dog","pets","2","0","","neutral","0"
"html-keyboard-response","130","562182","0.0-9.0-2.0-0.29","7805","2","11","Female","approach_avoid_spark_v1","""event"",""trial"",""time""
""fullscreenenter"",""1"",""35476""
","
","
","""event"",""trial"",""time""
""fullscreenenter"",""1"",""35476""
","
","","","","","","null","<div style=""font-size:60px;"">+</div>","null","","fixation","","","","","","","","","","",""
"aa-learning-trial","131","565193","0.0-9.0-2.0-1.29","7805","2","11","Female","approach_avoid_spark_v1","""event"",""trial"",""time""
""fullscreenenter"",""1"",""35476""
","
","
","""event"",""trial"",""time""
""fullscreenenter"",""1"",""35476""
","
","","","","","","1615.5","images/rabbit3.png","","","learning","-5","-5","1","1","rabbit","pets","2","0","","bad","[-5]"
"html-keyboard-response","132","565698","0.0-9.0-2.0-0.30","7805","2","11","Female","approach_avoid_spark_v1","""event"",""trial"",""time""
""fullscreenenter"",""1"",""35476""
","
","
","""event"",""trial"",""time""
""fullscreenenter"",""1"",""35476""
","
","","","","","","null","<div style=""font-size:60px;"">+</div>","null","","fixation","","","","","","","","","","",""
"aa-learning-trial","133","568712","0.0-9.0-2.0-1.30","7805","2","11","Female","approach_avoid_spark_v1","""event"",""trial"",""time""
""fullscreenenter"",""1"",""35476""
","
","
","""event"",""trial"",""time""
""fullscreenenter"",""1"",""35476""
","
","","","","","","1124.8999999985099","images/dog1.png","","","learning","-4","0","0","0","dog","pets","2","0","","neutral","0"
"html-keyboard-response","134","569217","0.0-9.0-2.0-0.31","7805","2","11","Female","approach_avoid_spark_v1","""event"",""trial"",""time""
""fullscreenenter"",""1"",""35476""
","
","
","""event"",""trial"",""time""
""fullscreenenter"",""1"",""35476""
","
","","","","","","null","<div style=""font-size:60px;"">+</div>","null","","fixation","","","","","","","","","","",""
"aa-learning-trial","135","572231","0.0-9.0-2.0-1.31","7805","2","11","Female","approach_avoid_spark_v1","""event"",""trial"",""time""
""fullscreenenter"",""1"",""35476""
","
","
","""event"",""trial"",""time""
""fullscreenenter"",""1"",""35476""
","
","","","","","","875.6999999992549","images/rabbit8.png","","","learning","7","0","0","0","rabbit","pets","2","0","","bad","[-5]"
"html-keyboard-response","136","572735","0.0-9.0-2.0-0.32","7805","2","11","Female","approach_avoid_spark_v1","""event"",""trial"",""time""
""fullscreenenter"",""1"",""35476""
","
","
","""event"",""trial"",""time""
""fullscreenenter"",""1"",""35476""
","
","","","","","","null","<div style=""font-size:60px;"">+</div>","null","","fixation","","","","","","","","","","",""
"aa-learning-trial","137","575748","0.0-9.0-2.0-1.32","7805","2","11","Female","approach_avoid_spark_v1","""event"",""trial"",""time""
""fullscreenenter"",""1"",""35476""
","
","
","""event"",""trial"",""time""
""fullscreenenter"",""1"",""35476""
","
","","","","","","1376.699999999255","images/rodent4.png","","","learning","-1","-1","1","1","rodent","pets","2","0","","good","[6]"
"html-keyboard-response","138","576253","0.0-9.0-2.0-0.33","7805","2","11","Female","approach_avoid_spark_v1","""event"",""trial"",""time""
""fullscreenenter"",""1"",""35476""
","
","
","""event"",""trial"",""time""
""fullscreenenter"",""1"",""35476""
","
","","","","","","null","<div style=""font-size:60px;"">+</div>","null","","fixation","","","","","","","","","","",""
"aa-learning-trial","139","579265","0.0-9.0-2.0-1.33","7805","2","11","Female","approach_avoid_spark_v1","""event"",""trial"",""time""
""fullscreenenter"",""1"",""35476""
","
","
","""event"",""trial"",""time""
""fullscreenenter"",""1"",""35476""
","
","","","","","","760.5999999977648","images/dog1.png","","","learning","-4","0","0","0","dog","pets","2","0","","neutral","0"
"html-keyboard-response","140","579768","0.0-9.0-2.0-0.34","7805","2","11","Female","approach_avoid_spark_v1","""event"",""trial"",""time""
""fullscreenenter"",""1"",""35476""
","
","
","""event"",""trial"",""time""
""fullscreenenter"",""1"",""35476""
","
","","","","","","null","<div style=""font-size:60px;"">+</div>","null","","fixation","","","","","","","","","","",""
"aa-learning-trial","141","582781","0.0-9.0-2.0-1.34","7805","2","11","Female","approach_avoid_spark_v1","""event"",""trial"",""time""
""fullscreenenter"",""1"",""35476""
","
","
","""event"",""trial"",""time""
""fullscreenenter"",""1"",""35476""
","
","","","","","","874.3999999985099","images/rabbit5.png","","","learning","3","3","1","1","rabbit","pets","2","0","","bad","[-5]"
"html-keyboard-response","142","583285","0.0-9.0-2.0-0.35","7805","2","11","Female","approach_avoid_spark_v1","""event"",""trial"",""time""
""fullscreenenter"",""1"",""35476""
","
","
","""event"",""trial"",""time""
""fullscreenenter"",""1"",""35476""
","
","","","","","","null","<div style=""font-size:60px;"">+</div>","null","","fixation","","","","","","","","","","",""
"aa-learning-trial","143","586297","0.0-9.0-2.0-1.35","7805","2","11","Female","approach_avoid_spark_v1","""event"",""trial"",""time""
""fullscreenenter"",""1"",""35476""
","
","
","""event"",""trial"",""time""
""fullscreenenter"",""1"",""35476""
","
","","","","","","1339.300000000745","images/dog5.png","","","learning","2","2","1","1","dog","pets","2","0","","neutral","0"
"html-keyboard-response","144","586803","0.0-9.0-2.0-0.36","7805","2","11","Female","approach_avoid_spark_v1","""event"",""trial"",""time""
""fullscreenenter"",""1"",""35476""
","
","
","""event"",""trial"",""time""
""fullscreenenter"",""1"",""35476""
","
","","","","","","null","<div style=""font-size:60px;"">+</div>","null","","fixation","","","","","","","","","","",""
"aa-learning-trial","145","589813","0.0-9.0-2.0-1.36","7805","2","11","Female","approach_avoid_spark_v1","""event"",""trial"",""time""
""fullscreenenter"",""1"",""35476""
","
","
","""event"",""trial"",""time""
""fullscreenenter"",""1"",""35476""
","
","","","","","","830.1999999992549","images/rodent5.png","","","learning","8","8","1","1","rodent","pets","2","0","","good","[6]"
"html-keyboard-response","146","590318","0.0-9.0-2.0-0.37","7805","2","11","Female","approach_avoid_spark_v1","""event"",""trial"",""time""
""fullscreenenter"",""1"",""35476""
","
","
","""event"",""trial"",""time""
""fullscreenenter"",""1"",""35476""
","
","","","","","","null","<div style=""font-size:60px;"">+</div>","null","","fixation","","","","","","","","","","",""
"aa-learning-trial","147","593332","0.0-9.0-2.0-1.37","7805","2","11","Female","approach_avoid_spark_v1","""event"",""trial"",""time""
""fullscreenenter"",""1"",""35476""
","
","
","""event"",""trial"",""time""
""fullscreenenter"",""1"",""35476""
","
","","","","","","781.2999999970198","images/rodent8.png","","","learning","-3","-3","1","1","rodent","pets","2","0","","good","[6]"
"html-keyboard-response","148","593837","0.0-9.0-2.0-0.38","7805","2","11","Female","approach_avoid_spark_v1","""event"",""trial"",""time""
""fullscreenenter"",""1"",""35476""
","
","
","""event"",""trial"",""time""
""fullscreenenter"",""1"",""35476""
","
","","","","","","null","<div style=""font-size:60px;"">+</div>","null","","fixation","","","","","","","","","","",""
"aa-learning-trial","149","596850","0.0-9.0-2.0-1.38","7805","2","11","Female","approach_avoid_spark_v1","""event"",""trial"",""time""
""fullscreenenter"",""1"",""35476""
","
","
","""event"",""trial"",""time""
""fullscreenenter"",""1"",""35476""
","
","","","","","","784","images/rabbit6.png","","","learning","-2","0","0","0","rabbit","pets","2","0","","bad","[-5]"
"html-keyboard-response","150","597356","0.0-9.0-2.0-0.39","7805","2","11","Female","approach_avoid_spark_v1","""event"",""trial"",""time""
""fullscreenenter"",""1"",""35476""
","
","
","""event"",""trial"",""time""
""fullscreenenter"",""1"",""35476""
","
","","","","","","null","<div style=""font-size:60px;"">+</div>","null","","fixation","","","","","","","","","","",""
"aa-learning-trial","151","600365","0.0-9.0-2.0-1.39","7805","2","11","Female","approach_avoid_spark_v1","""event"",""trial"",""time""
""fullscreenenter"",""1"",""35476""
","
","
","""event"",""trial"",""time""
""fullscreenenter"",""1"",""35476""
","
","","","","","","928.6000000014901","images/dog8.png","","","learning","6","6","1","1","dog","pets","2","0","","neutral","0"
"html-keyboard-response","152","600868","0.0-9.0-2.0-0.40","7805","2","11","Female","approach_avoid_spark_v1","""event"",""trial"",""time""
""fullscreenenter"",""1"",""35476""
","
","
","""event"",""trial"",""time""
""fullscreenenter"",""1"",""35476""
","
","","","","","","null","<div style=""font-size:60px;"">+</div>","null","","fixation","","","","","","","","","","",""
"aa-learning-trial","153","603877","0.0-9.0-2.0-1.40","7805","2","11","Female","approach_avoid_spark_v1","""event"",""trial"",""time""
""fullscreenenter"",""1"",""35476""
","
","
","""event"",""trial"",""time""
""fullscreenenter"",""1"",""35476""
","
","","","","","","998.8999999985099","images/rodent8.png","","","learning","-3","0","0","0","rodent","pets","2","0","","good","[6]"
"html-keyboard-response","154","604380","0.0-9.0-2.0-0.41","7805","2","11","Female","approach_avoid_spark_v1","""event"",""trial"",""time""
""fullscreenenter"",""1"",""35476""
","
","
","""event"",""trial"",""time""
""fullscreenenter"",""1"",""35476""
","
","","","","","","null","<div style=""font-size:60px;"">+</div>","null","","fixation","","","","","","","","","","",""
"aa-learning-trial","155","607389","0.0-9.0-2.0-1.41","7805","2","11","Female","approach_avoid_spark_v1","""event"",""trial"",""time""
""fullscreenenter"",""1"",""35476""
","
","
","""event"",""trial"",""time""
""fullscreenenter"",""1"",""35476""
","
","","","","","","883.2999999970198","images/dog2.png","","","learning","-9","-9","1","1","dog","pets","2","0","","neutral","0"
"html-keyboard-response","156","607892","0.0-9.0-2.0-0.42","7805","2","11","Female","approach_avoid_spark_v1","""event"",""trial"",""time""
""fullscreenenter"",""1"",""35476""
","
","
","""event"",""trial"",""time""
""fullscreenenter"",""1"",""35476""
","
","","","","","","null","<div style=""font-size:60px;"">+</div>","null","","fixation","","","","","","","","","","",""
"aa-learning-trial","157","610901","0.0-9.0-2.0-1.42","7805","2","11","Female","approach_avoid_spark_v1","""event"",""trial"",""time""
""fullscreenenter"",""1"",""35476""
","
","
","""event"",""trial"",""time""
""fullscreenenter"",""1"",""35476""
","
","","","","","","1012.5","images/rodent5.png","","","learning","8","8","1","1","rodent","pets","2","0","","good","[6]"
"html-keyboard-response","158","611405","0.0-9.0-2.0-0.43","7805","2","11","Female","approach_avoid_spark_v1","""event"",""trial"",""time""
""fullscreenenter"",""1"",""35476""
","
","
","""event"",""trial"",""time""
""fullscreenenter"",""1"",""35476""
","
","","","","","","null","<div style=""font-size:60px;"">+</div>","null","","fixation","","","","","","","","","","",""
"aa-learning-trial","159","614419","0.0-9.0-2.0-1.43","7805","2","11","Female","approach_avoid_spark_v1","""event"",""trial"",""time""
""fullscreenenter"",""1"",""35476""
","
","
","""event"",""trial"",""time""
""fullscreenenter"",""1"",""35476""
","
","","","","","","913.1999999992549","images/rodent6.png","","","learning","5","5","1","1","rodent","pets","2","0","","good","[6]"
"html-keyboard-response","160","614926","0.0-9.0-2.0-0.44","7805","2","11","Female","approach_avoid_spark_v1","""event"",""trial"",""time""
""fullscreenenter"",""1"",""35476""
","
","
","""event"",""trial"",""time""
""fullscreenenter"",""1"",""35476""
","
","","","","","","null","<div style=""font-size:60px;"">+</div>","null","","fixation","","","","","","","","","","",""
"aa-learning-trial","161","617940","0.0-9.0-2.0-1.44","7805","2","11","Female","approach_avoid_spark_v1","""event"",""trial"",""time""
""fullscreenenter"",""1"",""35476""
","
","
","""event"",""trial"",""time""
""fullscreenenter"",""1"",""35476""
","
","","","","","","1071.8999999985099","images/dog7.png","","","learning","4","0","0","0","dog","pets","2","0","","neutral","0"
"html-keyboard-response","162","618446","0.0-9.0-2.0-0.45","7805","2","11","Female","approach_avoid_spark_v1","""event"",""trial"",""time""
""fullscreenenter"",""1"",""35476""
","
","
","""event"",""trial"",""time""
""fullscreenenter"",""1"",""35476""
","
","","","","","","null","<div style=""font-size:60px;"">+</div>","null","","fixation","","","","","","","","","","",""
"aa-learning-trial","163","621462","0.0-9.0-2.0-1.45","7805","2","11","Female","approach_avoid_spark_v1","""event"",""trial"",""time""
""fullscreenenter"",""1"",""35476""
","
","
","""event"",""trial"",""time""
""fullscreenenter"",""1"",""35476""
","
","","","","","","1069.6000000014901","images/rabbit5.png","","","learning","3","3","1","1","rabbit","pets","2","0","","bad","[-5]"
"html-keyboard-response","164","621966","0.0-9.0-2.0-0.46","7805","2","11","Female","approach_avoid_spark_v1","""event"",""trial"",""time""
""fullscreenenter"",""1"",""35476""
","
","
","""event"",""trial"",""time""
""fullscreenenter"",""1"",""35476""
","
","","","","","","null","<div style=""font-size:60px;"">+</div>","null","","fixation","","","","","","","","","","",""
"aa-learning-trial","165","624975","0.0-9.0-2.0-1.46","7805","2","11","Female","approach_avoid_spark_v1","""event"",""trial"",""time""
""fullscreenenter"",""1"",""35476""
","
","
","""event"",""trial"",""time""
""fullscreenenter"",""1"",""35476""
","
","","","","","","762.6999999992549","images/rodent6.png","","","learning","5","5","1","1","rodent","pets","2","0","","good","[6]"
"html-keyboard-response","166","625480","0.0-9.0-2.0-0.47","7805","2","11","Female","approach_avoid_spark_v1","""event"",""trial"",""time""
""fullscreenenter"",""1"",""35476""
","
","
","""event"",""trial"",""time""
""fullscreenenter"",""1"",""35476""
","
","","","","","","null","<div style=""font-size:60px;"">+</div>","null","","fixation","","","","","","","","","","",""
"aa-learning-trial","167","628491","0.0-9.0-2.0-1.47","7805","2","11","Female","approach_avoid_spark_v1","""event"",""trial"",""time""
""fullscreenenter"",""1"",""35476""
","
","
","""event"",""trial"",""time""
""fullscreenenter"",""1"",""35476""
","
","","","","","","733","images/rodent8.png","","","learning","-3","0","0","0","rodent","pets","2","0","","good","[6]"
"html-keyboard-response","168","628995","0.0-9.0-2.0-0.48","7805","2","11","Female","approach_avoid_spark_v1","""event"",""trial"",""time""
""fullscreenenter"",""1"",""35476""
","
","
","""event"",""trial"",""time""
""fullscreenenter"",""1"",""35476""
","
","","","","","","null","<div style=""font-size:60px;"">+</div>","null","","fixation","","","","","","","","","","",""
"aa-learning-trial","169","632010","0.0-9.0-2.0-1.48","7805","2","11","Female","approach_avoid_spark_v1","""event"",""trial"",""time""
""fullscreenenter"",""1"",""35476""
","
","
","""event"",""trial"",""time""
""fullscreenenter"",""1"",""35476""
","
","","","","","","781.1000000014901","images/rabbit6.png","","","learning","-2","0","0","0","rabbit","pets","2","0","","bad","[-5]"
"html-keyboard-response","170","632515","0.0-9.0-2.0-0.49","7805","2","11","Female","approach_avoid_spark_v1","""event"",""trial"",""time""
""fullscreenenter"",""1"",""35476""
","
","
","""event"",""trial"",""time""
""fullscreenenter"",""1"",""35476""
","
","","","","","","null","<div style=""font-size:60px;"">+</div>","null","","fixation","","","","","","","","","","",""
"aa-learning-trial","171","635530","0.0-9.0-2.0-1.49","7805","2","11","Female","approach_avoid_spark_v1","""event"",""trial"",""time""
""fullscreenenter"",""1"",""35476""
","
","
","""event"",""trial"",""time""
""fullscreenenter"",""1"",""35476""
","
","","","","","","676.5","images/rodent5.png","","","learning","8","8","1","1","rodent","pets","2","0","","good","[6]"
"html-keyboard-response","172","636033","0.0-9.0-2.0-0.50","7805","2","11","Female","approach_avoid_spark_v1","""event"",""trial"",""time""
""fullscreenenter"",""1"",""35476""
","
","
","""event"",""trial"",""time""
""fullscreenenter"",""1"",""35476""
","
","","","","","","null","<div style=""font-size:60px;"">+</div>","null","","fixation","","","","","","","","","","",""
"aa-learning-trial","173","639040","0.0-9.0-2.0-1.50","7805","2","11","Female","approach_avoid_spark_v1","""event"",""trial"",""time""
""fullscreenenter"",""1"",""35476""
","
","
","""event"",""trial"",""time""
""fullscreenenter"",""1"",""35476""
","
","","","","","","838.1999999992549","images/dog1.png","","","learning","-4","0","0","0","dog","pets","2","0","","neutral","0"
"html-button-response","174","645283","0.0-9.0-3.0","7805","2","11","Female","approach_avoid_spark_v1","""event"",""trial"",""time""
""fullscreenenter"",""1"",""35476""
","
","
","""event"",""trial"",""time""
""fullscreenenter"",""1"",""35476""
","
","","","","","","6233.800000000745","<p> You have completed the round! <p> In this round, you earned -2 points! </p>","0","","break","","","","","","","","","","",""
"html-button-response","175","647516","0.0-10.0","7805","2","11","Female","approach_avoid_spark_v1","""event"",""trial"",""time""
""fullscreenenter"",""1"",""35476""
","
","
","""event"",""trial"",""time""
""fullscreenenter"",""1"",""35476""
","
","","","","","","2225.099999997765","<p> Now it's time to play another round. </p>","0","","transition_screen","","","","","","","","","","",""
"preload","176","647705","0.0-11.0-0.0","7805","2","11","Female","approach_avoid_spark_v1","""event"",""trial"",""time""
""fullscreenenter"",""1"",""35476""
","
","
","""event"",""trial"",""time""
""fullscreenenter"",""1"",""35476""
","
","true","false","[]","[]","[]","","","","","","","","","","","","","","","",""
"learning-instructions","177","654947","0.0-11.0-1.0-0.0","7805","2","11","Female","approach_avoid_spark_v1","""event"",""trial"",""time""
""fullscreenenter"",""1"",""35476""
","
","
","""event"",""trial"",""time""
""fullscreenenter"",""1"",""35476""
","
","","","","","","2571.300000000745","<p> Your goal in this round is to take care of lots of farm animals. </p></div>","","0","instructions","","","","","","","","","","",""
"learning-instructions","178","665629","0.0-11.0-1.0-0.1","7805","2","11","Female","approach_avoid_spark_v1","""event"",""trial"",""time""
""fullscreenenter"",""1"",""35476""
","
","
","""event"",""trial"",""time""
""fullscreenenter"",""1"",""35476""
","
","","","","","","838.2000000029802","<p> Some farm animals are hungry, while other farm animals are already full.  </p><p> On each turn, you will see a farm animal.   </p><p> You need to decide whether to feed it or not.  </p>","","0","instructions","","","","","","","","","","",""
"learning-instructions","179","671923","0.0-11.0-1.0-0.2","7805","2","11","Female","approach_avoid_spark_v1","""event"",""trial"",""time""
""fullscreenenter"",""1"",""35476""
","
","
","""event"",""trial"",""time""
""fullscreenenter"",""1"",""35476""
","
","","","","","","461.6000000014901","<p> You can feed the farm animal by pressing 1 and leave the farm animal alone by pressing 0. </p><br><div class=""choice-instructions-grid""> <div class=""choice-option""><img src=""images/approach.png"" class=""choice-option-img"" stage=""instructions"" position=""0"" ><div class=""choice-option-text""> Press ""1."" </div></div><div class=""choice-option""><img src=""images/avoid.png"" class=""choice-option-img"" stage=""instructions"" position=""1"" ><div class=""choice-option-text""> Press ""0."" </div></div>","","0","instructions","","","","","","","","","","",""
"learning-instructions","180","682568","0.0-11.0-1.0-0.3","7805","2","11","Female","approach_avoid_spark_v1","""event"",""trial"",""time""
""fullscreenenter"",""1"",""35476""
","
","
","""event"",""trial"",""time""
""fullscreenenter"",""1"",""35476""
","
","","","","","","1169.5","<p> If you feed a hungry farm animal, you will make it feel satisfied! </p><p> But if you feed the farm animal and it was already full, you will make it feel sick. </p>","","0","instructions","","","","","","","","","","",""
"learning-instructions","181","703840","0.0-11.0-1.0-0.4","7805","2","11","Female","approach_avoid_spark_v1","""event"",""trial"",""time""
""fullscreenenter"",""1"",""35476""
","
","
","""event"",""trial"",""time""
""fullscreenenter"",""1"",""35476""
","
","","","","","","8947.89999999851","<p> You will earn points based on how you made the farm animal feel. </p><p> If you made it satisfied, you will WIN anywhere from 1 - 9 points, </p><p> but if you made it sick, you will LOSE anywhere from 1 - 9 points. </p>","","0","instructions","","","","","","","","","","",""
"learning-instructions","182","711572","0.0-11.0-1.0-0.5","7805","2","11","Female","approach_avoid_spark_v1","""event"",""trial"",""time""
""fullscreenenter"",""1"",""35476""
","
","
","""event"",""trial"",""time""
""fullscreenenter"",""1"",""35476""
","
","","","","","","1073.8999999985099","<p> You will see how many points you won or lost in the center of the screen. </p><p> Here is what you would see if you won 5 points: </p><p style=""color:green;font-size:50px;font-weight:bolder"">5</p>","","0","instructions","","","","","","","","","","",""
"learning-instructions","183","717719","0.0-11.0-1.0-0.6","7805","2","11","Female","approach_avoid_spark_v1","""event"",""trial"",""time""
""fullscreenenter"",""1"",""35476""
","
","
","""event"",""trial"",""time""
""fullscreenenter"",""1"",""35476""
","
","","","","","","3306.099999997765","<p> And here is what you would see if you lost 3 points: </p><p style=""color:red;font-size:50px;font-weight:bolder"">-3</p>","","0","instructions","","","","","","","","","","",""
"learning-instructions","184","746944","0.0-11.0-1.0-0.7","7805","2","11","Female","approach_avoid_spark_v1","""event"",""trial"",""time""
""fullscreenenter"",""1"",""35476""
","
","
","""event"",""trial"",""time""
""fullscreenenter"",""1"",""35476""
","
","","","","","","1383.300000000745","<p> Some farm animals will become very satisfied or very sick. </p><p> These farm animals will make you win or lose LOTS of points. </p><p> Other farm animals have less strong feelings. </p><p> These farm animals will make you win or lose small amounts of points. </p>","","0","instructions","","","","","","","","","","",""
"learning-instructions","185","761472","0.0-11.0-1.0-0.8","7805","2","11","Female","approach_avoid_spark_v1","""event"",""trial"",""time""
""fullscreenenter"",""1"",""35476""
","
","
","""event"",""trial"",""time""
""fullscreenenter"",""1"",""35476""
","
","","","","","","1875.3999999985099","<p> If you choose to leave the farm animal alone, you will not win or lose any points. </p><p>  However, in the center of the screen, you will see the number of points you WOULD HAVE won or lost if you had fed the farm animal. </p>","","0","instructions","","","","","","","","","","",""
"learning-instructions","186","774243","0.0-11.0-1.0-0.9","7805","2","11","Female","approach_avoid_spark_v1","""event"",""trial"",""time""
""fullscreenenter"",""1"",""35476""
","
","
","""event"",""trial"",""time""
""fullscreenenter"",""1"",""35476""
","
","","","","","","995","<p> Here is what you might see if you did not feed the farm animal but the animal was hungry: </p><p style=""color:grey; font-size:50px; display: inline-block; border-spacing: 15px; border-width:3px; border-style:solid; border-color:red"">  &nbsp; 6 &nbsp; </p><p> Remember, in this case, you would not win or lose ANY points because you did not feed the farm animal.  </p>","","0","instructions","","","","","","","","","","",""
"learning-instructions","187","782724","0.0-11.0-1.0-0.10","7805","2","11","Female","approach_avoid_spark_v1","""event"",""trial"",""time""
""fullscreenenter"",""1"",""35476""
","
","
","""event"",""trial"",""time""
""fullscreenenter"",""1"",""35476""
","
","","","","","","566.3000000007451","<p> Try to make the best choice for each farm animal because </p><p> at the end of the game, you will earn bonus money based on how many points you earned. </p>","","0","instructions","","","","","","","","","","",""
"learning-instructions","188","798187","0.0-11.0-1.0-0.11","7805","2","11","Female","approach_avoid_spark_v1","""event"",""trial"",""time""
""fullscreenenter"",""1"",""35476""
","
","
","""event"",""trial"",""time""
""fullscreenenter"",""1"",""35476""
","
","","","","","","7272.699999999255","<p> You will have 3 seconds to make each choice. Try to respond before time runs out! </p><p> You will lose 5 points each time you do not make a response. </p>","","0","instructions","","","","","","","","","","",""
"html-keyboard-response","189","798789","0.0-11.0-2.0-0.0","7805","2","11","Female","approach_avoid_spark_v1","""event"",""trial"",""time""
""fullscreenenter"",""1"",""35476""
","
","
","""event"",""trial"",""time""
""fullscreenenter"",""1"",""35476""
","
","","","","","","null","<div style=""font-size:60px;"">+</div>","null","","fixation","","","","","","","","","","",""
"aa-learning-trial","190","801803","0.0-11.0-2.0-1.0","7805","2","11","Female","approach_avoid_spark_v1","""event"",""trial"",""time""
""fullscreenenter"",""1"",""35476""
","
","
","""event"",""trial"",""time""
""fullscreenenter"",""1"",""35476""
","
","","","","","","1322.6000000014901","images/goat8.png","","","learning","-2","-2","1","1","goat","animals","1","1","","neutral","0"
"html-keyboard-response","191","802308","0.0-11.0-2.0-0.1","7805","2","11","Female","approach_avoid_spark_v1","""event"",""trial"",""time""
""fullscreenenter"",""1"",""35476""
","
","
","""event"",""trial"",""time""
""fullscreenenter"",""1"",""35476""
","
","","","","","","null","<div style=""font-size:60px;"">+</div>","null","","fixation","","","","","","","","","","",""
"aa-learning-trial","192","805318","0.0-11.0-2.0-1.1","7805","2","11","Female","approach_avoid_spark_v1","""event"",""trial"",""time""
""fullscreenenter"",""1"",""35476""
","
","
","""event"",""trial"",""time""
""fullscreenenter"",""1"",""35476""
","
","","","","","","1029.7999999970198","images/goat5.png","","","learning","1","1","1","1","goat","animals","1","1","","neutral","0"
"html-keyboard-response","193","805823","0.0-11.0-2.0-0.2","7805","2","11","Female","approach_avoid_spark_v1","""event"",""trial"",""time""
""fullscreenenter"",""1"",""35476""
","
","
","""event"",""trial"",""time""
""fullscreenenter"",""1"",""35476""
","
","","","","","","null","<div style=""font-size:60px;"">+</div>","null","","fixation","","","","","","","","","","",""
"aa-learning-trial","194","808837","0.0-11.0-2.0-1.2","7805","2","11","Female","approach_avoid_spark_v1","""event"",""trial"",""time""
""fullscreenenter"",""1"",""35476""
","
","
","""event"",""trial"",""time""
""fullscreenenter"",""1"",""35476""
","
","","","","","","735.0999999977648","images/horse8.png","","","learning","-4","0","0","0","horse","animals","1","1","","bad","[-5]"
"html-keyboard-response","195","809343","0.0-11.0-2.0-0.3","7805","2","11","Female","approach_avoid_spark_v1","""event"",""trial"",""time""
""fullscreenenter"",""1"",""35476""
","
","
","""event"",""trial"",""time""
""fullscreenenter"",""1"",""35476""
","
","","","","","","null","<div style=""font-size:60px;"">+</div>","null","","fixation","","","","","","","","","","",""
"aa-learning-trial","196","812354","0.0-11.0-2.0-1.3","7805","2","11","Female","approach_avoid_spark_v1","""event"",""trial"",""time""
""fullscreenenter"",""1"",""35476""
","
","
","""event"",""trial"",""time""
""fullscreenenter"",""1"",""35476""
","
","","","","","","959.6000000014901","images/goat3.png","","","learning","1","1","1","1","goat","animals","1","1","","neutral","0"
"html-keyboard-response","197","812859","0.0-11.0-2.0-0.4","7805","2","11","Female","approach_avoid_spark_v1","""event"",""trial"",""time""
""fullscreenenter"",""1"",""35476""
","
","
","""event"",""trial"",""time""
""fullscreenenter"",""1"",""35476""
","
","","","","","","null","<div style=""font-size:60px;"">+</div>","null","","fixation","","","","","","","","","","",""
"aa-learning-trial","198","815874","0.0-11.0-2.0-1.4","7805","2","11","Female","approach_avoid_spark_v1","""event"",""trial"",""time""
""fullscreenenter"",""1"",""35476""
","
","
","""event"",""trial"",""time""
""fullscreenenter"",""1"",""35476""
","
","","","","","","1176.300000000745","images/horse7.png","","","learning","-6","-6","1","1","horse","animals","1","1","","bad","[-5]"
"html-keyboard-response","199","816377","0.0-11.0-2.0-0.5","7805","2","11","Female","approach_avoid_spark_v1","""event"",""trial"",""time""
""fullscreenenter"",""1"",""35476""
","
","
","""event"",""trial"",""time""
""fullscreenenter"",""1"",""35476""
","
","","","","","","null","<div style=""font-size:60px;"">+</div>","null","","fixation","","","","","","","","","","",""
"aa-learning-trial","200","819387","0.0-11.0-2.0-1.5","7805","2","11","Female","approach_avoid_spark_v1","""event"",""trial"",""time""
""fullscreenenter"",""1"",""35476""
","
","
","""event"",""trial"",""time""
""fullscreenenter"",""1"",""35476""
","
","","","","","","955","images/sheep5.png","","","learning","7","7","1","1","sheep","animals","1","1","","good","[5]"
"html-keyboard-response","201","819892","0.0-11.0-2.0-0.6","7805","2","11","Female","approach_avoid_spark_v1","""event"",""trial"",""time""
""fullscreenenter"",""1"",""35476""
","
","
","""event"",""trial"",""time""
""fullscreenenter"",""1"",""35476""
","
","","","","","","null","<div style=""font-size:60px;"">+</div>","null","","fixation","","","","","","","","","","",""
"aa-learning-trial","202","822905","0.0-11.0-2.0-1.6","7805","2","11","Female","approach_avoid_spark_v1","""event"",""trial"",""time""
""fullscreenenter"",""1"",""35476""
","
","
","""event"",""trial"",""time""
""fullscreenenter"",""1"",""35476""
","
","","","","","","1531.0999999977648","images/sheep1.png","","","learning","4","4","1","1","sheep","animals","1","1","","good","[5]"
"html-keyboard-response","203","823409","0.0-11.0-2.0-0.7","7805","2","11","Female","approach_avoid_spark_v1","""event"",""trial"",""time""
""fullscreenenter"",""1"",""35476""
","
","
","""event"",""trial"",""time""
""fullscreenenter"",""1"",""35476""
","
","","","","","","null","<div style=""font-size:60px;"">+</div>","null","","fixation","","","","","","","","","","",""
"aa-learning-trial","204","826419","0.0-11.0-2.0-1.7","7805","2","11","Female","approach_avoid_spark_v1","""event"",""trial"",""time""
""fullscreenenter"",""1"",""35476""
","
","
","""event"",""trial"",""time""
""fullscreenenter"",""1"",""35476""
","
","","","","","","872.3000000007451","images/horse7.png","","","learning","-7","0","0","0","horse","animals","1","1","","bad","[-5]"
"html-keyboard-response","205","826924","0.0-11.0-2.0-0.8","7805","2","11","Female","approach_avoid_spark_v1","""event"",""trial"",""time""
""fullscreenenter"",""1"",""35476""
","
","
","""event"",""trial"",""time""
""fullscreenenter"",""1"",""35476""
","
","","","","","","null","<div style=""font-size:60px;"">+</div>","null","","fixation","","","","","","","","","","",""
"aa-learning-trial","206","829937","0.0-11.0-2.0-1.8","7805","2","11","Female","approach_avoid_spark_v1","""event"",""trial"",""time""
""fullscreenenter"",""1"",""35476""
","
","
","""event"",""trial"",""time""
""fullscreenenter"",""1"",""35476""
","
","","","","","","1240.3999999985099","images/goat8.png","","","learning","-1","-1","1","1","goat","animals","1","1","","neutral","0"
"html-keyboard-response","207","830443","0.0-11.0-2.0-0.9","7805","2","11","Female","approach_avoid_spark_v1","""event"",""trial"",""time""
""fullscreenenter"",""1"",""35476""
","
","
","""event"",""trial"",""time""
""fullscreenenter"",""1"",""35476""
","
","","","","","","null","<div style=""font-size:60px;"">+</div>","null","","fixation","","","","","","","","","","",""
"aa-learning-trial","208","833453","0.0-11.0-2.0-1.9","7805","2","11","Female","approach_avoid_spark_v1","""event"",""trial"",""time""
""fullscreenenter"",""1"",""35476""
","
","
","""event"",""trial"",""time""
""fullscreenenter"",""1"",""35476""
","
","","","","","","905.4000000022352","images/goat5.png","","","learning","-1","-1","1","1","goat","animals","1","1","","neutral","0"
"html-keyboard-response","209","833957","0.0-11.0-2.0-0.10","7805","2","11","Female","approach_avoid_spark_v1","""event"",""trial"",""time""
""fullscreenenter"",""1"",""35476""
","
","
","""event"",""trial"",""time""
""fullscreenenter"",""1"",""35476""
","
","","","","","","null","<div style=""font-size:60px;"">+</div>","null","","fixation","","","","","","","","","","",""
"aa-learning-trial","210","836970","0.0-11.0-2.0-1.10","7805","2","11","Female","approach_avoid_spark_v1","""event"",""trial"",""time""
""fullscreenenter"",""1"",""35476""
","
","
","""event"",""trial"",""time""
""fullscreenenter"",""1"",""35476""
","
","","","","","","1072.699999999255","images/horse3.png","","","learning","-6","-6","1","1","horse","animals","1","1","","bad","[-5]"
"html-keyboard-response","211","837475","0.0-11.0-2.0-0.11","7805","2","11","Female","approach_avoid_spark_v1","""event"",""trial"",""time""
""fullscreenenter"",""1"",""35476""
","
","
","""event"",""trial"",""time""
""fullscreenenter"",""1"",""35476""
","
","","","","","","null","<div style=""font-size:60px;"">+</div>","null","","fixation","","","","","","","","","","",""
"aa-learning-trial","212","840489","0.0-11.0-2.0-1.11","7805","2","11","Female","approach_avoid_spark_v1","""event"",""trial"",""time""
""fullscreenenter"",""1"",""35476""
","
","
","""event"",""trial"",""time""
""fullscreenenter"",""1"",""35476""
","
","","","","","","1023.2000000029802","images/sheep1.png","","","learning","5","5","1","1","sheep","animals","1","1","","good","[5]"
"html-keyboard-response","213","840994","0.0-11.0-2.0-0.12","7805","2","11","Female","approach_avoid_spark_v1","""event"",""trial"",""time""
""fullscreenenter"",""1"",""35476""
","
","
","""event"",""trial"",""time""
""fullscreenenter"",""1"",""35476""
","
","","","","","","null","<div style=""font-size:60px;"">+</div>","null","","fixation","","","","","","","","","","",""
"aa-learning-trial","214","844007","0.0-11.0-2.0-1.12","7805","2","11","Female","approach_avoid_spark_v1","""event"",""trial"",""time""
""fullscreenenter"",""1"",""35476""
","
","
","""event"",""trial"",""time""
""fullscreenenter"",""1"",""35476""
","
","","","","","","936.7999999970198","images/sheep3.png","","","learning","5","5","1","1","sheep","animals","1","1","","good","[5]"
"html-keyboard-response","215","844512","0.0-11.0-2.0-0.13","7805","2","11","Female","approach_avoid_spark_v1","""event"",""trial"",""time""
""fullscreenenter"",""1"",""35476""
","
","
","""event"",""trial"",""time""
""fullscreenenter"",""1"",""35476""
","
","","","","","","null","<div style=""font-size:60px;"">+</div>","null","","fixation","","","","","","","","","","",""
"aa-learning-trial","216","847526","0.0-11.0-2.0-1.13","7805","2","11","Female","approach_avoid_spark_v1","""event"",""trial"",""time""
""fullscreenenter"",""1"",""35476""
","
","
","""event"",""trial"",""time""
""fullscreenenter"",""1"",""35476""
","
","","","","","","815.5","images/horse3.png","","","learning","-5","0","0","0","horse","animals","1","1","","bad","[-5]"
"html-keyboard-response","217","848032","0.0-11.0-2.0-0.14","7805","2","11","Female","approach_avoid_spark_v1","""event"",""trial"",""time""
""fullscreenenter"",""1"",""35476""
","
","
","""event"",""trial"",""time""
""fullscreenenter"",""1"",""35476""
","
","","","","","","null","<div style=""font-size:60px;"">+</div>","null","","fixation","","","","","","","","","","",""
"aa-learning-trial","218","851047","0.0-11.0-2.0-1.14","7805","2","11","Female","approach_avoid_spark_v1","""event"",""trial"",""time""
""fullscreenenter"",""1"",""35476""
","
","
","""event"",""trial"",""time""
""fullscreenenter"",""1"",""35476""
","
","","","","","","899","images/sheep5.png","","","learning","3","3","1","1","sheep","animals","1","1","","good","[5]"
"html-keyboard-response","219","851553","0.0-11.0-2.0-0.15","7805","2","11","Female","approach_avoid_spark_v1","""event"",""trial"",""time""
""fullscreenenter"",""1"",""35476""
","
","
","""event"",""trial"",""time""
""fullscreenenter"",""1"",""35476""
","
","","","","","","null","<div style=""font-size:60px;"">+</div>","null","","fixation","","","","","","","","","","",""
"aa-learning-trial","220","854566","0.0-11.0-2.0-1.15","7805","2","11","Female","approach_avoid_spark_v1","""event"",""trial"",""time""
""fullscreenenter"",""1"",""35476""
","
","
","""event"",""trial"",""time""
""fullscreenenter"",""1"",""35476""
","
","","","","","","991.4000000022352","images/sheep1.png","","","learning","5","5","1","1","sheep","animals","1","1","","good","[5]"
"html-keyboard-response","221","855069","0.0-11.0-2.0-0.16","7805","2","11","Female","approach_avoid_spark_v1","""event"",""trial"",""time""
""fullscreenenter"",""1"",""35476""
","
","
","""event"",""trial"",""time""
""fullscreenenter"",""1"",""35476""
","
","","","","","","null","<div style=""font-size:60px;"">+</div>","null","","fixation","","","","","","","","","","",""
"aa-learning-trial","222","858082","0.0-11.0-2.0-1.16","7805","2","11","Female","approach_avoid_spark_v1","""event"",""trial"",""time""
""fullscreenenter"",""1"",""35476""
","
","
","""event"",""trial"",""time""
""fullscreenenter"",""1"",""35476""
","
","","","","","","764.1999999992549","images/goat5.png","","","learning","1","0","0","0","goat","animals","1","1","","neutral","0"
"html-keyboard-response","223","858586","0.0-11.0-2.0-0.17","7805","2","11","Female","approach_avoid_spark_v1","""event"",""trial"",""time""
""fullscreenenter"",""1"",""35476""
","
","
","""event"",""trial"",""time""
""fullscreenenter"",""1"",""35476""
","
","","","","","","null","<div style=""font-size:60px;"">+</div>","null","","fixation","","","","","","","","","","",""
"aa-learning-trial","224","861600","0.0-11.0-2.0-1.17","7805","2","11","Female","approach_avoid_spark_v1","""event"",""trial"",""time""
""fullscreenenter"",""1"",""35476""
","
","
","""event"",""trial"",""time""
""fullscreenenter"",""1"",""35476""
","
","","","","","","795.4000000022352","images/horse3.png","","","learning","-5","0","0","0","horse","animals","1","1","","bad","[-5]"
"html-keyboard-response","225","862106","0.0-11.0-2.0-0.18","7805","2","11","Female","approach_avoid_spark_v1","""event"",""trial"",""time""
""fullscreenenter"",""1"",""35476""
","
","
","""event"",""trial"",""time""
""fullscreenenter"",""1"",""35476""
","
","","","","","","null","<div style=""font-size:60px;"">+</div>","null","","fixation","","","","","","","","","","",""
"aa-learning-trial","226","865122","0.0-11.0-2.0-1.18","7805","2","11","Female","approach_avoid_spark_v1","""event"",""trial"",""time""
""fullscreenenter"",""1"",""35476""
","
","
","""event"",""trial"",""time""
""fullscreenenter"",""1"",""35476""
","
","","","","","","997.3999999985099","images/goat8.png","","","learning","2","2","1","1","goat","animals","1","1","","neutral","0"
"html-keyboard-response","227","865629","0.0-11.0-2.0-0.19","7805","2","11","Female","approach_avoid_spark_v1","""event"",""trial"",""time""
""fullscreenenter"",""1"",""35476""
","
","
","""event"",""trial"",""time""
""fullscreenenter"",""1"",""35476""
","
","","","","","","null","<div style=""font-size:60px;"">+</div>","null","","fixation","","","","","","","","","","",""
"aa-learning-trial","228","868643","0.0-11.0-2.0-1.19","7805","2","11","Female","approach_avoid_spark_v1","""event"",""trial"",""time""
""fullscreenenter"",""1"",""35476""
","
","
","""event"",""trial"",""time""
""fullscreenenter"",""1"",""35476""
","
","","","","","","652.6000000014901","images/goat5.png","","","learning","-1","0","0","0","goat","animals","1","1","","neutral","0"
"html-keyboard-response","229","869149","0.0-11.0-2.0-0.20","7805","2","11","Female","approach_avoid_spark_v1","""event"",""trial"",""time""
""fullscreenenter"",""1"",""35476""
","
","
","""event"",""trial"",""time""
""fullscreenenter"",""1"",""35476""
","
","","","","","","null","<div style=""font-size:60px;"">+</div>","null","","fixation","","","","","","","","","","",""
"aa-learning-trial","230","872163","0.0-11.0-2.0-1.20","7805","2","11","Female","approach_avoid_spark_v1","""event"",""trial"",""time""
""fullscreenenter"",""1"",""35476""
","
","
","""event"",""trial"",""time""
""fullscreenenter"",""1"",""35476""
","
","","","","","","699.4000000022352","images/goat5.png","","","learning","1","0","0","0","goat","animals","1","1","","neutral","0"
"html-keyboard-response","231","872667","0.0-11.0-2.0-0.21","7805","2","11","Female","approach_avoid_spark_v1","""event"",""trial"",""time""
""fullscreenenter"",""1"",""35476""
","
","
","""event"",""trial"",""time""
""fullscreenenter"",""1"",""35476""
","
","","","","","","null","<div style=""font-size:60px;"">+</div>","null","","fixation","","","","","","","","","","",""
"aa-learning-trial","232","875681","0.0-11.0-2.0-1.21","7805","2","11","Female","approach_avoid_spark_v1","""event"",""trial"",""time""
""fullscreenenter"",""1"",""35476""
","
","
","""event"",""trial"",""time""
""fullscreenenter"",""1"",""35476""
","
","","","","","","1278.1000000014901","images/horse7.png","","","learning","-4","0","0","0","horse","animals","1","1","","bad","[-5]"
"html-keyboard-response","233","876188","0.0-11.0-2.0-0.22","7805","2","11","Female","approach_avoid_spark_v1","""event"",""trial"",""time""
""fullscreenenter"",""1"",""35476""
","
","
","""event"",""trial"",""time""
""fullscreenenter"",""1"",""35476""
","
","","","","","","null","<div style=""font-size:60px;"">+</div>","null","","fixation","","","","","","","","","","",""
"aa-learning-trial","234","879202","0.0-11.0-2.0-1.22","7805","2","11","Female","approach_avoid_spark_v1","""event"",""trial"",""time""
""fullscreenenter"",""1"",""35476""
","
","
","""event"",""trial"",""time""
""fullscreenenter"",""1"",""35476""
","
","","","","","","1324.0999999977648","images/horse8.png","","","learning","-8","0","0","0","horse","animals","1","1","","bad","[-5]"
"html-keyboard-response","235","879708","0.0-11.0-2.0-0.23","7805","2","11","Female","approach_avoid_spark_v1","""event"",""trial"",""time""
""fullscreenenter"",""1"",""35476""
","
","
","""event"",""trial"",""time""
""fullscreenenter"",""1"",""35476""
","
