"trial_type","trial_index","time_elapsed","internal_node_id","subject_id","task_condition","age","gender","task_version","interactions","blur_events","focus_events","fullscreenenter_events","fullscreenexit_events","success","timeout","failed_images","failed_audio","failed_video","rt","stimulus","response","button_pressed","task_part","approach_reward","points","key_press","option_selected","stim_cat","task_block","block_condition","block_number","correct","cat_type","mean_cat_reward"
"pavlovia","0","5","0.0-0.0","4092","2","8","Male","approach_avoid_spark_v1","""event"",""trial"",""time""
""fullscreenenter"",""1"",""7023""
","
","
","""event"",""trial"",""time""
""fullscreenenter"",""1"",""7023""
","
","","","","","","","","","","","","","","","","","","","","",""
"fullscreen","1","8013","0.0-1.0","4092","2","8","Male","approach_avoid_spark_v1","""event"",""trial"",""time""
""fullscreenenter"",""1"",""7023""
","
","
","""event"",""trial"",""time""
""fullscreenenter"",""1"",""7023""
","
","true","","","","","","","","","","","","","","","","","","","",""
"preload","2","11139","0.0-2.0","4092","2","8","Male","approach_avoid_spark_v1","""event"",""trial"",""time""
""fullscreenenter"",""1"",""7023""
","
","
","""event"",""trial"",""time""
""fullscreenenter"",""1"",""7023""
","
","true","false","[]","[]","[]","","","","","","","","","","","","","","","",""
"audio-keyboard-response","3","16689","0.0-3.0","4092","2","8","Male","approach_avoid_spark_v1","""event"",""trial"",""time""
""fullscreenenter"",""1"",""7023""
","
","
","""event"",""trial"",""time""
""fullscreenenter"",""1"",""7023""
","
","","","","","","5549.569160997731","audio/beep_loop.wav"," ","","","","","","","","","","","","",""
"audio-button-response","4","25516","0.0-4.0","4092","2","8","Male","approach_avoid_spark_v1","""event"",""trial"",""time""
""fullscreenenter"",""1"",""7023""
","
","
","""event"",""trial"",""time""
""fullscreenenter"",""1"",""7023""
","
","","","","","","8824","audio/shark.wav","4","","","","","","","","","","","","",""
"audio-button-response","5","28344","0.0-5.0","4092","2","8","Male","approach_avoid_spark_v1","""event"",""trial"",""time""
""fullscreenenter"",""1"",""7023""
","
","
","""event"",""trial"",""time""
""fullscreenenter"",""1"",""7023""
","
","","","","","","1817","audio/turtle.wav","1","","","","","","","","","","","","",""
"preload","6","30785","0.0-6.0","4092","2","8","Male","approach_avoid_spark_v1","""event"",""trial"",""time""
""fullscreenenter"",""1"",""7023""
","
","
","""event"",""trial"",""time""
""fullscreenenter"",""1"",""7023""
","
","true","false","[]","[]","[]","","","","","","","","","","","","","","","",""
"html-keyboard-response","7","38886","0.0-7.0","4092","2","8","Male","approach_avoid_spark_v1","""event"",""trial"",""time""
""fullscreenenter"",""1"",""7023""
","
","
","""event"",""trial"",""time""
""fullscreenenter"",""1"",""7023""
","
","","","","","","8100","Welcome to the experiment. Press any key to begin and to advance the instructions."," ","","","","","","","","","","","","",""
"learning-instructions","8","49082","0.0-8.0-0.0-0.0","4092","2","8","Male","approach_avoid_spark_v1","""event"",""trial"",""time""
""fullscreenenter"",""1"",""7023""
","
","
","""event"",""trial"",""time""
""fullscreenenter"",""1"",""7023""
","
","","","","","","3239.7999999970198","<p> Welcome! Today you are going to play 6 different rounds of a decision-making game. </p><p> Use the mouse to click next to continue. </p>","","0","instructions","","","","","","","","","","",""
"learning-instructions","9","52564","0.0-8.0-0.0-0.1","4092","2","8","Male","approach_avoid_spark_v1","""event"",""trial"",""time""
""fullscreenenter"",""1"",""7023""
","
","
","""event"",""trial"",""time""
""fullscreenenter"",""1"",""7023""
","
","","","","","","760.6999999880791","<p> You will start with a practice round to learn the rules. </p>","","0","instructions","","","","","","","","","","",""
"learning-instructions","10","57110","0.0-8.0-0.0-0.2","4092","2","8","Male","approach_avoid_spark_v1","""event"",""trial"",""time""
""fullscreenenter"",""1"",""7023""
","
","
","""event"",""trial"",""time""
""fullscreenenter"",""1"",""7023""
","
","","","","","","1091.7000000029802","<p> Your goal in this round is to give out sports equipment to kids. </p></div>","","0","instructions","","","","","","","","","","",""
"learning-instructions","11","65298","0.0-8.0-0.0-0.3","4092","2","8","Male","approach_avoid_spark_v1","""event"",""trial"",""time""
""fullscreenenter"",""1"",""7023""
","
","
","""event"",""trial"",""time""
""fullscreenenter"",""1"",""7023""
","
","","","","","","642.1000000089407","<p> The kids only like some of the equipment.  </p><p> On each turn, you will see a piece of sports equipment.   </p><p> You need to decide whether to give it to the kids or not.  </p>","","0","instructions","","","","","","","","","","",""
"learning-instructions","12","70913","0.0-8.0-0.0-0.4","4092","2","8","Male","approach_avoid_spark_v1","""event"",""trial"",""time""
""fullscreenenter"",""1"",""7023""
","
","
","""event"",""trial"",""time""
""fullscreenenter"",""1"",""7023""
","
","","","","","","869","<p> You can give them the equipment by pressing 1 and choose not to give it to them by pressing 0. </p><br><div class=""choice-instructions-grid""> <div class=""choice-option""><img src=""images/approach.png"" class=""choice-option-img"" stage=""instructions"" position=""0"" ><div class=""choice-option-text""> Press ""1."" </div></div><div class=""choice-option""><img src=""images/avoid.png"" class=""choice-option-img"" stage=""instructions"" position=""1"" ><div class=""choice-option-text""> Press ""0."" </div></div>","","0","instructions","","","","","","","","","","",""
"learning-instructions","13","78971","0.0-8.0-0.0-0.5","4092","2","8","Male","approach_avoid_spark_v1","""event"",""trial"",""time""
""fullscreenenter"",""1"",""7023""
","
","
","""event"",""trial"",""time""
""fullscreenenter"",""1"",""7023""
","
","","","","","","678.7999999970198","<p> If you give them a piece of equipment they like, they will be happy! </p><p> But if you give them a piece of equipment they do not like, they will be sad. </p>","","0","instructions","","","","","","","","","","",""
"learning-instructions","14","90838","0.0-8.0-0.0-0.6","4092","2","8","Male","approach_avoid_spark_v1","""event"",""trial"",""time""
""fullscreenenter"",""1"",""7023""
","
","
","""event"",""trial"",""time""
""fullscreenenter"",""1"",""7023""
","
","","","","","","1352.5999999940395","<p> You will earn points based on how you make kids feel. </p><p> If you make them happy, you will WIN anywhere from 1 - 9 points, </p><p> but if you make them sad, you will LOSE anywhere from 1 - 9 points. </p>","","0","instructions","","","","","","","","","","",""
"learning-instructions","15","101627","0.0-8.0-0.0-0.7","4092","2","8","Male","approach_avoid_spark_v1","""event"",""trial"",""time""
""fullscreenenter"",""1"",""7023""
","
","
","""event"",""trial"",""time""
""fullscreenenter"",""1"",""7023""
","
","","","","","","1234.0999999940395","<p> You will see how many points you won or lost in the center of the screen. </p><p> Here is what you would see if you won 6 points: </p><p style=""color:green;font-size:50px;font-weight:bolder"">6</p><p style=""color:green"">The text is GREEN because you WON points.</p>","","0","instructions","","","","","","","","","","",""
"learning-instructions","16","108718","0.0-8.0-0.0-0.8","4092","2","8","Male","approach_avoid_spark_v1","""event"",""trial"",""time""
""fullscreenenter"",""1"",""7023""
","
","
","""event"",""trial"",""time""
""fullscreenenter"",""1"",""7023""
","
","","","","","","1591.2999999970198","<p> And here is what you would see if you lost 4 points: </p><p style=""color:red;font-size:50px;font-weight:bolder"">-4</p><p style=""color:red"">The text is RED because you LOST points. </p>","","0","instructions","","","","","","","","","","",""
"learning-instructions","17","124377","0.0-8.0-0.0-0.9","4092","2","8","Male","approach_avoid_spark_v1","""event"",""trial"",""time""
""fullscreenenter"",""1"",""7023""
","
","
","""event"",""trial"",""time""
""fullscreenenter"",""1"",""7023""
","
","","","","","","944.2000000029802","<p> Some of the equipment will make the kids VERY happy or sad. </p><p> These pieces of equipment will make you win or lose LOTS of points. </p><p> Other pieces of equipment will only make the kids a little happy or sad. </p><p> These pieces of equipment will make you win or lose small amounts of points. </p>","","0","instructions","","","","","","","","","","",""
"learning-instructions","18","135867","0.0-8.0-0.0-0.10","4092","2","8","Male","approach_avoid_spark_v1","""event"",""trial"",""time""
""fullscreenenter"",""1"",""7023""
","
","
","""event"",""trial"",""time""
""fullscreenenter"",""1"",""7023""
","
","","","","","","869.7000000029802","<p> If you choose not to give them the equipment, you will not win or lose any points. </p><p>  However, in the center of the screen, you will see the number of points you WOULD HAVE won or lost if you had given them the equipment. </p>","","0","instructions","","","","","","","","","","",""
"learning-instructions","19","159234","0.0-8.0-0.0-0.11","4092","2","8","Male","approach_avoid_spark_v1","""event"",""trial"",""time""
""fullscreenenter"",""1"",""7023""
","
","
","""event"",""trial"",""time""
""fullscreenenter"",""1"",""7023""
","
","","","","","","1840.8999999910593","<p> Here is what you might see if you did not give the equipment to the kids but it would have made them happy: </p><p style=""color:grey; font-size:50px; display: inline-block; border-spacing: 15px; border-width:3px; border-style:solid; border-color:red"">  &nbsp; 7 &nbsp; </p><p> Remember, in this case, you would not win or lose ANY points because you did not give them the equipment.  </p><p style=""color:grey"">The text is GREY because you earned ZERO points. </p><p style=""color:red"">However, choosing to give the kids the equipment would have made you win points. The box around the text is RED because you chose the worse option. </p>","","0","instructions","","","","","","","","","","",""
"learning-instructions","20","181336","0.0-8.0-0.0-0.12","4092","2","8","Male","approach_avoid_spark_v1","""event"",""trial"",""time""
""fullscreenenter"",""1"",""7023""
","
","
","""event"",""trial"",""time""
""fullscreenenter"",""1"",""7023""
","
","","","","","","1029.2999999970198","<p> Here is what you might see if you did not give the equipment to the kids but it would have made them sad: </p><p style=""color:grey;font-size:50px; display: inline-block; border-spacing: 15px; border-width:3px; border-style:solid; border-color:green"">  &nbsp; -8 &nbsp; </p><p> Remember, in this case, you would not win or lose ANY points because you did not give them the equipment.  </p><p style=""color:grey"">The text is GREY because you earned ZERO points. </p><p  style=""color:green""> Choosing to give the kids the equipment would have made you lose points. The box around the text is GREEN because you chose the better option.</p>","","0","instructions","","","","","","","","","","",""
"learning-instructions","21","191634","0.0-8.0-0.0-0.13","4092","2","8","Male","approach_avoid_spark_v1","""event"",""trial"",""time""
""fullscreenenter"",""1"",""7023""
","
","
","""event"",""trial"",""time""
""fullscreenenter"",""1"",""7023""
","
","","","","","","1516.7000000029802","<p> You will have 3 seconds to make each choice. Try to respond before time runs out! </p><p> You will lose 5 points each time you do not make a response. </p>","","0","instructions","","","","","","","","","","",""
"learning-instructions","22","197722","0.0-8.0-0.0-0.14","4092","2","8","Male","approach_avoid_spark_v1","""event"",""trial"",""time""
""fullscreenenter"",""1"",""7023""
","
","
","""event"",""trial"",""time""
""fullscreenenter"",""1"",""7023""
","
","","","","","","673.2999999970198","<p> This is just a practice round, but in the real game, your bonus payment will depend on your total number of points.","","0","instructions","","","","","","","","","","",""
"learning-instructions","23","204220","0.0-8.0-0.0-0.15","4092","2","8","Male","approach_avoid_spark_v1","""event"",""trial"",""time""
""fullscreenenter"",""1"",""7023""
","
","
","""event"",""trial"",""time""
""fullscreenenter"",""1"",""7023""
","
","","","","","","739.5999999940395","<p> Remember, you can give them the equipment by pressing 1 and choose not to give it to them by pressing 0. </p><br><div class=""choice-instructions-grid""> <div class=""choice-option""><img src=""images/approach.png"" class=""choice-option-img"" stage=""instructions"" position=""0"" ><div class=""choice-option-text""> Press ""1."" </div></div><div class=""choice-option""><img src=""images/avoid.png"" class=""choice-option-img"" stage=""instructions"" position=""1"" ><div class=""choice-option-text""> Press ""0."" </div></div>","","0","instructions","","","","","","","","","","",""
"html-button-response","24","206760","0.0-8.0-1.0","4092","2","8","Male","approach_avoid_spark_v1","""event"",""trial"",""time""
""fullscreenenter"",""1"",""7023""
","
","
","""event"",""trial"",""time""
""fullscreenenter"",""1"",""7023""
","
","","","","","","2436.2000000029802","<p> Ready to practice? </p>","0","","","","","","","","","","","","",""
"html-keyboard-response","25","207371","0.0-8.0-2.0-0.0","4092","2","8","Male","approach_avoid_spark_v1","""event"",""trial"",""time""
""fullscreenenter"",""1"",""7023""
","
","
","""event"",""trial"",""time""
""fullscreenenter"",""1"",""7023""
","
","","","","","","null","<div style=""font-size:60px;"">+</div>","null","","fixation","","","","","","","","","","",""
"aa-learning-trial","26","210375","0.0-8.0-2.0-1.0","4092","2","8","Male","approach_avoid_spark_v1","""event"",""trial"",""time""
""fullscreenenter"",""1"",""7023""
","
","
","""event"",""trial"",""time""
""fullscreenenter"",""1"",""7023""
","
","","","","","","2637.7999999970198","images/racket1.png","","","learning","5","5","1","1","practice","practice","practice","-1","","",""
"html-keyboard-response","27","210883","0.0-8.0-2.0-0.1","4092","2","8","Male","approach_avoid_spark_v1","""event"",""trial"",""time""
""fullscreenenter"",""1"",""7023""
","
","
","""event"",""trial"",""time""
""fullscreenenter"",""1"",""7023""
","
","","","","","","null","<div style=""font-size:60px;"">+</div>","null","","fixation","","","","","","","","","","",""
"aa-learning-trial","28","213892","0.0-8.0-2.0-1.1","4092","2","8","Male","approach_avoid_spark_v1","""event"",""trial"",""time""
""fullscreenenter"",""1"",""7023""
","
","
","""event"",""trial"",""time""
""fullscreenenter"",""1"",""7023""
","
","","","","","","2388.6000000089407","images/racket3.png","","","learning","6","0","0","0","practice","practice","practice","-1","","",""
"html-keyboard-response","29","214400","0.0-8.0-2.0-0.2","4092","2","8","Male","approach_avoid_spark_v1","""event"",""trial"",""time""
""fullscreenenter"",""1"",""7023""
","
","
","""event"",""trial"",""time""
""fullscreenenter"",""1"",""7023""
","
","","","","","","null","<div style=""font-size:60px;"">+</div>","null","","fixation","","","","","","","","","","",""
"aa-learning-trial","30","217407","0.0-8.0-2.0-1.2","4092","2","8","Male","approach_avoid_spark_v1","""event"",""trial"",""time""
""fullscreenenter"",""1"",""7023""
","
","
","""event"",""trial"",""time""
""fullscreenenter"",""1"",""7023""
","
","","","","","","1973.4000000059605","images/racket2.png","","","learning","8","8","1","1","practice","practice","practice","-1","","",""
"html-keyboard-response","31","217917","0.0-8.0-2.0-0.3","4092","2","8","Male","approach_avoid_spark_v1","""event"",""trial"",""time""
""fullscreenenter"",""1"",""7023""
","
","
","""event"",""trial"",""time""
""fullscreenenter"",""1"",""7023""
","
","","","","","","null","<div style=""font-size:60px;"">+</div>","null","","fixation","","","","","","","","","","",""
"aa-learning-trial","32","220925","0.0-8.0-2.0-1.3","4092","2","8","Male","approach_avoid_spark_v1","""event"",""trial"",""time""
""fullscreenenter"",""1"",""7023""
","
","
","""event"",""trial"",""time""
""fullscreenenter"",""1"",""7023""
","
","","","","","","2164","images/ball4.png","","","learning","8","0","0","0","practice","practice","practice","-1","","",""
"html-keyboard-response","33","221427","0.0-8.0-2.0-0.4","4092","2","8","Male","approach_avoid_spark_v1","""event"",""trial"",""time""
""fullscreenenter"",""1"",""7023""
","
","
","""event"",""trial"",""time""
""fullscreenenter"",""1"",""7023""
","
","","","","","","null","<div style=""font-size:60px;"">+</div>","null","","fixation","","","","","","","","","","",""
"aa-learning-trial","34","224435","0.0-8.0-2.0-1.4","4092","2","8","Male","approach_avoid_spark_v1","""event"",""trial"",""time""
""fullscreenenter"",""1"",""7023""
","
","
","""event"",""trial"",""time""
""fullscreenenter"",""1"",""7023""
","
","","","","","","2051.2999999970198","images/racket1.png","","","learning","3","3","1","1","practice","practice","practice","-1","","",""
"html-keyboard-response","35","224940","0.0-8.0-2.0-0.5","4092","2","8","Male","approach_avoid_spark_v1","""event"",""trial"",""time""
""fullscreenenter"",""1"",""7023""
","
","
","""event"",""trial"",""time""
""fullscreenenter"",""1"",""7023""
","
","","","","","","null","<div style=""font-size:60px;"">+</div>","null","","fixation","","","","","","","","","","",""
"aa-learning-trial","36","227948","0.0-8.0-2.0-1.5","4092","2","8","Male","approach_avoid_spark_v1","""event"",""trial"",""time""
""fullscreenenter"",""1"",""7023""
","
","
","""event"",""trial"",""time""
""fullscreenenter"",""1"",""7023""
","
","","","","","","1341.699999988079","images/racket3.png","","","learning","6","6","1","1","practice","practice","practice","-1","","",""
"html-keyboard-response","37","228454","0.0-8.0-2.0-0.6","4092","2","8","Male","approach_avoid_spark_v1","""event"",""trial"",""time""
""fullscreenenter"",""1"",""7023""
","
","
","""event"",""trial"",""time""
""fullscreenenter"",""1"",""7023""
","
","","","","","","null","<div style=""font-size:60px;"">+</div>","null","","fixation","","","","","","","","","","",""
"aa-learning-trial","38","231460","0.0-8.0-2.0-1.6","4092","2","8","Male","approach_avoid_spark_v1","""event"",""trial"",""time""
""fullscreenenter"",""1"",""7023""
","
","
","""event"",""trial"",""time""
""fullscreenenter"",""1"",""7023""
","
","","","","","","1135.4000000059605","images/racket3.png","","","learning","4","0","0","0","practice","practice","practice","-1","","",""
"html-keyboard-response","39","231966","0.0-8.0-2.0-0.7","4092","2","8","Male","approach_avoid_spark_v1","""event"",""trial"",""time""
""fullscreenenter"",""1"",""7023""
","
","
","""event"",""trial"",""time""
""fullscreenenter"",""1"",""7023""
","
","","","","","","null","<div style=""font-size:60px;"">+</div>","null","","fixation","","","","","","","","","","",""
"aa-learning-trial","40","234972","0.0-8.0-2.0-1.7","4092","2","8","Male","approach_avoid_spark_v1","""event"",""trial"",""time""
""fullscreenenter"",""1"",""7023""
","
","
","""event"",""trial"",""time""
""fullscreenenter"",""1"",""7023""
","
","","","","","","695.0999999940395","images/racket3.png","","","learning","2","2","1","1","practice","practice","practice","-1","","",""
"html-keyboard-response","41","235476","0.0-8.0-2.0-0.8","4092","2","8","Male","approach_avoid_spark_v1","""event"",""trial"",""time""
""fullscreenenter"",""1"",""7023""
","
","
","""event"",""trial"",""time""
""fullscreenenter"",""1"",""7023""
","
","","","","","","null","<div style=""font-size:60px;"">+</div>","null","","fixation","","","","","","","","","","",""
"aa-learning-trial","42","238484","0.0-8.0-2.0-1.8","4092","2","8","Male","approach_avoid_spark_v1","""event"",""trial"",""time""
""fullscreenenter"",""1"",""7023""
","
","
","""event"",""trial"",""time""
""fullscreenenter"",""1"",""7023""
","
","","","","","","1449.199999988079","images/ball3.png","","","learning","-8","0","0","0","practice","practice","practice","-1","","",""
"html-keyboard-response","43","238988","0.0-8.0-2.0-0.9","4092","2","8","Male","approach_avoid_spark_v1","""event"",""trial"",""time""
""fullscreenenter"",""1"",""7023""
","
","
","""event"",""trial"",""time""
""fullscreenenter"",""1"",""7023""
","
","","","","","","null","<div style=""font-size:60px;"">+</div>","null","","fixation","","","","","","","","","","",""
"aa-learning-trial","44","241996","0.0-8.0-2.0-1.9","4092","2","8","Male","approach_avoid_spark_v1","""event"",""trial"",""time""
""fullscreenenter"",""1"",""7023""
","
","
","""event"",""trial"",""time""
""fullscreenenter"",""1"",""7023""
","
","","","","","","707.0999999940395","images/ball1.png","","","learning","-8","-8","1","1","practice","practice","practice","-1","","",""
"html-keyboard-response","45","242504","0.0-8.0-2.0-0.10","4092","2","8","Male","approach_avoid_spark_v1","""event"",""trial"",""time""
""fullscreenenter"",""1"",""7023""
","
","
","""event"",""trial"",""time""
""fullscreenenter"",""1"",""7023""
","
","","","","","","null","<div style=""font-size:60px;"">+</div>","null","","fixation","","","","","","","","","","",""
"aa-learning-trial","46","245508","0.0-8.0-2.0-1.10","4092","2","8","Male","approach_avoid_spark_v1","""event"",""trial"",""time""
""fullscreenenter"",""1"",""7023""
","
","
","""event"",""trial"",""time""
""fullscreenenter"",""1"",""7023""
","
","","","","","","553.4000000059605","images/ball2.png","","","learning","9","0","0","0","practice","practice","practice","-1","","",""
"html-keyboard-response","47","246012","0.0-8.0-2.0-0.11","4092","2","8","Male","approach_avoid_spark_v1","""event"",""trial"",""time""
""fullscreenenter"",""1"",""7023""
","
","
","""event"",""trial"",""time""
""fullscreenenter"",""1"",""7023""
","
","","","","","","null","<div style=""font-size:60px;"">+</div>","null","","fixation","","","","","","","","","","",""
"aa-learning-trial","48","249021","0.0-8.0-2.0-1.11","4092","2","8","Male","approach_avoid_spark_v1","""event"",""trial"",""time""
""fullscreenenter"",""1"",""7023""
","
","
","""event"",""trial"",""time""
""fullscreenenter"",""1"",""7023""
","
","","","","","","1954.7000000029802","images/racket3.png","","","learning","-2","0","0","0","practice","practice","practice","-1","","",""
"html-button-response","49","252922","0.0-8.0-3.0","4092","2","8","Male","approach_avoid_spark_v1","""event"",""trial"",""time""
""fullscreenenter"",""1"",""7023""
","
","
","""event"",""trial"",""time""
""fullscreenenter"",""1"",""7023""
","
","","","","","","3899.9000000059605","<p> You earned 16 points in the practice round! </p>","0","","break","","","","","","","","","","",""
"learning-instructions","50","260675","0.0-8.0-4.0-0.0","4092","2","8","Male","approach_avoid_spark_v1","""event"",""trial"",""time""
""fullscreenenter"",""1"",""7023""
","
","
","""event"",""trial"",""time""
""fullscreenenter"",""1"",""7023""
","
","","","","","","1661","<p> It's almost time to start the real game. </p><p> Before you start, we're going to ask you a few questions about how the game works. </p>","","0","instructions","","","","","","","","","","",""
"preload","51","261834","0.0-8.0-5.0","4092","2","8","Male","approach_avoid_spark_v1","""event"",""trial"",""time""
""fullscreenenter"",""1"",""7023""
","
","
","""event"",""trial"",""time""
""fullscreenenter"",""1"",""7023""
","
","true","false","[]","[]","[]","","","","","","","","","","","","","","","",""
"comp-q","52","269580","0.0-8.0-6.0-0.0","4092","2","8","Male","approach_avoid_spark_v1","""event"",""trial"",""time""
""fullscreenenter"",""1"",""7023""
","
","
","""event"",""trial"",""time""
""fullscreenenter"",""1"",""7023""
","
","","","","","","2751.6000000089407","<p> <b> True or False? </b> </p><p> If you see a number in GREY, that means you earned that many points. </p>","","1","comp_question","","","","","","","","","true","",""
"comp-q","53","280105","0.0-8.0-6.0-1.0","4092","2","8","Male","approach_avoid_spark_v1","""event"",""trial"",""time""
""fullscreenenter"",""1"",""7023""
","
","
","""event"",""trial"",""time""
""fullscreenenter"",""1"",""7023""
","
","","","","","","2165.5999999940395","<p><b> That's right! </b> If you see a grey number, it means you earned ZERO points. <br> The grey numbers show the points you WOULD HAVE earned if you had made the other choice. </p>","","0","comp_answer","","","","","","","","","","",""
"comp-q","54","287657","0.0-8.0-7.0-0.0","4092","2","8","Male","approach_avoid_spark_v1","""event"",""trial"",""time""
""fullscreenenter"",""1"",""7023""
","
","
","""event"",""trial"",""time""
""fullscreenenter"",""1"",""7023""
","
","","","","","","2855.7000000029802","<p> <b> True or False? </b> </p><p> You will have as much time as you want to make each choice. </p>","","1","comp_question","","","","","","","","","true","",""
"comp-q","55","296402","0.0-8.0-7.0-1.0","4092","2","8","Male","approach_avoid_spark_v1","""event"",""trial"",""time""
""fullscreenenter"",""1"",""7023""
","
","
","""event"",""trial"",""time""
""fullscreenenter"",""1"",""7023""
","
","","","","","","4704","<p> <b> That's right! </b> You will only have 3 seconds to make each choice. </p>","","0","comp_answer","","","","","","","","","","",""
"comp-q","56","302102","0.0-8.0-8.0-0.0","4092","2","8","Male","approach_avoid_spark_v1","""event"",""trial"",""time""
""fullscreenenter"",""1"",""7023""
","
","
","""event"",""trial"",""time""
""fullscreenenter"",""1"",""7023""
","
","","","","","","1040.0999999940395","<p> <b> True or False? </b> </p><p> You should use the '1' and '0' keys to make your choices. </p>","","0","comp_question","","","","","","","","","true","",""
"comp-q","57","308693","0.0-8.0-8.0-1.0","4092","2","8","Male","approach_avoid_spark_v1","""event"",""trial"",""time""
""fullscreenenter"",""1"",""7023""
","
","
","""event"",""trial"",""time""
""fullscreenenter"",""1"",""7023""
","
","","","","","","1976.4000000059605","<p> <b> That's right! </b> You should use the '1' and '0' keys to make each choice. </p>","","0","comp_answer","","","","","","","","","","",""
"learning-instructions","58","316087","0.0-8.0-9.0-0.0","4092","2","8","Male","approach_avoid_spark_v1","""event"",""trial"",""time""
""fullscreenenter"",""1"",""7023""
","
","
","""event"",""trial"",""time""
""fullscreenenter"",""1"",""7023""
","
","","","","","","1123.1000000089407","<p> It's now time to start the real game. </p>Do your best, because the points you earn in the next rounds will influence your bonus payment. </p>","","0","instructions","","","","","","","","","","",""
"preload","59","316209","0.0-9.0-0.0","4092","2","8","Male","approach_avoid_spark_v1","""event"",""trial"",""time""
""fullscreenenter"",""1"",""7023""
","
","
","""event"",""trial"",""time""
""fullscreenenter"",""1"",""7023""
","
","true","false","[]","[]","[]","","","","","","","","","","","","","","","",""
"learning-instructions","60","321277","0.0-9.0-1.0-0.0","4092","2","8","Male","approach_avoid_spark_v1","""event"",""trial"",""time""
""fullscreenenter"",""1"",""7023""
","
","
","""event"",""trial"",""time""
""fullscreenenter"",""1"",""7023""
","
","","","","","","1047.2000000029802","<p> Your goal in this round is to take care of lots of farm animals. </p></div>","","0","instructions","","","","","","","","","","",""
"learning-instructions","61","331506","0.0-9.0-1.0-0.1","4092","2","8","Male","approach_avoid_spark_v1","""event"",""trial"",""time""
""fullscreenenter"",""1"",""7023""
","
","
","""event"",""trial"",""time""
""fullscreenenter"",""1"",""7023""
","
","","","","","","641.5","<p> Some farm animals are hungry, while other farm animals are already full.  </p><p> On each turn, you will see a farm animal.   </p><p> You need to decide whether to feed it or not.  </p>","","0","instructions","","","","","","","","","","",""
"learning-instructions","62","338082","0.0-9.0-1.0-0.2","4092","2","8","Male","approach_avoid_spark_v1","""event"",""trial"",""time""
""fullscreenenter"",""1"",""7023""
","
","
","""event"",""trial"",""time""
""fullscreenenter"",""1"",""7023""
","
","","","","","","661.8999999910593","<p> You can feed the farm animal by pressing 1 and leave the farm animal alone by pressing 0. </p><br><div class=""choice-instructions-grid""> <div class=""choice-option""><img src=""images/approach.png"" class=""choice-option-img"" stage=""instructions"" position=""0"" ><div class=""choice-option-text""> Press ""1."" </div></div><div class=""choice-option""><img src=""images/avoid.png"" class=""choice-option-img"" stage=""instructions"" position=""1"" ><div class=""choice-option-text""> Press ""0."" </div></div>","","0","instructions","","","","","","","","","","",""
"learning-instructions","63","348039","0.0-9.0-1.0-0.3","4092","2","8","Male","approach_avoid_spark_v1","""event"",""trial"",""time""
""fullscreenenter"",""1"",""7023""
","
","
","""event"",""trial"",""time""
""fullscreenenter"",""1"",""7023""
","
","","","","","","739.5","<p> If you feed a hungry farm animal, you will make it feel satisfied! </p><p> But if you feed the farm animal and it was already full, you will make it feel sick. </p>","","0","instructions","","","","","","","","","","",""
"learning-instructions","64","361774","0.0-9.0-1.0-0.4","4092","2","8","Male","approach_avoid_spark_v1","""event"",""trial"",""time""
""fullscreenenter"",""1"",""7023""
","
","
","""event"",""trial"",""time""
""fullscreenenter"",""1"",""7023""
","
","","","","","","1743.8999999910593","<p> You will earn points based on how you made the farm animal feel. </p><p> If you made it satisfied, you will WIN anywhere from 1 - 9 points, </p><p> but if you made it sick, you will LOSE anywhere from 1 - 9 points. </p>","","0","instructions","","","","","","","","","","",""
"learning-instructions","65","370963","0.0-9.0-1.0-0.5","4092","2","8","Male","approach_avoid_spark_v1","""event"",""trial"",""time""
""fullscreenenter"",""1"",""7023""
","
","
","""event"",""trial"",""time""
""fullscreenenter"",""1"",""7023""
","
","","","","","","1743.9000000059605","<p> You will see how many points you won or lost in the center of the screen. </p><p> Here is what you would see if you won 5 points: </p><p style=""color:green;font-size:50px;font-weight:bolder"">5</p>","","0","instructions","","","","","","","","","","",""
"learning-instructions","66","375351","0.0-9.0-1.0-0.6","4092","2","8","Male","approach_avoid_spark_v1","""event"",""trial"",""time""
""fullscreenenter"",""1"",""7023""
","
","
","""event"",""trial"",""time""
""fullscreenenter"",""1"",""7023""
","
","","","","","","1063.9000000059605","<p> And here is what you would see if you lost 3 points: </p><p style=""color:red;font-size:50px;font-weight:bolder"">-3</p>","","0","instructions","","","","","","","","","","",""
"learning-instructions","67","392160","0.0-9.0-1.0-0.7","4092","2","8","Male","approach_avoid_spark_v1","""event"",""trial"",""time""
""fullscreenenter"",""1"",""7023""
","
","
","""event"",""trial"",""time""
""fullscreenenter"",""1"",""7023""
","
","","","","","","1716.3999999910593","<p> Some farm animals will become very satisfied or very sick. </p><p> These farm animals will make you win or lose LOTS of points. </p><p> Other farm animals have less strong feelings. </p><p> These farm animals will make you win or lose small amounts of points. </p>","","0","instructions","","","","","","","","","","",""
"learning-instructions","68","405464","0.0-9.0-1.0-0.8","4092","2","8","Male","approach_avoid_spark_v1","""event"",""trial"",""time""
""fullscreenenter"",""1"",""7023""
","
","
","""event"",""trial"",""time""
""fullscreenenter"",""1"",""7023""
","
","","","","","","1610.5","<p> If you choose to leave the farm animal alone, you will not win or lose any points. </p><p>  However, in the center of the screen, you will see the number of points you WOULD HAVE won or lost if you had fed the farm animal. </p>","","0","instructions","","","","","","","","","","",""
"learning-instructions","69","418852","0.0-9.0-1.0-0.9","4092","2","8","Male","approach_avoid_spark_v1","""event"",""trial"",""time""
""fullscreenenter"",""1"",""7023""
","
","
","""event"",""trial"",""time""
""fullscreenenter"",""1"",""7023""
","
","","","","","","2343.7000000029802","<p> Here is what you might see if you did not feed the farm animal but the animal was hungry: </p><p style=""color:grey; font-size:50px; display: inline-block; border-spacing: 15px; border-width:3px; border-style:solid; border-color:red"">  &nbsp; 6 &nbsp; </p><p> Remember, in this case, you would not win or lose ANY points because you did not feed the farm animal.  </p>","","0","instructions","","","","","","","","","","",""
"learning-instructions","70","427641","0.0-9.0-1.0-0.10","4092","2","8","Male","approach_avoid_spark_v1","""event"",""trial"",""time""
""fullscreenenter"",""1"",""7023""
","
","
","""event"",""trial"",""time""
""fullscreenenter"",""1"",""7023""
","
","","","","","","1258.2999999970198","<p> Try to make the best choice for each farm animal because </p><p> at the end of the game, you will earn bonus money based on how many points you earned. </p>","","0","instructions","","","","","","","","","","",""
"learning-instructions","71","436674","0.0-9.0-1.0-0.11","4092","2","8","Male","approach_avoid_spark_v1","""event"",""trial"",""time""
""fullscreenenter"",""1"",""7023""
","
","
","""event"",""trial"",""time""
""fullscreenenter"",""1"",""7023""
","
","","","","","","846.2000000029802","<p> You will have 3 seconds to make each choice. Try to respond before time runs out! </p><p> You will lose 5 points each time you do not make a response. </p>","","0","instructions","","","","","","","","","","",""
"html-keyboard-response","72","437283","0.0-9.0-2.0-0.0","4092","2","8","Male","approach_avoid_spark_v1","""event"",""trial"",""time""
""fullscreenenter"",""1"",""7023""
","
","
","""event"",""trial"",""time""
""fullscreenenter"",""1"",""7023""
","
","","","","","","null","<div style=""font-size:60px;"">+</div>","null","","fixation","","","","","","","","","","",""
"aa-learning-trial","73","440292","0.0-9.0-2.0-1.0","4092","2","8","Male","approach_avoid_spark_v1","""event"",""trial"",""time""
""fullscreenenter"",""1"",""7023""
","
","
","""event"",""trial"",""time""
""fullscreenenter"",""1"",""7023""
","
","","","","","","1648.5","images/horse3.png","","","learning","-6","0","0","0","horse","animals","2","0","","neutral","0"
"html-keyboard-response","74","440796","0.0-9.0-2.0-0.1","4092","2","8","Male","approach_avoid_spark_v1","""event"",""trial"",""time""
""fullscreenenter"",""1"",""7023""
","
","
","""event"",""trial"",""time""
""fullscreenenter"",""1"",""7023""
","
","","","","","","null","<div style=""font-size:60px;"">+</div>","null","","fixation","","","","","","","","","","",""
"aa-learning-trial","75","443802","0.0-9.0-2.0-1.1","4092","2","8","Male","approach_avoid_spark_v1","""event"",""trial"",""time""
""fullscreenenter"",""1"",""7023""
","
","
","""event"",""trial"",""time""
""fullscreenenter"",""1"",""7023""
","
","","","","","","1342.4000000059605","images/horse1.png","","","learning","-3","-3","1","1","horse","animals","2","0","","neutral","0"
"html-keyboard-response","76","444306","0.0-9.0-2.0-0.2","4092","2","8","Male","approach_avoid_spark_v1","""event"",""trial"",""time""
""fullscreenenter"",""1"",""7023""
","
","
","""event"",""trial"",""time""
""fullscreenenter"",""1"",""7023""
","
","","","","","","null","<div style=""font-size:60px;"">+</div>","null","","fixation","","","","","","","","","","",""
"aa-learning-trial","77","447318","0.0-9.0-2.0-1.2","4092","2","8","Male","approach_avoid_spark_v1","""event"",""trial"",""time""
""fullscreenenter"",""1"",""7023""
","
","
","""event"",""trial"",""time""
""fullscreenenter"",""1"",""7023""
","
","","","","","","846.7999999970198","images/goat5.png","","","learning","-5","-5","1","1","goat","animals","2","0","","good","[4]"
"html-keyboard-response","78","447826","0.0-9.0-2.0-0.3","4092","2","8","Male","approach_avoid_spark_v1","""event"",""trial"",""time""
""fullscreenenter"",""1"",""7023""
","
","
","""event"",""trial"",""time""
""fullscreenenter"",""1"",""7023""
","
","","","","","","null","<div style=""font-size:60px;"">+</div>","null","","fixation","","","","","","","","","","",""
"aa-learning-trial","79","450834","0.0-9.0-2.0-1.3","4092","2","8","Male","approach_avoid_spark_v1","""event"",""trial"",""time""
""fullscreenenter"",""1"",""7023""
","
","
","""event"",""trial"",""time""
""fullscreenenter"",""1"",""7023""
","
","","","","","","114.5","images/horse6.png","","","learning","-1","0","0","0","horse","animals","2","0","","neutral","0"
"html-keyboard-response","80","451337","0.0-9.0-2.0-0.4","4092","2","8","Male","approach_avoid_spark_v1","""event"",""trial"",""time""
""fullscreenenter"",""1"",""7023""
","
","
","""event"",""trial"",""time""
""fullscreenenter"",""1"",""7023""
","
","","","","","","null","<div style=""font-size:60px;"">+</div>","null","","fixation","","","","","","","","","","",""
"aa-learning-trial","81","454346","0.0-9.0-2.0-1.4","4092","2","8","Male","approach_avoid_spark_v1","""event"",""trial"",""time""
""fullscreenenter"",""1"",""7023""
","
","
","""event"",""trial"",""time""
""fullscreenenter"",""1"",""7023""
","
","","","","","","896","images/cow3.png","","","learning","1","1","1","1","cow","animals","2","0","","bad","[-5]"
"html-keyboard-response","82","454850","0.0-9.0-2.0-0.5","4092","2","8","Male","approach_avoid_spark_v1","""event"",""trial"",""time""
""fullscreenenter"",""1"",""7023""
","
","
","""event"",""trial"",""time""
""fullscreenenter"",""1"",""7023""
","
","","","","","","null","<div style=""font-size:60px;"">+</div>","null","","fixation","","","","","","","","","","",""
"aa-learning-trial","83","457858","0.0-9.0-2.0-1.5","4092","2","8","Male","approach_avoid_spark_v1","""event"",""trial"",""time""
""fullscreenenter"",""1"",""7023""
","
","
","""event"",""trial"",""time""
""fullscreenenter"",""1"",""7023""
","
","","","","","","518","images/horse3.png","","","learning","-6","0","0","0","horse","animals","2","0","","neutral","0"
"html-keyboard-response","84","458363","0.0-9.0-2.0-0.6","4092","2","8","Male","approach_avoid_spark_v1","""event"",""trial"",""time""
""fullscreenenter"",""1"",""7023""
","
","
","""event"",""trial"",""time""
""fullscreenenter"",""1"",""7023""
","
","","","","","","null","<div style=""font-size:60px;"">+</div>","null","","fixation","","","","","","","","","","",""
"aa-learning-trial","85","461370","0.0-9.0-2.0-1.6","4092","2","8","Male","approach_avoid_spark_v1","""event"",""trial"",""time""
""fullscreenenter"",""1"",""7023""
","
","
","""event"",""trial"",""time""
""fullscreenenter"",""1"",""7023""
","
","","","","","","568.9000000059605","images/goat8.png","","","learning","-8","0","0","0","goat","animals","2","0","","good","[4]"
"html-keyboard-response","86","461875","0.0-9.0-2.0-0.7","4092","2","8","Male","approach_avoid_spark_v1","""event"",""trial"",""time""
""fullscreenenter"",""1"",""7023""
","
","
","""event"",""trial"",""time""
""fullscreenenter"",""1"",""7023""
","
","","","","","","null","<div style=""font-size:60px;"">+</div>","null","","fixation","","","","","","","","","","",""
"aa-learning-trial","87","464882","0.0-9.0-2.0-1.7","4092","2","8","Male","approach_avoid_spark_v1","""event"",""trial"",""time""
""fullscreenenter"",""1"",""7023""
","
","
","""event"",""trial"",""time""
""fullscreenenter"",""1"",""7023""
","
","","","","","","775.1000000089407","images/cow2.png","","","learning","5","5","1","1","cow","animals","2","0","","bad","[-5]"
"html-keyboard-response","88","465387","0.0-9.0-2.0-0.8","4092","2","8","Male","approach_avoid_spark_v1","""event"",""trial"",""time""
""fullscreenenter"",""1"",""7023""
","
","
","""event"",""trial"",""time""
""fullscreenenter"",""1"",""7023""
","
","","","","","","null","<div style=""font-size:60px;"">+</div>","null","","fixation","","","","","","","","","","",""
"aa-learning-trial","89","468395","0.0-9.0-2.0-1.8","4092","2","8","Male","approach_avoid_spark_v1","""event"",""trial"",""time""
""fullscreenenter"",""1"",""7023""
","
","
","""event"",""trial"",""time""
""fullscreenenter"",""1"",""7023""
","
","","","","","","740.7000000029802","images/horse6.png","","","learning","-1","-1","1","1","horse","animals","2","0","","neutral","0"
"html-keyboard-response","90","468899","0.0-9.0-2.0-0.9","4092","2","8","Male","approach_avoid_spark_v1","""event"",""trial"",""time""
""fullscreenenter"",""1"",""7023""
","
","
","""event"",""trial"",""time""
""fullscreenenter"",""1"",""7023""
","
","","","","","","null","<div style=""font-size:60px;"">+</div>","null","","fixation","","","","","","","","","","",""
"aa-learning-trial","91","471908","0.0-9.0-2.0-1.9","4092","2","8","Male","approach_avoid_spark_v1","""event"",""trial"",""time""
""fullscreenenter"",""1"",""7023""
","
","
","""event"",""trial"",""time""
""fullscreenenter"",""1"",""7023""
","
","","","","","","156.8999999910593","images/cow7.png","","","learning","7","0","0","0","cow","animals","2","0","","bad","[-5]"
"html-keyboard-response","92","472415","0.0-9.0-2.0-0.10","4092","2","8","Male","approach_avoid_spark_v1","""event"",""trial"",""time""
""fullscreenenter"",""1"",""7023""
","
","
","""event"",""trial"",""time""
""fullscreenenter"",""1"",""7023""
","
","","","","","","null","<div style=""font-size:60px;"">+</div>","null","","fixation","","","","","","","","","","",""
"aa-learning-trial","93","475418","0.0-9.0-2.0-1.10","4092","2","8","Male","approach_avoid_spark_v1","""event"",""trial"",""time""
""fullscreenenter"",""1"",""7023""
","
","
","""event"",""trial"",""time""
""fullscreenenter"",""1"",""7023""
","
","","","","","","482.29999999701977","images/goat3.png","","","learning","-2","-2","1","1","goat","animals","2","0","","good","[4]"
"html-keyboard-response","94","475923","0.0-9.0-2.0-0.11","4092","2","8","Male","approach_avoid_spark_v1","""event"",""trial"",""time""
""fullscreenenter"",""1"",""7023""
","
","
","""event"",""trial"",""time""
""fullscreenenter"",""1"",""7023""
","
","","","","","","null","<div style=""font-size:60px;"">+</div>","null","","fixation","","","","","","","","","","",""
"aa-learning-trial","95","478931","0.0-9.0-2.0-1.11","4092","2","8","Male","approach_avoid_spark_v1","""event"",""trial"",""time""
""fullscreenenter"",""1"",""7023""
","
","
","""event"",""trial"",""time""
""fullscreenenter"",""1"",""7023""
","
","","","","","","153.20000000298023","images/goat5.png","","","learning","-5","0","0","0","goat","animals","2","0","","good","[4]"
"html-keyboard-response","96","479435","0.0-9.0-2.0-0.12","4092","2","8","Male","approach_avoid_spark_v1","""event"",""trial"",""time""
""fullscreenenter"",""1"",""7023""
","
","
","""event"",""trial"",""time""
""fullscreenenter"",""1"",""7023""
","
","","","","","","null","<div style=""font-size:60px;"">+</div>","null","","fixation","","","","","","","","","","",""
"aa-learning-trial","97","482444","0.0-9.0-2.0-1.12","4092","2","8","Male","approach_avoid_spark_v1","""event"",""trial"",""time""
""fullscreenenter"",""1"",""7023""
","
","
","""event"",""trial"",""time""
""fullscreenenter"",""1"",""7023""
","
","","","","","","417","images/cow3.png","","","learning","1","1","1","1","cow","animals","2","0","","bad","[-5]"
"html-keyboard-response","98","482947","0.0-9.0-2.0-0.13","4092","2","8","Male","approach_avoid_spark_v1","""event"",""trial"",""time""
""fullscreenenter"",""1"",""7023""
","
","
","""event"",""trial"",""time""
""fullscreenenter"",""1"",""7023""
","
","","","","","","null","<div style=""font-size:60px;"">+</div>","null","","fixation","","","","","","","","","","",""
"aa-learning-trial","99","485956","0.0-9.0-2.0-1.13","4092","2","8","Male","approach_avoid_spark_v1","""event"",""trial"",""time""
""fullscreenenter"",""1"",""7023""
","
","
","""event"",""trial"",""time""
""fullscreenenter"",""1"",""7023""
","
","","","","","","2361.5999999940395","images/goat3.png","","","learning","-2","-2","1","1","goat","animals","2","0","","good","[4]"
"html-keyboard-response","100","486459","0.0-9.0-2.0-0.14","4092","2","8","Male","approach_avoid_spark_v1","""event"",""trial"",""time""
""fullscreenenter"",""1"",""7023""
","
","
","""event"",""trial"",""time""
""fullscreenenter"",""1"",""7023""
","
","","","","","","null","<div style=""font-size:60px;"">+</div>","null","","fixation","","","","","","","","","","",""
"aa-learning-trial","101","489468","0.0-9.0-2.0-1.14","4092","2","8","Male","approach_avoid_spark_v1","""event"",""trial"",""time""
""fullscreenenter"",""1"",""7023""
","
","
","""event"",""trial"",""time""
""fullscreenenter"",""1"",""7023""
","
","","","","","","1742.2000000029802","images/cow7.png","","","learning","7","0","0","0","cow","animals","2","0","","bad","[-5]"
"html-keyboard-response","102","489971","0.0-9.0-2.0-0.15","4092","2","8","Male","approach_avoid_spark_v1","""event"",""trial"",""time""
""fullscreenenter"",""1"",""7023""
","
","
","""event"",""trial"",""time""
""fullscreenenter"",""1"",""7023""
","
","","","","","","null","<div style=""font-size:60px;"">+</div>","null","","fixation","","","","","","","","","","",""
"aa-learning-trial","103","492982","0.0-9.0-2.0-1.15","4092","2","8","Male","approach_avoid_spark_v1","""event"",""trial"",""time""
""fullscreenenter"",""1"",""7023""
","
","
","""event"",""trial"",""time""
""fullscreenenter"",""1"",""7023""
","
","","","","","","1267.7999999970198","images/cow3.png","","","learning","1","1","1","1","cow","animals","2","0","","bad","[-5]"
"html-keyboard-response","104","493491","0.0-9.0-2.0-0.16","4092","2","8","Male","approach_avoid_spark_v1","""event"",""trial"",""time""
""fullscreenenter"",""1"",""7023""
","
","
","""event"",""trial"",""time""
""fullscreenenter"",""1"",""7023""
","
","","","","","","null","<div style=""font-size:60px;"">+</div>","null","","fixation","","","","","","","","","","",""
"aa-learning-trial","105","496500","0.0-9.0-2.0-1.16","4092","2","8","Male","approach_avoid_spark_v1","""event"",""trial"",""time""
""fullscreenenter"",""1"",""7023""
","
","
","""event"",""trial"",""time""
""fullscreenenter"",""1"",""7023""
","
","","","","","","1153.9000000059605","images/cow7.png","","","learning","7","7","1","1","cow","animals","2","0","","bad","[-5]"
"html-keyboard-response","106","497004","0.0-9.0-2.0-0.17","4092","2","8","Male","approach_avoid_spark_v1","""event"",""trial"",""time""
""fullscreenenter"",""1"",""7023""
","
","
","""event"",""trial"",""time""
""fullscreenenter"",""1"",""7023""
","
","","","","","","null","<div style=""font-size:60px;"">+</div>","null","","fixation","","","","","","","","","","",""
"aa-learning-trial","107","500012","0.0-9.0-2.0-1.17","4092","2","8","Male","approach_avoid_spark_v1","""event"",""trial"",""time""
""fullscreenenter"",""1"",""7023""
","
","
","""event"",""trial"",""time""
""fullscreenenter"",""1"",""7023""
","
","","","","","","2533.5999999940395","images/goat3.png","","","learning","-2","-2","1","1","goat","animals","2","0","","good","[4]"
"html-keyboard-response","108","500516","0.0-9.0-2.0-0.18","4092","2","8","Male","approach_avoid_spark_v1","""event"",""trial"",""time""
""fullscreenenter"",""1"",""7023""
","
","
","""event"",""trial"",""time""
""fullscreenenter"",""1"",""7023""
","
","","","","","","null","<div style=""font-size:60px;"">+</div>","null","","fixation","","","","","","","","","","",""
"aa-learning-trial","109","503524","0.0-9.0-2.0-1.18","4092","2","8","Male","approach_avoid_spark_v1","""event"",""trial"",""time""
""fullscreenenter"",""1"",""7023""
","
","
","""event"",""trial"",""time""
""fullscreenenter"",""1"",""7023""
","
","","","","","","1222.9000000059605","images/cow7.png","","","learning","7","0","0","0","cow","animals","2","0","","bad","[-5]"
"html-keyboard-response","110","504028","0.0-9.0-2.0-0.19","4092","2","8","Male","approach_avoid_spark_v1","""event"",""trial"",""time""
""fullscreenenter"",""1"",""7023""
","
","
","""event"",""trial"",""time""
""fullscreenenter"",""1"",""7023""
","
","","","","","","null","<div style=""font-size:60px;"">+</div>","null","","fixation","","","","","","","","","","",""
"aa-learning-trial","111","507036","0.0-9.0-2.0-1.19","4092","2","8","Male","approach_avoid_spark_v1","""event"",""trial"",""time""
""fullscreenenter"",""1"",""7023""
","
","
","""event"",""trial"",""time""
""fullscreenenter"",""1"",""7023""
","
","","","","","","527.5","images/goat3.png","","","learning","-2","-2","1","1","goat","animals","2","0","","good","[4]"
"html-keyboard-response","112","507540","0.0-9.0-2.0-0.20","4092","2","8","Male","approach_avoid_spark_v1","""event"",""trial"",""time""
""fullscreenenter"",""1"",""7023""
","
","
","""event"",""trial"",""time""
""fullscreenenter"",""1"",""7023""
","
","","","","","","null","<div style=""font-size:60px;"">+</div>","null","","fixation","","","","","","","","","","",""
"aa-learning-trial","113","510548","0.0-9.0-2.0-1.20","4092","2","8","Male","approach_avoid_spark_v1","""event"",""trial"",""time""
""fullscreenenter"",""1"",""7023""
","
","
","""event"",""trial"",""time""
""fullscreenenter"",""1"",""7023""
","
","","","","","","608.5999999940395","images/cow7.png","","","learning","7","0","0","0","cow","animals","2","0","","bad","[-5]"
"html-keyboard-response","114","511052","0.0-9.0-2.0-0.21","4092","2","8","Male","approach_avoid_spark_v1","""event"",""trial"",""time""
""fullscreenenter"",""1"",""7023""
","
","
","""event"",""trial"",""time""
""fullscreenenter"",""1"",""7023""
","
","","","","","","null","<div style=""font-size:60px;"">+</div>","null","","fixation","","","","","","","","","","",""
"aa-learning-trial","115","514060","0.0-9.0-2.0-1.21","4092","2","8","Male","approach_avoid_spark_v1","""event"",""trial"",""time""
""fullscreenenter"",""1"",""7023""
","
","
","""event"",""trial"",""time""
""fullscreenenter"",""1"",""7023""
","
","","","","","","453.40000000596046","images/goat3.png","","","learning","-2","-2","1","1","goat","animals","2","0","","good","[4]"
"html-keyboard-response","116","514564","0.0-9.0-2.0-0.22","4092","2","8","Male","approach_avoid_spark_v1","""event"",""trial"",""time""
""fullscreenenter"",""1"",""7023""
","
","
","""event"",""trial"",""time""
""fullscreenenter"",""1"",""7023""
","
","","","","","","null","<div style=""font-size:60px;"">+</div>","null","","fixation","","","","","","","","","","",""
"aa-learning-trial","117","517575","0.0-9.0-2.0-1.22","4092","2","8","Male","approach_avoid_spark_v1","""event"",""trial"",""time""
""fullscreenenter"",""1"",""7023""
","
","
","""event"",""trial"",""time""
""fullscreenenter"",""1"",""7023""
","
","","","","","","348","images/horse6.png","","","learning","-1","-1","1","1","horse","animals","2","0","","neutral","0"
"html-keyboard-response","118","518084","0.0-9.0-2.0-0.23","4092","2","8","Male","approach_avoid_spark_v1","""event"",""trial"",""time""
""fullscreenenter"",""1"",""7023""
","
","
","""event"",""trial"",""time""
""fullscreenenter"",""1"",""7023""
","
","","","","","","null","<div style=""font-size:60px;"">+</div>","null","","fixation","","","","","","","","","","",""
"aa-learning-trial","119","521093","0.0-9.0-2.0-1.23","4092","2","8","Male","approach_avoid_spark_v1","""event"",""trial"",""time""
""fullscreenenter"",""1"",""7023""
","
","
","""event"",""trial"",""time""
""fullscreenenter"",""1"",""7023""
","
","","","","","","1242.7999999970198","images/goat3.png","","","learning","-2","-2","1","1","goat","animals","2","0","","good","[4]"
"html-keyboard-response","120","521596","0.0-9.0-2.0-0.24","4092","2","8","Male","approach_avoid_spark_v1","""event"",""trial"",""time""
""fullscreenenter"",""1"",""7023""
","
","
","""event"",""trial"",""time""
""fullscreenenter"",""1"",""7023""
","
","","","","","","null","<div style=""font-size:60px;"">+</div>","null","","fixation","","","","","","","","","","",""
"aa-learning-trial","121","524605","0.0-9.0-2.0-1.24","4092","2","8","Male","approach_avoid_spark_v1","""event"",""trial"",""time""
""fullscreenenter"",""1"",""7023""
","
","
","""event"",""trial"",""time""
""fullscreenenter"",""1"",""7023""
","
","","","","","","107.5","images/horse8.png","","","learning","4","4","1","1","horse","animals","2","0","","neutral","0"
"html-keyboard-response","122","525213","0.0-9.0-2.0-0.25","4092","2","8","Male","approach_avoid_spark_v1","""event"",""trial"",""time""
""fullscreenenter"",""1"",""7023""
","
","
","""event"",""trial"",""time""
""fullscreenenter"",""1"",""7023""
","
","","","","","","null","<div style=""font-size:60px;"">+</div>","null","","fixation","","","","","","","","","","",""
"aa-learning-trial","123","528218","0.0-9.0-2.0-1.25","4092","2","8","Male","approach_avoid_spark_v1","""event"",""trial"",""time""
""fullscreenenter"",""1"",""7023""
","
","
","""event"",""trial"",""time""
""fullscreenenter"",""1"",""7023""
","
","","","","","","1100.699999988079","images/goat5.png","","","learning","-5","-5","1","1","goat","animals","2","0","","good","[4]"
"html-keyboard-response","124","528723","0.0-9.0-2.0-0.26","4092","2","8","Male","approach_avoid_spark_v1","""event"",""trial"",""time""
""fullscreenenter"",""1"",""7023""
","
","
","""event"",""trial"",""time""
""fullscreenenter"",""1"",""7023""
","
","","","","","","null","<div style=""font-size:60px;"">+</div>","null","","fixation","","","","","","","","","","",""
"aa-learning-trial","125","531731","0.0-9.0-2.0-1.26","4092","2","8","Male","approach_avoid_spark_v1","""event"",""trial"",""time""
""fullscreenenter"",""1"",""7023""
","
","
","""event"",""trial"",""time""
""fullscreenenter"",""1"",""7023""
","
","","","","","","1385.5","images/cow3.png","","","learning","1","1","1","1","cow","animals","2","0","","bad","[-5]"
"html-keyboard-response","126","532234","0.0-9.0-2.0-0.27","4092","2","8","Male","approach_avoid_spark_v1","""event"",""trial"",""time""
""fullscreenenter"",""1"",""7023""
","
","
","""event"",""trial"",""time""
""fullscreenenter"",""1"",""7023""
","
","","","","","","null","<div style=""font-size:60px;"">+</div>","null","","fixation","","","","","","","","","","",""
"aa-learning-trial","127","535243","0.0-9.0-2.0-1.27","4092","2","8","Male","approach_avoid_spark_v1","""event"",""trial"",""time""
""fullscreenenter"",""1"",""7023""
","
","
","""event"",""trial"",""time""
""fullscreenenter"",""1"",""7023""
","
","","","","","","931.7999999970198","images/goat2.png","","","learning","3","3","1","1","goat","animals","2","0","","good","[4]"
"html-keyboard-response","128","535747","0.0-9.0-2.0-0.28","4092","2","8","Male","approach_avoid_spark_v1","""event"",""trial"",""time""
""fullscreenenter"",""1"",""7023""
","
","
","""event"",""trial"",""time""
""fullscreenenter"",""1"",""7023""
","
","","","","","","null","<div style=""font-size:60px;"">+</div>","null","","fixation","","","","","","","","","","",""
"aa-learning-trial","129","538755","0.0-9.0-2.0-1.28","4092","2","8","Male","approach_avoid_spark_v1","""event"",""trial"",""time""
""fullscreenenter"",""1"",""7023""
","
","
","""event"",""trial"",""time""
""fullscreenenter"",""1"",""7023""
","
","","","","","","951.6000000089407","images/horse4.png","","","learning","8","8","1","1","horse","animals","2","0","","neutral","0"
"html-keyboard-response","130","539259","0.0-9.0-2.0-0.29","4092","2","8","Male","approach_avoid_spark_v1","""event"",""trial"",""time""
""fullscreenenter"",""1"",""7023""
","
","
","""event"",""trial"",""time""
""fullscreenenter"",""1"",""7023""
","
","","","","","","null","<div style=""font-size:60px;"">+</div>","null","","fixation","","","","","","","","","","",""
"aa-learning-trial","131","542267","0.0-9.0-2.0-1.29","4092","2","8","Male","approach_avoid_spark_v1","""event"",""trial"",""time""
""fullscreenenter"",""1"",""7023""
","
","
","""event"",""trial"",""time""
""fullscreenenter"",""1"",""7023""
","
","","","","","","462.5","images/goat5.png","","","learning","-5","-5","1","1","goat","animals","2","0","","good","[4]"
"html-keyboard-response","132","542771","0.0-9.0-2.0-0.30","4092","2","8","Male","approach_avoid_spark_v1","""event"",""trial"",""time""
""fullscreenenter"",""1"",""7023""
","
","
","""event"",""trial"",""time""
""fullscreenenter"",""1"",""7023""
","
","","","","","","null","<div style=""font-size:60px;"">+</div>","null","","fixation","","","","","","","","","","",""
"aa-learning-trial","133","545779","0.0-9.0-2.0-1.30","4092","2","8","Male","approach_avoid_spark_v1","""event"",""trial"",""time""
""fullscreenenter"",""1"",""7023""
","
","
","""event"",""trial"",""time""
""fullscreenenter"",""1"",""7023""
","
","","","","","","151","images/horse6.png","","","learning","-1","0","0","0","horse","animals","2","0","","neutral","0"
"html-keyboard-response","134","546283","0.0-9.0-2.0-0.31","4092","2","8","Male","approach_avoid_spark_v1","""event"",""trial"",""time""
""fullscreenenter"",""1"",""7023""
","
","
","""event"",""trial"",""time""
""fullscreenenter"",""1"",""7023""
","
","","","","","","null","<div style=""font-size:60px;"">+</div>","null","","fixation","","","","","","","","","","",""
"aa-learning-trial","135","549292","0.0-9.0-2.0-1.31","4092","2","8","Male","approach_avoid_spark_v1","""event"",""trial"",""time""
""fullscreenenter"",""1"",""7023""
","
","
","""event"",""trial"",""time""
""fullscreenenter"",""1"",""7023""
","
","","","","","","385.79999999701977","images/cow6.png","","","learning","-4","0","0","0","cow","animals","2","0","","bad","[-5]"
"html-keyboard-response","136","549796","0.0-9.0-2.0-0.32","4092","2","8","Male","approach_avoid_spark_v1","""event"",""trial"",""time""
""fullscreenenter"",""1"",""7023""
","
","
","""event"",""trial"",""time""
""fullscreenenter"",""1"",""7023""
","
","","","","","","null","<div style=""font-size:60px;"">+</div>","null","","fixation","","","","","","","","","","",""
"aa-learning-trial","137","552804","0.0-9.0-2.0-1.32","4092","2","8","Male","approach_avoid_spark_v1","""event"",""trial"",""time""
""fullscreenenter"",""1"",""7023""
","
","
","""event"",""trial"",""time""
""fullscreenenter"",""1"",""7023""
","
","","","","","","17.299999997019768","images/cow2.png","","","learning","5","0","0","0","cow","animals","2","0","","bad","[-5]"
"html-keyboard-response","138","553308","0.0-9.0-2.0-0.33","4092","2","8","Male","approach_avoid_spark_v1","""event"",""trial"",""time""
""fullscreenenter"",""1"",""7023""
","
","
","""event"",""trial"",""time""
""fullscreenenter"",""1"",""7023""
","
","","","","","","null","<div style=""font-size:60px;"">+</div>","null","","fixation","","","","","","","","","","",""
"aa-learning-trial","139","556316","0.0-9.0-2.0-1.33","4092","2","8","Male","approach_avoid_spark_v1","""event"",""trial"",""time""
""fullscreenenter"",""1"",""7023""
","
","
","""event"",""trial"",""time""
""fullscreenenter"",""1"",""7023""
","
","","","","","","447.5","images/goat4.png","","","learning","6","6","1","1","goat","animals","2","0","","good","[4]"
"html-keyboard-response","140","556820","0.0-9.0-2.0-0.34","4092","2","8","Male","approach_avoid_spark_v1","""event"",""trial"",""time""
""fullscreenenter"",""1"",""7023""
","
","
","""event"",""trial"",""time""
""fullscreenenter"",""1"",""7023""
","
","","","","","","null","<div style=""font-size:60px;"">+</div>","null","","fixation","","","","","","","","","","",""
"aa-learning-trial","141","559828","0.0-9.0-2.0-1.34","4092","2","8","Male","approach_avoid_spark_v1","""event"",""trial"",""time""
""fullscreenenter"",""1"",""7023""
","
","
","""event"",""trial"",""time""
""fullscreenenter"",""1"",""7023""
","
","","","","","","518","images/goat8.png","","","learning","-8","0","0","0","goat","animals","2","0","","good","[4]"
"html-keyboard-response","142","560332","0.0-9.0-2.0-0.35","4092","2","8","Male","approach_avoid_spark_v1","""event"",""trial"",""time""
""fullscreenenter"",""1"",""7023""
","
","
","""event"",""trial"",""time""
""fullscreenenter"",""1"",""7023""
","
","","","","","","null","<div style=""font-size:60px;"">+</div>","null","","fixation","","","","","","","","","","",""
"aa-learning-trial","143","563340","0.0-9.0-2.0-1.35","4092","2","8","Male","approach_avoid_spark_v1","""event"",""trial"",""time""
""fullscreenenter"",""1"",""7023""
","
","
","""event"",""trial"",""time""
""fullscreenenter"",""1"",""7023""
","
","","","","","","453.09999999403954","images/goat5.png","","","learning","-5","-5","1","1","goat","animals","2","0","","good","[4]"
"html-keyboard-response","144","563844","0.0-9.0-2.0-0.36","4092","2","8","Male","approach_avoid_spark_v1","""event"",""trial"",""time""
""fullscreenenter"",""1"",""7023""
","
","
","""event"",""trial"",""time""
""fullscreenenter"",""1"",""7023""
","
","","","","","","null","<div style=""font-size:60px;"">+</div>","null","","fixation","","","","","","","","","","",""
"aa-learning-trial","145","566852","0.0-9.0-2.0-1.36","4092","2","8","Male","approach_avoid_spark_v1","""event"",""trial"",""time""
""fullscreenenter"",""1"",""7023""
","
","
","""event"",""trial"",""time""
""fullscreenenter"",""1"",""7023""
","
","","","","","","597.5999999940395","images/horse1.png","","","learning","-3","0","0","0","horse","animals","2","0","","neutral","0"
"html-keyboard-response","146","567356","0.0-9.0-2.0-0.37","4092","2","8","Male","approach_avoid_spark_v1","""event"",""trial"",""time""
""fullscreenenter"",""1"",""7023""
","
","
","""event"",""trial"",""time""
""fullscreenenter"",""1"",""7023""
","
","","","","","","null","<div style=""font-size:60px;"">+</div>","null","","fixation","","","","","","","","","","",""
"aa-learning-trial","147","570364","0.0-9.0-2.0-1.37","4092","2","8","Male","approach_avoid_spark_v1","""event"",""trial"",""time""
""fullscreenenter"",""1"",""7023""
","
","
","""event"",""trial"",""time""
""fullscreenenter"",""1"",""7023""
","
","","","","","","600.7000000029802","images/horse3.png","","","learning","-6","0","0","0","horse","animals","2","0","","neutral","0"
"html-keyboard-response","148","570868","0.0-9.0-2.0-0.38","4092","2","8","Male","approach_avoid_spark_v1","""event"",""trial"",""time""
""fullscreenenter"",""1"",""7023""
","
","
","""event"",""trial"",""time""
""fullscreenenter"",""1"",""7023""
","
","","","","","","null","<div style=""font-size:60px;"">+</div>","null","","fixation","","","","","","","","","","",""
"aa-learning-trial","149","573876","0.0-9.0-2.0-1.38","4092","2","8","Male","approach_avoid_spark_v1","""event"",""trial"",""time""
""fullscreenenter"",""1"",""7023""
","
","
","""event"",""trial"",""time""
""fullscreenenter"",""1"",""7023""
","
","","","","","","415.3999999910593","images/horse3.png","","","learning","-6","-6","1","1","horse","animals","2","0","","neutral","0"
"html-keyboard-response","150","574380","0.0-9.0-2.0-0.39","4092","2","8","Male","approach_avoid_spark_v1","""event"",""trial"",""time""
""fullscreenenter"",""1"",""7023""
","
","
","""event"",""trial"",""time""
""fullscreenenter"",""1"",""7023""
","
","","","","","","null","<div style=""font-size:60px;"">+</div>","null","","fixation","","","","","","","","","","",""
"aa-learning-trial","151","577388","0.0-9.0-2.0-1.39","4092","2","8","Male","approach_avoid_spark_v1","""event"",""trial"",""time""
""fullscreenenter"",""1"",""7023""
","
","
","""event"",""trial"",""time""
""fullscreenenter"",""1"",""7023""
","
","","","","","","518.9000000059605","images/horse6.png","","","learning","-1","0","0","0","horse","animals","2","0","","neutral","0"
"html-keyboard-response","152","577892","0.0-9.0-2.0-0.40","4092","2","8","Male","approach_avoid_spark_v1","""event"",""trial"",""time""
""fullscreenenter"",""1"",""7023""
","
","
","""event"",""trial"",""time""
""fullscreenenter"",""1"",""7023""
","
","","","","","","null","<div style=""font-size:60px;"">+</div>","null","","fixation","","","","","","","","","","",""
"aa-learning-trial","153","580901","0.0-9.0-2.0-1.40","4092","2","8","Male","approach_avoid_spark_v1","""event"",""trial"",""time""
""fullscreenenter"",""1"",""7023""
","
","
","""event"",""trial"",""time""
""fullscreenenter"",""1"",""7023""
","
","","","","","","526","images/goat8.png","","","learning","-8","0","0","0","goat","animals","2","0","","good","[4]"
"html-keyboard-response","154","581405","0.0-9.0-2.0-0.41","4092","2","8","Male","approach_avoid_spark_v1","""event"",""trial"",""time""
""fullscreenenter"",""1"",""7023""
","
","
","""event"",""trial"",""time""
""fullscreenenter"",""1"",""7023""
","
","","","","","","null","<div style=""font-size:60px;"">+</div>","null","","fixation","","","","","","","","","","",""
"aa-learning-trial","155","584413","0.0-9.0-2.0-1.41","4092","2","8","Male","approach_avoid_spark_v1","""event"",""trial"",""time""
""fullscreenenter"",""1"",""7023""
","
","
","""event"",""trial"",""time""
""fullscreenenter"",""1"",""7023""
","
","","","","","","610.5","images/horse3.png","","","learning","-6","0","0","0","horse","animals","2","0","","neutral","0"
"html-keyboard-response","156","584917","0.0-9.0-2.0-0.42","4092","2","8","Male","approach_avoid_spark_v1","""event"",""trial"",""time""
""fullscreenenter"",""1"",""7023""
","
","
","""event"",""trial"",""time""
""fullscreenenter"",""1"",""7023""
","
","","","","","","null","<div style=""font-size:60px;"">+</div>","null","","fixation","","","","","","","","","","",""
"aa-learning-trial","157","587925","0.0-9.0-2.0-1.42","4092","2","8","Male","approach_avoid_spark_v1","""event"",""trial"",""time""
""fullscreenenter"",""1"",""7023""
","
","
","""event"",""trial"",""time""
""fullscreenenter"",""1"",""7023""
","
","","","","","","463.79999999701977","images/cow7.png","","","learning","7","7","1","1","cow","animals","2","0","","bad","[-5]"
"html-keyboard-response","158","588429","0.0-9.0-2.0-0.43","4092","2","8","Male","approach_avoid_spark_v1","""event"",""trial"",""time""
""fullscreenenter"",""1"",""7023""
","
","
","""event"",""trial"",""time""
""fullscreenenter"",""1"",""7023""
","
","","","","","","null","<div style=""font-size:60px;"">+</div>","null","","fixation","","","","","","","","","","",""
"aa-learning-trial","159","591437","0.0-9.0-2.0-1.43","4092","2","8","Male","approach_avoid_spark_v1","""event"",""trial"",""time""
""fullscreenenter"",""1"",""7023""
","
","
","""event"",""trial"",""time""
""fullscreenenter"",""1"",""7023""
","
","","","","","","525.3999999910593","images/cow3.png","","","learning","1","0","0","0","cow","animals","2","0","","bad","[-5]"
"html-keyboard-response","160","591941","0.0-9.0-2.0-0.44","4092","2","8","Male","approach_avoid_spark_v1","""event"",""trial"",""time""
""fullscreenenter"",""1"",""7023""
","
","
","""event"",""trial"",""time""
""fullscreenenter"",""1"",""7023""
","
","","","","","","null","<div style=""font-size:60px;"">+</div>","null","","fixation","","","","","","","","","","",""
"aa-learning-trial","161","594949","0.0-9.0-2.0-1.44","4092","2","8","Male","approach_avoid_spark_v1","""event"",""trial"",""time""
""fullscreenenter"",""1"",""7023""
","
","
","""event"",""trial"",""time""
""fullscreenenter"",""1"",""7023""
","
","","","","","","508.69999998807907","images/cow3.png","","","learning","1","1","1","1","cow","animals","2","0","","bad","[-5]"
"html-keyboard-response","162","595453","0.0-9.0-2.0-0.45","4092","2","8","Male","approach_avoid_spark_v1","""event"",""trial"",""time""
""fullscreenenter"",""1"",""7023""
","
","
","""event"",""trial"",""time""
""fullscreenenter"",""1"",""7023""
","
","","","","","","null","<div style=""font-size:60px;"">+</div>","null","","fixation","","","","","","","","","","",""
"aa-learning-trial","163","598461","0.0-9.0-2.0-1.45","4092","2","8","Male","approach_avoid_spark_v1","""event"",""trial"",""time""
""fullscreenenter"",""1"",""7023""
","
","
","""event"",""trial"",""time""
""fullscreenenter"",""1"",""7023""
","
","","","","","","1124.800000011921","images/horse1.png","","","learning","-3","-3","1","1","horse","animals","2","0","","neutral","0"
"html-keyboard-response","164","598965","0.0-9.0-2.0-0.46","4092","2","8","Male","approach_avoid_spark_v1","""event"",""trial"",""time""
""fullscreenenter"",""1"",""7023""
","
","
","""event"",""trial"",""time""
""fullscreenenter"",""1"",""7023""
","
","","","","","","null","<div style=""font-size:60px;"">+</div>","null","","fixation","","","","","","","","","","",""
"aa-learning-trial","165","601973","0.0-9.0-2.0-1.46","4092","2","8","Male","approach_avoid_spark_v1","""event"",""trial"",""time""
""fullscreenenter"",""1"",""7023""
","
","
","""event"",""trial"",""time""
""fullscreenenter"",""1"",""7023""
","
","","","","","","875.8999999910593","images/cow1.png","","","learning","-7","0","0","0","cow","animals","2","0","","bad","[-5]"
"html-keyboard-response","166","602477","0.0-9.0-2.0-0.47","4092","2","8","Male","approach_avoid_spark_v1","""event"",""trial"",""time""
""fullscreenenter"",""1"",""7023""
","
","
","""event"",""trial"",""time""
""fullscreenenter"",""1"",""7023""
","
","","","","","","null","<div style=""font-size:60px;"">+</div>","null","","fixation","","","","","","","","","","",""
"aa-learning-trial","167","605485","0.0-9.0-2.0-1.47","4092","2","8","Male","approach_avoid_spark_v1","""event"",""trial"",""time""
""fullscreenenter"",""1"",""7023""
","
","
","""event"",""trial"",""time""
""fullscreenenter"",""1"",""7023""
","
","","","","","","454","images/horse3.png","","","learning","-6","-6","1","1","horse","animals","2","0","","neutral","0"
"html-keyboard-response","168","605989","0.0-9.0-2.0-0.48","4092","2","8","Male","approach_avoid_spark_v1","""event"",""trial"",""time""
""fullscreenenter"",""1"",""7023""
","
","
","""event"",""trial"",""time""
""fullscreenenter"",""1"",""7023""
","
","","","","","","null","<div style=""font-size:60px;"">+</div>","null","","fixation","","","","","","","","","","",""
"aa-learning-trial","169","608997","0.0-9.0-2.0-1.48","4092","2","8","Male","approach_avoid_spark_v1","""event"",""trial"",""time""
""fullscreenenter"",""1"",""7023""
","
","
","""event"",""trial"",""time""
""fullscreenenter"",""1"",""7023""
","
","","","","","","284.3999999910593","images/horse6.png","","","learning","-1","0","0","0","horse","animals","2","0","","neutral","0"
"html-keyboard-response","170","609501","0.0-9.0-2.0-0.49","4092","2","8","Male","approach_avoid_spark_v1","""event"",""trial"",""time""
""fullscreenenter"",""1"",""7023""
","
","
","""event"",""trial"",""time""
""fullscreenenter"",""1"",""7023""
","
","","","","","","null","<div style=""font-size:60px;"">+</div>","null","","fixation","","","","","","","","","","",""
"aa-learning-trial","171","612510","0.0-9.0-2.0-1.49","4092","2","8","Male","approach_avoid_spark_v1","""event"",""trial"",""time""
""fullscreenenter"",""1"",""7023""
","
","
","""event"",""trial"",""time""
""fullscreenenter"",""1"",""7023""
","
","","","","","","444","images/cow2.png","","","learning","5","0","0","0","cow","animals","2","0","","bad","[-5]"
"html-keyboard-response","172","613013","0.0-9.0-2.0-0.50","4092","2","8","Male","approach_avoid_spark_v1","""event"",""trial"",""time""
""fullscreenenter"",""1"",""7023""
","
","
","""event"",""trial"",""time""
""fullscreenenter"",""1"",""7023""
","
","","","","","","null","<div style=""font-size:60px;"">+</div>","null","","fixation","","","","","","","","","","",""
"aa-learning-trial","173","616022","0.0-9.0-2.0-1.50","4092","2","8","Male","approach_avoid_spark_v1","""event"",""trial"",""time""
""fullscreenenter"",""1"",""7023""
","
","
","""event"",""trial"",""time""
""fullscreenenter"",""1"",""7023""
","
","","","","","","726.9000000059605","images/goat5.png","","","learning","-5","-5","1","1","goat","animals","2","0","","good","[4]"
"html-button-response","174","618944","0.0-9.0-3.0","4092","2","8","Male","approach_avoid_spark_v1","""event"",""trial"",""time""
""fullscreenenter"",""1"",""7023""
","
","
","""event"",""trial"",""time""
""fullscreenenter"",""1"",""7023""
","
","","","","","","2920.7999999970198","<p> You have completed the round! <p> In this round, you earned -12 points! </p>","0","","break","","","","","","","","","","",""
"html-button-response","175","620861","0.0-10.0","4092","2","8","Male","approach_avoid_spark_v1","""event"",""trial"",""time""
""fullscreenenter"",""1"",""7023""
","
","
","""event"",""trial"",""time""
""fullscreenenter"",""1"",""7023""
","
","","","","","","1915.5","<p> Now it's time to play another round. </p>","0","","transition_screen","","","","","","","","","","",""
"preload","176","620980","0.0-11.0-0.0","4092","2","8","Male","approach_avoid_spark_v1","""event"",""trial"",""time""
""fullscreenenter"",""1"",""7023""
","
","
","""event"",""trial"",""time""
""fullscreenenter"",""1"",""7023""
","
","true","false","[]","[]","[]","","","","","","","","","","","","","","","",""
"learning-instructions","177","627234","0.0-11.0-1.0-0.0","4092","2","8","Male","approach_avoid_spark_v1","""event"",""trial"",""time""
""fullscreenenter"",""1"",""7023""
","
","
","""event"",""trial"",""time""
""fullscreenenter"",""1"",""7023""
","
","","","","","","1036.2999999970198","<p> Your goal in this round is to sell different plants to a picky customer. </p></div>","","0","instructions","","","","","","","","","","",""
"learning-instructions","178","638574","0.0-11.0-1.0-0.1","4092","2","8","Male","approach_avoid_spark_v1","""event"",""trial"",""time""
""fullscreenenter"",""1"",""7023""
","
","
","""event"",""trial"",""time""
""fullscreenenter"",""1"",""7023""
","
","","","","","","2291.9000000059605","<p> The customer likes some plants and dislikes others.  </p><p> On each turn, you will see a plant.   </p><p> You need to decide whether to offer it to the customer or not.  </p>","","0","instructions","","","","","","","","","","",""
"learning-instructions","179","648464","0.0-11.0-1.0-0.2","4092","2","8","Male","approach_avoid_spark_v1","""event"",""trial"",""time""
""fullscreenenter"",""1"",""7023""
","
","
","""event"",""trial"",""time""
""fullscreenenter"",""1"",""7023""
","
","","","","","","4512.5999999940395","<p> You can offer the plant by pressing 1 and decide to not offer it by pressing 0. </p><br><div class=""choice-instructions-grid""> <div class=""choice-option""><img src=""images/approach.png"" class=""choice-option-img"" stage=""instructions"" position=""0"" ><div class=""choice-option-text""> Press ""1."" </div></div><div class=""choice-option""><img src=""images/avoid.png"" class=""choice-option-img"" stage=""instructions"" position=""1"" ><div class=""choice-option-text""> Press ""0."" </div></div>","","0","instructions","","","","","","","","","","",""
"learning-instructions","180","659035","0.0-11.0-1.0-0.3","4092","2","8","Male","approach_avoid_spark_v1","""event"",""trial"",""time""
""fullscreenenter"",""1"",""7023""
","
","
","""event"",""trial"",""time""
""fullscreenenter"",""1"",""7023""
","
","","","","","","1703.9000000059605","<p> If you offer a plant to the customer that she likes, she will be very pleased! </p><p> But if you offer a plant that she does NOT like, she will be annoyed. </p>","","0","instructions","","","","","","","","","","",""
"learning-instructions","181","673126","0.0-11.0-1.0-0.4","4092","2","8","Male","approach_avoid_spark_v1","""event"",""trial"",""time""
""fullscreenenter"",""1"",""7023""
","
","
","""event"",""trial"",""time""
""fullscreenenter"",""1"",""7023""
","
","","","","","","1961.6000000089407","<p> You will earn points based on how you made the customer feel. </p><p> If you made her pleased, you will WIN anywhere from 1 - 9 points, </p><p> but if you made her annoyed, you will LOSE anywhere from 1 - 9 points. </p>","","0","instructions","","","","","","","","","","",""
"learning-instructions","182","681844","0.0-11.0-1.0-0.5","4092","2","8","Male","approach_avoid_spark_v1","""event"",""trial"",""time""
""fullscreenenter"",""1"",""7023""
","
","
","""event"",""trial"",""time""
""fullscreenenter"",""1"",""7023""
","
","","","","","","2064.3999999910593","<p> You will see how many points you won or lost in the center of the screen. </p><p> Here is what you would see if you won 5 points: </p><p style=""color:green;font-size:50px;font-weight:bolder"">5</p>","","0","instructions","","","","","","","","","","",""
"learning-instructions","183","685441","0.0-11.0-1.0-0.6","4092","2","8","Male","approach_avoid_spark_v1","""event"",""trial"",""time""
""fullscreenenter"",""1"",""7023""
","
","
","""event"",""trial"",""time""
""fullscreenenter"",""1"",""7023""
","
","","","","","","755.7000000029802","<p> And here is what you would see if you lost 3 points: </p><p style=""color:red;font-size:50px;font-weight:bolder"">-3</p>","","0","instructions","","","","","","","","","","",""
"learning-instructions","184","701212","0.0-11.0-1.0-0.7","4092","2","8","Male","approach_avoid_spark_v1","""event"",""trial"",""time""
""fullscreenenter"",""1"",""7023""
","
","
","""event"",""trial"",""time""
""fullscreenenter"",""1"",""7023""
","
","","","","","","1416.4000000059605","<p> Some plants will make the customer VERY pleased or annoyed. </p><p> These plants will make you win or lose LOTS of points. </p><p> The customer will have less strong feelings about other plants. </p><p> These plants will make you win or lose small amounts of points. </p>","","0","instructions","","","","","","","","","","",""
"learning-instructions","185","717834","0.0-11.0-1.0-0.8","4092","2","8","Male","approach_avoid_spark_v1","""event"",""trial"",""time""
""fullscreenenter"",""1"",""7023""
","
","
","""event"",""trial"",""time""
""fullscreenenter"",""1"",""7023""
","
","","","","","","4390.100000008941","<p> If you choose to not offer the plant to the customer, you will not win or lose any points. </p><p>  However, in the center of the screen, you will see the number of points you WOULD HAVE won or lost if you had offered the plant. </p>","","0","instructions","","","","","","","","","","",""
"learning-instructions","186","730307","0.0-11.0-1.0-0.9","4092","2","8","Male","approach_avoid_spark_v1","""event"",""trial"",""time""
""fullscreenenter"",""1"",""7023""
","
","
","""event"",""trial"",""time""
""fullscreenenter"",""1"",""7023""
","
","","","","","","1339.8999999910593","<p> Here is what you might see if you did not offer the plant but the customer would have liked it: </p><p style=""color:grey; font-size:50px; display: inline-block; border-spacing: 15px; border-width:3px; border-style:solid; border-color:red"">  &nbsp; 6 &nbsp; </p><p> Remember, in this case, you would not win or lose ANY points because you did not offer the plant.  </p>","","0","instructions","","","","","","","","","","",""
"learning-instructions","187","738892","0.0-11.0-1.0-0.10","4092","2","8","Male","approach_avoid_spark_v1","""event"",""trial"",""time""
""fullscreenenter"",""1"",""7023""
","
","
","""event"",""trial"",""time""
""fullscreenenter"",""1"",""7023""
","
","","","","","","1240.5","<p> Try to make the best choice for each plant because </p><p> at the end of the game, you will earn bonus money based on how many points you earned. </p>","","0","instructions","","","","","","","","","","",""
"learning-instructions","188","748142","0.0-11.0-1.0-0.11","4092","2","8","Male","approach_avoid_spark_v1","""event"",""trial"",""time""
""fullscreenenter"",""1"",""7023""
","
","
","""event"",""trial"",""time""
""fullscreenenter"",""1"",""7023""
","
","","","","","","1069.5","<p> You will have 3 seconds to make each choice. Try to respond before time runs out! </p><p> You will lose 5 points each time you do not make a response. </p>","","0","instructions","","","","","","","","","","",""
"html-keyboard-response","189","748756","0.0-11.0-2.0-0.0","4092","2","8","Male","approach_avoid_spark_v1","""event"",""trial"",""time""
""fullscreenenter"",""1"",""7023""
","
","
","""event"",""trial"",""time""
""fullscreenenter"",""1"",""7023""
","
","","","","","","null","<div style=""font-size:60px;"">+</div>","null","","fixation","","","","","","","","","","",""
"aa-learning-trial","190","751762","0.0-11.0-2.0-1.0","4092","2","8","Male","approach_avoid_spark_v1","""event"",""trial"",""time""
""fullscreenenter"",""1"",""7023""
","
","
","""event"",""trial"",""time""
""fullscreenenter"",""1"",""7023""
","
","","","","","","1254.0999999940395","images/tree2.png","","","learning","1","0","0","0","tree","plants","1","1","","neutral","0"
"html-keyboard-response","191","752266","0.0-11.0-2.0-0.1","4092","2","8","Male","approach_avoid_spark_v1","""event"",""trial"",""time""
""fullscreenenter"",""1"",""7023""
","
","
","""event"",""trial"",""time""
""fullscreenenter"",""1"",""7023""
","
","","","","","","null","<div style=""font-size:60px;"">+</div>","null","","fixation","","","","","","","","","","",""
"aa-learning-trial","192","755274","0.0-11.0-2.0-1.1","4092","2","8","Male","approach_avoid_spark_v1","""event"",""trial"",""time""
""fullscreenenter"",""1"",""7023""
","
","
","""event"",""trial"",""time""
""fullscreenenter"",""1"",""7023""
","
","","","","","","462","images/cactus7.png","","","learning","-4","-5","9","","cactus","plants","1","1","","bad","[-3]"
"html-keyboard-response","193","755780","0.0-11.0-2.0-0.2","4092","2","8","Male","approach_avoid_spark_v1","""event"",""trial"",""time""
""fullscreenenter"",""1"",""7023""
","
","
","""event"",""trial"",""time""
""fullscreenenter"",""1"",""7023""
","
","","","","","","null","<div style=""font-size:60px;"">+</div>","null","","fixation","","","","","","","","","","",""
"aa-learning-trial","194","758787","0.0-11.0-2.0-1.2","4092","2","8","Male","approach_avoid_spark_v1","""event"",""trial"",""time""
""fullscreenenter"",""1"",""7023""
","
","
","""event"",""trial"",""time""
""fullscreenenter"",""1"",""7023""
","
","","","","","","540.9000000059605","images/bush5.png","","","learning","1","1","1","1","bush","plants","1","1","","good","[3]"
"html-keyboard-response","195","759292","0.0-11.0-2.0-0.3","4092","2","8","Male","approach_avoid_spark_v1","""event"",""trial"",""time""
""fullscreenenter"",""1"",""7023""
","
","
","""event"",""trial"",""time""
""fullscreenenter"",""1"",""7023""
","
","","","","","","null","<div style=""font-size:60px;"">+</div>","null","","fixation","","","","","","","","","","",""
"aa-learning-trial","196","762298","0.0-11.0-2.0-1.3","4092","2","8","Male","approach_avoid_spark_v1","""event"",""trial"",""time""
""fullscreenenter"",""1"",""7023""
","
","
","""event"",""trial"",""time""
""fullscreenenter"",""1"",""7023""
","
","","","","","","523.1000000089407","images/tree2.png","","","learning","1","0","0","0","tree","plants","1","1","","neutral","0"
"html-keyboard-response","197","762803","0.0-11.0-2.0-0.4","4092","2","8","Male","approach_avoid_spark_v1","""event"",""trial"",""time""
""fullscreenenter"",""1"",""7023""
","
","
","""event"",""trial"",""time""
""fullscreenenter"",""1"",""7023""
","
","","","","","","null","<div style=""font-size:60px;"">+</div>","null","","fixation","","","","","","","","","","",""
"aa-learning-trial","198","765812","0.0-11.0-2.0-1.4","4092","2","8","Male","approach_avoid_spark_v1","""event"",""trial"",""time""
""fullscreenenter"",""1"",""7023""
","
","
","""event"",""trial"",""time""
""fullscreenenter"",""1"",""7023""
","
","","","","","","613.4000000059605","images/tree7.png","","","learning","1","1","1","1","tree","plants","1","1","","neutral","0"
"html-keyboard-response","199","766317","0.0-11.0-2.0-0.5","4092","2","8","Male","approach_avoid_spark_v1","""event"",""trial"",""time""
""fullscreenenter"",""1"",""7023""
","
","
","""event"",""trial"",""time""
""fullscreenenter"",""1"",""7023""
","
","","","","","","null","<div style=""font-size:60px;"">+</div>","null","","fixation","","","","","","","","","","",""
"aa-learning-trial","200","769324","0.0-11.0-2.0-1.5","4092","2","8","Male","approach_avoid_spark_v1","""event"",""trial"",""time""
""fullscreenenter"",""1"",""7023""
","
","
","""event"",""trial"",""time""
""fullscreenenter"",""1"",""7023""
","
","","","","","","600.7000000029802","images/tree5.png","","","learning","1","1","1","1","tree","plants","1","1","","neutral","0"
"html-keyboard-response","201","769826","0.0-11.0-2.0-0.6","4092","2","8","Male","approach_avoid_spark_v1","""event"",""trial"",""time""
""fullscreenenter"",""1"",""7023""
","
","
","""event"",""trial"",""time""
""fullscreenenter"",""1"",""7023""
","
","","","","","","null","<div style=""font-size:60px;"">+</div>","null","","fixation","","","","","","","","","","",""
"aa-learning-trial","202","772836","0.0-11.0-2.0-1.6","4092","2","8","Male","approach_avoid_spark_v1","""event"",""trial"",""time""
""fullscreenenter"",""1"",""7023""
","
","
","""event"",""trial"",""time""
""fullscreenenter"",""1"",""7023""
","
","","","","","","453.8999999910593","images/cactus4.png","","","learning","-1","0","0","0","cactus","plants","1","1","","bad","[-3]"
"html-keyboard-response","203","773341","0.0-11.0-2.0-0.7","4092","2","8","Male","approach_avoid_spark_v1","""event"",""trial"",""time""
""fullscreenenter"",""1"",""7023""
","
","
","""event"",""trial"",""time""
""fullscreenenter"",""1"",""7023""
","
","","","","","","null","<div style=""font-size:60px;"">+</div>","null","","fixation","","","","","","","","","","",""
"aa-learning-trial","204","776348","0.0-11.0-2.0-1.7","4092","2","8","Male","approach_avoid_spark_v1","""event"",""trial"",""time""
""fullscreenenter"",""1"",""7023""
","
","
","""event"",""trial"",""time""
""fullscreenenter"",""1"",""7023""
","
","","","","","","407","images/cactus7.png","","","learning","-1","-1","1","1","cactus","plants","1","1","","bad","[-3]"
"html-keyboard-response","205","776853","0.0-11.0-2.0-0.8","4092","2","8","Male","approach_avoid_spark_v1","""event"",""trial"",""time""
""fullscreenenter"",""1"",""7023""
","
","
","""event"",""trial"",""time""
""fullscreenenter"",""1"",""7023""
","
","","","","","","null","<div style=""font-size:60px;"">+</div>","null","","fixation","","","","","","","","","","",""
"aa-learning-trial","206","779859","0.0-11.0-2.0-1.8","4092","2","8","Male","approach_avoid_spark_v1","""event"",""trial"",""time""
""fullscreenenter"",""1"",""7023""
","
","
","""event"",""trial"",""time""
""fullscreenenter"",""1"",""7023""
","
","","","","","","446","images/tree5.png","","","learning","[1]","0","0","0","tree","plants","1","1","","neutral","0"
"html-keyboard-response","207","780362","0.0-11.0-2.0-0.9","4092","2","8","Male","approach_avoid_spark_v1","""event"",""trial"",""time""
""fullscreenenter"",""1"",""7023""
","
","
","""event"",""trial"",""time""
""fullscreenenter"",""1"",""7023""
","
","","","","","","null","<div style=""font-size:60px;"">+</div>","null","","fixation","","","","","","","","","","",""
"aa-learning-trial","208","783371","0.0-11.0-2.0-1.9","4092","2","8","Male","approach_avoid_spark_v1","""event"",""trial"",""time""
""fullscreenenter"",""1"",""7023""
","
","
","""event"",""trial"",""time""
""fullscreenenter"",""1"",""7023""
","
","","","","","","1012.5","images/bush7.png","","","learning","4","4","1","1","bush","plants","1","1","","good","[3]"
"html-keyboard-response","209","783875","0.0-11.0-2.0-0.10","4092","2","8","Male","approach_avoid_spark_v1","""event"",""trial"",""time""
""fullscreenenter"",""1"",""7023""
","
","
","""event"",""trial"",""time""
""fullscreenenter"",""1"",""7023""
","
","","","","","","null","<div style=""font-size:60px;"">+</div>","null","","fixation","","","","","","","","","","",""
"aa-learning-trial","210","786883","0.0-11.0-2.0-1.10","4092","2","8","Male","approach_avoid_spark_v1","""event"",""trial"",""time""
""fullscreenenter"",""1"",""7023""
","
","
","""event"",""trial"",""time""
""fullscreenenter"",""1"",""7023""
","
","","","","","","1057.2999999970198","images/cactus4.png","","","learning","-3","0","0","0","cactus","plants","1","1","","bad","[-3]"
"html-keyboard-response","211","787387","0.0-11.0-2.0-0.11","4092","2","8","Male","approach_avoid_spark_v1","""event"",""trial"",""time""
""fullscreenenter"",""1"",""7023""
","
","
","""event"",""trial"",""time""
""fullscreenenter"",""1"",""7023""
","
","","","","","","null","<div style=""font-size:60px;"">+</div>","null","","fixation","","","","","","","","","","",""
"aa-learning-trial","212","790394","0.0-11.0-2.0-1.11","4092","2","8","Male","approach_avoid_spark_v1","""event"",""trial"",""time""
""fullscreenenter"",""1"",""7023""
","
","
","""event"",""trial"",""time""
""fullscreenenter"",""1"",""7023""
","
","","","","","","1321.3999999910593","images/bush7.png","","","learning","4","4","1","1","bush","plants","1","1","","good","[3]"
"html-keyboard-response","213","790899","0.0-11.0-2.0-0.12","4092","2","8","Male","approach_avoid_spark_v1","""event"",""trial"",""time""
""fullscreenenter"",""1"",""7023""
","
","
","""event"",""trial"",""time""
""fullscreenenter"",""1"",""7023""
","
","","","","","","null","<div style=""font-size:60px;"">+</div>","null","","fixation","","","","","","","","","","",""
"aa-learning-trial","214","793907","0.0-11.0-2.0-1.12","4092","2","8","Male","approach_avoid_spark_v1","""event"",""trial"",""time""
""fullscreenenter"",""1"",""7023""
","
","
","""event"",""trial"",""time""
""fullscreenenter"",""1"",""7023""
","
","","","","","","518.7000000029802","images/cactus3.png","","","learning","-2","0","0","0","cactus","plants","1","1","","bad","[-3]"
"html-keyboard-response","215","794411","0.0-11.0-2.0-0.13","4092","2","8","Male","approach_avoid_spark_v1","""event"",""trial"",""time""
""fullscreenenter"",""1"",""7023""
","
","
","""event"",""trial"",""time""
""fullscreenenter"",""1"",""7023""
","
","","","","","","null","<div style=""font-size:60px;"">+</div>","null","","fixation","","","","","","","","","","",""
"aa-learning-trial","216","797419","0.0-11.0-2.0-1.13","4092","2","8","Male","approach_avoid_spark_v1","""event"",""trial"",""time""
""fullscreenenter"",""1"",""7023""
","
","
","""event"",""trial"",""time""
""fullscreenenter"",""1"",""7023""
","
","","","","","","145.09999999403954","images/bush5.png","","","learning","1","1","1","1","bush","plants","1","1","","good","[3]"
"html-keyboard-response","217","797923","0.0-11.0-2.0-0.14","4092","2","8","Male","approach_avoid_spark_v1","""event"",""trial"",""time""
""fullscreenenter"",""1"",""7023""
","
","
","""event"",""trial"",""time""
""fullscreenenter"",""1"",""7023""
","
","","","","","","null","<div style=""font-size:60px;"">+</div>","null","","fixation","","","","","","","","","","",""
"aa-learning-trial","218","800931","0.0-11.0-2.0-1.14","4092","2","8","Male","approach_avoid_spark_v1","""event"",""trial"",""time""
""fullscreenenter"",""1"",""7023""
","
","
","""event"",""trial"",""time""
""fullscreenenter"",""1"",""7023""
","
","","","","","","367","images/bush3.png","","","learning","4","0","0","0","bush","plants","1","1","","good","[3]"
"html-keyboard-response","219","801435","0.0-11.0-2.0-0.15","4092","2","8","Male","approach_avoid_spark_v1","""event"",""trial"",""time""
""fullscreenenter"",""1"",""7023""
","
","
","""event"",""trial"",""time""
""fullscreenenter"",""1"",""7023""
","
","","","","","","null","<div style=""font-size:60px;"">+</div>","null","","fixation","","","","","","","","","","",""
"aa-learning-trial","220","804443","0.0-11.0-2.0-1.15","4092","2","8","Male","approach_avoid_spark_v1","""event"",""trial"",""time""
""fullscreenenter"",""1"",""7023""
","
","
","""event"",""trial"",""time""
""fullscreenenter"",""1"",""7023""
","
","","","","","","519.3999999910593","images/tree5.png","","","learning","-2","-2","1","1","tree","plants","1","1","","neutral","0"
"html-keyboard-response","221","804947","0.0-11.0-2.0-0.16","4092","2","8","Male","approach_avoid_spark_v1","""event"",""trial"",""time""
""fullscreenenter"",""1"",""7023""
","
","
","""event"",""trial"",""time""
""fullscreenenter"",""1"",""7023""
","
","","","","","","null","<div style=""font-size:60px;"">+</div>","null","","fixation","","","","","","","","","","",""
"aa-learning-trial","222","807954","0.0-11.0-2.0-1.16","4092","2","8","Male","approach_avoid_spark_v1","""event"",""trial"",""time""
""fullscreenenter"",""1"",""7023""
","
","
","""event"",""trial"",""time""
""fullscreenenter"",""1"",""7023""
","
","","","","","","497.09999999403954","images/cactus3.png","","","learning","-5","0","0","0","cactus","plants","1","1","","bad","[-3]"
"html-keyboard-response","223","808459","0.0-11.0-2.0-0.17","4092","2","8","Male","approach_avoid_spark_v1","""event"",""trial"",""time""
""fullscreenenter"",""1"",""7023""
","
","
","""event"",""trial"",""time""
""fullscreenenter"",""1"",""7023""
","
","","","","","","null","<div style=""font-size:60px;"">+</div>","null","","fixation","","","","","","","","","","",""
"aa-learning-trial","224","811468","0.0-11.0-2.0-1.17","4092","2","8","Male","approach_avoid_spark_v1","""event"",""trial"",""time""
""fullscreenenter"",""1"",""7023""
","
","
","""event"",""trial"",""time""
""fullscreenenter"",""1"",""7023""
","
","","","","","","392.59999999403954","images/cactus3.png","","","learning","-3","0","0","0","cactus","plants","1","1","","bad","[-3]"
"html-keyboard-response","225","811972","0.0-11.0-2.0-0.18","4092","2","8","Male","approach_avoid_spark_v1","""event"",""trial"",""time""
""fullscreenenter"",""1"",""7023""
","
","
","""event"",""trial"",""time""
""fullscreenenter"",""1"",""7023""
","
","","","","","","null","<div style=""font-size:60px;"">+</div>","null","","fixation","","","","","","","","","","",""
"aa-learning-trial","226","814980","0.0-11.0-2.0-1.18","4092","2","8","Male","approach_avoid_spark_v1","""event"",""trial"",""time""
""fullscreenenter"",""1"",""7023""
","
","
","""event"",""trial"",""time""
""fullscreenenter"",""1"",""7023""
","
","","","","","","47.80000001192093","images/bush3.png","","","learning","7","0","0","0","bush","plants","1","1","","good","[3]"
"html-keyboard-response","227","815483","0.0-11.0-2.0-0.19","4092","2","8","Male","approach_avoid_spark_v1","""event"",""trial"",""time""
""fullscreenenter"",""1"",""7023""
","
","
","""event"",""trial"",""time""
""fullscreenenter"",""1"",""7023""
","
","","","","","","null","<div style=""font-size:60px;"">+</div>","null","","fixation","","","","","","","","","","",""
"aa-learning-trial","228","818492","0.0-11.0-2.0-1.19","4092","2","8","Male","approach_avoid_spark_v1","""event"",""trial"",""time""
""fullscreenenter"",""1"",""7023""
","
","
","""event"",""trial"",""time""
""fullscreenenter"",""1"",""7023""
","
","","","","","","1205.8999999910593","images/tree2.png","","","learning","-1","-1","1","1","tree","plants","1","1","","neutral","0"
"html-keyboard-response","229","818996","0.0-11.0-2.0-0.20","4092","2","8","Male","approach_avoid_spark_v1","""event"",""trial"",""time""
""fullscreenenter"",""1"",""7023""
","
","
","""event"",""trial"",""time""
""fullscreenenter"",""1"",""7023""
","
","","","","","","null","<div style=""font-size:60px;"">+</div>","null","","fixation","","","","","","","","","","",""
"aa-learning-trial","230","822004","0.0-11.0-2.0-1.20","4092","2","8","Male","approach_avoid_spark_v1","""event"",""trial"",""time""
""fullscreenenter"",""1"",""7023""
","
","
","""event"",""trial"",""time""
""fullscreenenter"",""1"",""7023""
","
","","","","","","782.9000000059605","images/bush5.png","","","learning","4","0","0","0","bush","plants","1","1","","good","[3]"
"html-keyboard-response","231","822508","0.0-11.0-2.0-0.21","4092","2","8","Male","approach_avoid_spark_v1","""event"",""trial"",""time""
""fullscreenenter"",""1"",""7023""
","
","
","""event"",""trial"",""time""
""fullscreenenter"",""1"",""7023""
","
","","","","","","null","<div style=""font-size:60px;"">+</div>","null","","fixation","","","","","","","","","","",""
"aa-learning-trial","232","825516","0.0-11.0-2.0-1.21","4092","2","8","Male","approach_avoid_spark_v1","""event"",""trial"",""time""
""fullscreenenter"",""1"",""7023""
","
","
","""event"",""trial"",""time""
""fullscreenenter"",""1"",""7023""
","
","","","","","","601.2999999970198","images/bush7.png","","","learning","2","2","1","1","bush","plants","1","1","","good","[3]"
"html-keyboard-response","233","826019","0.0-11.0-2.0-0.22","4092","2","8","Male","approach_avoid_spark_v1","""event"",""trial"",""time""
""fullscreenenter"",""1"",""7023""
","
","
","""event"",""trial"",""time""
""fullscreenenter"",""1"",""7023""
","
","","","","","","null","<div style=""font-size:60px;"">+</div>","null","","fixation","","","","","","","","","","",""
"aa-learning-trial","234","829027","0.0-11.0-2.0-1.22","4092","2","8","Male","approach_avoid_spark_v1","""event"",""trial"",""time""
""fullscreenenter"",""1"",""7023""
","
","
","""event"",""trial"",""time""
""fullscreenenter"",""1"",""7023""
","
","","","","","","541.8000000119209","images/bush7.png","","","learning","3","3","1","1","bush","plants","1","1","","good","[3]"
"html-keyboard-response","235","829533","0.0-11.0-2.0-0.23","4092","2","8","Male","approach_avoid_spark_v1","""event"",""trial"",""time""
""fullscreenenter"",""1"",""7023""
","
","
","""event"",""trial"",""time""
""fullscreenenter"",""1"",""7023""
","
","","","","","","null","<div style=""font-size:60px;"">+</div>","null","","fixation","","","","","","","","","","",""
"aa-learning-trial","236","832539","0.0-11.0-2.0-1.23","4092","2","8","Male","approach_avoid_spark_v1","""event"",""trial"",""time""
""fullscreenenter"",""1"",""7023""
","
","
","""event"",""trial"",""time""
""fullscreenenter"",""1"",""7023""
","
","","","","","","942.9000000059605","images/cactus7.png","","","learning","-1","0","0","0","cactus","plants","1","1","","bad","[-3]"
"html-keyboard-response","237","833044","0.0-11.0-2.0-0.24","4092","2","8","Male","approach_avoid_spark_v1","""event"",""trial"",""time""
""fullscreenenter"",""1"",""7023""
","
","
","""event"",""trial"",""time""
""fullscreenenter"",""1"",""7023""
","
","","","","","","null","<div style=""font-size:60px;"">+</div>","null","","fixation","","","","","","","","","","",""
"aa-learning-trial","238","836052","0.0-11.0-2.0-1.24","4092","2","8","Male","approach_avoid_spark_v1","""event"",""trial"",""time""
""fullscreenenter"",""1"",""7023""
","
","
","""event"",""trial"",""time""
""fullscreenenter"",""1"",""7023""
","
