"trial_type","trial_index","time_elapsed","internal_node_id","subject_id","task_condition","age","gender","task_version","interactions","blur_events","focus_events","fullscreenenter_events","fullscreenexit_events","success","timeout","failed_images","failed_audio","failed_video","rt","stimulus","response","button_pressed","task_part","approach_reward","points","key_press","option_selected","stim_cat","task_block","block_condition","block_number","correct","cat_type","mean_cat_reward"
"pavlovia","0","15","0.0-0.0","6411","1","13","Male","approach_avoid_spark_v1","""event"",""trial"",""time""
""fullscreenenter"",""1"",""2453""
","
","
","""event"",""trial"",""time""
""fullscreenenter"",""1"",""2453""
","
","","","","","","","","","","","","","","","","","","","","",""
"fullscreen","1","3447","0.0-1.0","6411","1","13","Male","approach_avoid_spark_v1","""event"",""trial"",""time""
""fullscreenenter"",""1"",""2453""
","
","
","""event"",""trial"",""time""
""fullscreenenter"",""1"",""2453""
","
","true","","","","","","","","","","","","","","","","","","","",""
"preload","2","4754","0.0-2.0","6411","1","13","Male","approach_avoid_spark_v1","""event"",""trial"",""time""
""fullscreenenter"",""1"",""2453""
","
","
","""event"",""trial"",""time""
""fullscreenenter"",""1"",""2453""
","
","true","false","[]","[]","[]","","","","","","","","","","","","","","","",""
"audio-keyboard-response","3","8739","0.0-3.0","6411","1","13","Male","approach_avoid_spark_v1","""event"",""trial"",""time""
""fullscreenenter"",""1"",""2453""
","
","
","""event"",""trial"",""time""
""fullscreenenter"",""1"",""2453""
","
","","","","","","3978.666666666667","audio/beep_loop.wav"," ","","","","","","","","","","","","",""
"audio-button-response","4","11196","0.0-4.0","6411","1","13","Male","approach_avoid_spark_v1","""event"",""trial"",""time""
""fullscreenenter"",""1"",""2453""
","
","
","""event"",""trial"",""time""
""fullscreenenter"",""1"",""2453""
","
","","","","","","2453","audio/shark.wav","4","","","","","","","","","","","","",""
"audio-button-response","5","17097","0.0-5.0","6411","1","13","Male","approach_avoid_spark_v1","""event"",""trial"",""time""
""fullscreenenter"",""1"",""2453""
","
","
","""event"",""trial"",""time""
""fullscreenenter"",""1"",""2453""
","
","","","","","","4885","audio/turtle.wav","1","","","","","","","","","","","","",""
"preload","6","18659","0.0-6.0","6411","1","13","Male","approach_avoid_spark_v1","""event"",""trial"",""time""
""fullscreenenter"",""1"",""2453""
","
","
","""event"",""trial"",""time""
""fullscreenenter"",""1"",""2453""
","
","true","false","[]","[]","[]","","","","","","","","","","","","","","","",""
"html-keyboard-response","7","26773","0.0-7.0","6411","1","13","Male","approach_avoid_spark_v1","""event"",""trial"",""time""
""fullscreenenter"",""1"",""2453""
","
","
","""event"",""trial"",""time""
""fullscreenenter"",""1"",""2453""
","
","","","","","","8109","Welcome to the experiment. Press any key to begin and to advance the instructions.","y","","","","","","","","","","","","",""
"learning-instructions","8","38635","0.0-8.0-0.0-0.0","6411","1","13","Male","approach_avoid_spark_v1","""event"",""trial"",""time""
""fullscreenenter"",""1"",""2453""
","
","
","""event"",""trial"",""time""
""fullscreenenter"",""1"",""2453""
","
","","","","","","4897.10000000149","<p> Welcome! Today you are going to play 6 different rounds of a decision-making game. </p><p> Use the mouse to click next to continue. </p>","","0","instructions","","","","","","","","","","",""
"learning-instructions","9","47195","0.0-8.0-0.0-0.1","6411","1","13","Male","approach_avoid_spark_v1","""event"",""trial"",""time""
""fullscreenenter"",""1"",""2453""
","
","
","""event"",""trial"",""time""
""fullscreenenter"",""1"",""2453""
","
","","","","","","5834.199999999255","<p> You will start with a practice round to learn the rules. </p>","","0","instructions","","","","","","","","","","",""
"learning-instructions","10","57172","0.0-8.0-0.0-0.2","6411","1","13","Male","approach_avoid_spark_v1","""event"",""trial"",""time""
""fullscreenenter"",""1"",""2453""
","
","
","""event"",""trial"",""time""
""fullscreenenter"",""1"",""2453""
","
","","","","","","6518.89999999851","<p> Your goal in this round is to give out sports equipment to kids. </p></div>","","0","instructions","","","","","","","","","","",""
"learning-instructions","11","68272","0.0-8.0-0.0-0.3","6411","1","13","Male","approach_avoid_spark_v1","""event"",""trial"",""time""
""fullscreenenter"",""1"",""2453""
","
","
","""event"",""trial"",""time""
""fullscreenenter"",""1"",""2453""
","
","","","","","","3549.60000000149","<p> The kids only like some of the equipment.  </p><p> On each turn, you will see a piece of sports equipment.   </p><p> You need to decide whether to give it to the kids or not.  </p>","","0","instructions","","","","","","","","","","",""
"learning-instructions","12","75145","0.0-8.0-0.0-0.4","6411","1","13","Male","approach_avoid_spark_v1","""event"",""trial"",""time""
""fullscreenenter"",""1"",""2453""
","
","
","""event"",""trial"",""time""
""fullscreenenter"",""1"",""2453""
","
","","","","","","2108.2000000029802","<p> You can give them the equipment by pressing 1 and choose not to give it to them by pressing 0. </p><br><div class=""choice-instructions-grid""> <div class=""choice-option""><img src=""images/approach.png"" class=""choice-option-img"" stage=""instructions"" position=""0"" ><div class=""choice-option-text""> Press ""1."" </div></div><div class=""choice-option""><img src=""images/avoid.png"" class=""choice-option-img"" stage=""instructions"" position=""1"" ><div class=""choice-option-text""> Press ""0."" </div></div>","","0","instructions","","","","","","","","","","",""
"learning-instructions","13","85253","0.0-8.0-0.0-0.5","6411","1","13","Male","approach_avoid_spark_v1","""event"",""trial"",""time""
""fullscreenenter"",""1"",""2453""
","
","
","""event"",""trial"",""time""
""fullscreenenter"",""1"",""2453""
","
","","","","","","2715.39999999851","<p> If you give them a piece of equipment they like, they will be happy! </p><p> But if you give them a piece of equipment they do not like, they will be sad. </p>","","0","instructions","","","","","","","","","","",""
"learning-instructions","14","97387","0.0-8.0-0.0-0.6","6411","1","13","Male","approach_avoid_spark_v1","""event"",""trial"",""time""
""fullscreenenter"",""1"",""2453""
","
","
","""event"",""trial"",""time""
""fullscreenenter"",""1"",""2453""
","
","","","","","","1614.300000000745","<p> You will earn points based on how you make kids feel. </p><p> If you make them happy, you will WIN anywhere from 1 - 9 points, </p><p> but if you make them sad, you will LOSE anywhere from 1 - 9 points. </p>","","0","instructions","","","","","","","","","","",""
"learning-instructions","15","107960","0.0-8.0-0.0-0.7","6411","1","13","Male","approach_avoid_spark_v1","""event"",""trial"",""time""
""fullscreenenter"",""1"",""2453""
","
","
","""event"",""trial"",""time""
""fullscreenenter"",""1"",""2453""
","
","","","","","","1020.1000000014901","<p> You will see how many points you won or lost in the center of the screen. </p><p> Here is what you would see if you won 6 points: </p><p style=""color:green;font-size:50px;font-weight:bolder"">6</p><p style=""color:green"">The text is GREEN because you WON points.</p>","","0","instructions","","","","","","","","","","",""
"learning-instructions","16","116296","0.0-8.0-0.0-0.8","6411","1","13","Male","approach_avoid_spark_v1","""event"",""trial"",""time""
""fullscreenenter"",""1"",""2453""
","
","
","""event"",""trial"",""time""
""fullscreenenter"",""1"",""2453""
","
","","","","","","2814.300000000745","<p> And here is what you would see if you lost 4 points: </p><p style=""color:red;font-size:50px;font-weight:bolder"">-4</p><p style=""color:red"">The text is RED because you LOST points. </p>","","0","instructions","","","","","","","","","","",""
"learning-instructions","17","132698","0.0-8.0-0.0-0.9","6411","1","13","Male","approach_avoid_spark_v1","""event"",""trial"",""time""
""fullscreenenter"",""1"",""2453""
","
","
","""event"",""trial"",""time""
""fullscreenenter"",""1"",""2453""
","
","","","","","","1683.2999999970198","<p> Some of the equipment will make the kids VERY happy or sad. </p><p> These pieces of equipment will make you win or lose LOTS of points. </p><p> Other pieces of equipment will only make the kids a little happy or sad. </p><p> These pieces of equipment will make you win or lose small amounts of points. </p>","","0","instructions","","","","","","","","","","",""
"learning-instructions","18","146867","0.0-8.0-0.0-0.10","6411","1","13","Male","approach_avoid_spark_v1","""event"",""trial"",""time""
""fullscreenenter"",""1"",""2453""
","
","
","""event"",""trial"",""time""
""fullscreenenter"",""1"",""2453""
","
","","","","","","3531.60000000149","<p> If you choose not to give them the equipment, you will not win or lose any points. </p><p>  However, in the center of the screen, you will see the number of points you WOULD HAVE won or lost if you had given them the equipment. </p>","","0","instructions","","","","","","","","","","",""
"learning-instructions","19","172917","0.0-8.0-0.0-0.11","6411","1","13","Male","approach_avoid_spark_v1","""event"",""trial"",""time""
""fullscreenenter"",""1"",""2453""
","
","
","""event"",""trial"",""time""
""fullscreenenter"",""1"",""2453""
","
","","","","","","4510.89999999851","<p> Here is what you might see if you did not give the equipment to the kids but it would have made them happy: </p><p style=""color:grey; font-size:50px; display: inline-block; border-spacing: 15px; border-width:3px; border-style:solid; border-color:red"">  &nbsp; 7 &nbsp; </p><p> Remember, in this case, you would not win or lose ANY points because you did not give them the equipment.  </p><p style=""color:grey"">The text is GREY because you earned ZERO points. </p><p style=""color:red"">However, choosing to give the kids the equipment would have made you win points. The box around the text is RED because you chose the worse option. </p>","","0","instructions","","","","","","","","","","",""
"learning-instructions","20","201146","0.0-8.0-0.0-0.12","6411","1","13","Male","approach_avoid_spark_v1","""event"",""trial"",""time""
""fullscreenenter"",""1"",""2453""
","
","
","""event"",""trial"",""time""
""fullscreenenter"",""1"",""2453""
","
","","","","","","7152.099999997765","<p> Here is what you might see if you did not give the equipment to the kids but it would have made them sad: </p><p style=""color:grey;font-size:50px; display: inline-block; border-spacing: 15px; border-width:3px; border-style:solid; border-color:green"">  &nbsp; -8 &nbsp; </p><p> Remember, in this case, you would not win or lose ANY points because you did not give them the equipment.  </p><p style=""color:grey"">The text is GREY because you earned ZERO points. </p><p  style=""color:green""> Choosing to give the kids the equipment would have made you lose points. The box around the text is GREEN because you chose the better option.</p>","","0","instructions","","","","","","","","","","",""
"learning-instructions","21","213135","0.0-8.0-0.0-0.13","6411","1","13","Male","approach_avoid_spark_v1","""event"",""trial"",""time""
""fullscreenenter"",""1"",""2453""
","
","
","""event"",""trial"",""time""
""fullscreenenter"",""1"",""2453""
","
","","","","","","3707.60000000149","<p> You will have 3 seconds to make each choice. Try to respond before time runs out! </p><p> You will lose 5 points each time you do not make a response. </p>","","0","instructions","","","","","","","","","","",""
"learning-instructions","22","220262","0.0-8.0-0.0-0.14","6411","1","13","Male","approach_avoid_spark_v1","""event"",""trial"",""time""
""fullscreenenter"",""1"",""2453""
","
","
","""event"",""trial"",""time""
""fullscreenenter"",""1"",""2453""
","
","","","","","","1714.699999999255","<p> This is just a practice round, but in the real game, your bonus payment will depend on your total number of points.","","0","instructions","","","","","","","","","","",""
"learning-instructions","23","231198","0.0-8.0-0.0-0.15","6411","1","13","Male","approach_avoid_spark_v1","""event"",""trial"",""time""
""fullscreenenter"",""1"",""2453""
","
","
","""event"",""trial"",""time""
""fullscreenenter"",""1"",""2453""
","
","","","","","","5160","<p> Remember, you can give them the equipment by pressing 1 and choose not to give it to them by pressing 0. </p><br><div class=""choice-instructions-grid""> <div class=""choice-option""><img src=""images/approach.png"" class=""choice-option-img"" stage=""instructions"" position=""0"" ><div class=""choice-option-text""> Press ""1."" </div></div><div class=""choice-option""><img src=""images/avoid.png"" class=""choice-option-img"" stage=""instructions"" position=""1"" ><div class=""choice-option-text""> Press ""0."" </div></div>","","0","instructions","","","","","","","","","","",""
"html-button-response","24","234804","0.0-8.0-1.0","6411","1","13","Male","approach_avoid_spark_v1","""event"",""trial"",""time""
""fullscreenenter"",""1"",""2453""
","
","
","""event"",""trial"",""time""
""fullscreenenter"",""1"",""2453""
","
","","","","","","3496.5","<p> Ready to practice? </p>","0","","","","","","","","","","","","",""
"html-keyboard-response","25","235415","0.0-8.0-2.0-0.0","6411","1","13","Male","approach_avoid_spark_v1","""event"",""trial"",""time""
""fullscreenenter"",""1"",""2453""
","
","
","""event"",""trial"",""time""
""fullscreenenter"",""1"",""2453""
","
","","","","","","null","<div style=""font-size:60px;"">+</div>","null","","fixation","","","","","","","","","","",""
"aa-learning-trial","26","238429","0.0-8.0-2.0-1.0","6411","1","13","Male","approach_avoid_spark_v1","""event"",""trial"",""time""
""fullscreenenter"",""1"",""2453""
","
","
","""event"",""trial"",""time""
""fullscreenenter"",""1"",""2453""
","
","","","","","","null","images/racket3.png","","","learning","4","-5","","null","practice","practice","practice","-1","","",""
"html-keyboard-response","27","238934","0.0-8.0-2.0-0.1","6411","1","13","Male","approach_avoid_spark_v1","""event"",""trial"",""time""
""fullscreenenter"",""1"",""2453""
","
","
","""event"",""trial"",""time""
""fullscreenenter"",""1"",""2453""
","
","","","","","","null","<div style=""font-size:60px;"">+</div>","null","","fixation","","","","","","","","","","",""
"aa-learning-trial","28","241953","0.0-8.0-2.0-1.1","6411","1","13","Male","approach_avoid_spark_v1","""event"",""trial"",""time""
""fullscreenenter"",""1"",""2453""
","
","
","""event"",""trial"",""time""
""fullscreenenter"",""1"",""2453""
","
","","","","","","1763.6000000014901","images/ball1.png","","","learning","4","0","0","0","practice","practice","practice","-1","","",""
"html-keyboard-response","29","242460","0.0-8.0-2.0-0.2","6411","1","13","Male","approach_avoid_spark_v1","""event"",""trial"",""time""
""fullscreenenter"",""1"",""2453""
","
","
","""event"",""trial"",""time""
""fullscreenenter"",""1"",""2453""
","
","","","","","","null","<div style=""font-size:60px;"">+</div>","null","","fixation","","","","","","","","","","",""
"aa-learning-trial","30","245475","0.0-8.0-2.0-1.2","6411","1","13","Male","approach_avoid_spark_v1","""event"",""trial"",""time""
""fullscreenenter"",""1"",""2453""
","
","
","""event"",""trial"",""time""
""fullscreenenter"",""1"",""2453""
","
","","","","","","1132","images/ball1.png","","","learning","-7","-7","1","1","practice","practice","practice","-1","","",""
"html-keyboard-response","31","245982","0.0-8.0-2.0-0.3","6411","1","13","Male","approach_avoid_spark_v1","""event"",""trial"",""time""
""fullscreenenter"",""1"",""2453""
","
","
","""event"",""trial"",""time""
""fullscreenenter"",""1"",""2453""
","
","","","","","","null","<div style=""font-size:60px;"">+</div>","null","","fixation","","","","","","","","","","",""
"aa-learning-trial","32","248996","0.0-8.0-2.0-1.3","6411","1","13","Male","approach_avoid_spark_v1","""event"",""trial"",""time""
""fullscreenenter"",""1"",""2453""
","
","
","""event"",""trial"",""time""
""fullscreenenter"",""1"",""2453""
","
","","","","","","null","images/racket2.png","","","learning","-6","-5","","null","practice","practice","practice","-1","","",""
"html-keyboard-response","33","249500","0.0-8.0-2.0-0.4","6411","1","13","Male","approach_avoid_spark_v1","""event"",""trial"",""time""
""fullscreenenter"",""1"",""2453""
","
","
","""event"",""trial"",""time""
""fullscreenenter"",""1"",""2453""
","
","","","","","","null","<div style=""font-size:60px;"">+</div>","null","","fixation","","","","","","","","","","",""
"aa-learning-trial","34","252517","0.0-8.0-2.0-1.4","6411","1","13","Male","approach_avoid_spark_v1","""event"",""trial"",""time""
""fullscreenenter"",""1"",""2453""
","
","
","""event"",""trial"",""time""
""fullscreenenter"",""1"",""2453""
","
","","","","","","473.19999999925494","images/ball3.png","","","learning","7","0","0","0","practice","practice","practice","-1","","",""
"html-keyboard-response","35","253023","0.0-8.0-2.0-0.5","6411","1","13","Male","approach_avoid_spark_v1","""event"",""trial"",""time""
""fullscreenenter"",""1"",""2453""
","
","
","""event"",""trial"",""time""
""fullscreenenter"",""1"",""2453""
","
","","","","","","null","<div style=""font-size:60px;"">+</div>","null","","fixation","","","","","","","","","","",""
"aa-learning-trial","36","256036","0.0-8.0-2.0-1.5","6411","1","13","Male","approach_avoid_spark_v1","""event"",""trial"",""time""
""fullscreenenter"",""1"",""2453""
","
","
","""event"",""trial"",""time""
""fullscreenenter"",""1"",""2453""
","
","","","","","","1750.199999999255","images/racket2.png","","","learning","-7","-7","1","1","practice","practice","practice","-1","","",""
"html-keyboard-response","37","256540","0.0-8.0-2.0-0.6","6411","1","13","Male","approach_avoid_spark_v1","""event"",""trial"",""time""
""fullscreenenter"",""1"",""2453""
","
","
","""event"",""trial"",""time""
""fullscreenenter"",""1"",""2453""
","
","","","","","","null","<div style=""font-size:60px;"">+</div>","null","","fixation","","","","","","","","","","",""
"aa-learning-trial","38","259554","0.0-8.0-2.0-1.6","6411","1","13","Male","approach_avoid_spark_v1","""event"",""trial"",""time""
""fullscreenenter"",""1"",""2453""
","
","
","""event"",""trial"",""time""
""fullscreenenter"",""1"",""2453""
","
","","","","","","2114.2999999970198","images/racket1.png","","","learning","1","1","1","1","practice","practice","practice","-1","","",""
"html-keyboard-response","39","260059","0.0-8.0-2.0-0.7","6411","1","13","Male","approach_avoid_spark_v1","""event"",""trial"",""time""
""fullscreenenter"",""1"",""2453""
","
","
","""event"",""trial"",""time""
""fullscreenenter"",""1"",""2453""
","
","","","","","","null","<div style=""font-size:60px;"">+</div>","null","","fixation","","","","","","","","","","",""
"aa-learning-trial","40","263073","0.0-8.0-2.0-1.7","6411","1","13","Male","approach_avoid_spark_v1","""event"",""trial"",""time""
""fullscreenenter"",""1"",""2453""
","
","
","""event"",""trial"",""time""
""fullscreenenter"",""1"",""2453""
","
","","","","","","1269.199999999255","images/ball1.png","","","learning","5","5","1","1","practice","practice","practice","-1","","",""
"html-keyboard-response","41","263578","0.0-8.0-2.0-0.8","6411","1","13","Male","approach_avoid_spark_v1","""event"",""trial"",""time""
""fullscreenenter"",""1"",""2453""
","
","
","""event"",""trial"",""time""
""fullscreenenter"",""1"",""2453""
","
","","","","","","null","<div style=""font-size:60px;"">+</div>","null","","fixation","","","","","","","","","","",""
"aa-learning-trial","42","266595","0.0-8.0-2.0-1.8","6411","1","13","Male","approach_avoid_spark_v1","""event"",""trial"",""time""
""fullscreenenter"",""1"",""2453""
","
","
","""event"",""trial"",""time""
""fullscreenenter"",""1"",""2453""
","
","","","","","","1349.800000000745","images/racket1.png","","","learning","-2","-2","1","1","practice","practice","practice","-1","","",""
"html-keyboard-response","43","267101","0.0-8.0-2.0-0.9","6411","1","13","Male","approach_avoid_spark_v1","""event"",""trial"",""time""
""fullscreenenter"",""1"",""2453""
","
","
","""event"",""trial"",""time""
""fullscreenenter"",""1"",""2453""
","
","","","","","","null","<div style=""font-size:60px;"">+</div>","null","","fixation","","","","","","","","","","",""
"aa-learning-trial","44","270114","0.0-8.0-2.0-1.9","6411","1","13","Male","approach_avoid_spark_v1","""event"",""trial"",""time""
""fullscreenenter"",""1"",""2453""
","
","
","""event"",""trial"",""time""
""fullscreenenter"",""1"",""2453""
","
","","","","","","1813.1000000014901","images/racket3.png","","","learning","-4","0","0","0","practice","practice","practice","-1","","",""
"html-keyboard-response","45","270619","0.0-8.0-2.0-0.10","6411","1","13","Male","approach_avoid_spark_v1","""event"",""trial"",""time""
""fullscreenenter"",""1"",""2453""
","
","
","""event"",""trial"",""time""
""fullscreenenter"",""1"",""2453""
","
","","","","","","null","<div style=""font-size:60px;"">+</div>","null","","fixation","","","","","","","","","","",""
"aa-learning-trial","46","273629","0.0-8.0-2.0-1.10","6411","1","13","Male","approach_avoid_spark_v1","""event"",""trial"",""time""
""fullscreenenter"",""1"",""2453""
","
","
","""event"",""trial"",""time""
""fullscreenenter"",""1"",""2453""
","
","","","","","","1961.199999999255","images/racket2.png","","","learning","-1","-1","1","1","practice","practice","practice","-1","","",""
"html-keyboard-response","47","274133","0.0-8.0-2.0-0.11","6411","1","13","Male","approach_avoid_spark_v1","""event"",""trial"",""time""
""fullscreenenter"",""1"",""2453""
","
","
","""event"",""trial"",""time""
""fullscreenenter"",""1"",""2453""
","
","","","","","","null","<div style=""font-size:60px;"">+</div>","null","","fixation","","","","","","","","","","",""
"aa-learning-trial","48","277144","0.0-8.0-2.0-1.11","6411","1","13","Male","approach_avoid_spark_v1","""event"",""trial"",""time""
""fullscreenenter"",""1"",""2453""
","
","
","""event"",""trial"",""time""
""fullscreenenter"",""1"",""2453""
","
","","","","","","1811.199999999255","images/ball4.png","","","learning","9","9","1","1","practice","practice","practice","-1","","",""
"html-button-response","49","290054","0.0-8.0-3.0","6411","1","13","Male","approach_avoid_spark_v1","""event"",""trial"",""time""
""fullscreenenter"",""1"",""2453""
","
","
","""event"",""trial"",""time""
""fullscreenenter"",""1"",""2453""
","
","","","","","","12901.199999999255","<p> You earned -12 points in the practice round! </p>","0","","break","","","","","","","","","","",""
"learning-instructions","50","297529","0.0-8.0-4.0-0.0","6411","1","13","Male","approach_avoid_spark_v1","""event"",""trial"",""time""
""fullscreenenter"",""1"",""2453""
","
","
","""event"",""trial"",""time""
""fullscreenenter"",""1"",""2453""
","
","","","","","","1425.199999999255","<p> It's almost time to start the real game. </p><p> Before you start, we're going to ask you a few questions about how the game works. </p>","","0","instructions","","","","","","","","","","",""
"preload","51","297899","0.0-8.0-5.0","6411","1","13","Male","approach_avoid_spark_v1","""event"",""trial"",""time""
""fullscreenenter"",""1"",""2453""
","
","
","""event"",""trial"",""time""
""fullscreenenter"",""1"",""2453""
","
","true","false","[]","[]","[]","","","","","","","","","","","","","","","",""
"comp-q","52","304874","0.0-8.0-6.0-0.0","6411","1","13","Male","approach_avoid_spark_v1","""event"",""trial"",""time""
""fullscreenenter"",""1"",""2453""
","
","
","""event"",""trial"",""time""
""fullscreenenter"",""1"",""2453""
","
","","","","","","1962.300000000745","<p> <b> True or False? </b> </p><p> If you see a number in GREY, that means you earned that many points. </p>","","1","comp_question","","","","","","","","","true","",""
"comp-q","53","315123","0.0-8.0-6.0-1.0","6411","1","13","Male","approach_avoid_spark_v1","""event"",""trial"",""time""
""fullscreenenter"",""1"",""2453""
","
","
","""event"",""trial"",""time""
""fullscreenenter"",""1"",""2453""
","
","","","","","","1888","<p><b> That's right! </b> If you see a grey number, it means you earned ZERO points. <br> The grey numbers show the points you WOULD HAVE earned if you had made the other choice. </p>","","0","comp_answer","","","","","","","","","","",""
"comp-q","54","333946","0.0-8.0-7.0-0.0","6411","1","13","Male","approach_avoid_spark_v1","""event"",""trial"",""time""
""fullscreenenter"",""1"",""2453""
","
","
","""event"",""trial"",""time""
""fullscreenenter"",""1"",""2453""
","
","","","","","","14129.20000000298","<p> <b> True or False? </b> </p><p> You will have as much time as you want to make each choice. </p>","","1","comp_question","","","","","","","","","true","",""
"comp-q","55","341996","0.0-8.0-7.0-1.0","6411","1","13","Male","approach_avoid_spark_v1","""event"",""trial"",""time""
""fullscreenenter"",""1"",""2453""
","
","
","""event"",""trial"",""time""
""fullscreenenter"",""1"",""2453""
","
","","","","","","4013.5","<p> <b> That's right! </b> You will only have 3 seconds to make each choice. </p>","","0","comp_answer","","","","","","","","","","",""
"comp-q","56","347964","0.0-8.0-8.0-0.0","6411","1","13","Male","approach_avoid_spark_v1","""event"",""trial"",""time""
""fullscreenenter"",""1"",""2453""
","
","
","""event"",""trial"",""time""
""fullscreenenter"",""1"",""2453""
","
","","","","","","1306.9000000022352","<p> <b> True or False? </b> </p><p> You should use the '1' and '0' keys to make your choices. </p>","","0","comp_question","","","","","","","","","true","",""
"comp-q","57","353851","0.0-8.0-8.0-1.0","6411","1","13","Male","approach_avoid_spark_v1","""event"",""trial"",""time""
""fullscreenenter"",""1"",""2453""
","
","
","""event"",""trial"",""time""
""fullscreenenter"",""1"",""2453""
","
","","","","","","1265.9000000022352","<p> <b> That's right! </b> You should use the '1' and '0' keys to make each choice. </p>","","0","comp_answer","","","","","","","","","","",""
"learning-instructions","58","366577","0.0-8.0-9.0-0.0","6411","1","13","Male","approach_avoid_spark_v1","""event"",""trial"",""time""
""fullscreenenter"",""1"",""2453""
","
","
","""event"",""trial"",""time""
""fullscreenenter"",""1"",""2453""
","
","","","","","","6452.199999999255","<p> It's now time to start the real game. </p>Do your best, because the points you earn in the next rounds will influence your bonus payment. </p>","","0","instructions","","","","","","","","","","",""
"preload","59","366763","0.0-9.0-0.0","6411","1","13","Male","approach_avoid_spark_v1","""event"",""trial"",""time""
""fullscreenenter"",""1"",""2453""
","
","
","""event"",""trial"",""time""
""fullscreenenter"",""1"",""2453""
","
","true","false","[]","[]","[]","","","","","","","","","","","","","","","",""
"learning-instructions","60","376980","0.0-9.0-1.0-0.0","6411","1","13","Male","approach_avoid_spark_v1","""event"",""trial"",""time""
""fullscreenenter"",""1"",""2453""
","
","
","""event"",""trial"",""time""
""fullscreenenter"",""1"",""2453""
","
","","","","","","3850.199999999255","<p> Your goal in this round is to take your friend for rides in different vehicles. </p></div>","","0","instructions","","","","","","","","","","",""
"learning-instructions","61","392217","0.0-9.0-1.0-0.1","6411","1","13","Male","approach_avoid_spark_v1","""event"",""trial"",""time""
""fullscreenenter"",""1"",""2453""
","
","
","""event"",""trial"",""time""
""fullscreenenter"",""1"",""2453""
","
","","","","","","1700.699999999255","<p> Your friend enjoys riding in some vehicles but not in others.  </p><p> On each turn, you will see a vehicle.   </p><p> You need to decide whether to take your friend for a ride or not.  </p>","","0","instructions","","","","","","","","","","",""
"learning-instructions","62","405108","0.0-9.0-1.0-0.2","6411","1","13","Male","approach_avoid_spark_v1","""event"",""trial"",""time""
""fullscreenenter"",""1"",""2453""
","
","
","""event"",""trial"",""time""
""fullscreenenter"",""1"",""2453""
","
","","","","","","4948.400000002235","<p> You can take your friend for a ride in the vehicle by pressing 1 and skip the ride by pressing 0. </p><br><div class=""choice-instructions-grid""> <div class=""choice-option""><img src=""images/approach.png"" class=""choice-option-img"" stage=""instructions"" position=""0"" ><div class=""choice-option-text""> Press ""1."" </div></div><div class=""choice-option""><img src=""images/avoid.png"" class=""choice-option-img"" stage=""instructions"" position=""1"" ><div class=""choice-option-text""> Press ""0."" </div></div>","","0","instructions","","","","","","","","","","",""
"learning-instructions","63","416260","0.0-9.0-1.0-0.3","6411","1","13","Male","approach_avoid_spark_v1","""event"",""trial"",""time""
""fullscreenenter"",""1"",""2453""
","
","
","""event"",""trial"",""time""
""fullscreenenter"",""1"",""2453""
","
","","","","","","283.80000000074506","<p> If you take them for a ride in a vehicle they like, they will be thrilled! </p><p> But if you take them for a ride in a vehicle they do not like, they will be upset. </p>","","0","instructions","","","","","","","","","","",""
"learning-instructions","64","432081","0.0-9.0-1.0-0.4","6411","1","13","Male","approach_avoid_spark_v1","""event"",""trial"",""time""
""fullscreenenter"",""1"",""2453""
","
","
","""event"",""trial"",""time""
""fullscreenenter"",""1"",""2453""
","
","","","","","","2728.199999999255","<p> You will earn points based on how you made your friend feel. </p><p> If you made him thrilled, you will WIN anywhere from 1 - 9 points, </p><p> but if you made him upset, you will LOSE anywhere from 1 - 9 points. </p>","","0","instructions","","","","","","","","","","",""
"learning-instructions","65","440484","0.0-9.0-1.0-0.5","6411","1","13","Male","approach_avoid_spark_v1","""event"",""trial"",""time""
""fullscreenenter"",""1"",""2453""
","
","
","""event"",""trial"",""time""
""fullscreenenter"",""1"",""2453""
","
","","","","","","1681.9000000022352","<p> You will see how many points you won or lost in the center of the screen. </p><p> Here is what you would see if you won 5 points: </p><p style=""color:green;font-size:50px;font-weight:bolder"">5</p>","","0","instructions","","","","","","","","","","",""
"learning-instructions","66","444366","0.0-9.0-1.0-0.6","6411","1","13","Male","approach_avoid_spark_v1","""event"",""trial"",""time""
""fullscreenenter"",""1"",""2453""
","
","
","""event"",""trial"",""time""
""fullscreenenter"",""1"",""2453""
","
","","","","","","996.6000000014901","<p> And here is what you would see if you lost 3 points: </p><p style=""color:red;font-size:50px;font-weight:bolder"">-3</p>","","0","instructions","","","","","","","","","","",""
"learning-instructions","67","463603","0.0-9.0-1.0-0.7","6411","1","13","Male","approach_avoid_spark_v1","""event"",""trial"",""time""
""fullscreenenter"",""1"",""2453""
","
","
","""event"",""trial"",""time""
""fullscreenenter"",""1"",""2453""
","
","","","","","","2185.2999999970198","<p> Some vehicles will make your friend REALLY thrilled or upset. </p><p> These vehicles will make you win or lose LOTS of points. </p><p> Other vehicles will only make him feel a little thrilled or upset. </p><p> These vehicles will make you win or lose small amounts of points. </p>","","0","instructions","","","","","","","","","","",""
"learning-instructions","68","480391","0.0-9.0-1.0-0.8","6411","1","13","Male","approach_avoid_spark_v1","""event"",""trial"",""time""
""fullscreenenter"",""1"",""2453""
","
","
","""event"",""trial"",""time""
""fullscreenenter"",""1"",""2453""
","
","","","","","","3357.199999999255","<p> If you choose to skip the ride, you will not win or lose any points. </p><p>  However, in the center of the screen, you will see the number of points you WOULD HAVE won or lost if you had taken your friend for a ride. </p>","","0","instructions","","","","","","","","","","",""
"learning-instructions","69","495873","0.0-9.0-1.0-0.9","6411","1","13","Male","approach_avoid_spark_v1","""event"",""trial"",""time""
""fullscreenenter"",""1"",""2453""
","
","
","""event"",""trial"",""time""
""fullscreenenter"",""1"",""2453""
","
","","","","","","3148.099999997765","<p> Here is what you might see if you did not take your friend for a ride but he would have enjoyed it: </p><p style=""color:grey; font-size:50px; display: inline-block; border-spacing: 15px; border-width:3px; border-style:solid; border-color:red"">  &nbsp; 6 &nbsp; </p><p> Remember, in this case, you would not win or lose ANY points because you skipped the ride.  </p>","","0","instructions","","","","","","","","","","",""
"learning-instructions","70","505315","0.0-9.0-1.0-0.10","6411","1","13","Male","approach_avoid_spark_v1","""event"",""trial"",""time""
""fullscreenenter"",""1"",""2453""
","
","
","""event"",""trial"",""time""
""fullscreenenter"",""1"",""2453""
","
","","","","","","1227.3999999985099","<p> Try to make the best choice for each vehicle because </p><p> at the end of the game, you will earn bonus money based on how many points you earned. </p>","","0","instructions","","","","","","","","","","",""
"learning-instructions","71","514896","0.0-9.0-1.0-0.11","6411","1","13","Male","approach_avoid_spark_v1","""event"",""trial"",""time""
""fullscreenenter"",""1"",""2453""
","
","
","""event"",""trial"",""time""
""fullscreenenter"",""1"",""2453""
","
","","","","","","1393.1000000014901","<p> You will have 3 seconds to make each choice. Try to respond before time runs out! </p><p> You will lose 5 points each time you do not make a response. </p>","","0","instructions","","","","","","","","","","",""
"html-keyboard-response","72","515503","0.0-9.0-2.0-0.0","6411","1","13","Male","approach_avoid_spark_v1","""event"",""trial"",""time""
""fullscreenenter"",""1"",""2453""
","
","
","""event"",""trial"",""time""
""fullscreenenter"",""1"",""2453""
","
","","","","","","null","<div style=""font-size:60px;"">+</div>","null","","fixation","","","","","","","","","","",""
"aa-learning-trial","73","518516","0.0-9.0-2.0-1.0","6411","1","13","Male","approach_avoid_spark_v1","""event"",""trial"",""time""
""fullscreenenter"",""1"",""2453""
","
","
","""event"",""trial"",""time""
""fullscreenenter"",""1"",""2453""
","
","","","","","","1603.5999999977648","images/boat1.png","","","learning","7","7","1","1","boat","vehicles","1","0","","good","[6]"
"html-keyboard-response","74","519021","0.0-9.0-2.0-0.1","6411","1","13","Male","approach_avoid_spark_v1","""event"",""trial"",""time""
""fullscreenenter"",""1"",""2453""
","
","
","""event"",""trial"",""time""
""fullscreenenter"",""1"",""2453""
","
","","","","","","null","<div style=""font-size:60px;"">+</div>","null","","fixation","","","","","","","","","","",""
"aa-learning-trial","75","522033","0.0-9.0-2.0-1.1","6411","1","13","Male","approach_avoid_spark_v1","""event"",""trial"",""time""
""fullscreenenter"",""1"",""2453""
","
","
","""event"",""trial"",""time""
""fullscreenenter"",""1"",""2453""
","
","","","","","","1326.5999999977648","images/truck1.png","","","learning","-1","0","0","0","truck","vehicles","1","0","","neutral","0"
"html-keyboard-response","76","522538","0.0-9.0-2.0-0.2","6411","1","13","Male","approach_avoid_spark_v1","""event"",""trial"",""time""
""fullscreenenter"",""1"",""2453""
","
","
","""event"",""trial"",""time""
""fullscreenenter"",""1"",""2453""
","
","","","","","","null","<div style=""font-size:60px;"">+</div>","null","","fixation","","","","","","","","","","",""
"aa-learning-trial","77","525552","0.0-9.0-2.0-1.2","6411","1","13","Male","approach_avoid_spark_v1","""event"",""trial"",""time""
""fullscreenenter"",""1"",""2453""
","
","
","""event"",""trial"",""time""
""fullscreenenter"",""1"",""2453""
","
","","","","","","1524.5999999977648","images/plane8.png","","","learning","-5","-5","1","1","plane","vehicles","1","0","","bad","[-5]"
"html-keyboard-response","78","526057","0.0-9.0-2.0-0.3","6411","1","13","Male","approach_avoid_spark_v1","""event"",""trial"",""time""
""fullscreenenter"",""1"",""2453""
","
","
","""event"",""trial"",""time""
""fullscreenenter"",""1"",""2453""
","
","","","","","","null","<div style=""font-size:60px;"">+</div>","null","","fixation","","","","","","","","","","",""
"aa-learning-trial","79","529072","0.0-9.0-2.0-1.3","6411","1","13","Male","approach_avoid_spark_v1","""event"",""trial"",""time""
""fullscreenenter"",""1"",""2453""
","
","
","""event"",""trial"",""time""
""fullscreenenter"",""1"",""2453""
","
","","","","","","825","images/boat4.png","","","learning","6","6","1","1","boat","vehicles","1","0","","good","[6]"
"html-keyboard-response","80","529578","0.0-9.0-2.0-0.4","6411","1","13","Male","approach_avoid_spark_v1","""event"",""trial"",""time""
""fullscreenenter"",""1"",""2453""
","
","
","""event"",""trial"",""time""
""fullscreenenter"",""1"",""2453""
","
","","","","","","null","<div style=""font-size:60px;"">+</div>","null","","fixation","","","","","","","","","","",""
"aa-learning-trial","81","532597","0.0-9.0-2.0-1.4","6411","1","13","Male","approach_avoid_spark_v1","""event"",""trial"",""time""
""fullscreenenter"",""1"",""2453""
","
","
","""event"",""trial"",""time""
""fullscreenenter"",""1"",""2453""
","
","","","","","","1248.2999999970198","images/truck1.png","","","learning","-2","-2","1","1","truck","vehicles","1","0","","neutral","0"
"html-keyboard-response","82","533100","0.0-9.0-2.0-0.5","6411","1","13","Male","approach_avoid_spark_v1","""event"",""trial"",""time""
""fullscreenenter"",""1"",""2453""
","
","
","""event"",""trial"",""time""
""fullscreenenter"",""1"",""2453""
","
","","","","","","null","<div style=""font-size:60px;"">+</div>","null","","fixation","","","","","","","","","","",""
"aa-learning-trial","83","536117","0.0-9.0-2.0-1.5","6411","1","13","Male","approach_avoid_spark_v1","""event"",""trial"",""time""
""fullscreenenter"",""1"",""2453""
","
","
","""event"",""trial"",""time""
""fullscreenenter"",""1"",""2453""
","
","","","","","","1800.9000000022352","images/truck3.png","","","learning","-2","-2","1","1","truck","vehicles","1","0","","neutral","0"
"html-keyboard-response","84","536626","0.0-9.0-2.0-0.6","6411","1","13","Male","approach_avoid_spark_v1","""event"",""trial"",""time""
""fullscreenenter"",""1"",""2453""
","
","
","""event"",""trial"",""time""
""fullscreenenter"",""1"",""2453""
","
","","","","","","null","<div style=""font-size:60px;"">+</div>","null","","fixation","","","","","","","","","","",""
"aa-learning-trial","85","539642","0.0-9.0-2.0-1.6","6411","1","13","Male","approach_avoid_spark_v1","""event"",""trial"",""time""
""fullscreenenter"",""1"",""2453""
","
","
","""event"",""trial"",""time""
""fullscreenenter"",""1"",""2453""
","
","","","","","","1100.8999999985099","images/truck7.png","","","learning","1","0","0","0","truck","vehicles","1","0","","neutral","0"
"html-keyboard-response","86","540145","0.0-9.0-2.0-0.7","6411","1","13","Male","approach_avoid_spark_v1","""event"",""trial"",""time""
""fullscreenenter"",""1"",""2453""
","
","
","""event"",""trial"",""time""
""fullscreenenter"",""1"",""2453""
","
","","","","","","null","<div style=""font-size:60px;"">+</div>","null","","fixation","","","","","","","","","","",""
"aa-learning-trial","87","543163","0.0-9.0-2.0-1.7","6411","1","13","Male","approach_avoid_spark_v1","""event"",""trial"",""time""
""fullscreenenter"",""1"",""2453""
","
","
","""event"",""trial"",""time""
""fullscreenenter"",""1"",""2453""
","
","","","","","","919.6999999992549","images/plane6.png","","","learning","-9","0","0","0","plane","vehicles","1","0","","bad","[-5]"
"html-keyboard-response","88","543666","0.0-9.0-2.0-0.8","6411","1","13","Male","approach_avoid_spark_v1","""event"",""trial"",""time""
""fullscreenenter"",""1"",""2453""
","
","
","""event"",""trial"",""time""
""fullscreenenter"",""1"",""2453""
","
","","","","","","null","<div style=""font-size:60px;"">+</div>","null","","fixation","","","","","","","","","","",""
"aa-learning-trial","89","546683","0.0-9.0-2.0-1.8","6411","1","13","Male","approach_avoid_spark_v1","""event"",""trial"",""time""
""fullscreenenter"",""1"",""2453""
","
","
","""event"",""trial"",""time""
""fullscreenenter"",""1"",""2453""
","
","","","","","","1124.5","images/boat3.png","","","learning","5","5","1","1","boat","vehicles","1","0","","good","[6]"
"html-keyboard-response","90","547188","0.0-9.0-2.0-0.9","6411","1","13","Male","approach_avoid_spark_v1","""event"",""trial"",""time""
""fullscreenenter"",""1"",""2453""
","
","
","""event"",""trial"",""time""
""fullscreenenter"",""1"",""2453""
","
","","","","","","null","<div style=""font-size:60px;"">+</div>","null","","fixation","","","","","","","","","","",""
"aa-learning-trial","91","550206","0.0-9.0-2.0-1.9","6411","1","13","Male","approach_avoid_spark_v1","""event"",""trial"",""time""
""fullscreenenter"",""1"",""2453""
","
","
","""event"",""trial"",""time""
""fullscreenenter"",""1"",""2453""
","
","","","","","","772.3000000007451","images/boat4.png","","","learning","7","0","0","0","boat","vehicles","1","0","","good","[6]"
"html-keyboard-response","92","550713","0.0-9.0-2.0-0.10","6411","1","13","Male","approach_avoid_spark_v1","""event"",""trial"",""time""
""fullscreenenter"",""1"",""2453""
","
","
","""event"",""trial"",""time""
""fullscreenenter"",""1"",""2453""
","
","","","","","","null","<div style=""font-size:60px;"">+</div>","null","","fixation","","","","","","","","","","",""
"aa-learning-trial","93","553731","0.0-9.0-2.0-1.10","6411","1","13","Male","approach_avoid_spark_v1","""event"",""trial"",""time""
""fullscreenenter"",""1"",""2453""
","
","
","""event"",""trial"",""time""
""fullscreenenter"",""1"",""2453""
","
","","","","","","854.6999999992549","images/boat1.png","","","learning","5","5","1","1","boat","vehicles","1","0","","good","[6]"
"html-keyboard-response","94","554237","0.0-9.0-2.0-0.11","6411","1","13","Male","approach_avoid_spark_v1","""event"",""trial"",""time""
""fullscreenenter"",""1"",""2453""
","
","
","""event"",""trial"",""time""
""fullscreenenter"",""1"",""2453""
","
","","","","","","null","<div style=""font-size:60px;"">+</div>","null","","fixation","","","","","","","","","","",""
"aa-learning-trial","95","557252","0.0-9.0-2.0-1.11","6411","1","13","Male","approach_avoid_spark_v1","""event"",""trial"",""time""
""fullscreenenter"",""1"",""2453""
","
","
","""event"",""trial"",""time""
""fullscreenenter"",""1"",""2453""
","
","","","","","","788.8000000007451","images/truck7.png","","","learning","2","2","1","1","truck","vehicles","1","0","","neutral","0"
"html-keyboard-response","96","557757","0.0-9.0-2.0-0.12","6411","1","13","Male","approach_avoid_spark_v1","""event"",""trial"",""time""
""fullscreenenter"",""1"",""2453""
","
","
","""event"",""trial"",""time""
""fullscreenenter"",""1"",""2453""
","
","","","","","","null","<div style=""font-size:60px;"">+</div>","null","","fixation","","","","","","","","","","",""
"aa-learning-trial","97","560777","0.0-9.0-2.0-1.12","6411","1","13","Male","approach_avoid_spark_v1","""event"",""trial"",""time""
""fullscreenenter"",""1"",""2453""
","
","
","""event"",""trial"",""time""
""fullscreenenter"",""1"",""2453""
","
","","","","","","697.0999999977648","images/plane7.png","","","learning","-4","-4","1","1","plane","vehicles","1","0","","bad","[-5]"
"html-keyboard-response","98","561283","0.0-9.0-2.0-0.13","6411","1","13","Male","approach_avoid_spark_v1","""event"",""trial"",""time""
""fullscreenenter"",""1"",""2453""
","
","
","""event"",""trial"",""time""
""fullscreenenter"",""1"",""2453""
","
","","","","","","null","<div style=""font-size:60px;"">+</div>","null","","fixation","","","","","","","","","","",""
"aa-learning-trial","99","564294","0.0-9.0-2.0-1.13","6411","1","13","Male","approach_avoid_spark_v1","""event"",""trial"",""time""
""fullscreenenter"",""1"",""2453""
","
","
","""event"",""trial"",""time""
""fullscreenenter"",""1"",""2453""
","
","","","","","","632","images/plane8.png","","","learning","-4","0","0","0","plane","vehicles","1","0","","bad","[-5]"
"html-keyboard-response","100","564800","0.0-9.0-2.0-0.14","6411","1","13","Male","approach_avoid_spark_v1","""event"",""trial"",""time""
""fullscreenenter"",""1"",""2453""
","
","
","""event"",""trial"",""time""
""fullscreenenter"",""1"",""2453""
","
","","","","","","null","<div style=""font-size:60px;"">+</div>","null","","fixation","","","","","","","","","","",""
"aa-learning-trial","101","567813","0.0-9.0-2.0-1.14","6411","1","13","Male","approach_avoid_spark_v1","""event"",""trial"",""time""
""fullscreenenter"",""1"",""2453""
","
","
","""event"",""trial"",""time""
""fullscreenenter"",""1"",""2453""
","
","","","","","","1583.199999999255","images/plane6.png","","","learning","-5","-5","1","1","plane","vehicles","1","0","","bad","[-5]"
"html-keyboard-response","102","568318","0.0-9.0-2.0-0.15","6411","1","13","Male","approach_avoid_spark_v1","""event"",""trial"",""time""
""fullscreenenter"",""1"",""2453""
","
","
","""event"",""trial"",""time""
""fullscreenenter"",""1"",""2453""
","
","","","","","","null","<div style=""font-size:60px;"">+</div>","null","","fixation","","","","","","","","","","",""
"aa-learning-trial","103","571332","0.0-9.0-2.0-1.15","6411","1","13","Male","approach_avoid_spark_v1","""event"",""trial"",""time""
""fullscreenenter"",""1"",""2453""
","
","
","""event"",""trial"",""time""
""fullscreenenter"",""1"",""2453""
","
","","","","","","921.2000000029802","images/boat1.png","","","learning","4","0","0","0","boat","vehicles","1","0","","good","[6]"
"html-keyboard-response","104","571837","0.0-9.0-2.0-0.16","6411","1","13","Male","approach_avoid_spark_v1","""event"",""trial"",""time""
""fullscreenenter"",""1"",""2453""
","
","
","""event"",""trial"",""time""
""fullscreenenter"",""1"",""2453""
","
","","","","","","null","<div style=""font-size:60px;"">+</div>","null","","fixation","","","","","","","","","","",""
"aa-learning-trial","105","574847","0.0-9.0-2.0-1.16","6411","1","13","Male","approach_avoid_spark_v1","""event"",""trial"",""time""
""fullscreenenter"",""1"",""2453""
","
","
","""event"",""trial"",""time""
""fullscreenenter"",""1"",""2453""
","
","","","","","","1607.8999999985099","images/plane7.png","","","learning","-7","0","0","0","plane","vehicles","1","0","","bad","[-5]"
"html-keyboard-response","106","575349","0.0-9.0-2.0-0.17","6411","1","13","Male","approach_avoid_spark_v1","""event"",""trial"",""time""
""fullscreenenter"",""1"",""2453""
","
","
","""event"",""trial"",""time""
""fullscreenenter"",""1"",""2453""
","
","","","","","","null","<div style=""font-size:60px;"">+</div>","null","","fixation","","","","","","","","","","",""
"aa-learning-trial","107","578363","0.0-9.0-2.0-1.17","6411","1","13","Male","approach_avoid_spark_v1","""event"",""trial"",""time""
""fullscreenenter"",""1"",""2453""
","
","
","""event"",""trial"",""time""
""fullscreenenter"",""1"",""2453""
","
","","","","","","1920.5999999977648","images/plane8.png","","","learning","-6","0","0","0","plane","vehicles","1","0","","bad","[-5]"
"html-keyboard-response","108","578866","0.0-9.0-2.0-0.18","6411","1","13","Male","approach_avoid_spark_v1","""event"",""trial"",""time""
""fullscreenenter"",""1"",""2453""
","
","
","""event"",""trial"",""time""
""fullscreenenter"",""1"",""2453""
","
","","","","","","null","<div style=""font-size:60px;"">+</div>","null","","fixation","","","","","","","","","","",""
"aa-learning-trial","109","581879","0.0-9.0-2.0-1.18","6411","1","13","Male","approach_avoid_spark_v1","""event"",""trial"",""time""
""fullscreenenter"",""1"",""2453""
","
","
","""event"",""trial"",""time""
""fullscreenenter"",""1"",""2453""
","
","","","","","","1346.699999999255","images/truck3.png","","","learning","-3","0","0","0","truck","vehicles","1","0","","neutral","0"
"html-keyboard-response","110","582384","0.0-9.0-2.0-0.19","6411","1","13","Male","approach_avoid_spark_v1","""event"",""trial"",""time""
""fullscreenenter"",""1"",""2453""
","
","
","""event"",""trial"",""time""
""fullscreenenter"",""1"",""2453""
","
","","","","","","null","<div style=""font-size:60px;"">+</div>","null","","fixation","","","","","","","","","","",""
"aa-learning-trial","111","585397","0.0-9.0-2.0-1.19","6411","1","13","Male","approach_avoid_spark_v1","""event"",""trial"",""time""
""fullscreenenter"",""1"",""2453""
","
","
","""event"",""trial"",""time""
""fullscreenenter"",""1"",""2453""
","
","","","","","","962.8000000007451","images/boat4.png","","","learning","3","3","1","1","boat","vehicles","1","0","","good","[6]"
"html-keyboard-response","112","585902","0.0-9.0-2.0-0.20","6411","1","13","Male","approach_avoid_spark_v1","""event"",""trial"",""time""
""fullscreenenter"",""1"",""2453""
","
","
","""event"",""trial"",""time""
""fullscreenenter"",""1"",""2453""
","
","","","","","","null","<div style=""font-size:60px;"">+</div>","null","","fixation","","","","","","","","","","",""
"aa-learning-trial","113","588915","0.0-9.0-2.0-1.20","6411","1","13","Male","approach_avoid_spark_v1","""event"",""trial"",""time""
""fullscreenenter"",""1"",""2453""
","
","
","""event"",""trial"",""time""
""fullscreenenter"",""1"",""2453""
","
","","","","","","890.7999999970198","images/truck2.png","","","learning","[-1]","-1","1","1","truck","vehicles","1","0","","neutral","0"
"html-keyboard-response","114","589420","0.0-9.0-2.0-0.21","6411","1","13","Male","approach_avoid_spark_v1","""event"",""trial"",""time""
""fullscreenenter"",""1"",""2453""
","
","
","""event"",""trial"",""time""
""fullscreenenter"",""1"",""2453""
","
","","","","","","null","<div style=""font-size:60px;"">+</div>","null","","fixation","","","","","","","","","","",""
"aa-learning-trial","115","592434","0.0-9.0-2.0-1.21","6411","1","13","Male","approach_avoid_spark_v1","""event"",""trial"",""time""
""fullscreenenter"",""1"",""2453""
","
","
","""event"",""trial"",""time""
""fullscreenenter"",""1"",""2453""
","
","","","","","","783.3000000007451","images/plane7.png","","","learning","-5","0","0","0","plane","vehicles","1","0","","bad","[-5]"
"html-keyboard-response","116","592938","0.0-9.0-2.0-0.22","6411","1","13","Male","approach_avoid_spark_v1","""event"",""trial"",""time""
""fullscreenenter"",""1"",""2453""
","
","
","""event"",""trial"",""time""
""fullscreenenter"",""1"",""2453""
","
","","","","","","null","<div style=""font-size:60px;"">+</div>","null","","fixation","","","","","","","","","","",""
"aa-learning-trial","117","595951","0.0-9.0-2.0-1.22","6411","1","13","Male","approach_avoid_spark_v1","""event"",""trial"",""time""
""fullscreenenter"",""1"",""2453""
","
","
","""event"",""trial"",""time""
""fullscreenenter"",""1"",""2453""
","
","","","","","","1519.2000000029802","images/boat5.png","","","learning","5","5","1","1","boat","vehicles","1","0","","good","[6]"
"html-keyboard-response","118","596455","0.0-9.0-2.0-0.23","6411","1","13","Male","approach_avoid_spark_v1","""event"",""trial"",""time""
""fullscreenenter"",""1"",""2453""
","
","
","""event"",""trial"",""time""
""fullscreenenter"",""1"",""2453""
","
","","","","","","null","<div style=""font-size:60px;"">+</div>","null","","fixation","","","","","","","","","","",""
"aa-learning-trial","119","599468","0.0-9.0-2.0-1.23","6411","1","13","Male","approach_avoid_spark_v1","""event"",""trial"",""time""
""fullscreenenter"",""1"",""2453""
","
","
","""event"",""trial"",""time""
""fullscreenenter"",""1"",""2453""
","
","","","","","","968.6999999992549","images/truck7.png","","","learning","-2","0","0","0","truck","vehicles","1","0","","neutral","0"
"html-keyboard-response","120","599974","0.0-9.0-2.0-0.24","6411","1","13","Male","approach_avoid_spark_v1","""event"",""trial"",""time""
""fullscreenenter"",""1"",""2453""
","
","
","""event"",""trial"",""time""
""fullscreenenter"",""1"",""2453""
","
","","","","","","null","<div style=""font-size:60px;"">+</div>","null","","fixation","","","","","","","","","","",""
"aa-learning-trial","121","602986","0.0-9.0-2.0-1.24","6411","1","13","Male","approach_avoid_spark_v1","""event"",""trial"",""time""
""fullscreenenter"",""1"",""2453""
","
","
","""event"",""trial"",""time""
""fullscreenenter"",""1"",""2453""
","
","","","","","","1135.199999999255","images/truck6.png","","","learning","[-1]","-1","1","1","truck","vehicles","1","0","","neutral","0"
"html-keyboard-response","122","603490","0.0-9.0-2.0-0.25","6411","1","13","Male","approach_avoid_spark_v1","""event"",""trial"",""time""
""fullscreenenter"",""1"",""2453""
","
","
","""event"",""trial"",""time""
""fullscreenenter"",""1"",""2453""
","
","","","","","","null","<div style=""font-size:60px;"">+</div>","null","","fixation","","","","","","","","","","",""
"aa-learning-trial","123","606501","0.0-9.0-2.0-1.25","6411","1","13","Male","approach_avoid_spark_v1","""event"",""trial"",""time""
""fullscreenenter"",""1"",""2453""
","
","
","""event"",""trial"",""time""
""fullscreenenter"",""1"",""2453""
","
","","","","","","1097","images/plane8.png","","","learning","-5","0","0","0","plane","vehicles","1","0","","bad","[-5]"
"html-keyboard-response","124","607004","0.0-9.0-2.0-0.26","6411","1","13","Male","approach_avoid_spark_v1","""event"",""trial"",""time""
""fullscreenenter"",""1"",""2453""
","
","
","""event"",""trial"",""time""
""fullscreenenter"",""1"",""2453""
","
","","","","","","null","<div style=""font-size:60px;"">+</div>","null","","fixation","","","","","","","","","","",""
"aa-learning-trial","125","610019","0.0-9.0-2.0-1.26","6411","1","13","Male","approach_avoid_spark_v1","""event"",""trial"",""time""
""fullscreenenter"",""1"",""2453""
","
","
","""event"",""trial"",""time""
""fullscreenenter"",""1"",""2453""
","
","","","","","","1163.5","images/boat3.png","","","learning","5","5","1","1","boat","vehicles","1","0","","good","[6]"
"html-keyboard-response","126","610523","0.0-9.0-2.0-0.27","6411","1","13","Male","approach_avoid_spark_v1","""event"",""trial"",""time""
""fullscreenenter"",""1"",""2453""
","
","
","""event"",""trial"",""time""
""fullscreenenter"",""1"",""2453""
","
","","","","","","null","<div style=""font-size:60px;"">+</div>","null","","fixation","","","","","","","","","","",""
"aa-learning-trial","127","613539","0.0-9.0-2.0-1.27","6411","1","13","Male","approach_avoid_spark_v1","""event"",""trial"",""time""
""fullscreenenter"",""1"",""2453""
","
","
","""event"",""trial"",""time""
""fullscreenenter"",""1"",""2453""
","
","","","","","","671.6999999992549","images/plane3.png","","","learning","-6","-6","1","1","plane","vehicles","1","0","","bad","[-5]"
"html-keyboard-response","128","614045","0.0-9.0-2.0-0.28","6411","1","13","Male","approach_avoid_spark_v1","""event"",""trial"",""time""
""fullscreenenter"",""1"",""2453""
","
","
","""event"",""trial"",""time""
""fullscreenenter"",""1"",""2453""
","
","","","","","","null","<div style=""font-size:60px;"">+</div>","null","","fixation","","","","","","","","","","",""
"aa-learning-trial","129","617056","0.0-9.0-2.0-1.28","6411","1","13","Male","approach_avoid_spark_v1","""event"",""trial"",""time""
""fullscreenenter"",""1"",""2453""
","
","
","""event"",""trial"",""time""
""fullscreenenter"",""1"",""2453""
","
","","","","","","1210.0999999977648","images/plane8.png","","","learning","-3","0","0","0","plane","vehicles","1","0","","bad","[-5]"
"html-keyboard-response","130","617561","0.0-9.0-2.0-0.29","6411","1","13","Male","approach_avoid_spark_v1","""event"",""trial"",""time""
""fullscreenenter"",""1"",""2453""
","
","
","""event"",""trial"",""time""
""fullscreenenter"",""1"",""2453""
","
","","","","","","null","<div style=""font-size:60px;"">+</div>","null","","fixation","","","","","","","","","","",""
"aa-learning-trial","131","620570","0.0-9.0-2.0-1.29","6411","1","13","Male","approach_avoid_spark_v1","""event"",""trial"",""time""
""fullscreenenter"",""1"",""2453""
","
","
","""event"",""trial"",""time""
""fullscreenenter"",""1"",""2453""
","
","","","","","","736.6999999992549","images/boat8.png","","","learning","6","6","1","1","boat","vehicles","1","0","","good","[6]"
"html-keyboard-response","132","621075","0.0-9.0-2.0-0.30","6411","1","13","Male","approach_avoid_spark_v1","""event"",""trial"",""time""
""fullscreenenter"",""1"",""2453""
","
","
","""event"",""trial"",""time""
""fullscreenenter"",""1"",""2453""
","
","","","","","","null","<div style=""font-size:60px;"">+</div>","null","","fixation","","","","","","","","","","",""
"aa-learning-trial","133","624088","0.0-9.0-2.0-1.30","6411","1","13","Male","approach_avoid_spark_v1","""event"",""trial"",""time""
""fullscreenenter"",""1"",""2453""
","
","
","""event"",""trial"",""time""
""fullscreenenter"",""1"",""2453""
","
","","","","","","729.8000000007451","images/truck1.png","","","learning","-1","0","0","0","truck","vehicles","1","0","","neutral","0"
"html-keyboard-response","134","624594","0.0-9.0-2.0-0.31","6411","1","13","Male","approach_avoid_spark_v1","""event"",""trial"",""time""
""fullscreenenter"",""1"",""2453""
","
","
","""event"",""trial"",""time""
""fullscreenenter"",""1"",""2453""
","
","","","","","","null","<div style=""font-size:60px;"">+</div>","null","","fixation","","","","","","","","","","",""
"aa-learning-trial","135","627606","0.0-9.0-2.0-1.31","6411","1","13","Male","approach_avoid_spark_v1","""event"",""trial"",""time""
""fullscreenenter"",""1"",""2453""
","
","
","""event"",""trial"",""time""
""fullscreenenter"",""1"",""2453""
","
","","","","","","1004.7000000029802","images/truck3.png","","","learning","1","0","0","0","truck","vehicles","1","0","","neutral","0"
"html-keyboard-response","136","628111","0.0-9.0-2.0-0.32","6411","1","13","Male","approach_avoid_spark_v1","""event"",""trial"",""time""
""fullscreenenter"",""1"",""2453""
","
","
","""event"",""trial"",""time""
""fullscreenenter"",""1"",""2453""
","
","","","","","","null","<div style=""font-size:60px;"">+</div>","null","","fixation","","","","","","","","","","",""
"aa-learning-trial","137","631125","0.0-9.0-2.0-1.32","6411","1","13","Male","approach_avoid_spark_v1","""event"",""trial"",""time""
""fullscreenenter"",""1"",""2453""
","
","
","""event"",""trial"",""time""
""fullscreenenter"",""1"",""2453""
","
","","","","","","681","images/boat4.png","","","learning","6","6","1","1","boat","vehicles","1","0","","good","[6]"
"html-keyboard-response","138","631630","0.0-9.0-2.0-0.33","6411","1","13","Male","approach_avoid_spark_v1","""event"",""trial"",""time""
""fullscreenenter"",""1"",""2453""
","
","
","""event"",""trial"",""time""
""fullscreenenter"",""1"",""2453""
","
","","","","","","null","<div style=""font-size:60px;"">+</div>","null","","fixation","","","","","","","","","","",""
"aa-learning-trial","139","634640","0.0-9.0-2.0-1.33","6411","1","13","Male","approach_avoid_spark_v1","""event"",""trial"",""time""
""fullscreenenter"",""1"",""2453""
","
","
","""event"",""trial"",""time""
""fullscreenenter"",""1"",""2453""
","
","","","","","","482.29999999701977","images/boat1.png","","","learning","5","5","1","1","boat","vehicles","1","0","","good","[6]"
"html-keyboard-response","140","635145","0.0-9.0-2.0-0.34","6411","1","13","Male","approach_avoid_spark_v1","""event"",""trial"",""time""
""fullscreenenter"",""1"",""2453""
","
","
","""event"",""trial"",""time""
""fullscreenenter"",""1"",""2453""
","
","","","","","","null","<div style=""font-size:60px;"">+</div>","null","","fixation","","","","","","","","","","",""
"aa-learning-trial","141","638158","0.0-9.0-2.0-1.34","6411","1","13","Male","approach_avoid_spark_v1","""event"",""trial"",""time""
""fullscreenenter"",""1"",""2453""
","
","
","""event"",""trial"",""time""
""fullscreenenter"",""1"",""2453""
","
","","","","","","757.6000000014901","images/plane6.png","","","learning","-4","0","0","0","plane","vehicles","1","0","","bad","[-5]"
"html-keyboard-response","142","638661","0.0-9.0-2.0-0.35","6411","1","13","Male","approach_avoid_spark_v1","""event"",""trial"",""time""
""fullscreenenter"",""1"",""2453""
","
","
","""event"",""trial"",""time""
""fullscreenenter"",""1"",""2453""
","
","","","","","","null","<div style=""font-size:60px;"">+</div>","null","","fixation","","","","","","","","","","",""
"aa-learning-trial","143","641675","0.0-9.0-2.0-1.35","6411","1","13","Male","approach_avoid_spark_v1","""event"",""trial"",""time""
""fullscreenenter"",""1"",""2453""
","
","
","""event"",""trial"",""time""
""fullscreenenter"",""1"",""2453""
","
","","","","","","569.5","images/plane6.png","","","learning","-5","0","0","0","plane","vehicles","1","0","","bad","[-5]"
"html-keyboard-response","144","642180","0.0-9.0-2.0-0.36","6411","1","13","Male","approach_avoid_spark_v1","""event"",""trial"",""time""
""fullscreenenter"",""1"",""2453""
","
","
","""event"",""trial"",""time""
""fullscreenenter"",""1"",""2453""
","
","","","","","","null","<div style=""font-size:60px;"">+</div>","null","","fixation","","","","","","","","","","",""
"aa-learning-trial","145","645191","0.0-9.0-2.0-1.36","6411","1","13","Male","approach_avoid_spark_v1","""event"",""trial"",""time""
""fullscreenenter"",""1"",""2453""
","
","
","""event"",""trial"",""time""
""fullscreenenter"",""1"",""2453""
","
","","","","","","942.6000000014901","images/truck7.png","","","learning","1","0","0","0","truck","vehicles","1","0","","neutral","0"
"html-keyboard-response","146","645697","0.0-9.0-2.0-0.37","6411","1","13","Male","approach_avoid_spark_v1","""event"",""trial"",""time""
""fullscreenenter"",""1"",""2453""
","
","
","""event"",""trial"",""time""
""fullscreenenter"",""1"",""2453""
","
","","","","","","null","<div style=""font-size:60px;"">+</div>","null","","fixation","","","","","","","","","","",""
"aa-learning-trial","147","648711","0.0-9.0-2.0-1.37","6411","1","13","Male","approach_avoid_spark_v1","""event"",""trial"",""time""
""fullscreenenter"",""1"",""2453""
","
","
","""event"",""trial"",""time""
""fullscreenenter"",""1"",""2453""
","
","","","","","","2222.599999997765","images/plane1.png","","","learning","-8","0","0","0","plane","vehicles","1","0","","bad","[-5]"
"html-keyboard-response","148","649217","0.0-9.0-2.0-0.38","6411","1","13","Male","approach_avoid_spark_v1","""event"",""trial"",""time""
""fullscreenenter"",""1"",""2453""
","
","
","""event"",""trial"",""time""
""fullscreenenter"",""1"",""2453""
","
","","","","","","null","<div style=""font-size:60px;"">+</div>","null","","fixation","","","","","","","","","","",""
"aa-learning-trial","149","652230","0.0-9.0-2.0-1.38","6411","1","13","Male","approach_avoid_spark_v1","""event"",""trial"",""time""
""fullscreenenter"",""1"",""2453""
","
","
","""event"",""trial"",""time""
""fullscreenenter"",""1"",""2453""
","
","","","","","","568","images/boat1.png","","","learning","5","5","1","1","boat","vehicles","1","0","","good","[6]"
"html-keyboard-response","150","652735","0.0-9.0-2.0-0.39","6411","1","13","Male","approach_avoid_spark_v1","""event"",""trial"",""time""
""fullscreenenter"",""1"",""2453""
","
","
","""event"",""trial"",""time""
""fullscreenenter"",""1"",""2453""
","
","","","","","","null","<div style=""font-size:60px;"">+</div>","null","","fixation","","","","","","","","","","",""
"aa-learning-trial","151","655748","0.0-9.0-2.0-1.39","6411","1","13","Male","approach_avoid_spark_v1","""event"",""trial"",""time""
""fullscreenenter"",""1"",""2453""
","
","
","""event"",""trial"",""time""
""fullscreenenter"",""1"",""2453""
","
","","","","","","540.3000000007451","images/boat4.png","","","learning","7","7","1","1","boat","vehicles","1","0","","good","[6]"
"html-keyboard-response","152","656251","0.0-9.0-2.0-0.40","6411","1","13","Male","approach_avoid_spark_v1","""event"",""trial"",""time""
""fullscreenenter"",""1"",""2453""
","
","
","""event"",""trial"",""time""
""fullscreenenter"",""1"",""2453""
","
","","","","","","null","<div style=""font-size:60px;"">+</div>","null","","fixation","","","","","","","","","","",""
"aa-learning-trial","153","659262","0.0-9.0-2.0-1.40","6411","1","13","Male","approach_avoid_spark_v1","""event"",""trial"",""time""
""fullscreenenter"",""1"",""2453""
","
","
","""event"",""trial"",""time""
""fullscreenenter"",""1"",""2453""
","
","","","","","","417.1000000014901","images/boat4.png","","","learning","6","6","1","1","boat","vehicles","1","0","","good","[6]"
"html-keyboard-response","154","659766","0.0-9.0-2.0-0.41","6411","1","13","Male","approach_avoid_spark_v1","""event"",""trial"",""time""
""fullscreenenter"",""1"",""2453""
","
","
","""event"",""trial"",""time""
""fullscreenenter"",""1"",""2453""
","
","","","","","","null","<div style=""font-size:60px;"">+</div>","null","","fixation","","","","","","","","","","",""
"aa-learning-trial","155","662779","0.0-9.0-2.0-1.41","6411","1","13","Male","approach_avoid_spark_v1","""event"",""trial"",""time""
""fullscreenenter"",""1"",""2453""
","
","
","""event"",""trial"",""time""
""fullscreenenter"",""1"",""2453""
","
","","","","","","452","images/boat3.png","","","learning","7","7","1","1","boat","vehicles","1","0","","good","[6]"
"html-keyboard-response","156","663285","0.0-9.0-2.0-0.42","6411","1","13","Male","approach_avoid_spark_v1","""event"",""trial"",""time""
""fullscreenenter"",""1"",""2453""
","
","
","""event"",""trial"",""time""
""fullscreenenter"",""1"",""2453""
","
","","","","","","null","<div style=""font-size:60px;"">+</div>","null","","fixation","","","","","","","","","","",""
"aa-learning-trial","157","666294","0.0-9.0-2.0-1.42","6411","1","13","Male","approach_avoid_spark_v1","""event"",""trial"",""time""
""fullscreenenter"",""1"",""2453""
","
","
","""event"",""trial"",""time""
""fullscreenenter"",""1"",""2453""
","
","","","","","","637.8000000007451","images/plane6.png","","","learning","-4","0","0","0","plane","vehicles","1","0","","bad","[-5]"
"html-keyboard-response","158","666798","0.0-9.0-2.0-0.43","6411","1","13","Male","approach_avoid_spark_v1","""event"",""trial"",""time""
""fullscreenenter"",""1"",""2453""
","
","
","""event"",""trial"",""time""
""fullscreenenter"",""1"",""2453""
","
","","","","","","null","<div style=""font-size:60px;"">+</div>","null","","fixation","","","","","","","","","","",""
"aa-learning-trial","159","669812","0.0-9.0-2.0-1.43","6411","1","13","Male","approach_avoid_spark_v1","""event"",""trial"",""time""
""fullscreenenter"",""1"",""2453""
","
","
","""event"",""trial"",""time""
""fullscreenenter"",""1"",""2453""
","
","","","","","","1711.300000000745","images/truck1.png","","","learning","[1]","1","1","1","truck","vehicles","1","0","","neutral","0"
"html-keyboard-response","160","670316","0.0-9.0-2.0-0.44","6411","1","13","Male","approach_avoid_spark_v1","""event"",""trial"",""time""
""fullscreenenter"",""1"",""2453""
","
","
","""event"",""trial"",""time""
""fullscreenenter"",""1"",""2453""
","
","","","","","","null","<div style=""font-size:60px;"">+</div>","null","","fixation","","","","","","","","","","",""
"aa-learning-trial","161","673326","0.0-9.0-2.0-1.44","6411","1","13","Male","approach_avoid_spark_v1","""event"",""trial"",""time""
""fullscreenenter"",""1"",""2453""
","
","
","""event"",""trial"",""time""
""fullscreenenter"",""1"",""2453""
","
","","","","","","415.19999999925494","images/truck1.png","","","learning","-3","-3","1","1","truck","vehicles","1","0","","neutral","0"
"html-keyboard-response","162","673831","0.0-9.0-2.0-0.45","6411","1","13","Male","approach_avoid_spark_v1","""event"",""trial"",""time""
""fullscreenenter"",""1"",""2453""
","
","
","""event"",""trial"",""time""
""fullscreenenter"",""1"",""2453""
","
","","","","","","null","<div style=""font-size:60px;"">+</div>","null","","fixation","","","","","","","","","","",""
"aa-learning-trial","163","676843","0.0-9.0-2.0-1.45","6411","1","13","Male","approach_avoid_spark_v1","""event"",""trial"",""time""
""fullscreenenter"",""1"",""2453""
","
","
","""event"",""trial"",""time""
""fullscreenenter"",""1"",""2453""
","
","","","","","","1185.5","images/truck7.png","","","learning","[1]","0","0","0","truck","vehicles","1","0","","neutral","0"
"html-keyboard-response","164","677350","0.0-9.0-2.0-0.46","6411","1","13","Male","approach_avoid_spark_v1","""event"",""trial"",""time""
""fullscreenenter"",""1"",""2453""
","
","
","""event"",""trial"",""time""
""fullscreenenter"",""1"",""2453""
","
","","","","","","null","<div style=""font-size:60px;"">+</div>","null","","fixation","","","","","","","","","","",""
"aa-learning-trial","165","680365","0.0-9.0-2.0-1.46","6411","1","13","Male","approach_avoid_spark_v1","""event"",""trial"",""time""
""fullscreenenter"",""1"",""2453""
","
","
","""event"",""trial"",""time""
""fullscreenenter"",""1"",""2453""
","
","","","","","","946.5","images/plane8.png","","","learning","-6","0","0","0","plane","vehicles","1","0","","bad","[-5]"
"html-keyboard-response","166","680870","0.0-9.0-2.0-0.47","6411","1","13","Male","approach_avoid_spark_v1","""event"",""trial"",""time""
""fullscreenenter"",""1"",""2453""
","
","
","""event"",""trial"",""time""
""fullscreenenter"",""1"",""2453""
","
","","","","","","null","<div style=""font-size:60px;"">+</div>","null","","fixation","","","","","","","","","","",""
"aa-learning-trial","167","683886","0.0-9.0-2.0-1.47","6411","1","13","Male","approach_avoid_spark_v1","""event"",""trial"",""time""
""fullscreenenter"",""1"",""2453""
","
","
","""event"",""trial"",""time""
""fullscreenenter"",""1"",""2453""
","
","","","","","","857","images/truck1.png","","","learning","-1","-1","1","1","truck","vehicles","1","0","","neutral","0"
"html-keyboard-response","168","684395","0.0-9.0-2.0-0.48","6411","1","13","Male","approach_avoid_spark_v1","""event"",""trial"",""time""
""fullscreenenter"",""1"",""2453""
","
","
","""event"",""trial"",""time""
""fullscreenenter"",""1"",""2453""
","
","","","","","","null","<div style=""font-size:60px;"">+</div>","null","","fixation","","","","","","","","","","",""
"aa-learning-trial","169","687409","0.0-9.0-2.0-1.48","6411","1","13","Male","approach_avoid_spark_v1","""event"",""trial"",""time""
""fullscreenenter"",""1"",""2453""
","
","
","""event"",""trial"",""time""
""fullscreenenter"",""1"",""2453""
","
","","","","","","460.5999999977648","images/boat1.png","","","learning","8","0","0","0","boat","vehicles","1","0","","good","[6]"
"html-keyboard-response","170","687913","0.0-9.0-2.0-0.49","6411","1","13","Male","approach_avoid_spark_v1","""event"",""trial"",""time""
""fullscreenenter"",""1"",""2453""
","
","
","""event"",""trial"",""time""
""fullscreenenter"",""1"",""2453""
","
","","","","","","null","<div style=""font-size:60px;"">+</div>","null","","fixation","","","","","","","","","","",""
"aa-learning-trial","171","690925","0.0-9.0-2.0-1.49","6411","1","13","Male","approach_avoid_spark_v1","""event"",""trial"",""time""
""fullscreenenter"",""1"",""2453""
","
","
","""event"",""trial"",""time""
""fullscreenenter"",""1"",""2453""
","
","","","","","","1178.8999999985099","images/truck7.png","","","learning","2","2","1","1","truck","vehicles","1","0","","neutral","0"
"html-keyboard-response","172","691428","0.0-9.0-2.0-0.50","6411","1","13","Male","approach_avoid_spark_v1","""event"",""trial"",""time""
""fullscreenenter"",""1"",""2453""
","
","
","""event"",""trial"",""time""
""fullscreenenter"",""1"",""2453""
","
","","","","","","null","<div style=""font-size:60px;"">+</div>","null","","fixation","","","","","","","","","","",""
"aa-learning-trial","173","694440","0.0-9.0-2.0-1.50","6411","1","13","Male","approach_avoid_spark_v1","""event"",""trial"",""time""
""fullscreenenter"",""1"",""2453""
","
","
","""event"",""trial"",""time""
""fullscreenenter"",""1"",""2453""
","
","","","","","","845.5999999977648","images/plane6.png","","","learning","-3","0","0","0","plane","vehicles","1","0","","bad","[-5]"
"html-button-response","174","699358","0.0-9.0-3.0","6411","1","13","Male","approach_avoid_spark_v1","""event"",""trial"",""time""
""fullscreenenter"",""1"",""2453""
","
","
","""event"",""trial"",""time""
""fullscreenenter"",""1"",""2453""
","
","","","","","","4911.699999999255","<p> You have completed the round! <p> In this round, you earned 53 points! </p>","0","","break","","","","","","","","","","",""
"html-button-response","175","701818","0.0-10.0","6411","1","13","Male","approach_avoid_spark_v1","""event"",""trial"",""time""
""fullscreenenter"",""1"",""2453""
","
","
","""event"",""trial"",""time""
""fullscreenenter"",""1"",""2453""
","
","","","","","","2455","<p> Now it's time to play another round. </p>","0","","transition_screen","","","","","","","","","","",""
"preload","176","702001","0.0-11.0-0.0","6411","1","13","Male","approach_avoid_spark_v1","""event"",""trial"",""time""
""fullscreenenter"",""1"",""2453""
","
","
","""event"",""trial"",""time""
""fullscreenenter"",""1"",""2453""
","
","true","false","[]","[]","[]","","","","","","","","","","","","","","","",""
"learning-instructions","177","708268","0.0-11.0-1.0-0.0","6411","1","13","Male","approach_avoid_spark_v1","""event"",""trial"",""time""
""fullscreenenter"",""1"",""2453""
","
","
","""event"",""trial"",""time""
""fullscreenenter"",""1"",""2453""
","
","","","","","","3467.2999999970198","<p> Your goal in this round is to eat tasty fruit. </p></div>","","0","instructions","","","","","","","","","","",""
"learning-instructions","178","719282","0.0-11.0-1.0-0.1","6411","1","13","Male","approach_avoid_spark_v1","""event"",""trial"",""time""
""fullscreenenter"",""1"",""2453""
","
","
","""event"",""trial"",""time""
""fullscreenenter"",""1"",""2453""
","
","","","","","","2172.10000000149","<p> Some of the fruits you will see are tasty. Others are rotten on the inside.  </p><p> On each turn, you will see a fruit.   </p><p> You need to decide whether to eat it or not.  </p>","","0","instructions","","","","","","","","","","",""
"learning-instructions","179","726280","0.0-11.0-1.0-0.2","6411","1","13","Male","approach_avoid_spark_v1","""event"",""trial"",""time""
""fullscreenenter"",""1"",""2453""
","
","
","""event"",""trial"",""time""
""fullscreenenter"",""1"",""2453""
","
","","","","","","2822.89999999851","<p> You can eat the fruit by pressing 1 and choose not to eat it by pressing 0. </p><br><div class=""choice-instructions-grid""> <div class=""choice-option""><img src=""images/approach.png"" class=""choice-option-img"" stage=""instructions"" position=""0"" ><div class=""choice-option-text""> Press ""1."" </div></div><div class=""choice-option""><img src=""images/avoid.png"" class=""choice-option-img"" stage=""instructions"" position=""1"" ><div class=""choice-option-text""> Press ""0."" </div></div>","","0","instructions","","","","","","","","","","",""
"learning-instructions","180","736214","0.0-11.0-1.0-0.3","6411","1","13","Male","approach_avoid_spark_v1","""event"",""trial"",""time""
""fullscreenenter"",""1"",""2453""
","
","
","""event"",""trial"",""time""
""fullscreenenter"",""1"",""2453""
","
","","","","","","3391.099999997765","<p> If you eat the fruit and it was tasty, you will win points! </p><p> But if you eat the fruit and it was rotten, you will lose points. </p>","","0","instructions","","","","","","","","","","",""
"learning-instructions","181","747698","0.0-11.0-1.0-0.4","6411","1","13","Male","approach_avoid_spark_v1","""event"",""trial"",""time""
""fullscreenenter"",""1"",""2453""
","
","
","""event"",""trial"",""time""
""fullscreenenter"",""1"",""2453""
","
","","","","","","1107.3999999985099","<p> You will earn points based on how tasty or rotten the fruit was. </p><p> If it was tasty, you will WIN anywhere from 1 - 9 points, </p><p> but if it was rotten, you will LOSE anywhere from 1 - 9 points. </p>","","0","instructions","","","","","","","","","","",""
"learning-instructions","182","755105","0.0-11.0-1.0-0.5","6411","1","13","Male","approach_avoid_spark_v1","""event"",""trial"",""time""
""fullscreenenter"",""1"",""2453""
","
","
","""event"",""trial"",""time""
""fullscreenenter"",""1"",""2453""
","
","","","","","","746.8000000007451","<p> You will see how many points you won or lost in the center of the screen. </p><p> Here is what you would see if you earned 5 points: </p><p style=""color:green;font-size:50px;font-weight:bolder"">5</p>","","0","instructions","","","","","","","","","","",""
"learning-instructions","183","758151","0.0-11.0-1.0-0.6","6411","1","13","Male","approach_avoid_spark_v1","""event"",""trial"",""time""
""fullscreenenter"",""1"",""2453""
","
","
","""event"",""trial"",""time""
""fullscreenenter"",""1"",""2453""
","
","","","","","","209.60000000149012","<p> And here is what you would see if you lost 3 points: </p><p style=""color:red;font-size:50px;font-weight:bolder"">-3</p>","","0","instructions","","","","","","","","","","",""
"learning-instructions","184","771710","0.0-11.0-1.0-0.7","6411","1","13","Male","approach_avoid_spark_v1","""event"",""trial"",""time""
""fullscreenenter"",""1"",""2453""
","
","
","""event"",""trial"",""time""
""fullscreenenter"",""1"",""2453""
","
","","","","","","744.1999999992549","<p> Some fruit is very tasty or very rotten. </p><p> These fruits will make you win or lose LOTS of points. </p><p> Other fruits are only kind of tasty or kind of rotten. </p><p> These fruits will make you win or lose small amounts of points. </p>","","0","instructions","","","","","","","","","","",""
"learning-instructions","185","783563","0.0-11.0-1.0-0.8","6411","1","13","Male","approach_avoid_spark_v1","""event"",""trial"",""time""
""fullscreenenter"",""1"",""2453""
","
","
","""event"",""trial"",""time""
""fullscreenenter"",""1"",""2453""
","
","","","","","","2358.599999997765","<p> If you choose to not eat the fruit, you will not win or lose any points. </p><p>  However, in the center of the screen, you will see the number of points you WOULD HAVE earned if you had eaten the fruit. </p>","","0","instructions","","","","","","","","","","",""
"learning-instructions","186","819590","0.0-11.0-1.0-0.9","6411","1","13","Male","approach_avoid_spark_v1","""event"",""trial"",""time""
""fullscreenenter"",""1"",""2453""
","
","
","""event"",""trial"",""time""
""fullscreenenter"",""1"",""2453""
","
","","","","","","27045.099999997765","<p> Here is what you might see if you did not eat the fruit but the fruit was tasty: </p><p style=""color:grey; font-size:50px; display: inline-block; border-spacing: 15px; border-width:3px; border-style:solid; border-color:red"">  &nbsp; 6 &nbsp; </p><p> Remember, in this case, you would not win or lose ANY points because you did not eat the fruit.  </p>","","0","instructions","","","","","","","","","","",""
"learning-instructions","187","829497","0.0-11.0-1.0-0.10","6411","1","13","Male","approach_avoid_spark_v1","""event"",""trial"",""time""
""fullscreenenter"",""1"",""2453""
","
","
","""event"",""trial"",""time""
""fullscreenenter"",""1"",""2453""
","
","","","","","","2883.89999999851","<p> Try to make the best choice for each fruit because </p><p> at the end of the game, you will earn bonus money based on how many points you earned. </p>","","0","instructions","","","","","","","","","","",""
"learning-instructions","188","840784","0.0-11.0-1.0-0.11","6411","1","13","Male","approach_avoid_spark_v1","""event"",""trial"",""time""
""fullscreenenter"",""1"",""2453""
","
","
","""event"",""trial"",""time""
""fullscreenenter"",""1"",""2453""
","
","","","","","","3099.199999999255","<p> You will have 3 seconds to make each choice. Try to respond before time runs out! </p><p> You will lose 5 points each time you do not make a response. </p>","","0","instructions","","","","","","","","","","",""
"html-keyboard-response","189","841389","0.0-11.0-2.0-0.0","6411","1","13","Male","approach_avoid_spark_v1","""event"",""trial"",""time""
""fullscreenenter"",""1"",""2453""
","
","
","""event"",""trial"",""time""
""fullscreenenter"",""1"",""2453""
","
","","","","","","null","<div style=""font-size:60px;"">+</div>","null","","fixation","","","","","","","","","","",""
"aa-learning-trial","190","844404","0.0-11.0-2.0-1.0","6411","1","13","Male","approach_avoid_spark_v1","""event"",""trial"",""time""
""fullscreenenter"",""1"",""2453""
","
","
","""event"",""trial"",""time""
""fullscreenenter"",""1"",""2453""
","
","","","","","","1477.3999999985099","images/banana1.png","","","learning","-4","-4","1","1","banana","fruit","2","1","","good","[5]"
"html-keyboard-response","191","844910","0.0-11.0-2.0-0.1","6411","1","13","Male","approach_avoid_spark_v1","""event"",""trial"",""time""
""fullscreenenter"",""1"",""2453""
","
","
","""event"",""trial"",""time""
""fullscreenenter"",""1"",""2453""
","
","","","","","","null","<div style=""font-size:60px;"">+</div>","null","","fixation","","","","","","","","","","",""
"aa-learning-trial","192","847923","0.0-11.0-2.0-1.1","6411","1","13","Male","approach_avoid_spark_v1","""event"",""trial"",""time""
""fullscreenenter"",""1"",""2453""
","
","
","""event"",""trial"",""time""
""fullscreenenter"",""1"",""2453""
","
","","","","","","806.1999999992549","images/orange3.png","","","learning","-7","0","0","0","orange","fruit","2","1","","neutral","0"
"html-keyboard-response","193","848427","0.0-11.0-2.0-0.2","6411","1","13","Male","approach_avoid_spark_v1","""event"",""trial"",""time""
""fullscreenenter"",""1"",""2453""
","
","
","""event"",""trial"",""time""
""fullscreenenter"",""1"",""2453""
","
","","","","","","null","<div style=""font-size:60px;"">+</div>","null","","fixation","","","","","","","","","","",""
"aa-learning-trial","194","851440","0.0-11.0-2.0-1.2","6411","1","13","Male","approach_avoid_spark_v1","""event"",""trial"",""time""
""fullscreenenter"",""1"",""2453""
","
","
","""event"",""trial"",""time""
""fullscreenenter"",""1"",""2453""
","
","","","","","","734.3000000007451","images/straw8.png","","","learning","-1","-1","1","1","straw","fruit","2","1","","bad","[-3]"
"html-keyboard-response","195","851945","0.0-11.0-2.0-0.3","6411","1","13","Male","approach_avoid_spark_v1","""event"",""trial"",""time""
""fullscreenenter"",""1"",""2453""
","
","
","""event"",""trial"",""time""
""fullscreenenter"",""1"",""2453""
","
","","","","","","null","<div style=""font-size:60px;"">+</div>","null","","fixation","","","","","","","","","","",""
"aa-learning-trial","196","854959","0.0-11.0-2.0-1.3","6411","1","13","Male","approach_avoid_spark_v1","""event"",""trial"",""time""
""fullscreenenter"",""1"",""2453""
","
","
","""event"",""trial"",""time""
""fullscreenenter"",""1"",""2453""
","
","","","","","","813.5","images/straw2.png","","","learning","9","9","1","1","straw","fruit","2","1","","bad","[-3]"
"html-keyboard-response","197","855464","0.0-11.0-2.0-0.4","6411","1","13","Male","approach_avoid_spark_v1","""event"",""trial"",""time""
""fullscreenenter"",""1"",""2453""
","
","
","""event"",""trial"",""time""
""fullscreenenter"",""1"",""2453""
","
","","","","","","null","<div style=""font-size:60px;"">+</div>","null","","fixation","","","","","","","","","","",""
"aa-learning-trial","198","858477","0.0-11.0-2.0-1.4","6411","1","13","Male","approach_avoid_spark_v1","""event"",""trial"",""time""
""fullscreenenter"",""1"",""2453""
","
","
","""event"",""trial"",""time""
""fullscreenenter"",""1"",""2453""
","
","","","","","","1015.3000000007451","images/banana4.png","","","learning","-2","-2","1","1","banana","fruit","2","1","","good","[5]"
"html-keyboard-response","199","858982","0.0-11.0-2.0-0.5","6411","1","13","Male","approach_avoid_spark_v1","""event"",""trial"",""time""
""fullscreenenter"",""1"",""2453""
","
","
","""event"",""trial"",""time""
""fullscreenenter"",""1"",""2453""
","
","","","","","","null","<div style=""font-size:60px;"">+</div>","null","","fixation","","","","","","","","","","",""
"aa-learning-trial","200","861997","0.0-11.0-2.0-1.5","6411","1","13","Male","approach_avoid_spark_v1","""event"",""trial"",""time""
""fullscreenenter"",""1"",""2453""
","
","
","""event"",""trial"",""time""
""fullscreenenter"",""1"",""2453""
","
","","","","","","603.6999999992549","images/orange5.png","","","learning","-3","0","0","0","orange","fruit","2","1","","neutral","0"
"html-keyboard-response","201","862504","0.0-11.0-2.0-0.6","6411","1","13","Male","approach_avoid_spark_v1","""event"",""trial"",""time""
""fullscreenenter"",""1"",""2453""
","
","
","""event"",""trial"",""time""
""fullscreenenter"",""1"",""2453""
","
","","","","","","null","<div style=""font-size:60px;"">+</div>","null","","fixation","","","","","","","","","","",""
"aa-learning-trial","202","865521","0.0-11.0-2.0-1.6","6411","1","13","Male","approach_avoid_spark_v1","""event"",""trial"",""time""
""fullscreenenter"",""1"",""2453""
","
","
","""event"",""trial"",""time""
""fullscreenenter"",""1"",""2453""
","
","","","","","","1014.5","images/straw8.png","","","learning","-1","0","0","0","straw","fruit","2","1","","bad","[-3]"
"html-keyboard-response","203","866024","0.0-11.0-2.0-0.7","6411","1","13","Male","approach_avoid_spark_v1","""event"",""trial"",""time""
""fullscreenenter"",""1"",""2453""
","
","
","""event"",""trial"",""time""
""fullscreenenter"",""1"",""2453""
","
","","","","","","null","<div style=""font-size:60px;"">+</div>","null","","fixation","","","","","","","","","","",""
"aa-learning-trial","204","869037","0.0-11.0-2.0-1.7","6411","1","13","Male","approach_avoid_spark_v1","""event"",""trial"",""time""
""fullscreenenter"",""1"",""2453""
","
","
","""event"",""trial"",""time""
""fullscreenenter"",""1"",""2453""
","
","","","","","","932.0999999977648","images/banana4.png","","","learning","-2","0","0","0","banana","fruit","2","1","","good","[5]"
"html-keyboard-response","205","869541","0.0-11.0-2.0-0.8","6411","1","13","Male","approach_avoid_spark_v1","""event"",""trial"",""time""
""fullscreenenter"",""1"",""2453""
","
","
","""event"",""trial"",""time""
""fullscreenenter"",""1"",""2453""
","
","","","","","","null","<div style=""font-size:60px;"">+</div>","null","","fixation","","","","","","","","","","",""
"aa-learning-trial","206","872557","0.0-11.0-2.0-1.8","6411","1","13","Male","approach_avoid_spark_v1","""event"",""trial"",""time""
""fullscreenenter"",""1"",""2453""
","
","
","""event"",""trial"",""time""
""fullscreenenter"",""1"",""2453""
","
","","","","","","861.8999999985099","images/banana6.png","","","learning","3","3","1","1","banana","fruit","2","1","","good","[5]"
"html-keyboard-response","207","873062","0.0-11.0-2.0-0.9","6411","1","13","Male","approach_avoid_spark_v1","""event"",""trial"",""time""
""fullscreenenter"",""1"",""2453""
","
","
","""event"",""trial"",""time""
""fullscreenenter"",""1"",""2453""
","
","","","","","","null","<div style=""font-size:60px;"">+</div>","null","","fixation","","","","","","","","","","",""
"aa-learning-trial","208","876074","0.0-11.0-2.0-1.9","6411","1","13","Male","approach_avoid_spark_v1","""event"",""trial"",""time""
""fullscreenenter"",""1"",""2453""
","
","
","""event"",""trial"",""time""
""fullscreenenter"",""1"",""2453""
","
","","","","","","1010.6999999992549","images/straw1.png","","","learning","-5","0","0","0","straw","fruit","2","1","","bad","[-3]"
"html-keyboard-response","209","876578","0.0-11.0-2.0-0.10","6411","1","13","Male","approach_avoid_spark_v1","""event"",""trial"",""time""
""fullscreenenter"",""1"",""2453""
","
","
","""event"",""trial"",""time""
""fullscreenenter"",""1"",""2453""
","
","","","","","","null","<div style=""font-size:60px;"">+</div>","null","","fixation","","","","","","","","","","",""
"aa-learning-trial","210","879593","0.0-11.0-2.0-1.10","6411","1","13","Male","approach_avoid_spark_v1","""event"",""trial"",""time""
""fullscreenenter"",""1"",""2453""
","
","
","""event"",""trial"",""time""
""fullscreenenter"",""1"",""2453""
","
","","","","","","696.6999999992549","images/orange1.png","","","learning","5","0","0","0","orange","fruit","2","1","","neutral","0"
"html-keyboard-response","211","880098","0.0-11.0-2.0-0.11","6411","1","13","Male","approach_avoid_spark_v1","""event"",""trial"",""time""
""fullscreenenter"",""1"",""2453""
","
","
","""event"",""trial"",""time""
""fullscreenenter"",""1"",""2453""
","
","","","","","","null","<div style=""font-size:60px;"">+</div>","null","","fixation","","","","","","","","","","",""
"aa-learning-trial","212","883114","0.0-11.0-2.0-1.11","6411","1","13","Male","approach_avoid_spark_v1","""event"",""trial"",""time""
""fullscreenenter"",""1"",""2453""
","
","
","""event"",""trial"",""time""
""fullscreenenter"",""1"",""2453""
","
","","","","","","602.5","images/orange1.png","","","learning","5","5","1","1","orange","fruit","2","1","","neutral","0"
"html-keyboard-response","213","883619","0.0-11.0-2.0-0.12","6411","1","13","Male","approach_avoid_spark_v1","""event"",""trial"",""time""
""fullscreenenter"",""1"",""2453""
","
","
","""event"",""trial"",""time""
""fullscreenenter"",""1"",""2453""
","
","","","","","","null","<div style=""font-size:60px;"">+</div>","null","","fixation","","","","","","","","","","",""
"aa-learning-trial","214","886636","0.0-11.0-2.0-1.12","6411","1","13","Male","approach_avoid_spark_v1","""event"",""trial"",""time""
""fullscreenenter"",""1"",""2453""
","
","
","""event"",""trial"",""time""
""fullscreenenter"",""1"",""2453""
","
","","","","","","631.1999999992549","images/banana1.png","","","learning","-4","-4","1","1","banana","fruit","2","1","","good","[5]"
"html-keyboard-response","215","887143","0.0-11.0-2.0-0.13","6411","1","13","Male","approach_avoid_spark_v1","""event"",""trial"",""time""
""fullscreenenter"",""1"",""2453""
","
","
","""event"",""trial"",""time""
""fullscreenenter"",""1"",""2453""
","
","","","","","","null","<div style=""font-size:60px;"">+</div>","null","","fixation","","","","","","","","","","",""
"aa-learning-trial","216","890157","0.0-11.0-2.0-1.13","6411","1","13","Male","approach_avoid_spark_v1","""event"",""trial"",""time""
""fullscreenenter"",""1"",""2453""
","
","
","""event"",""trial"",""time""
""fullscreenenter"",""1"",""2453""
","
","","","","","","1787.1000000014901","images/straw2.png","","","learning","9","9","1","1","straw","fruit","2","1","","bad","[-3]"
"html-keyboard-response","217","890663","0.0-11.0-2.0-0.14","6411","1","13","Male","approach_avoid_spark_v1","""event"",""trial"",""time""
""fullscreenenter"",""1"",""2453""
","
","
","""event"",""trial"",""time""
""fullscreenenter"",""1"",""2453""
","
","","","","","","null","<div style=""font-size:60px;"">+</div>","null","","fixation","","","","","","","","","","",""
"aa-learning-trial","218","893680","0.0-11.0-2.0-1.14","6411","1","13","Male","approach_avoid_spark_v1","""event"",""trial"",""time""
""fullscreenenter"",""1"",""2453""
","
","
","""event"",""trial"",""time""
""fullscreenenter"",""1"",""2453""
","
","","","","","","1135.2000000029802","images/orange5.png","","","learning","-3","-3","1","1","orange","fruit","2","1","","neutral","0"
"html-keyboard-response","219","894186","0.0-11.0-2.0-0.15","6411","1","13","Male","approach_avoid_spark_v1","""event"",""trial"",""time""
""fullscreenenter"",""1"",""2453""
","
","
","""event"",""trial"",""time""
""fullscreenenter"",""1"",""2453""
","
","","","","","","null","<div style=""font-size:60px;"">+</div>","null","","fixation","","","","","","","","","","",""
"aa-learning-trial","220","897202","0.0-11.0-2.0-1.15","6411","1","13","Male","approach_avoid_spark_v1","""event"",""trial"",""time""
""fullscreenenter"",""1"",""2453""
","
","
","""event"",""trial"",""time""
""fullscreenenter"",""1"",""2453""
","
","","","","","","1578","images/orange5.png","","","learning","-3","0","0","0","orange","fruit","2","1","","neutral","0"
"html-keyboard-response","221","897707","0.0-11.0-2.0-0.16","6411","1","13","Male","approach_avoid_spark_v1","""event"",""trial"",""time""
""fullscreenenter"",""1"",""2453""
","
","
","""event"",""trial"",""time""
""fullscreenenter"",""1"",""2453""
","
","","","","","","null","<div style=""font-size:60px;"">+</div>","null","","fixation","","","","","","","","","","",""
"aa-learning-trial","222","900723","0.0-11.0-2.0-1.16","6411","1","13","Male","approach_avoid_spark_v1","""event"",""trial"",""time""
""fullscreenenter"",""1"",""2453""
","
","
","""event"",""trial"",""time""
""fullscreenenter"",""1"",""2453""
","
","","","","","","1882.0999999977648","images/orange1.png","","","learning","5","0","0","0","orange","fruit","2","1","","neutral","0"
"html-keyboard-response","223","901230","0.0-11.0-2.0-0.17","6411","1","13","Male","approach_avoid_spark_v1","""event"",""trial"",""time""
""fullscreenenter"",""1"",""2453""
","
","
","""event"",""trial"",""time""
""fullscreenenter"",""1"",""2453""
","
","","","","","","null","<div style=""font-size:60px;"">+</div>","null","","fixation","","","","","","","","","","",""
"aa-learning-trial","224","904247","0.0-11.0-2.0-1.17","6411","1","13","Male","approach_avoid_spark_v1","""event"",""trial"",""time""
""fullscreenenter"",""1"",""2453""
","
","
","""event"",""trial"",""time""
""fullscreenenter"",""1"",""2453""
","
","","","","","","1611","images/orange3.png","","","learning","-7","-7","1","1","orange","fruit","2","1","","neutral","0"
"html-keyboard-response","225","904754","0.0-11.0-2.0-0.18","6411","1","13","Male","approach_avoid_spark_v1","""event"",""trial"",""time""
""fullscreenenter"",""1"",""2453""
","
","
","""event"",""trial"",""time""
""fullscreenenter"",""1"",""2453""
","
","","","","","","null","<div style=""font-size:60px;"">+</div>","null","","fixation","","","","","","","","","","",""
"aa-learning-trial","226","907774","0.0-11.0-2.0-1.18","6411","1","13","Male","approach_avoid_spark_v1","""event"",""trial"",""time""
""fullscreenenter"",""1"",""2453""
","
","
","""event"",""trial"",""time""
""fullscreenenter"",""1"",""2453""
","
","","","","","","1232","images/straw2.png","","","learning","9","9","1","1","straw","fruit","2","1","","bad","[-3]"
"html-keyboard-response","227","908278","0.0-11.0-2.0-0.19","6411","1","13","Male","approach_avoid_spark_v1","""event"",""trial"",""time""
""fullscreenenter"",""1"",""2453""
","
","
","""event"",""trial"",""time""
""fullscreenenter"",""1"",""2453""
","
","","","","","","null","<div style=""font-size:60px;"">+</div>","null","","fixation","","","","","","","","","","",""
"aa-learning-trial","228","911293","0.0-11.0-2.0-1.19","6411","1","13","Male","approach_avoid_spark_v1","""event"",""trial"",""time""
""fullscreenenter"",""1"",""2453""
","
","
","""event"",""trial"",""time""
""fullscreenenter"",""1"",""2453""
","
","","","","","","986.1999999992549","images/banana4.png","","","learning","-2","0","0","0","banana","fruit","2","1","","good","[5]"
"html-keyboard-response","229","911797","0.0-11.0-2.0-0.20","6411","1","13","Male","approach_avoid_spark_v1","""event"",""trial"",""time""
""fullscreenenter"",""1"",""2453""
","
","
","""event"",""trial"",""time""
""fullscreenenter"",""1"",""2453""
","
","","","","","","null","<div style=""font-size:60px;"">+</div>","null","","fixation","","","","","","","","","","",""
"aa-learning-trial","230","914814","0.0-11.0-2.0-1.20","6411","1","13","Male","approach_avoid_spark_v1","""event"",""trial"",""time""
""fullscreenenter"",""1"",""2453""
","
","
","""event"",""trial"",""time""
""fullscreenenter"",""1"",""2453""
","
","","","","","","990","images/banana1.png","","","learning","-4","-4","1","1","banana","fruit","2","1","","good","[5]"
"html-keyboard-response","231","915318","0.0-11.0-2.0-0.21","6411","1","13","Male","approach_avoid_spark_v1","""event"",""trial"",""time""
""fullscreenenter"",""1"",""2453""
","
","
","""event"",""trial"",""time""
""fullscreenenter"",""1"",""2453""
","
","","","","","","null","<div style=""font-size:60px;"">+</div>","null","","fixation","","","","","","","","","","",""
"aa-learning-trial","232","918329","0.0-11.0-2.0-1.21","6411","1","13","Male","approach_avoid_spark_v1","""event"",""trial"",""time""
""fullscreenenter"",""1"",""2453""
","
","
","""event"",""trial"",""time""
""fullscreenenter"",""1"",""2453""
","
","","","","","","1346.5","images/straw1.png","","","learning","-5","0","0","0","straw","fruit","2","1","","bad","[-3]"
"html-keyboard-response","233","918834","0.0-11.0-2.0-0.22","6411","1","13","Male","approach_avoid_spark_v1","""event"",""trial"",""time""
""fullscreenenter"",""1"",""2453""
","
","
","""event"",""trial"",""time""
""fullscreenenter"",""1"",""2453""
","
","","","","","","null","<div style=""font-size:60px;"">+</div>","null","","fixation","","","","","","","","","","",""
"aa-learning-trial","234","921853","0.0-11.0-2.0-1.22","6411","1","13","Male","approach_avoid_spark_v1","""event"",""trial"",""time""
""fullscreenenter"",""1"",""2453""
","
","
","""event"",""trial"",""time""
""fullscreenenter"",""1"",""2453""
","
","","","","","","602.8000000007451","images/orange8.png","","","learning","7","7","1","1","orange","fruit","2","1","","neutral","0"
"html-keyboard-response","235","922358","0.0-11.0-2.0-0.23","6411","1","13","Male","approach_avoid_spark_v1","""event"",""trial"",""time""
""fullscreenenter"",""1"",""2453""
","
","
","""event"",""trial"",""time""
""fullscreenenter"",""1"",""2453""
","
","","","","","","null","<div style=""font-size:60px;"">+</div>","null","","fixation","","","","","","","","","","",""
"aa-learning-trial","236","925374","0.0-11.0-2.0-1.23","6411","1","13","Male","approach_avoid_spark_v1","""event"",""trial"",""time""
""fullscreenenter"",""1"",""2453""
","
","
","""event"",""trial"",""time""
""fullscreenenter"",""1"",""2453""
","
","","","","","","914.0999999977648","images/orange5.png","","","learning","-3","0","0","0","orange","fruit","2","1","","neutral","0"
"html-keyboard-response","237","925879","0.0-11.0-2.0-0.24","6411","1","13","Male","approach_avoid_spark_v1","""event"",""trial"",""time""
""fullscreenenter"",""1"",""2453""
","
","
","""event"",""trial"",""time""
""fullscreenenter"",""1"",""2453""
","
