"trial_type","trial_index","time_elapsed","internal_node_id","subject_id","task_condition","age","gender","task_version","interactions","blur_events","focus_events","fullscreenenter_events","fullscreenexit_events","success","timeout","failed_images","failed_audio","failed_video","rt","stimulus","response","button_pressed","task_part","approach_reward","points","key_press","option_selected","stim_cat","task_block","block_condition","block_number","correct","cat_type","mean_cat_reward"
"pavlovia","0","3","0.0-0.0","4098","1","14","Female","approach_avoid_spark_v1","""event"",""trial"",""time""
""fullscreenenter"",""1"",""4411""
","
","
","""event"",""trial"",""time""
""fullscreenenter"",""1"",""4411""
","
","","","","","","","","","","","","","","","","","","","","",""
"fullscreen","1","5380","0.0-1.0","4098","1","14","Female","approach_avoid_spark_v1","""event"",""trial"",""time""
""fullscreenenter"",""1"",""4411""
","
","
","""event"",""trial"",""time""
""fullscreenenter"",""1"",""4411""
","
","true","","","","","","","","","","","","","","","","","","","",""
"preload","2","33984","0.0-2.0","4098","1","14","Female","approach_avoid_spark_v1","""event"",""trial"",""time""
""fullscreenenter"",""1"",""4411""
","
","
","""event"",""trial"",""time""
""fullscreenenter"",""1"",""4411""
","
","true","false","[]","[]","[]","","","","","","","","","","","","","","","",""
"audio-keyboard-response","3","36486","0.0-3.0","4098","1","14","Female","approach_avoid_spark_v1","""event"",""trial"",""time""
""fullscreenenter"",""1"",""4411""
","
","
","""event"",""trial"",""time""
""fullscreenenter"",""1"",""4411""
","
","","","","","","2501.333333333335","audio/beep_loop.wav"," ","","","","","","","","","","","","",""
"audio-button-response","4","44276","0.0-4.0","4098","1","14","Female","approach_avoid_spark_v1","""event"",""trial"",""time""
""fullscreenenter"",""1"",""4411""
","
","
","""event"",""trial"",""time""
""fullscreenenter"",""1"",""4411""
","
","","","","","","7781","audio/shark.wav","4","","","","","","","","","","","","",""
"audio-button-response","5","47007","0.0-5.0","4098","1","14","Female","approach_avoid_spark_v1","""event"",""trial"",""time""
""fullscreenenter"",""1"",""4411""
","
","
","""event"",""trial"",""time""
""fullscreenenter"",""1"",""4411""
","
","","","","","","1720","audio/turtle.wav","1","","","","","","","","","","","","",""
"preload","6","55492","0.0-6.0","4098","1","14","Female","approach_avoid_spark_v1","""event"",""trial"",""time""
""fullscreenenter"",""1"",""4411""
","
","
","""event"",""trial"",""time""
""fullscreenenter"",""1"",""4411""
","
","true","false","[]","[]","[]","","","","","","","","","","","","","","","",""
"html-keyboard-response","7","58037","0.0-7.0","4098","1","14","Female","approach_avoid_spark_v1","""event"",""trial"",""time""
""fullscreenenter"",""1"",""4411""
","
","
","""event"",""trial"",""time""
""fullscreenenter"",""1"",""4411""
","
","","","","","","2543","Welcome to the experiment. Press any key to begin and to advance the instructions."," ","","","","","","","","","","","","",""
"learning-instructions","8","66318","0.0-8.0-0.0-0.0","4098","1","14","Female","approach_avoid_spark_v1","""event"",""trial"",""time""
""fullscreenenter"",""1"",""4411""
","
","
","""event"",""trial"",""time""
""fullscreenenter"",""1"",""4411""
","
","","","","","","1329.5","<p> Welcome! Today you are going to play 6 different rounds of a decision-making game. </p><p> Use the mouse to click next to continue. </p>","","0","instructions","","","","","","","","","","",""
"learning-instructions","9","70068","0.0-8.0-0.0-0.1","4098","1","14","Female","approach_avoid_spark_v1","""event"",""trial"",""time""
""fullscreenenter"",""1"",""4411""
","
","
","""event"",""trial"",""time""
""fullscreenenter"",""1"",""4411""
","
","","","","","","983.3999999761581","<p> You will start with a practice round to learn the rules. </p>","","0","instructions","","","","","","","","","","",""
"learning-instructions","10","73981","0.0-8.0-0.0-0.2","4098","1","14","Female","approach_avoid_spark_v1","""event"",""trial"",""time""
""fullscreenenter"",""1"",""4411""
","
","
","""event"",""trial"",""time""
""fullscreenenter"",""1"",""4411""
","
","","","","","","453.89999997615814","<p> Your goal in this round is to give out sports equipment to kids. </p></div>","","0","instructions","","","","","","","","","","",""
"learning-instructions","11","82287","0.0-8.0-0.0-0.3","4098","1","14","Female","approach_avoid_spark_v1","""event"",""trial"",""time""
""fullscreenenter"",""1"",""4411""
","
","
","""event"",""trial"",""time""
""fullscreenenter"",""1"",""4411""
","
","","","","","","737.7000000476837","<p> The kids only like some of the equipment.  </p><p> On each turn, you will see a piece of sports equipment.   </p><p> You need to decide whether to give it to the kids or not.  </p>","","0","instructions","","","","","","","","","","",""
"learning-instructions","12","93599","0.0-8.0-0.0-0.4","4098","1","14","Female","approach_avoid_spark_v1","""event"",""trial"",""time""
""fullscreenenter"",""1"",""4411""
","
","
","""event"",""trial"",""time""
""fullscreenenter"",""1"",""4411""
","
","","","","","","6539.399999976158","<p> You can give them the equipment by pressing 1 and choose not to give it to them by pressing 0. </p><br><div class=""choice-instructions-grid""> <div class=""choice-option""><img src=""images/approach.png"" class=""choice-option-img"" stage=""instructions"" position=""0"" ><div class=""choice-option-text""> Press ""1."" </div></div><div class=""choice-option""><img src=""images/avoid.png"" class=""choice-option-img"" stage=""instructions"" position=""1"" ><div class=""choice-option-text""> Press ""0."" </div></div>","","0","instructions","","","","","","","","","","",""
"learning-instructions","13","101877","0.0-8.0-0.0-0.5","4098","1","14","Female","approach_avoid_spark_v1","""event"",""trial"",""time""
""fullscreenenter"",""1"",""4411""
","
","
","""event"",""trial"",""time""
""fullscreenenter"",""1"",""4411""
","
","","","","","","823.5","<p> If you give them a piece of equipment they like, they will be happy! </p><p> But if you give them a piece of equipment they do not like, they will be sad. </p>","","0","instructions","","","","","","","","","","",""
"learning-instructions","14","113790","0.0-8.0-0.0-0.6","4098","1","14","Female","approach_avoid_spark_v1","""event"",""trial"",""time""
""fullscreenenter"",""1"",""4411""
","
","
","""event"",""trial"",""time""
""fullscreenenter"",""1"",""4411""
","
","","","","","","1345.6000000238419","<p> You will earn points based on how you make kids feel. </p><p> If you make them happy, you will WIN anywhere from 1 - 9 points, </p><p> but if you make them sad, you will LOSE anywhere from 1 - 9 points. </p>","","0","instructions","","","","","","","","","","",""
"learning-instructions","15","123911","0.0-8.0-0.0-0.7","4098","1","14","Female","approach_avoid_spark_v1","""event"",""trial"",""time""
""fullscreenenter"",""1"",""4411""
","
","
","""event"",""trial"",""time""
""fullscreenenter"",""1"",""4411""
","
","","","","","","485.7000000476837","<p> You will see how many points you won or lost in the center of the screen. </p><p> Here is what you would see if you won 6 points: </p><p style=""color:green;font-size:50px;font-weight:bolder"">6</p><p style=""color:green"">The text is GREEN because you WON points.</p>","","0","instructions","","","","","","","","","","",""
"learning-instructions","16","130717","0.0-8.0-0.0-0.8","4098","1","14","Female","approach_avoid_spark_v1","""event"",""trial"",""time""
""fullscreenenter"",""1"",""4411""
","
","
","""event"",""trial"",""time""
""fullscreenenter"",""1"",""4411""
","
","","","","","","1247.1999999284744","<p> And here is what you would see if you lost 4 points: </p><p style=""color:red;font-size:50px;font-weight:bolder"">-4</p><p style=""color:red"">The text is RED because you LOST points. </p>","","0","instructions","","","","","","","","","","",""
"learning-instructions","17","145972","0.0-8.0-0.0-0.9","4098","1","14","Female","approach_avoid_spark_v1","""event"",""trial"",""time""
""fullscreenenter"",""1"",""4411""
","
","
","""event"",""trial"",""time""
""fullscreenenter"",""1"",""4411""
","
","","","","","","523.1999999284744","<p> Some of the equipment will make the kids VERY happy or sad. </p><p> These pieces of equipment will make you win or lose LOTS of points. </p><p> Other pieces of equipment will only make the kids a little happy or sad. </p><p> These pieces of equipment will make you win or lose small amounts of points. </p>","","0","instructions","","","","","","","","","","",""
"learning-instructions","18","157371","0.0-8.0-0.0-0.10","4098","1","14","Female","approach_avoid_spark_v1","""event"",""trial"",""time""
""fullscreenenter"",""1"",""4411""
","
","
","""event"",""trial"",""time""
""fullscreenenter"",""1"",""4411""
","
","","","","","","773","<p> If you choose not to give them the equipment, you will not win or lose any points. </p><p>  However, in the center of the screen, you will see the number of points you WOULD HAVE won or lost if you had given them the equipment. </p>","","0","instructions","","","","","","","","","","",""
"learning-instructions","19","179401","0.0-8.0-0.0-0.11","4098","1","14","Female","approach_avoid_spark_v1","""event"",""trial"",""time""
""fullscreenenter"",""1"",""4411""
","
","
","""event"",""trial"",""time""
""fullscreenenter"",""1"",""4411""
","
","","","","","","481.7000000476837","<p> Here is what you might see if you did not give the equipment to the kids but it would have made them happy: </p><p style=""color:grey; font-size:50px; display: inline-block; border-spacing: 15px; border-width:3px; border-style:solid; border-color:red"">  &nbsp; 7 &nbsp; </p><p> Remember, in this case, you would not win or lose ANY points because you did not give them the equipment.  </p><p style=""color:grey"">The text is GREY because you earned ZERO points. </p><p style=""color:red"">However, choosing to give the kids the equipment would have made you win points. The box around the text is RED because you chose the worse option. </p>","","0","instructions","","","","","","","","","","",""
"learning-instructions","20","201106","0.0-8.0-0.0-0.12","4098","1","14","Female","approach_avoid_spark_v1","""event"",""trial"",""time""
""fullscreenenter"",""1"",""4411""
","
","
","""event"",""trial"",""time""
""fullscreenenter"",""1"",""4411""
","
","","","","","","591.3000000715256","<p> Here is what you might see if you did not give the equipment to the kids but it would have made them sad: </p><p style=""color:grey;font-size:50px; display: inline-block; border-spacing: 15px; border-width:3px; border-style:solid; border-color:green"">  &nbsp; -8 &nbsp; </p><p> Remember, in this case, you would not win or lose ANY points because you did not give them the equipment.  </p><p style=""color:grey"">The text is GREY because you earned ZERO points. </p><p  style=""color:green""> Choosing to give the kids the equipment would have made you lose points. The box around the text is GREEN because you chose the better option.</p>","","0","instructions","","","","","","","","","","",""
"learning-instructions","21","210974","0.0-8.0-0.0-0.13","4098","1","14","Female","approach_avoid_spark_v1","""event"",""trial"",""time""
""fullscreenenter"",""1"",""4411""
","
","
","""event"",""trial"",""time""
""fullscreenenter"",""1"",""4411""
","
","","","","","","443.89999997615814","<p> You will have 3 seconds to make each choice. Try to respond before time runs out! </p><p> You will lose 5 points each time you do not make a response. </p>","","0","instructions","","","","","","","","","","",""
"learning-instructions","22","216935","0.0-8.0-0.0-0.14","4098","1","14","Female","approach_avoid_spark_v1","""event"",""trial"",""time""
""fullscreenenter"",""1"",""4411""
","
","
","""event"",""trial"",""time""
""fullscreenenter"",""1"",""4411""
","
","","","","","","516.5999999046326","<p> This is just a practice round, but in the real game, your bonus payment will depend on your total number of points.","","0","instructions","","","","","","","","","","",""
"learning-instructions","23","223414","0.0-8.0-0.0-0.15","4098","1","14","Female","approach_avoid_spark_v1","""event"",""trial"",""time""
""fullscreenenter"",""1"",""4411""
","
","
","""event"",""trial"",""time""
""fullscreenenter"",""1"",""4411""
","
","","","","","","703.3000000715256","<p> Remember, you can give them the equipment by pressing 1 and choose not to give it to them by pressing 0. </p><br><div class=""choice-instructions-grid""> <div class=""choice-option""><img src=""images/approach.png"" class=""choice-option-img"" stage=""instructions"" position=""0"" ><div class=""choice-option-text""> Press ""1."" </div></div><div class=""choice-option""><img src=""images/avoid.png"" class=""choice-option-img"" stage=""instructions"" position=""1"" ><div class=""choice-option-text""> Press ""0."" </div></div>","","0","instructions","","","","","","","","","","",""
"html-button-response","24","226239","0.0-8.0-1.0","4098","1","14","Female","approach_avoid_spark_v1","""event"",""trial"",""time""
""fullscreenenter"",""1"",""4411""
","
","
","""event"",""trial"",""time""
""fullscreenenter"",""1"",""4411""
","
","","","","","","2720.3000000715256","<p> Ready to practice? </p>","0","","","","","","","","","","","","",""
"html-keyboard-response","25","226845","0.0-8.0-2.0-0.0","4098","1","14","Female","approach_avoid_spark_v1","""event"",""trial"",""time""
""fullscreenenter"",""1"",""4411""
","
","
","""event"",""trial"",""time""
""fullscreenenter"",""1"",""4411""
","
","","","","","","null","<div style=""font-size:60px;"">+</div>","null","","fixation","","","","","","","","","","",""
"aa-learning-trial","26","229860","0.0-8.0-2.0-1.0","4098","1","14","Female","approach_avoid_spark_v1","""event"",""trial"",""time""
""fullscreenenter"",""1"",""4411""
","
","
","""event"",""trial"",""time""
""fullscreenenter"",""1"",""4411""
","
","","","","","","1588.1000000238419","images/ball3.png","","","learning","-3","-3","1","1","practice","practice","practice","-1","","",""
"html-keyboard-response","27","230401","0.0-8.0-2.0-0.1","4098","1","14","Female","approach_avoid_spark_v1","""event"",""trial"",""time""
""fullscreenenter"",""1"",""4411""
","
","
","""event"",""trial"",""time""
""fullscreenenter"",""1"",""4411""
","
","","","","","","null","<div style=""font-size:60px;"">+</div>","null","","fixation","","","","","","","","","","",""
"aa-learning-trial","28","233419","0.0-8.0-2.0-1.1","4098","1","14","Female","approach_avoid_spark_v1","""event"",""trial"",""time""
""fullscreenenter"",""1"",""4411""
","
","
","""event"",""trial"",""time""
""fullscreenenter"",""1"",""4411""
","
","","","","","","1216.5999999046326","images/racket2.png","","","learning","-9","-9","1","1","practice","practice","practice","-1","","",""
"html-keyboard-response","29","233964","0.0-8.0-2.0-0.2","4098","1","14","Female","approach_avoid_spark_v1","""event"",""trial"",""time""
""fullscreenenter"",""1"",""4411""
","
","
","""event"",""trial"",""time""
""fullscreenenter"",""1"",""4411""
","
","","","","","","null","<div style=""font-size:60px;"">+</div>","null","","fixation","","","","","","","","","","",""
"aa-learning-trial","30","236982","0.0-8.0-2.0-1.2","4098","1","14","Female","approach_avoid_spark_v1","""event"",""trial"",""time""
""fullscreenenter"",""1"",""4411""
","
","
","""event"",""trial"",""time""
""fullscreenenter"",""1"",""4411""
","
","","","","","","1053.7000000476837","images/racket1.png","","","learning","8","0","0","0","practice","practice","practice","-1","","",""
"html-keyboard-response","31","237524","0.0-8.0-2.0-0.3","4098","1","14","Female","approach_avoid_spark_v1","""event"",""trial"",""time""
""fullscreenenter"",""1"",""4411""
","
","
","""event"",""trial"",""time""
""fullscreenenter"",""1"",""4411""
","
","","","","","","null","<div style=""font-size:60px;"">+</div>","null","","fixation","","","","","","","","","","",""
"aa-learning-trial","32","240544","0.0-8.0-2.0-1.3","4098","1","14","Female","approach_avoid_spark_v1","""event"",""trial"",""time""
""fullscreenenter"",""1"",""4411""
","
","
","""event"",""trial"",""time""
""fullscreenenter"",""1"",""4411""
","
","","","","","","853.5","images/ball2.png","","","learning","9","9","1","1","practice","practice","practice","-1","","",""
"html-keyboard-response","33","241060","0.0-8.0-2.0-0.4","4098","1","14","Female","approach_avoid_spark_v1","""event"",""trial"",""time""
""fullscreenenter"",""1"",""4411""
","
","
","""event"",""trial"",""time""
""fullscreenenter"",""1"",""4411""
","
","","","","","","null","<div style=""font-size:60px;"">+</div>","null","","fixation","","","","","","","","","","",""
"aa-learning-trial","34","244109","0.0-8.0-2.0-1.4","4098","1","14","Female","approach_avoid_spark_v1","""event"",""trial"",""time""
""fullscreenenter"",""1"",""4411""
","
","
","""event"",""trial"",""time""
""fullscreenenter"",""1"",""4411""
","
","","","","","","1259","images/racket3.png","","","learning","-7","-7","1","1","practice","practice","practice","-1","","",""
"html-keyboard-response","35","244614","0.0-8.0-2.0-0.5","4098","1","14","Female","approach_avoid_spark_v1","""event"",""trial"",""time""
""fullscreenenter"",""1"",""4411""
","
","
","""event"",""trial"",""time""
""fullscreenenter"",""1"",""4411""
","
","","","","","","null","<div style=""font-size:60px;"">+</div>","null","","fixation","","","","","","","","","","",""
"aa-learning-trial","36","247659","0.0-8.0-2.0-1.5","4098","1","14","Female","approach_avoid_spark_v1","""event"",""trial"",""time""
""fullscreenenter"",""1"",""4411""
","
","
","""event"",""trial"",""time""
""fullscreenenter"",""1"",""4411""
","
","","","","","","1020.3000000715256","images/racket3.png","","","learning","6","6","1","1","practice","practice","practice","-1","","",""
"html-keyboard-response","37","248203","0.0-8.0-2.0-0.6","4098","1","14","Female","approach_avoid_spark_v1","""event"",""trial"",""time""
""fullscreenenter"",""1"",""4411""
","
","
","""event"",""trial"",""time""
""fullscreenenter"",""1"",""4411""
","
","","","","","","null","<div style=""font-size:60px;"">+</div>","null","","fixation","","","","","","","","","","",""
"aa-learning-trial","38","251241","0.0-8.0-2.0-1.6","4098","1","14","Female","approach_avoid_spark_v1","""event"",""trial"",""time""
""fullscreenenter"",""1"",""4411""
","
","
","""event"",""trial"",""time""
""fullscreenenter"",""1"",""4411""
","
","","","","","","1256.1000000238419","images/racket3.png","","","learning","-1","0","0","0","practice","practice","practice","-1","","",""
"html-keyboard-response","39","251760","0.0-8.0-2.0-0.7","4098","1","14","Female","approach_avoid_spark_v1","""event"",""trial"",""time""
""fullscreenenter"",""1"",""4411""
","
","
","""event"",""trial"",""time""
""fullscreenenter"",""1"",""4411""
","
","","","","","","null","<div style=""font-size:60px;"">+</div>","null","","fixation","","","","","","","","","","",""
"aa-learning-trial","40","254764","0.0-8.0-2.0-1.7","4098","1","14","Female","approach_avoid_spark_v1","""event"",""trial"",""time""
""fullscreenenter"",""1"",""4411""
","
","
","""event"",""trial"",""time""
""fullscreenenter"",""1"",""4411""
","
","","","","","","1280.2999999523163","images/ball1.png","","","learning","2","2","1","1","practice","practice","practice","-1","","",""
"html-keyboard-response","41","255304","0.0-8.0-2.0-0.8","4098","1","14","Female","approach_avoid_spark_v1","""event"",""trial"",""time""
""fullscreenenter"",""1"",""4411""
","
","
","""event"",""trial"",""time""
""fullscreenenter"",""1"",""4411""
","
","","","","","","null","<div style=""font-size:60px;"">+</div>","null","","fixation","","","","","","","","","","",""
"aa-learning-trial","42","258333","0.0-8.0-2.0-1.8","4098","1","14","Female","approach_avoid_spark_v1","""event"",""trial"",""time""
""fullscreenenter"",""1"",""4411""
","
","
","""event"",""trial"",""time""
""fullscreenenter"",""1"",""4411""
","
","","","","","","1118.2999999523163","images/ball1.png","","","learning","6","0","0","0","practice","practice","practice","-1","","",""
"html-keyboard-response","43","258861","0.0-8.0-2.0-0.9","4098","1","14","Female","approach_avoid_spark_v1","""event"",""trial"",""time""
""fullscreenenter"",""1"",""4411""
","
","
","""event"",""trial"",""time""
""fullscreenenter"",""1"",""4411""
","
","","","","","","null","<div style=""font-size:60px;"">+</div>","null","","fixation","","","","","","","","","","",""
"aa-learning-trial","44","261867","0.0-8.0-2.0-1.9","4098","1","14","Female","approach_avoid_spark_v1","""event"",""trial"",""time""
""fullscreenenter"",""1"",""4411""
","
","
","""event"",""trial"",""time""
""fullscreenenter"",""1"",""4411""
","
","","","","","","1402.7999999523163","images/ball2.png","","","learning","-2","-2","1","1","practice","practice","practice","-1","","",""
"html-keyboard-response","45","262372","0.0-8.0-2.0-0.10","4098","1","14","Female","approach_avoid_spark_v1","""event"",""trial"",""time""
""fullscreenenter"",""1"",""4411""
","
","
","""event"",""trial"",""time""
""fullscreenenter"",""1"",""4411""
","
","","","","","","null","<div style=""font-size:60px;"">+</div>","null","","fixation","","","","","","","","","","",""
"aa-learning-trial","46","265379","0.0-8.0-2.0-1.10","4098","1","14","Female","approach_avoid_spark_v1","""event"",""trial"",""time""
""fullscreenenter"",""1"",""4411""
","
","
","""event"",""trial"",""time""
""fullscreenenter"",""1"",""4411""
","
","","","","","","680.8999999761581","images/racket1.png","","","learning","-1","-1","1","1","practice","practice","practice","-1","","",""
"html-keyboard-response","47","265883","0.0-8.0-2.0-0.11","4098","1","14","Female","approach_avoid_spark_v1","""event"",""trial"",""time""
""fullscreenenter"",""1"",""4411""
","
","
","""event"",""trial"",""time""
""fullscreenenter"",""1"",""4411""
","
","","","","","","null","<div style=""font-size:60px;"">+</div>","null","","fixation","","","","","","","","","","",""
"aa-learning-trial","48","268918","0.0-8.0-2.0-1.11","4098","1","14","Female","approach_avoid_spark_v1","""event"",""trial"",""time""
""fullscreenenter"",""1"",""4411""
","
","
","""event"",""trial"",""time""
""fullscreenenter"",""1"",""4411""
","
","","","","","","596.4000000953674","images/ball3.png","","","learning","2","2","1","1","practice","practice","practice","-1","","",""
"html-button-response","49","271410","0.0-8.0-3.0","4098","1","14","Female","approach_avoid_spark_v1","""event"",""trial"",""time""
""fullscreenenter"",""1"",""4411""
","
","
","""event"",""trial"",""time""
""fullscreenenter"",""1"",""4411""
","
","","","","","","2482.600000023842","<p> You earned -3 points in the practice round! </p>","0","","break","","","","","","","","","","",""
"learning-instructions","50","279658","0.0-8.0-4.0-0.0","4098","1","14","Female","approach_avoid_spark_v1","""event"",""trial"",""time""
""fullscreenenter"",""1"",""4411""
","
","
","""event"",""trial"",""time""
""fullscreenenter"",""1"",""4411""
","
","","","","","","1936.9000000953674","<p> It's almost time to start the real game. </p><p> Before you start, we're going to ask you a few questions about how the game works. </p>","","0","instructions","","","","","","","","","","",""
"preload","51","283622","0.0-8.0-5.0","4098","1","14","Female","approach_avoid_spark_v1","""event"",""trial"",""time""
""fullscreenenter"",""1"",""4411""
","
","
","""event"",""trial"",""time""
""fullscreenenter"",""1"",""4411""
","
","true","false","[]","[]","[]","","","","","","","","","","","","","","","",""
"comp-q","52","289613","0.0-8.0-6.0-0.0","4098","1","14","Female","approach_avoid_spark_v1","""event"",""trial"",""time""
""fullscreenenter"",""1"",""4411""
","
","
","""event"",""trial"",""time""
""fullscreenenter"",""1"",""4411""
","
","","","","","","992.1000000238419","<p> <b> True or False? </b> </p><p> If you see a number in GREY, that means you earned that many points. </p>","","1","comp_question","","","","","","","","","true","",""
"comp-q","53","299561","0.0-8.0-6.0-1.0","4098","1","14","Female","approach_avoid_spark_v1","""event"",""trial"",""time""
""fullscreenenter"",""1"",""4411""
","
","
","""event"",""trial"",""time""
""fullscreenenter"",""1"",""4411""
","
","","","","","","1553.7999999523163","<p><b> That's right! </b> If you see a grey number, it means you earned ZERO points. <br> The grey numbers show the points you WOULD HAVE earned if you had made the other choice. </p>","","0","comp_answer","","","","","","","","","","",""
"comp-q","54","304771","0.0-8.0-7.0-0.0","4098","1","14","Female","approach_avoid_spark_v1","""event"",""trial"",""time""
""fullscreenenter"",""1"",""4411""
","
","
","""event"",""trial"",""time""
""fullscreenenter"",""1"",""4411""
","
","","","","","","490.1999999284744","<p> <b> True or False? </b> </p><p> You will have as much time as you want to make each choice. </p>","","1","comp_question","","","","","","","","","true","",""
"comp-q","55","309700","0.0-8.0-7.0-1.0","4098","1","14","Female","approach_avoid_spark_v1","""event"",""trial"",""time""
""fullscreenenter"",""1"",""4411""
","
","
","""event"",""trial"",""time""
""fullscreenenter"",""1"",""4411""
","
","","","","","","878.7000000476837","<p> <b> That's right! </b> You will only have 3 seconds to make each choice. </p>","","0","comp_answer","","","","","","","","","","",""
"comp-q","56","314951","0.0-8.0-8.0-0.0","4098","1","14","Female","approach_avoid_spark_v1","""event"",""trial"",""time""
""fullscreenenter"",""1"",""4411""
","
","
","""event"",""trial"",""time""
""fullscreenenter"",""1"",""4411""
","
","","","","","","589.5","<p> <b> True or False? </b> </p><p> You should use the '1' and '0' keys to make your choices. </p>","","0","comp_question","","","","","","","","","true","",""
"comp-q","57","320493","0.0-8.0-8.0-1.0","4098","1","14","Female","approach_avoid_spark_v1","""event"",""trial"",""time""
""fullscreenenter"",""1"",""4411""
","
","
","""event"",""trial"",""time""
""fullscreenenter"",""1"",""4411""
","
","","","","","","832.2999999523163","<p> <b> That's right! </b> You should use the '1' and '0' keys to make each choice. </p>","","0","comp_answer","","","","","","","","","","",""
"learning-instructions","58","328891","0.0-8.0-9.0-0.0","4098","1","14","Female","approach_avoid_spark_v1","""event"",""trial"",""time""
""fullscreenenter"",""1"",""4411""
","
","
","""event"",""trial"",""time""
""fullscreenenter"",""1"",""4411""
","
","","","","","","1993.2999999523163","<p> It's now time to start the real game. </p>Do your best, because the points you earn in the next rounds will influence your bonus payment. </p>","","0","instructions","","","","","","","","","","",""
"preload","59","329017","0.0-9.0-0.0","4098","1","14","Female","approach_avoid_spark_v1","""event"",""trial"",""time""
""fullscreenenter"",""1"",""4411""
","
","
","""event"",""trial"",""time""
""fullscreenenter"",""1"",""4411""
","
","true","false","[]","[]","[]","","","","","","","","","","","","","","","",""
"learning-instructions","60","334350","0.0-9.0-1.0-0.0","4098","1","14","Female","approach_avoid_spark_v1","""event"",""trial"",""time""
""fullscreenenter"",""1"",""4411""
","
","
","""event"",""trial"",""time""
""fullscreenenter"",""1"",""4411""
","
","","","","","","768.5","<p> Your goal in this round is to decorate your friend's new house with furniture. </p></div>","","0","instructions","","","","","","","","","","",""
"learning-instructions","61","344924","0.0-9.0-1.0-0.1","4098","1","14","Female","approach_avoid_spark_v1","""event"",""trial"",""time""
""fullscreenenter"",""1"",""4411""
","
","
","""event"",""trial"",""time""
""fullscreenenter"",""1"",""4411""
","
","","","","","","762.2000000476837","<p> Your friend likes some pieces of furniture but not others.  </p><p> On each turn, you will see a piece of furniture.   </p><p> You need to decide whether to put it in your friend's house or not.  </p>","","0","instructions","","","","","","","","","","",""
"learning-instructions","62","351409","0.0-9.0-1.0-0.2","4098","1","14","Female","approach_avoid_spark_v1","""event"",""trial"",""time""
""fullscreenenter"",""1"",""4411""
","
","
","""event"",""trial"",""time""
""fullscreenenter"",""1"",""4411""
","
","","","","","","847","<p> You can put the furniture in her house by pressing 1 and deliver it elsewhere by pressing 0. </p><br><div class=""choice-instructions-grid""> <div class=""choice-option""><img src=""images/approach.png"" class=""choice-option-img"" stage=""instructions"" position=""0"" ><div class=""choice-option-text""> Press ""1."" </div></div><div class=""choice-option""><img src=""images/avoid.png"" class=""choice-option-img"" stage=""instructions"" position=""1"" ><div class=""choice-option-text""> Press ""0."" </div></div>","","0","instructions","","","","","","","","","","",""
"learning-instructions","63","360710","0.0-9.0-1.0-0.3","4098","1","14","Female","approach_avoid_spark_v1","""event"",""trial"",""time""
""fullscreenenter"",""1"",""4411""
","
","
","""event"",""trial"",""time""
""fullscreenenter"",""1"",""4411""
","
","","","","","","537.7999999523163","<p> If you decorate your friend's house with furniture she likes, she will be happy! </p><p> But if you give her furniture that she does not like, she will be annoyed. </p>","","0","instructions","","","","","","","","","","",""
"learning-instructions","64","374746","0.0-9.0-1.0-0.4","4098","1","14","Female","approach_avoid_spark_v1","""event"",""trial"",""time""
""fullscreenenter"",""1"",""4411""
","
","
","""event"",""trial"",""time""
""fullscreenenter"",""1"",""4411""
","
","","","","","","1389","<p> You will earn points based on how you made your friend feel. </p><p> If you made her happy, you will WIN anywhere from 1 - 9 points, </p><p> but if you made her annoyed you will LOSE anywhere from 1 - 9 points. </p>","","0","instructions","","","","","","","","","","",""
"learning-instructions","65","382682","0.0-9.0-1.0-0.5","4098","1","14","Female","approach_avoid_spark_v1","""event"",""trial"",""time""
""fullscreenenter"",""1"",""4411""
","
","
","""event"",""trial"",""time""
""fullscreenenter"",""1"",""4411""
","
","","","","","","424.09999990463257","<p> You will see how many points you won or lost in the center of the screen. </p><p> Here is what you would see if you won 5 points: </p><p style=""color:green;font-size:50px;font-weight:bolder"">5</p>","","0","instructions","","","","","","","","","","",""
"learning-instructions","66","386513","0.0-9.0-1.0-0.6","4098","1","14","Female","approach_avoid_spark_v1","""event"",""trial"",""time""
""fullscreenenter"",""1"",""4411""
","
","
","""event"",""trial"",""time""
""fullscreenenter"",""1"",""4411""
","
","","","","","","394.60000002384186","<p> And here is what you would see if you lost 3 points: </p><p style=""color:red;font-size:50px;font-weight:bolder"">-3</p>","","0","instructions","","","","","","","","","","",""
"learning-instructions","67","404542","0.0-9.0-1.0-0.7","4098","1","14","Female","approach_avoid_spark_v1","""event"",""trial"",""time""
""fullscreenenter"",""1"",""4411""
","
","
","""event"",""trial"",""time""
""fullscreenenter"",""1"",""4411""
","
","","","","","","610.2999999523163","<p> Some pieces of furniture will make her feel very happy or very annoyed. </p><p> These pieces of furniture will make you win or lose LOTS of points. </p><p> Other pieces of furniture will only make her feel a little happy or a little annoyed. </p><p> These pieces of furniture will make you win or lose small amounts of points. </p>","","0","instructions","","","","","","","","","","",""
"learning-instructions","68","417939","0.0-9.0-1.0-0.8","4098","1","14","Female","approach_avoid_spark_v1","""event"",""trial"",""time""
""fullscreenenter"",""1"",""4411""
","
","
","""event"",""trial"",""time""
""fullscreenenter"",""1"",""4411""
","
","","","","","","601.3999999761581","<p> If you choose to deliver a piece of furniture elsewhere, you will not win or lose any points. </p><p>  However, in the center of the screen, you will see the number of points you WOULD HAVE won or lost if you had given the furniture to your friend. </p>","","0","instructions","","","","","","","","","","",""
"learning-instructions","69","429873","0.0-9.0-1.0-0.9","4098","1","14","Female","approach_avoid_spark_v1","""event"",""trial"",""time""
""fullscreenenter"",""1"",""4411""
","
","
","""event"",""trial"",""time""
""fullscreenenter"",""1"",""4411""
","
","","","","","","480.1999999284744","<p> Here is what you might see if you did not give a piece of furniture to your friend that would have made her happy: </p><p style=""color:grey; font-size:50px; display: inline-block; border-spacing: 15px; border-width:3px; border-style:solid; border-color:red"">  &nbsp; 6 &nbsp; </p><p> Remember, in this case, you would not win or lose ANY points because you did not give her the furniture.  </p>","","0","instructions","","","","","","","","","","",""
"learning-instructions","70","437814","0.0-9.0-1.0-0.10","4098","1","14","Female","approach_avoid_spark_v1","""event"",""trial"",""time""
""fullscreenenter"",""1"",""4411""
","
","
","""event"",""trial"",""time""
""fullscreenenter"",""1"",""4411""
","
","","","","","","451.39999997615814","<p> Try to make the best choice for each piece of furniture because </p><p> at the end of the game, you will earn bonus money based on how many points you earned. </p>","","0","instructions","","","","","","","","","","",""
"learning-instructions","71","446479","0.0-9.0-1.0-0.11","4098","1","14","Female","approach_avoid_spark_v1","""event"",""trial"",""time""
""fullscreenenter"",""1"",""4411""
","
","
","""event"",""trial"",""time""
""fullscreenenter"",""1"",""4411""
","
","","","","","","437.7999999523163","<p> You will have 3 seconds to make each choice. Try to respond before time runs out! </p><p> You will lose 5 points each time you do not make a response. </p>","","0","instructions","","","","","","","","","","",""
"html-keyboard-response","72","447111","0.0-9.0-2.0-0.0","4098","1","14","Female","approach_avoid_spark_v1","""event"",""trial"",""time""
""fullscreenenter"",""1"",""4411""
","
","
","""event"",""trial"",""time""
""fullscreenenter"",""1"",""4411""
","
","","","","","","null","<div style=""font-size:60px;"">+</div>","null","","fixation","","","","","","","","","","",""
"aa-learning-trial","73","450123","0.0-9.0-2.0-1.0","4098","1","14","Female","approach_avoid_spark_v1","""event"",""trial"",""time""
""fullscreenenter"",""1"",""4411""
","
","
","""event"",""trial"",""time""
""fullscreenenter"",""1"",""4411""
","
","","","","","","1310.0999999046326","images/bed6.png","","","learning","1","1","1","1","bed","furniture","1","0","","neutral","0"
"html-keyboard-response","74","450636","0.0-9.0-2.0-0.1","4098","1","14","Female","approach_avoid_spark_v1","""event"",""trial"",""time""
""fullscreenenter"",""1"",""4411""
","
","
","""event"",""trial"",""time""
""fullscreenenter"",""1"",""4411""
","
","","","","","","null","<div style=""font-size:60px;"">+</div>","null","","fixation","","","","","","","","","","",""
"aa-learning-trial","75","453652","0.0-9.0-2.0-1.1","4098","1","14","Female","approach_avoid_spark_v1","""event"",""trial"",""time""
""fullscreenenter"",""1"",""4411""
","
","
","""event"",""trial"",""time""
""fullscreenenter"",""1"",""4411""
","
","","","","","","1084.1000000238419","images/table7.png","","","learning","-5","-5","1","1","table","furniture","1","0","","bad","[-4]"
"html-keyboard-response","76","454165","0.0-9.0-2.0-0.2","4098","1","14","Female","approach_avoid_spark_v1","""event"",""trial"",""time""
""fullscreenenter"",""1"",""4411""
","
","
","""event"",""trial"",""time""
""fullscreenenter"",""1"",""4411""
","
","","","","","","null","<div style=""font-size:60px;"">+</div>","null","","fixation","","","","","","","","","","",""
"aa-learning-trial","77","457181","0.0-9.0-2.0-1.2","4098","1","14","Female","approach_avoid_spark_v1","""event"",""trial"",""time""
""fullscreenenter"",""1"",""4411""
","
","
","""event"",""trial"",""time""
""fullscreenenter"",""1"",""4411""
","
","","","","","","1217.8999999761581","images/bed5.png","","","learning","-1","-1","1","1","bed","furniture","1","0","","neutral","0"
"html-keyboard-response","78","457688","0.0-9.0-2.0-0.3","4098","1","14","Female","approach_avoid_spark_v1","""event"",""trial"",""time""
""fullscreenenter"",""1"",""4411""
","
","
","""event"",""trial"",""time""
""fullscreenenter"",""1"",""4411""
","
","","","","","","null","<div style=""font-size:60px;"">+</div>","null","","fixation","","","","","","","","","","",""
"aa-learning-trial","79","460703","0.0-9.0-2.0-1.3","4098","1","14","Female","approach_avoid_spark_v1","""event"",""trial"",""time""
""fullscreenenter"",""1"",""4411""
","
","
","""event"",""trial"",""time""
""fullscreenenter"",""1"",""4411""
","
","","","","","","1594","images/table1.png","","","learning","-5","-5","1","1","table","furniture","1","0","","bad","[-4]"
"html-keyboard-response","80","461219","0.0-9.0-2.0-0.4","4098","1","14","Female","approach_avoid_spark_v1","""event"",""trial"",""time""
""fullscreenenter"",""1"",""4411""
","
","
","""event"",""trial"",""time""
""fullscreenenter"",""1"",""4411""
","
","","","","","","null","<div style=""font-size:60px;"">+</div>","null","","fixation","","","","","","","","","","",""
"aa-learning-trial","81","464260","0.0-9.0-2.0-1.4","4098","1","14","Female","approach_avoid_spark_v1","""event"",""trial"",""time""
""fullscreenenter"",""1"",""4411""
","
","
","""event"",""trial"",""time""
""fullscreenenter"",""1"",""4411""
","
","","","","","","642.7999999523163","images/sofa7.png","","","learning","4","4","1","1","sofa","furniture","1","0","","good","[4]"
"html-keyboard-response","82","464782","0.0-9.0-2.0-0.5","4098","1","14","Female","approach_avoid_spark_v1","""event"",""trial"",""time""
""fullscreenenter"",""1"",""4411""
","
","
","""event"",""trial"",""time""
""fullscreenenter"",""1"",""4411""
","
","","","","","","null","<div style=""font-size:60px;"">+</div>","null","","fixation","","","","","","","","","","",""
"aa-learning-trial","83","467825","0.0-9.0-2.0-1.5","4098","1","14","Female","approach_avoid_spark_v1","""event"",""trial"",""time""
""fullscreenenter"",""1"",""4411""
","
","
","""event"",""trial"",""time""
""fullscreenenter"",""1"",""4411""
","
","","","","","","913.8999999761581","images/table7.png","","","learning","-3","0","0","0","table","furniture","1","0","","bad","[-4]"
"html-keyboard-response","84","468371","0.0-9.0-2.0-0.6","4098","1","14","Female","approach_avoid_spark_v1","""event"",""trial"",""time""
""fullscreenenter"",""1"",""4411""
","
","
","""event"",""trial"",""time""
""fullscreenenter"",""1"",""4411""
","
","","","","","","null","<div style=""font-size:60px;"">+</div>","null","","fixation","","","","","","","","","","",""
"aa-learning-trial","85","471391","0.0-9.0-2.0-1.6","4098","1","14","Female","approach_avoid_spark_v1","""event"",""trial"",""time""
""fullscreenenter"",""1"",""4411""
","
","
","""event"",""trial"",""time""
""fullscreenenter"",""1"",""4411""
","
","","","","","","1095.7999999523163","images/bed2.png","","","learning","[1]","1","1","1","bed","furniture","1","0","","neutral","0"
"html-keyboard-response","86","471906","0.0-9.0-2.0-0.7","4098","1","14","Female","approach_avoid_spark_v1","""event"",""trial"",""time""
""fullscreenenter"",""1"",""4411""
","
","
","""event"",""trial"",""time""
""fullscreenenter"",""1"",""4411""
","
","","","","","","null","<div style=""font-size:60px;"">+</div>","null","","fixation","","","","","","","","","","",""
"aa-learning-trial","87","474944","0.0-9.0-2.0-1.7","4098","1","14","Female","approach_avoid_spark_v1","""event"",""trial"",""time""
""fullscreenenter"",""1"",""4411""
","
","
","""event"",""trial"",""time""
""fullscreenenter"",""1"",""4411""
","
","","","","","","836.5","images/table1.png","","","learning","-3","0","0","0","table","furniture","1","0","","bad","[-4]"
"html-keyboard-response","88","475462","0.0-9.0-2.0-0.8","4098","1","14","Female","approach_avoid_spark_v1","""event"",""trial"",""time""
""fullscreenenter"",""1"",""4411""
","
","
","""event"",""trial"",""time""
""fullscreenenter"",""1"",""4411""
","
","","","","","","null","<div style=""font-size:60px;"">+</div>","null","","fixation","","","","","","","","","","",""
"aa-learning-trial","89","478495","0.0-9.0-2.0-1.8","4098","1","14","Female","approach_avoid_spark_v1","""event"",""trial"",""time""
""fullscreenenter"",""1"",""4411""
","
","
","""event"",""trial"",""time""
""fullscreenenter"",""1"",""4411""
","
","","","","","","834.2999999523163","images/sofa2.png","","","learning","4","4","1","1","sofa","furniture","1","0","","good","[4]"
"html-keyboard-response","90","479023","0.0-9.0-2.0-0.9","4098","1","14","Female","approach_avoid_spark_v1","""event"",""trial"",""time""
""fullscreenenter"",""1"",""4411""
","
","
","""event"",""trial"",""time""
""fullscreenenter"",""1"",""4411""
","
","","","","","","null","<div style=""font-size:60px;"">+</div>","null","","fixation","","","","","","","","","","",""
"aa-learning-trial","91","482029","0.0-9.0-2.0-1.9","4098","1","14","Female","approach_avoid_spark_v1","""event"",""trial"",""time""
""fullscreenenter"",""1"",""4411""
","
","
","""event"",""trial"",""time""
""fullscreenenter"",""1"",""4411""
","
","","","","","","992","images/bed6.png","","","learning","1","1","1","1","bed","furniture","1","0","","neutral","0"
"html-keyboard-response","92","482558","0.0-9.0-2.0-0.10","4098","1","14","Female","approach_avoid_spark_v1","""event"",""trial"",""time""
""fullscreenenter"",""1"",""4411""
","
","
","""event"",""trial"",""time""
""fullscreenenter"",""1"",""4411""
","
","","","","","","null","<div style=""font-size:60px;"">+</div>","null","","fixation","","","","","","","","","","",""
"aa-learning-trial","93","485591","0.0-9.0-2.0-1.10","4098","1","14","Female","approach_avoid_spark_v1","""event"",""trial"",""time""
""fullscreenenter"",""1"",""4411""
","
","
","""event"",""trial"",""time""
""fullscreenenter"",""1"",""4411""
","
","","","","","","1298.1999999284744","images/table2.png","","","learning","-3","-3","1","1","table","furniture","1","0","","bad","[-4]"
"html-keyboard-response","94","486126","0.0-9.0-2.0-0.11","4098","1","14","Female","approach_avoid_spark_v1","""event"",""trial"",""time""
""fullscreenenter"",""1"",""4411""
","
","
","""event"",""trial"",""time""
""fullscreenenter"",""1"",""4411""
","
","","","","","","null","<div style=""font-size:60px;"">+</div>","null","","fixation","","","","","","","","","","",""
"aa-learning-trial","95","489132","0.0-9.0-2.0-1.11","4098","1","14","Female","approach_avoid_spark_v1","""event"",""trial"",""time""
""fullscreenenter"",""1"",""4411""
","
","
","""event"",""trial"",""time""
""fullscreenenter"",""1"",""4411""
","
","","","","","","638.5","images/sofa5.png","","","learning","4","4","1","1","sofa","furniture","1","0","","good","[4]"
"html-keyboard-response","96","489662","0.0-9.0-2.0-0.12","4098","1","14","Female","approach_avoid_spark_v1","""event"",""trial"",""time""
""fullscreenenter"",""1"",""4411""
","
","
","""event"",""trial"",""time""
""fullscreenenter"",""1"",""4411""
","
","","","","","","null","<div style=""font-size:60px;"">+</div>","null","","fixation","","","","","","","","","","",""
"aa-learning-trial","97","492668","0.0-9.0-2.0-1.12","4098","1","14","Female","approach_avoid_spark_v1","""event"",""trial"",""time""
""fullscreenenter"",""1"",""4411""
","
","
","""event"",""trial"",""time""
""fullscreenenter"",""1"",""4411""
","
","","","","","","686","images/sofa2.png","","","learning","2","2","1","1","sofa","furniture","1","0","","good","[4]"
"html-keyboard-response","98","493182","0.0-9.0-2.0-0.13","4098","1","14","Female","approach_avoid_spark_v1","""event"",""trial"",""time""
""fullscreenenter"",""1"",""4411""
","
","
","""event"",""trial"",""time""
""fullscreenenter"",""1"",""4411""
","
","","","","","","null","<div style=""font-size:60px;"">+</div>","null","","fixation","","","","","","","","","","",""
"aa-learning-trial","99","496188","0.0-9.0-2.0-1.13","4098","1","14","Female","approach_avoid_spark_v1","""event"",""trial"",""time""
""fullscreenenter"",""1"",""4411""
","
","
","""event"",""trial"",""time""
""fullscreenenter"",""1"",""4411""
","
","","","","","","780","images/bed2.png","","","learning","[1]","1","1","1","bed","furniture","1","0","","neutral","0"
"html-keyboard-response","100","496692","0.0-9.0-2.0-0.14","4098","1","14","Female","approach_avoid_spark_v1","""event"",""trial"",""time""
""fullscreenenter"",""1"",""4411""
","
","
","""event"",""trial"",""time""
""fullscreenenter"",""1"",""4411""
","
","","","","","","null","<div style=""font-size:60px;"">+</div>","null","","fixation","","","","","","","","","","",""
"aa-learning-trial","101","499700","0.0-9.0-2.0-1.14","4098","1","14","Female","approach_avoid_spark_v1","""event"",""trial"",""time""
""fullscreenenter"",""1"",""4411""
","
","
","""event"",""trial"",""time""
""fullscreenenter"",""1"",""4411""
","
","","","","","","655.5","images/sofa5.png","","","learning","5","5","1","1","sofa","furniture","1","0","","good","[4]"
"html-keyboard-response","102","500211","0.0-9.0-2.0-0.15","4098","1","14","Female","approach_avoid_spark_v1","""event"",""trial"",""time""
""fullscreenenter"",""1"",""4411""
","
","
","""event"",""trial"",""time""
""fullscreenenter"",""1"",""4411""
","
","","","","","","null","<div style=""font-size:60px;"">+</div>","null","","fixation","","","","","","","","","","",""
"aa-learning-trial","103","503228","0.0-9.0-2.0-1.15","4098","1","14","Female","approach_avoid_spark_v1","""event"",""trial"",""time""
""fullscreenenter"",""1"",""4411""
","
","
","""event"",""trial"",""time""
""fullscreenenter"",""1"",""4411""
","
","","","","","","627.6000000238419","images/bed6.png","","","learning","[1]","1","1","1","bed","furniture","1","0","","neutral","0"
"html-keyboard-response","104","503742","0.0-9.0-2.0-0.16","4098","1","14","Female","approach_avoid_spark_v1","""event"",""trial"",""time""
""fullscreenenter"",""1"",""4411""
","
","
","""event"",""trial"",""time""
""fullscreenenter"",""1"",""4411""
","
","","","","","","null","<div style=""font-size:60px;"">+</div>","null","","fixation","","","","","","","","","","",""
"aa-learning-trial","105","506774","0.0-9.0-2.0-1.16","4098","1","14","Female","approach_avoid_spark_v1","""event"",""trial"",""time""
""fullscreenenter"",""1"",""4411""
","
","
","""event"",""trial"",""time""
""fullscreenenter"",""1"",""4411""
","
","","","","","","569","images/bed4.png","","","learning","3","3","1","1","bed","furniture","1","0","","neutral","0"
"html-keyboard-response","106","507310","0.0-9.0-2.0-0.17","4098","1","14","Female","approach_avoid_spark_v1","""event"",""trial"",""time""
""fullscreenenter"",""1"",""4411""
","
","
","""event"",""trial"",""time""
""fullscreenenter"",""1"",""4411""
","
","","","","","","null","<div style=""font-size:60px;"">+</div>","null","","fixation","","","","","","","","","","",""
"aa-learning-trial","107","510342","0.0-9.0-2.0-1.17","4098","1","14","Female","approach_avoid_spark_v1","""event"",""trial"",""time""
""fullscreenenter"",""1"",""4411""
","
","
","""event"",""trial"",""time""
""fullscreenenter"",""1"",""4411""
","
","","","","","","682.1000000238419","images/table2.png","","","learning","-3","0","0","0","table","furniture","1","0","","bad","[-4]"
"html-keyboard-response","108","510869","0.0-9.0-2.0-0.18","4098","1","14","Female","approach_avoid_spark_v1","""event"",""trial"",""time""
""fullscreenenter"",""1"",""4411""
","
","
","""event"",""trial"",""time""
""fullscreenenter"",""1"",""4411""
","
","","","","","","null","<div style=""font-size:60px;"">+</div>","null","","fixation","","","","","","","","","","",""
"aa-learning-trial","109","513902","0.0-9.0-2.0-1.18","4098","1","14","Female","approach_avoid_spark_v1","""event"",""trial"",""time""
""fullscreenenter"",""1"",""4411""
","
","
","""event"",""trial"",""time""
""fullscreenenter"",""1"",""4411""
","
","","","","","","583.6000000238419","images/bed2.png","","","learning","1","1","1","1","bed","furniture","1","0","","neutral","0"
"html-keyboard-response","110","514430","0.0-9.0-2.0-0.19","4098","1","14","Female","approach_avoid_spark_v1","""event"",""trial"",""time""
""fullscreenenter"",""1"",""4411""
","
","
","""event"",""trial"",""time""
""fullscreenenter"",""1"",""4411""
","
","","","","","","null","<div style=""font-size:60px;"">+</div>","null","","fixation","","","","","","","","","","",""
"aa-learning-trial","111","517438","0.0-9.0-2.0-1.19","4098","1","14","Female","approach_avoid_spark_v1","""event"",""trial"",""time""
""fullscreenenter"",""1"",""4411""
","
","
","""event"",""trial"",""time""
""fullscreenenter"",""1"",""4411""
","
","","","","","","666.3000000715256","images/sofa4.png","","","learning","5","5","1","1","sofa","furniture","1","0","","good","[4]"
"html-keyboard-response","112","517947","0.0-9.0-2.0-0.20","4098","1","14","Female","approach_avoid_spark_v1","""event"",""trial"",""time""
""fullscreenenter"",""1"",""4411""
","
","
","""event"",""trial"",""time""
""fullscreenenter"",""1"",""4411""
","
","","","","","","null","<div style=""font-size:60px;"">+</div>","null","","fixation","","","","","","","","","","",""
"aa-learning-trial","113","520982","0.0-9.0-2.0-1.20","4098","1","14","Female","approach_avoid_spark_v1","""event"",""trial"",""time""
""fullscreenenter"",""1"",""4411""
","
","
","""event"",""trial"",""time""
""fullscreenenter"",""1"",""4411""
","
","","","","","","682.5","images/table7.png","","","learning","-3","0","0","0","table","furniture","1","0","","bad","[-4]"
"html-keyboard-response","114","521517","0.0-9.0-2.0-0.21","4098","1","14","Female","approach_avoid_spark_v1","""event"",""trial"",""time""
""fullscreenenter"",""1"",""4411""
","
","
","""event"",""trial"",""time""
""fullscreenenter"",""1"",""4411""
","
","","","","","","null","<div style=""font-size:60px;"">+</div>","null","","fixation","","","","","","","","","","",""
"aa-learning-trial","115","524549","0.0-9.0-2.0-1.21","4098","1","14","Female","approach_avoid_spark_v1","""event"",""trial"",""time""
""fullscreenenter"",""1"",""4411""
","
","
","""event"",""trial"",""time""
""fullscreenenter"",""1"",""4411""
","
","","","","","","737.8999999761581","images/table7.png","","","learning","-6","0","0","0","table","furniture","1","0","","bad","[-4]"
"html-keyboard-response","116","525078","0.0-9.0-2.0-0.22","4098","1","14","Female","approach_avoid_spark_v1","""event"",""trial"",""time""
""fullscreenenter"",""1"",""4411""
","
","
","""event"",""trial"",""time""
""fullscreenenter"",""1"",""4411""
","
","","","","","","null","<div style=""font-size:60px;"">+</div>","null","","fixation","","","","","","","","","","",""
"aa-learning-trial","117","528110","0.0-9.0-2.0-1.22","4098","1","14","Female","approach_avoid_spark_v1","""event"",""trial"",""time""
""fullscreenenter"",""1"",""4411""
","
","
","""event"",""trial"",""time""
""fullscreenenter"",""1"",""4411""
","
","","","","","","645.5999999046326","images/sofa5.png","","","learning","4","4","1","1","sofa","furniture","1","0","","good","[4]"
"html-keyboard-response","118","528619","0.0-9.0-2.0-0.23","4098","1","14","Female","approach_avoid_spark_v1","""event"",""trial"",""time""
""fullscreenenter"",""1"",""4411""
","
","
","""event"",""trial"",""time""
""fullscreenenter"",""1"",""4411""
","
","","","","","","null","<div style=""font-size:60px;"">+</div>","null","","fixation","","","","","","","","","","",""
"aa-learning-trial","119","531653","0.0-9.0-2.0-1.23","4098","1","14","Female","approach_avoid_spark_v1","""event"",""trial"",""time""
""fullscreenenter"",""1"",""4411""
","
","
","""event"",""trial"",""time""
""fullscreenenter"",""1"",""4411""
","
","","","","","","586.8999999761581","images/table7.png","","","learning","-4","0","0","0","table","furniture","1","0","","bad","[-4]"
"html-keyboard-response","120","532155","0.0-9.0-2.0-0.24","4098","1","14","Female","approach_avoid_spark_v1","""event"",""trial"",""time""
""fullscreenenter"",""1"",""4411""
","
","
","""event"",""trial"",""time""
""fullscreenenter"",""1"",""4411""
","
","","","","","","null","<div style=""font-size:60px;"">+</div>","null","","fixation","","","","","","","","","","",""
"aa-learning-trial","121","535190","0.0-9.0-2.0-1.24","4098","1","14","Female","approach_avoid_spark_v1","""event"",""trial"",""time""
""fullscreenenter"",""1"",""4411""
","
","
","""event"",""trial"",""time""
""fullscreenenter"",""1"",""4411""
","
","","","","","","657.2999999523163","images/bed5.png","","","learning","[-1]","-1","1","1","bed","furniture","1","0","","neutral","0"
"html-keyboard-response","122","535726","0.0-9.0-2.0-0.25","4098","1","14","Female","approach_avoid_spark_v1","""event"",""trial"",""time""
""fullscreenenter"",""1"",""4411""
","
","
","""event"",""trial"",""time""
""fullscreenenter"",""1"",""4411""
","
","","","","","","null","<div style=""font-size:60px;"">+</div>","null","","fixation","","","","","","","","","","",""
"aa-learning-trial","123","538758","0.0-9.0-2.0-1.25","4098","1","14","Female","approach_avoid_spark_v1","""event"",""trial"",""time""
""fullscreenenter"",""1"",""4411""
","
","
","""event"",""trial"",""time""
""fullscreenenter"",""1"",""4411""
","
","","","","","","734.3999999761581","images/sofa2.png","","","learning","4","4","1","1","sofa","furniture","1","0","","good","[4]"
"html-keyboard-response","124","539267","0.0-9.0-2.0-0.26","4098","1","14","Female","approach_avoid_spark_v1","""event"",""trial"",""time""
""fullscreenenter"",""1"",""4411""
","
","
","""event"",""trial"",""time""
""fullscreenenter"",""1"",""4411""
","
","","","","","","null","<div style=""font-size:60px;"">+</div>","null","","fixation","","","","","","","","","","",""
"aa-learning-trial","125","542302","0.0-9.0-2.0-1.26","4098","1","14","Female","approach_avoid_spark_v1","""event"",""trial"",""time""
""fullscreenenter"",""1"",""4411""
","
","
","""event"",""trial"",""time""
""fullscreenenter"",""1"",""4411""
","
","","","","","","846","images/sofa5.png","","","learning","3","3","1","1","sofa","furniture","1","0","","good","[4]"
"html-keyboard-response","126","542838","0.0-9.0-2.0-0.27","4098","1","14","Female","approach_avoid_spark_v1","""event"",""trial"",""time""
""fullscreenenter"",""1"",""4411""
","
","
","""event"",""trial"",""time""
""fullscreenenter"",""1"",""4411""
","
","","","","","","null","<div style=""font-size:60px;"">+</div>","null","","fixation","","","","","","","","","","",""
"aa-learning-trial","127","545870","0.0-9.0-2.0-1.27","4098","1","14","Female","approach_avoid_spark_v1","""event"",""trial"",""time""
""fullscreenenter"",""1"",""4411""
","
","
","""event"",""trial"",""time""
""fullscreenenter"",""1"",""4411""
","
","","","","","","640.7000000476837","images/bed2.png","","","learning","2","2","1","1","bed","furniture","1","0","","neutral","0"
"html-keyboard-response","128","546405","0.0-9.0-2.0-0.28","4098","1","14","Female","approach_avoid_spark_v1","""event"",""trial"",""time""
""fullscreenenter"",""1"",""4411""
","
","
","""event"",""trial"",""time""
""fullscreenenter"",""1"",""4411""
","
","","","","","","null","<div style=""font-size:60px;"">+</div>","null","","fixation","","","","","","","","","","",""
"aa-learning-trial","129","549412","0.0-9.0-2.0-1.28","4098","1","14","Female","approach_avoid_spark_v1","""event"",""trial"",""time""
""fullscreenenter"",""1"",""4411""
","
","
","""event"",""trial"",""time""
""fullscreenenter"",""1"",""4411""
","
","","","","","","592.3999999761581","images/bed6.png","","","learning","-2","-2","1","1","bed","furniture","1","0","","neutral","0"
"html-keyboard-response","130","549941","0.0-9.0-2.0-0.29","4098","1","14","Female","approach_avoid_spark_v1","""event"",""trial"",""time""
""fullscreenenter"",""1"",""4411""
","
","
","""event"",""trial"",""time""
""fullscreenenter"",""1"",""4411""
","
","","","","","","null","<div style=""font-size:60px;"">+</div>","null","","fixation","","","","","","","","","","",""
"aa-learning-trial","131","552973","0.0-9.0-2.0-1.29","4098","1","14","Female","approach_avoid_spark_v1","""event"",""trial"",""time""
""fullscreenenter"",""1"",""4411""
","
","
","""event"",""trial"",""time""
""fullscreenenter"",""1"",""4411""
","
","","","","","","1026.2000000476837","images/bed2.png","","","learning","-1","-1","1","1","bed","furniture","1","0","","neutral","0"
"html-keyboard-response","132","553501","0.0-9.0-2.0-0.30","4098","1","14","Female","approach_avoid_spark_v1","""event"",""trial"",""time""
""fullscreenenter"",""1"",""4411""
","
","
","""event"",""trial"",""time""
""fullscreenenter"",""1"",""4411""
","
","","","","","","null","<div style=""font-size:60px;"">+</div>","null","","fixation","","","","","","","","","","",""
"aa-learning-trial","133","556534","0.0-9.0-2.0-1.30","4098","1","14","Female","approach_avoid_spark_v1","""event"",""trial"",""time""
""fullscreenenter"",""1"",""4411""
","
","
","""event"",""trial"",""time""
""fullscreenenter"",""1"",""4411""
","
","","","","","","680.8000000715256","images/sofa2.png","","","learning","4","4","1","1","sofa","furniture","1","0","","good","[4]"
"html-keyboard-response","134","557069","0.0-9.0-2.0-0.31","4098","1","14","Female","approach_avoid_spark_v1","""event"",""trial"",""time""
""fullscreenenter"",""1"",""4411""
","
","
","""event"",""trial"",""time""
""fullscreenenter"",""1"",""4411""
","
","","","","","","null","<div style=""font-size:60px;"">+</div>","null","","fixation","","","","","","","","","","",""
"aa-learning-trial","135","560080","0.0-9.0-2.0-1.31","4098","1","14","Female","approach_avoid_spark_v1","""event"",""trial"",""time""
""fullscreenenter"",""1"",""4411""
","
","
","""event"",""trial"",""time""
""fullscreenenter"",""1"",""4411""
","
","","","","","","887.5","images/sofa5.png","","","learning","3","3","1","1","sofa","furniture","1","0","","good","[4]"
"html-keyboard-response","136","560588","0.0-9.0-2.0-0.32","4098","1","14","Female","approach_avoid_spark_v1","""event"",""trial"",""time""
""fullscreenenter"",""1"",""4411""
","
","
","""event"",""trial"",""time""
""fullscreenenter"",""1"",""4411""
","
","","","","","","null","<div style=""font-size:60px;"">+</div>","null","","fixation","","","","","","","","","","",""
"aa-learning-trial","137","563593","0.0-9.0-2.0-1.32","4098","1","14","Female","approach_avoid_spark_v1","""event"",""trial"",""time""
""fullscreenenter"",""1"",""4411""
","
","
","""event"",""trial"",""time""
""fullscreenenter"",""1"",""4411""
","
","","","","","","568.8999999761581","images/sofa2.png","","","learning","2","2","1","1","sofa","furniture","1","0","","good","[4]"
"html-keyboard-response","138","564100","0.0-9.0-2.0-0.33","4098","1","14","Female","approach_avoid_spark_v1","""event"",""trial"",""time""
""fullscreenenter"",""1"",""4411""
","
","
","""event"",""trial"",""time""
""fullscreenenter"",""1"",""4411""
","
","","","","","","null","<div style=""font-size:60px;"">+</div>","null","","fixation","","","","","","","","","","",""
"aa-learning-trial","139","567108","0.0-9.0-2.0-1.33","4098","1","14","Female","approach_avoid_spark_v1","""event"",""trial"",""time""
""fullscreenenter"",""1"",""4411""
","
","
","""event"",""trial"",""time""
""fullscreenenter"",""1"",""4411""
","
","","","","","","952.6999999284744","images/table4.png","","","learning","-6","0","0","0","table","furniture","1","0","","bad","[-4]"
"html-keyboard-response","140","567612","0.0-9.0-2.0-0.34","4098","1","14","Female","approach_avoid_spark_v1","""event"",""trial"",""time""
""fullscreenenter"",""1"",""4411""
","
","
","""event"",""trial"",""time""
""fullscreenenter"",""1"",""4411""
","
","","","","","","null","<div style=""font-size:60px;"">+</div>","null","","fixation","","","","","","","","","","",""
"aa-learning-trial","141","570646","0.0-9.0-2.0-1.34","4098","1","14","Female","approach_avoid_spark_v1","""event"",""trial"",""time""
""fullscreenenter"",""1"",""4411""
","
","
","""event"",""trial"",""time""
""fullscreenenter"",""1"",""4411""
","
","","","","","","504.5","images/sofa2.png","","","learning","5","5","1","1","sofa","furniture","1","0","","good","[4]"
"html-keyboard-response","142","571182","0.0-9.0-2.0-0.35","4098","1","14","Female","approach_avoid_spark_v1","""event"",""trial"",""time""
""fullscreenenter"",""1"",""4411""
","
","
","""event"",""trial"",""time""
""fullscreenenter"",""1"",""4411""
","
","","","","","","null","<div style=""font-size:60px;"">+</div>","null","","fixation","","","","","","","","","","",""
"aa-learning-trial","143","574215","0.0-9.0-2.0-1.35","4098","1","14","Female","approach_avoid_spark_v1","""event"",""trial"",""time""
""fullscreenenter"",""1"",""4411""
","
","
","""event"",""trial"",""time""
""fullscreenenter"",""1"",""4411""
","
","","","","","","548.1000000238419","images/table1.png","","","learning","-4","0","0","0","table","furniture","1","0","","bad","[-4]"
"html-keyboard-response","144","574750","0.0-9.0-2.0-0.36","4098","1","14","Female","approach_avoid_spark_v1","""event"",""trial"",""time""
""fullscreenenter"",""1"",""4411""
","
","
","""event"",""trial"",""time""
""fullscreenenter"",""1"",""4411""
","
","","","","","","null","<div style=""font-size:60px;"">+</div>","null","","fixation","","","","","","","","","","",""
"aa-learning-trial","145","577756","0.0-9.0-2.0-1.36","4098","1","14","Female","approach_avoid_spark_v1","""event"",""trial"",""time""
""fullscreenenter"",""1"",""4411""
","
","
","""event"",""trial"",""time""
""fullscreenenter"",""1"",""4411""
","
","","","","","","1052.1000000238419","images/table8.png","","","learning","-5","0","0","0","table","furniture","1","0","","bad","[-4]"
"html-keyboard-response","146","578260","0.0-9.0-2.0-0.37","4098","1","14","Female","approach_avoid_spark_v1","""event"",""trial"",""time""
""fullscreenenter"",""1"",""4411""
","
","
","""event"",""trial"",""time""
""fullscreenenter"",""1"",""4411""
","
","","","","","","null","<div style=""font-size:60px;"">+</div>","null","","fixation","","","","","","","","","","",""
"aa-learning-trial","147","581278","0.0-9.0-2.0-1.37","4098","1","14","Female","approach_avoid_spark_v1","""event"",""trial"",""time""
""fullscreenenter"",""1"",""4411""
","
","
","""event"",""trial"",""time""
""fullscreenenter"",""1"",""4411""
","
","","","","","","602.1999999284744","images/table2.png","","","learning","-4","0","0","0","table","furniture","1","0","","bad","[-4]"
"html-keyboard-response","148","581788","0.0-9.0-2.0-0.38","4098","1","14","Female","approach_avoid_spark_v1","""event"",""trial"",""time""
""fullscreenenter"",""1"",""4411""
","
","
","""event"",""trial"",""time""
""fullscreenenter"",""1"",""4411""
","
","","","","","","null","<div style=""font-size:60px;"">+</div>","null","","fixation","","","","","","","","","","",""
"aa-learning-trial","149","584821","0.0-9.0-2.0-1.38","4098","1","14","Female","approach_avoid_spark_v1","""event"",""trial"",""time""
""fullscreenenter"",""1"",""4411""
","
","
","""event"",""trial"",""time""
""fullscreenenter"",""1"",""4411""
","
","","","","","","821.8999999761581","images/bed3.png","","","learning","3","3","1","1","bed","furniture","1","0","","neutral","0"
"html-keyboard-response","150","585351","0.0-9.0-2.0-0.39","4098","1","14","Female","approach_avoid_spark_v1","""event"",""trial"",""time""
""fullscreenenter"",""1"",""4411""
","
","
","""event"",""trial"",""time""
""fullscreenenter"",""1"",""4411""
","
","","","","","","null","<div style=""font-size:60px;"">+</div>","null","","fixation","","","","","","","","","","",""
"aa-learning-trial","151","588383","0.0-9.0-2.0-1.39","4098","1","14","Female","approach_avoid_spark_v1","""event"",""trial"",""time""
""fullscreenenter"",""1"",""4411""
","
","
","""event"",""trial"",""time""
""fullscreenenter"",""1"",""4411""
","
","","","","","","665.2999999523163","images/sofa1.png","","","learning","4","4","1","1","sofa","furniture","1","0","","good","[4]"
"html-keyboard-response","152","588917","0.0-9.0-2.0-0.40","4098","1","14","Female","approach_avoid_spark_v1","""event"",""trial"",""time""
""fullscreenenter"",""1"",""4411""
","
","
","""event"",""trial"",""time""
""fullscreenenter"",""1"",""4411""
","
","","","","","","null","<div style=""font-size:60px;"">+</div>","null","","fixation","","","","","","","","","","",""
"aa-learning-trial","153","591950","0.0-9.0-2.0-1.40","4098","1","14","Female","approach_avoid_spark_v1","""event"",""trial"",""time""
""fullscreenenter"",""1"",""4411""
","
","
","""event"",""trial"",""time""
""fullscreenenter"",""1"",""4411""
","
","","","","","","611.5","images/table1.png","","","learning","-3","0","0","0","table","furniture","1","0","","bad","[-4]"
"html-keyboard-response","154","592487","0.0-9.0-2.0-0.41","4098","1","14","Female","approach_avoid_spark_v1","""event"",""trial"",""time""
""fullscreenenter"",""1"",""4411""
","
","
","""event"",""trial"",""time""
""fullscreenenter"",""1"",""4411""
","
","","","","","","null","<div style=""font-size:60px;"">+</div>","null","","fixation","","","","","","","","","","",""
"aa-learning-trial","155","595491","0.0-9.0-2.0-1.41","4098","1","14","Female","approach_avoid_spark_v1","""event"",""trial"",""time""
""fullscreenenter"",""1"",""4411""
","
","
","""event"",""trial"",""time""
""fullscreenenter"",""1"",""4411""
","
","","","","","","548.5","images/bed2.png","","","learning","-1","-1","1","1","bed","furniture","1","0","","neutral","0"
"html-keyboard-response","156","596021","0.0-9.0-2.0-0.42","4098","1","14","Female","approach_avoid_spark_v1","""event"",""trial"",""time""
""fullscreenenter"",""1"",""4411""
","
","
","""event"",""trial"",""time""
""fullscreenenter"",""1"",""4411""
","
","","","","","","null","<div style=""font-size:60px;"">+</div>","null","","fixation","","","","","","","","","","",""
"aa-learning-trial","157","599053","0.0-9.0-2.0-1.42","4098","1","14","Female","approach_avoid_spark_v1","""event"",""trial"",""time""
""fullscreenenter"",""1"",""4411""
","
","
","""event"",""trial"",""time""
""fullscreenenter"",""1"",""4411""
","
","","","","","","648.5","images/sofa5.png","","","learning","3","3","1","1","sofa","furniture","1","0","","good","[4]"
"html-keyboard-response","158","599583","0.0-9.0-2.0-0.43","4098","1","14","Female","approach_avoid_spark_v1","""event"",""trial"",""time""
""fullscreenenter"",""1"",""4411""
","
","
","""event"",""trial"",""time""
""fullscreenenter"",""1"",""4411""
","
","","","","","","null","<div style=""font-size:60px;"">+</div>","null","","fixation","","","","","","","","","","",""
"aa-learning-trial","159","602615","0.0-9.0-2.0-1.43","4098","1","14","Female","approach_avoid_spark_v1","""event"",""trial"",""time""
""fullscreenenter"",""1"",""4411""
","
","
","""event"",""trial"",""time""
""fullscreenenter"",""1"",""4411""
","
","","","","","","1040.3999999761581","images/bed6.png","","","learning","2","2","1","1","bed","furniture","1","0","","neutral","0"
"html-keyboard-response","160","603150","0.0-9.0-2.0-0.44","4098","1","14","Female","approach_avoid_spark_v1","""event"",""trial"",""time""
""fullscreenenter"",""1"",""4411""
","
","
","""event"",""trial"",""time""
""fullscreenenter"",""1"",""4411""
","
","","","","","","null","<div style=""font-size:60px;"">+</div>","null","","fixation","","","","","","","","","","",""
"aa-learning-trial","161","606181","0.0-9.0-2.0-1.44","4098","1","14","Female","approach_avoid_spark_v1","""event"",""trial"",""time""
""fullscreenenter"",""1"",""4411""
","
","
","""event"",""trial"",""time""
""fullscreenenter"",""1"",""4411""
","
","","","","","","631.1000000238419","images/table1.png","","","learning","-6","0","0","0","table","furniture","1","0","","bad","[-4]"
"html-keyboard-response","162","606710","0.0-9.0-2.0-0.45","4098","1","14","Female","approach_avoid_spark_v1","""event"",""trial"",""time""
""fullscreenenter"",""1"",""4411""
","
","
","""event"",""trial"",""time""
""fullscreenenter"",""1"",""4411""
","
","","","","","","null","<div style=""font-size:60px;"">+</div>","null","","fixation","","","","","","","","","","",""
"aa-learning-trial","163","609716","0.0-9.0-2.0-1.45","4098","1","14","Female","approach_avoid_spark_v1","""event"",""trial"",""time""
""fullscreenenter"",""1"",""4411""
","
","
","""event"",""trial"",""time""
""fullscreenenter"",""1"",""4411""
","
","","","","","","596.8999999761581","images/table7.png","","","learning","-5","0","0","0","table","furniture","1","0","","bad","[-4]"
"html-keyboard-response","164","610232","0.0-9.0-2.0-0.46","4098","1","14","Female","approach_avoid_spark_v1","""event"",""trial"",""time""
""fullscreenenter"",""1"",""4411""
","
","
","""event"",""trial"",""time""
""fullscreenenter"",""1"",""4411""
","
","","","","","","null","<div style=""font-size:60px;"">+</div>","null","","fixation","","","","","","","","","","",""
"aa-learning-trial","165","613236","0.0-9.0-2.0-1.46","4098","1","14","Female","approach_avoid_spark_v1","""event"",""trial"",""time""
""fullscreenenter"",""1"",""4411""
","
","
","""event"",""trial"",""time""
""fullscreenenter"",""1"",""4411""
","
","","","","","","628.8999999761581","images/table1.png","","","learning","-2","0","0","0","table","furniture","1","0","","bad","[-4]"
"html-keyboard-response","166","613740","0.0-9.0-2.0-0.47","4098","1","14","Female","approach_avoid_spark_v1","""event"",""trial"",""time""
""fullscreenenter"",""1"",""4411""
","
","
","""event"",""trial"",""time""
""fullscreenenter"",""1"",""4411""
","
","","","","","","null","<div style=""font-size:60px;"">+</div>","null","","fixation","","","","","","","","","","",""
"aa-learning-trial","167","616748","0.0-9.0-2.0-1.47","4098","1","14","Female","approach_avoid_spark_v1","""event"",""trial"",""time""
""fullscreenenter"",""1"",""4411""
","
","
","""event"",""trial"",""time""
""fullscreenenter"",""1"",""4411""
","
","","","","","","845.7000000476837","images/bed6.png","","","learning","-1","-1","1","1","bed","furniture","1","0","","neutral","0"
"html-keyboard-response","168","617252","0.0-9.0-2.0-0.48","4098","1","14","Female","approach_avoid_spark_v1","""event"",""trial"",""time""
""fullscreenenter"",""1"",""4411""
","
","
","""event"",""trial"",""time""
""fullscreenenter"",""1"",""4411""
","
","","","","","","null","<div style=""font-size:60px;"">+</div>","null","","fixation","","","","","","","","","","",""
"aa-learning-trial","169","620260","0.0-9.0-2.0-1.48","4098","1","14","Female","approach_avoid_spark_v1","""event"",""trial"",""time""
""fullscreenenter"",""1"",""4411""
","
","
","""event"",""trial"",""time""
""fullscreenenter"",""1"",""4411""
","
","","","","","","622.9000000953674","images/sofa7.png","","","learning","4","4","1","1","sofa","furniture","1","0","","good","[4]"
"html-keyboard-response","170","620764","0.0-9.0-2.0-0.49","4098","1","14","Female","approach_avoid_spark_v1","""event"",""trial"",""time""
""fullscreenenter"",""1"",""4411""
","
","
","""event"",""trial"",""time""
""fullscreenenter"",""1"",""4411""
","
","","","","","","null","<div style=""font-size:60px;"">+</div>","null","","fixation","","","","","","","","","","",""
"aa-learning-trial","171","623772","0.0-9.0-2.0-1.49","4098","1","14","Female","approach_avoid_spark_v1","""event"",""trial"",""time""
""fullscreenenter"",""1"",""4411""
","
","
","""event"",""trial"",""time""
""fullscreenenter"",""1"",""4411""
","
","","","","","","571","images/sofa7.png","","","learning","4","4","1","1","sofa","furniture","1","0","","good","[4]"
"html-keyboard-response","172","624277","0.0-9.0-2.0-0.50","4098","1","14","Female","approach_avoid_spark_v1","""event"",""trial"",""time""
""fullscreenenter"",""1"",""4411""
","
","
","""event"",""trial"",""time""
""fullscreenenter"",""1"",""4411""
","
","","","","","","null","<div style=""font-size:60px;"">+</div>","null","","fixation","","","","","","","","","","",""
"aa-learning-trial","173","627283","0.0-9.0-2.0-1.50","4098","1","14","Female","approach_avoid_spark_v1","""event"",""trial"",""time""
""fullscreenenter"",""1"",""4411""
","
","
","""event"",""trial"",""time""
""fullscreenenter"",""1"",""4411""
","
","","","","","","640.8000000715256","images/bed5.png","","","learning","-1","-1","1","1","bed","furniture","1","0","","neutral","0"
"html-button-response","174","630653","0.0-9.0-3.0","4098","1","14","Female","approach_avoid_spark_v1","""event"",""trial"",""time""
""fullscreenenter"",""1"",""4411""
","
","
","""event"",""trial"",""time""
""fullscreenenter"",""1"",""4411""
","
","","","","","","3368.7000000476837","<p> You have completed the round! <p> In this round, you earned 59 points! </p>","0","","break","","","","","","","","","","",""
"html-button-response","175","632481","0.0-10.0","4098","1","14","Female","approach_avoid_spark_v1","""event"",""trial"",""time""
""fullscreenenter"",""1"",""4411""
","
","
","""event"",""trial"",""time""
""fullscreenenter"",""1"",""4411""
","
","","","","","","1827.5","<p> Now it's time to play another round. </p>","0","","transition_screen","","","","","","","","","","",""
"preload","176","632598","0.0-11.0-0.0","4098","1","14","Female","approach_avoid_spark_v1","""event"",""trial"",""time""
""fullscreenenter"",""1"",""4411""
","
","
","""event"",""trial"",""time""
""fullscreenenter"",""1"",""4411""
","
","true","false","[]","[]","[]","","","","","","","","","","","","","","","",""
"learning-instructions","177","638026","0.0-11.0-1.0-0.0","4098","1","14","Female","approach_avoid_spark_v1","""event"",""trial"",""time""
""fullscreenenter"",""1"",""4411""
","
","
","""event"",""trial"",""time""
""fullscreenenter"",""1"",""4411""
","
","","","","","","1572.1000000238419","<p> Your goal in this round is to eat tasty fruit. </p></div>","","0","instructions","","","","","","","","","","",""
"learning-instructions","178","648212","0.0-11.0-1.0-0.1","4098","1","14","Female","approach_avoid_spark_v1","""event"",""trial"",""time""
""fullscreenenter"",""1"",""4411""
","
","
","""event"",""trial"",""time""
""fullscreenenter"",""1"",""4411""
","
","","","","","","549","<p> Some of the fruits you will see are tasty. Others are rotten on the inside.  </p><p> On each turn, you will see a fruit.   </p><p> You need to decide whether to eat it or not.  </p>","","0","instructions","","","","","","","","","","",""
"learning-instructions","179","653372","0.0-11.0-1.0-0.2","4098","1","14","Female","approach_avoid_spark_v1","""event"",""trial"",""time""
""fullscreenenter"",""1"",""4411""
","
","
","""event"",""trial"",""time""
""fullscreenenter"",""1"",""4411""
","
","","","","","","408.2000000476837","<p> You can eat the fruit by pressing 1 and choose not to eat it by pressing 0. </p><br><div class=""choice-instructions-grid""> <div class=""choice-option""><img src=""images/approach.png"" class=""choice-option-img"" stage=""instructions"" position=""0"" ><div class=""choice-option-text""> Press ""1."" </div></div><div class=""choice-option""><img src=""images/avoid.png"" class=""choice-option-img"" stage=""instructions"" position=""1"" ><div class=""choice-option-text""> Press ""0."" </div></div>","","0","instructions","","","","","","","","","","",""
"learning-instructions","180","661269","0.0-11.0-1.0-0.3","4098","1","14","Female","approach_avoid_spark_v1","""event"",""trial"",""time""
""fullscreenenter"",""1"",""4411""
","
","
","""event"",""trial"",""time""
""fullscreenenter"",""1"",""4411""
","
","","","","","","664.6000000238419","<p> If you eat the fruit and it was tasty, you will win points! </p><p> But if you eat the fruit and it was rotten, you will lose points. </p>","","0","instructions","","","","","","","","","","",""
"learning-instructions","181","673103","0.0-11.0-1.0-0.4","4098","1","14","Female","approach_avoid_spark_v1","""event"",""trial"",""time""
""fullscreenenter"",""1"",""4411""
","
","
","""event"",""trial"",""time""
""fullscreenenter"",""1"",""4411""
","
","","","","","","614.3000000715256","<p> You will earn points based on how tasty or rotten the fruit was. </p><p> If it was tasty, you will WIN anywhere from 1 - 9 points, </p><p> but if it was rotten, you will LOSE anywhere from 1 - 9 points. </p>","","0","instructions","","","","","","","","","","",""
"learning-instructions","182","680324","0.0-11.0-1.0-0.5","4098","1","14","Female","approach_avoid_spark_v1","""event"",""trial"",""time""
""fullscreenenter"",""1"",""4411""
","
","
","""event"",""trial"",""time""
""fullscreenenter"",""1"",""4411""
","
","","","","","","523.5999999046326","<p> You will see how many points you won or lost in the center of the screen. </p><p> Here is what you would see if you earned 5 points: </p><p style=""color:green;font-size:50px;font-weight:bolder"">5</p>","","0","instructions","","","","","","","","","","",""
"learning-instructions","183","683627","0.0-11.0-1.0-0.6","4098","1","14","Female","approach_avoid_spark_v1","""event"",""trial"",""time""
""fullscreenenter"",""1"",""4411""
","
","
","""event"",""trial"",""time""
""fullscreenenter"",""1"",""4411""
","
","","","","","","443.2999999523163","<p> And here is what you would see if you lost 3 points: </p><p style=""color:red;font-size:50px;font-weight:bolder"">-3</p>","","0","instructions","","","","","","","","","","",""
"learning-instructions","184","698340","0.0-11.0-1.0-0.7","4098","1","14","Female","approach_avoid_spark_v1","""event"",""trial"",""time""
""fullscreenenter"",""1"",""4411""
","
","
","""event"",""trial"",""time""
""fullscreenenter"",""1"",""4411""
","
","","","","","","956.2000000476837","<p> Some fruit is very tasty or very rotten. </p><p> These fruits will make you win or lose LOTS of points. </p><p> Other fruits are only kind of tasty or kind of rotten. </p><p> These fruits will make you win or lose small amounts of points. </p>","","0","instructions","","","","","","","","","","",""
"learning-instructions","185","709359","0.0-11.0-1.0-0.8","4098","1","14","Female","approach_avoid_spark_v1","""event"",""trial"",""time""
""fullscreenenter"",""1"",""4411""
","
","
","""event"",""trial"",""time""
""fullscreenenter"",""1"",""4411""
","
","","","","","","695.2000000476837","<p> If you choose to not eat the fruit, you will not win or lose any points. </p><p>  However, in the center of the screen, you will see the number of points you WOULD HAVE earned if you had eaten the fruit. </p>","","0","instructions","","","","","","","","","","",""
"learning-instructions","186","720074","0.0-11.0-1.0-0.9","4098","1","14","Female","approach_avoid_spark_v1","""event"",""trial"",""time""
""fullscreenenter"",""1"",""4411""
","
","
","""event"",""trial"",""time""
""fullscreenenter"",""1"",""4411""
","
","","","","","","520.2999999523163","<p> Here is what you might see if you did not eat the fruit but the fruit was tasty: </p><p style=""color:grey; font-size:50px; display: inline-block; border-spacing: 15px; border-width:3px; border-style:solid; border-color:red"">  &nbsp; 6 &nbsp; </p><p> Remember, in this case, you would not win or lose ANY points because you did not eat the fruit.  </p>","","0","instructions","","","","","","","","","","",""
"learning-instructions","187","728395","0.0-11.0-1.0-0.10","4098","1","14","Female","approach_avoid_spark_v1","""event"",""trial"",""time""
""fullscreenenter"",""1"",""4411""
","
","
","""event"",""trial"",""time""
""fullscreenenter"",""1"",""4411""
","
","","","","","","559.4000000953674","<p> Try to make the best choice for each fruit because </p><p> at the end of the game, you will earn bonus money based on how many points you earned. </p>","","0","instructions","","","","","","","","","","",""
"learning-instructions","188","737056","0.0-11.0-1.0-0.11","4098","1","14","Female","approach_avoid_spark_v1","""event"",""trial"",""time""
""fullscreenenter"",""1"",""4411""
","
","
","""event"",""trial"",""time""
""fullscreenenter"",""1"",""4411""
","
","","","","","","436.2000000476837","<p> You will have 3 seconds to make each choice. Try to respond before time runs out! </p><p> You will lose 5 points each time you do not make a response. </p>","","0","instructions","","","","","","","","","","",""
"html-keyboard-response","189","737672","0.0-11.0-2.0-0.0","4098","1","14","Female","approach_avoid_spark_v1","""event"",""trial"",""time""
""fullscreenenter"",""1"",""4411""
","
","
","""event"",""trial"",""time""
""fullscreenenter"",""1"",""4411""
","
","","","","","","null","<div style=""font-size:60px;"">+</div>","null","","fixation","","","","","","","","","","",""
"aa-learning-trial","190","740719","0.0-11.0-2.0-1.0","4098","1","14","Female","approach_avoid_spark_v1","""event"",""trial"",""time""
""fullscreenenter"",""1"",""4411""
","
","
","""event"",""trial"",""time""
""fullscreenenter"",""1"",""4411""
","
","","","","","","1209.2000000476837","images/straw3.png","","","learning","3","3","1","1","straw","fruit","2","1","","neutral","0"
"html-keyboard-response","191","741242","0.0-11.0-2.0-0.1","4098","1","14","Female","approach_avoid_spark_v1","""event"",""trial"",""time""
""fullscreenenter"",""1"",""4411""
","
","
","""event"",""trial"",""time""
""fullscreenenter"",""1"",""4411""
","
","","","","","","null","<div style=""font-size:60px;"">+</div>","null","","fixation","","","","","","","","","","",""
"aa-learning-trial","192","744254","0.0-11.0-2.0-1.1","4098","1","14","Female","approach_avoid_spark_v1","""event"",""trial"",""time""
""fullscreenenter"",""1"",""4411""
","
","
","""event"",""trial"",""time""
""fullscreenenter"",""1"",""4411""
","
","","","","","","1006.2999999523163","images/orange1.png","","","learning","-8","-8","1","1","orange","fruit","2","1","","good","[4]"
"html-keyboard-response","193","744770","0.0-11.0-2.0-0.2","4098","1","14","Female","approach_avoid_spark_v1","""event"",""trial"",""time""
""fullscreenenter"",""1"",""4411""
","
","
","""event"",""trial"",""time""
""fullscreenenter"",""1"",""4411""
","
","","","","","","null","<div style=""font-size:60px;"">+</div>","null","","fixation","","","","","","","","","","",""
"aa-learning-trial","194","747791","0.0-11.0-2.0-1.2","4098","1","14","Female","approach_avoid_spark_v1","""event"",""trial"",""time""
""fullscreenenter"",""1"",""4411""
","
","
","""event"",""trial"",""time""
""fullscreenenter"",""1"",""4411""
","
","","","","","","774.9000000953674","images/apple4.png","","","learning","-4","-4","1","1","apple","fruit","2","1","","bad","[-3]"
"html-keyboard-response","195","748310","0.0-11.0-2.0-0.3","4098","1","14","Female","approach_avoid_spark_v1","""event"",""trial"",""time""
""fullscreenenter"",""1"",""4411""
","
","
","""event"",""trial"",""time""
""fullscreenenter"",""1"",""4411""
","
","","","","","","null","<div style=""font-size:60px;"">+</div>","null","","fixation","","","","","","","","","","",""
"aa-learning-trial","196","751327","0.0-11.0-2.0-1.3","4098","1","14","Female","approach_avoid_spark_v1","""event"",""trial"",""time""
""fullscreenenter"",""1"",""4411""
","
","
","""event"",""trial"",""time""
""fullscreenenter"",""1"",""4411""
","
","","","","","","1488.5","images/apple6.png","","","learning","-7","0","0","0","apple","fruit","2","1","","bad","[-3]"
"html-keyboard-response","197","751869","0.0-11.0-2.0-0.4","4098","1","14","Female","approach_avoid_spark_v1","""event"",""trial"",""time""
""fullscreenenter"",""1"",""4411""
","
","
","""event"",""trial"",""time""
""fullscreenenter"",""1"",""4411""
","
","","","","","","null","<div style=""font-size:60px;"">+</div>","null","","fixation","","","","","","","","","","",""
"aa-learning-trial","198","754880","0.0-11.0-2.0-1.4","4098","1","14","Female","approach_avoid_spark_v1","""event"",""trial"",""time""
""fullscreenenter"",""1"",""4411""
","
","
","""event"",""trial"",""time""
""fullscreenenter"",""1"",""4411""
","
","","","","","","848.1000000238419","images/orange7.png","","","learning","5","0","0","0","orange","fruit","2","1","","good","[4]"
"html-keyboard-response","199","755394","0.0-11.0-2.0-0.5","4098","1","14","Female","approach_avoid_spark_v1","""event"",""trial"",""time""
""fullscreenenter"",""1"",""4411""
","
","
","""event"",""trial"",""time""
""fullscreenenter"",""1"",""4411""
","
","","","","","","null","<div style=""font-size:60px;"">+</div>","null","","fixation","","","","","","","","","","",""
"aa-learning-trial","200","758407","0.0-11.0-2.0-1.5","4098","1","14","Female","approach_avoid_spark_v1","""event"",""trial"",""time""
""fullscreenenter"",""1"",""4411""
","
","
","""event"",""trial"",""time""
""fullscreenenter"",""1"",""4411""
","
","","","","","","1184.8000000715256","images/straw3.png","","","learning","3","3","1","1","straw","fruit","2","1","","neutral","0"
"html-keyboard-response","201","758923","0.0-11.0-2.0-0.6","4098","1","14","Female","approach_avoid_spark_v1","""event"",""trial"",""time""
""fullscreenenter"",""1"",""4411""
","
","
","""event"",""trial"",""time""
""fullscreenenter"",""1"",""4411""
","
","","","","","","null","<div style=""font-size:60px;"">+</div>","null","","fixation","","","","","","","","","","",""
"aa-learning-trial","202","761939","0.0-11.0-2.0-1.6","4098","1","14","Female","approach_avoid_spark_v1","""event"",""trial"",""time""
""fullscreenenter"",""1"",""4411""
","
","
","""event"",""trial"",""time""
""fullscreenenter"",""1"",""4411""
","
","","","","","","651.3999999761581","images/straw7.png","","","learning","6","6","1","1","straw","fruit","2","1","","neutral","0"
"html-keyboard-response","203","762455","0.0-11.0-2.0-0.7","4098","1","14","Female","approach_avoid_spark_v1","""event"",""trial"",""time""
""fullscreenenter"",""1"",""4411""
","
","
","""event"",""trial"",""time""
""fullscreenenter"",""1"",""4411""
","
","","","","","","null","<div style=""font-size:60px;"">+</div>","null","","fixation","","","","","","","","","","",""
"aa-learning-trial","204","765472","0.0-11.0-2.0-1.7","4098","1","14","Female","approach_avoid_spark_v1","""event"",""trial"",""time""
""fullscreenenter"",""1"",""4411""
","
","
","""event"",""trial"",""time""
""fullscreenenter"",""1"",""4411""
","
","","","","","","1077","images/apple3.png","","","learning","4","4","1","1","apple","fruit","2","1","","bad","[-3]"
"html-keyboard-response","205","766012","0.0-11.0-2.0-0.8","4098","1","14","Female","approach_avoid_spark_v1","""event"",""trial"",""time""
""fullscreenenter"",""1"",""4411""
","
","
","""event"",""trial"",""time""
""fullscreenenter"",""1"",""4411""
","
","","","","","","null","<div style=""font-size:60px;"">+</div>","null","","fixation","","","","","","","","","","",""
"aa-learning-trial","206","769030","0.0-11.0-2.0-1.8","4098","1","14","Female","approach_avoid_spark_v1","""event"",""trial"",""time""
""fullscreenenter"",""1"",""4411""
","
","
","""event"",""trial"",""time""
""fullscreenenter"",""1"",""4411""
","
","","","","","","697.7000000476837","images/apple6.png","","","learning","-7","0","0","0","apple","fruit","2","1","","bad","[-3]"
"html-keyboard-response","207","769565","0.0-11.0-2.0-0.9","4098","1","14","Female","approach_avoid_spark_v1","""event"",""trial"",""time""
""fullscreenenter"",""1"",""4411""
","
","
","""event"",""trial"",""time""
""fullscreenenter"",""1"",""4411""
","
","","","","","","null","<div style=""font-size:60px;"">+</div>","null","","fixation","","","","","","","","","","",""
"aa-learning-trial","208","772598","0.0-11.0-2.0-1.9","4098","1","14","Female","approach_avoid_spark_v1","""event"",""trial"",""time""
""fullscreenenter"",""1"",""4411""
","
","
","""event"",""trial"",""time""
""fullscreenenter"",""1"",""4411""
","
","","","","","","993","images/orange4.png","","","learning","-3","0","0","0","orange","fruit","2","1","","good","[4]"
"html-keyboard-response","209","773107","0.0-11.0-2.0-0.10","4098","1","14","Female","approach_avoid_spark_v1","""event"",""trial"",""time""
""fullscreenenter"",""1"",""4411""
","
","
","""event"",""trial"",""time""
""fullscreenenter"",""1"",""4411""
","
","","","","","","null","<div style=""font-size:60px;"">+</div>","null","","fixation","","","","","","","","","","",""
"aa-learning-trial","210","776141","0.0-11.0-2.0-1.10","4098","1","14","Female","approach_avoid_spark_v1","""event"",""trial"",""time""
""fullscreenenter"",""1"",""4411""
","
","
","""event"",""trial"",""time""
""fullscreenenter"",""1"",""4411""
","
","","","","","","741.3000000715256","images/apple3.png","","","learning","4","4","1","1","apple","fruit","2","1","","bad","[-3]"
"html-keyboard-response","211","776643","0.0-11.0-2.0-0.11","4098","1","14","Female","approach_avoid_spark_v1","""event"",""trial"",""time""
""fullscreenenter"",""1"",""4411""
","
","
","""event"",""trial"",""time""
""fullscreenenter"",""1"",""4411""
","
","","","","","","null","<div style=""font-size:60px;"">+</div>","null","","fixation","","","","","","","","","","",""
"aa-learning-trial","212","779678","0.0-11.0-2.0-1.11","4098","1","14","Female","approach_avoid_spark_v1","""event"",""trial"",""time""
""fullscreenenter"",""1"",""4411""
","
","
","""event"",""trial"",""time""
""fullscreenenter"",""1"",""4411""
","
","","","","","","1124","images/orange1.png","","","learning","-8","0","0","0","orange","fruit","2","1","","good","[4]"
"html-keyboard-response","213","780214","0.0-11.0-2.0-0.12","4098","1","14","Female","approach_avoid_spark_v1","""event"",""trial"",""time""
""fullscreenenter"",""1"",""4411""
","
","
","""event"",""trial"",""time""
""fullscreenenter"",""1"",""4411""
","
","","","","","","null","<div style=""font-size:60px;"">+</div>","null","","fixation","","","","","","","","","","",""
"aa-learning-trial","214","783220","0.0-11.0-2.0-1.12","4098","1","14","Female","approach_avoid_spark_v1","""event"",""trial"",""time""
""fullscreenenter"",""1"",""4411""
","
","
","""event"",""trial"",""time""
""fullscreenenter"",""1"",""4411""
","
","","","","","","551.1000000238419","images/straw7.png","","","learning","6","6","1","1","straw","fruit","2","1","","neutral","0"
"html-keyboard-response","215","783723","0.0-11.0-2.0-0.13","4098","1","14","Female","approach_avoid_spark_v1","""event"",""trial"",""time""
""fullscreenenter"",""1"",""4411""
","
","
","""event"",""trial"",""time""
""fullscreenenter"",""1"",""4411""
","
","","","","","","null","<div style=""font-size:60px;"">+</div>","null","","fixation","","","","","","","","","","",""
"aa-learning-trial","216","786774","0.0-11.0-2.0-1.13","4098","1","14","Female","approach_avoid_spark_v1","""event"",""trial"",""time""
""fullscreenenter"",""1"",""4411""
","
","
","""event"",""trial"",""time""
""fullscreenenter"",""1"",""4411""
","
","","","","","","514.8999999761581","images/straw4.png","","","learning","-6","-6","1","1","straw","fruit","2","1","","neutral","0"
"html-keyboard-response","217","787309","0.0-11.0-2.0-0.14","4098","1","14","Female","approach_avoid_spark_v1","""event"",""trial"",""time""
""fullscreenenter"",""1"",""4411""
","
","
","""event"",""trial"",""time""
""fullscreenenter"",""1"",""4411""
","
","","","","","","null","<div style=""font-size:60px;"">+</div>","null","","fixation","","","","","","","","","","",""
"aa-learning-trial","218","790342","0.0-11.0-2.0-1.14","4098","1","14","Female","approach_avoid_spark_v1","""event"",""trial"",""time""
""fullscreenenter"",""1"",""4411""
","
","
","""event"",""trial"",""time""
""fullscreenenter"",""1"",""4411""
","
","","","","","","1250.8000000715256","images/orange7.png","","","learning","5","0","0","0","orange","fruit","2","1","","good","[4]"
"html-keyboard-response","219","790852","0.0-11.0-2.0-0.15","4098","1","14","Female","approach_avoid_spark_v1","""event"",""trial"",""time""
""fullscreenenter"",""1"",""4411""
","
","
","""event"",""trial"",""time""
""fullscreenenter"",""1"",""4411""
","
","","","","","","null","<div style=""font-size:60px;"">+</div>","null","","fixation","","","","","","","","","","",""
"aa-learning-trial","220","793860","0.0-11.0-2.0-1.15","4098","1","14","Female","approach_avoid_spark_v1","""event"",""trial"",""time""
""fullscreenenter"",""1"",""4411""
","
","
","""event"",""trial"",""time""
""fullscreenenter"",""1"",""4411""
","
","","","","","","742.5","images/apple7.png","","","learning","7","7","1","1","apple","fruit","2","1","","bad","[-3]"
"html-keyboard-response","221","794389","0.0-11.0-2.0-0.16","4098","1","14","Female","approach_avoid_spark_v1","""event"",""trial"",""time""
""fullscreenenter"",""1"",""4411""
","
","
","""event"",""trial"",""time""
""fullscreenenter"",""1"",""4411""
","
","","","","","","null","<div style=""font-size:60px;"">+</div>","null","","fixation","","","","","","","","","","",""
"aa-learning-trial","222","797422","0.0-11.0-2.0-1.16","4098","1","14","Female","approach_avoid_spark_v1","""event"",""trial"",""time""
""fullscreenenter"",""1"",""4411""
","
","
","""event"",""trial"",""time""
""fullscreenenter"",""1"",""4411""
","
","","","","","","762.6999999284744","images/apple6.png","","","learning","-7","0","0","0","apple","fruit","2","1","","bad","[-3]"
"html-keyboard-response","223","797933","0.0-11.0-2.0-0.17","4098","1","14","Female","approach_avoid_spark_v1","""event"",""trial"",""time""
""fullscreenenter"",""1"",""4411""
","
","
","""event"",""trial"",""time""
""fullscreenenter"",""1"",""4411""
","
","","","","","","null","<div style=""font-size:60px;"">+</div>","null","","fixation","","","","","","","","","","",""
"aa-learning-trial","224","800965","0.0-11.0-2.0-1.17","4098","1","14","Female","approach_avoid_spark_v1","""event"",""trial"",""time""
""fullscreenenter"",""1"",""4411""
","
","
","""event"",""trial"",""time""
""fullscreenenter"",""1"",""4411""
","
","","","","","","707.2000000476837","images/apple4.png","","","learning","-4","-4","1","1","apple","fruit","2","1","","bad","[-3]"
"html-keyboard-response","225","801468","0.0-11.0-2.0-0.18","4098","1","14","Female","approach_avoid_spark_v1","""event"",""trial"",""time""
""fullscreenenter"",""1"",""4411""
","
","
","""event"",""trial"",""time""
""fullscreenenter"",""1"",""4411""
","
","","","","","","null","<div style=""font-size:60px;"">+</div>","null","","fixation","","","","","","","","","","",""
"aa-learning-trial","226","804503","0.0-11.0-2.0-1.18","4098","1","14","Female","approach_avoid_spark_v1","""event"",""trial"",""time""
""fullscreenenter"",""1"",""4411""
","
","
","""event"",""trial"",""time""
""fullscreenenter"",""1"",""4411""
","
","","","","","","692.7999999523163","images/straw3.png","","","learning","3","3","1","1","straw","fruit","2","1","","neutral","0"
"html-keyboard-response","227","805039","0.0-11.0-2.0-0.19","4098","1","14","Female","approach_avoid_spark_v1","""event"",""trial"",""time""
""fullscreenenter"",""1"",""4411""
","
","
","""event"",""trial"",""time""
""fullscreenenter"",""1"",""4411""
","
","","","","","","null","<div style=""font-size:60px;"">+</div>","null","","fixation","","","","","","","","","","",""
"aa-learning-trial","228","808070","0.0-11.0-2.0-1.19","4098","1","14","Female","approach_avoid_spark_v1","""event"",""trial"",""time""
""fullscreenenter"",""1"",""4411""
","
","
","""event"",""trial"",""time""
""fullscreenenter"",""1"",""4411""
","
","","","","","","726.1999999284744","images/apple3.png","","","learning","4","4","1","1","apple","fruit","2","1","","bad","[-3]"
"html-keyboard-response","229","808580","0.0-11.0-2.0-0.20","4098","1","14","Female","approach_avoid_spark_v1","""event"",""trial"",""time""
""fullscreenenter"",""1"",""4411""
","
","
","""event"",""trial"",""time""
""fullscreenenter"",""1"",""4411""
","
","","","","","","null","<div style=""font-size:60px;"">+</div>","null","","fixation","","","","","","","","","","",""
"aa-learning-trial","230","811614","0.0-11.0-2.0-1.20","4098","1","14","Female","approach_avoid_spark_v1","""event"",""trial"",""time""
""fullscreenenter"",""1"",""4411""
","
","
","""event"",""trial"",""time""
""fullscreenenter"",""1"",""4411""
","
","","","","","","852","images/orange4.png","","","learning","-3","0","0","0","orange","fruit","2","1","","good","[4]"
"html-keyboard-response","231","812151","0.0-11.0-2.0-0.21","4098","1","14","Female","approach_avoid_spark_v1","""event"",""trial"",""time""
""fullscreenenter"",""1"",""4411""
","
","
","""event"",""trial"",""time""
""fullscreenenter"",""1"",""4411""
","
","","","","","","null","<div style=""font-size:60px;"">+</div>","null","","fixation","","","","","","","","","","",""
"aa-learning-trial","232","815182","0.0-11.0-2.0-1.21","4098","1","14","Female","approach_avoid_spark_v1","""event"",""trial"",""time""
""fullscreenenter"",""1"",""4411""
","
","
","""event"",""trial"",""time""
""fullscreenenter"",""1"",""4411""
","
","","","","","","1279.3999999761581","images/orange1.png","","","learning","-8","0","0","0","orange","fruit","2","1","","good","[4]"
"html-keyboard-response","233","815683","0.0-11.0-2.0-0.22","4098","1","14","Female","approach_avoid_spark_v1","""event"",""trial"",""time""
""fullscreenenter"",""1"",""4411""
","
","
","""event"",""trial"",""time""
""fullscreenenter"",""1"",""4411""
","
","","","","","","null","<div style=""font-size:60px;"">+</div>","null","","fixation","","","","","","","","","","",""
"aa-learning-trial","234","818719","0.0-11.0-2.0-1.22","4098","1","14","Female","approach_avoid_spark_v1","""event"",""trial"",""time""
""fullscreenenter"",""1"",""4411""
","
","
","""event"",""trial"",""time""
""fullscreenenter"",""1"",""4411""
","
","","","","","","985.6999999284744","images/orange7.png","","","learning","5","5","1","1","orange","fruit","2","1","","good","[4]"
"html-keyboard-response","235","819253","0.0-11.0-2.0-0.23","4098","1","14","Female","approach_avoid_spark_v1","""event"",""trial"",""time""
""fullscreenenter"",""1"",""4411""
","
","
","""event"",""trial"",""time""
""fullscreenenter"",""1"",""4411""
","
","","","","","","null","<div style=""font-size:60px;"">+</div>","null","","fixation","","","","","","","","","","",""
"aa-learning-trial","236","822286","0.0-11.0-2.0-1.23","4098","1","14","Female","approach_avoid_spark_v1","""event"",""trial"",""time""
""fullscreenenter"",""1"",""4411""
","
","
","""event"",""trial"",""time""
""fullscreenenter"",""1"",""4411""
","
