"trial_type","trial_index","time_elapsed","internal_node_id","subject_id","task_condition","age","gender","task_version","interactions","blur_events","focus_events","fullscreenenter_events","fullscreenexit_events","success","timeout","failed_images","failed_audio","failed_video","rt","stimulus","response","button_pressed","task_part","approach_reward","points","key_press","option_selected","stim_cat","task_block","block_condition","block_number","correct","cat_type","mean_cat_reward"
"pavlovia","0","12","0.0-0.0","3855","2","16","Male","approach_avoid_spark_v1","""event"",""trial"",""time""
""focus"",""0"",""1""
""fullscreenenter"",""1"",""1554""
","
","""event"",""trial"",""time""
""focus"",""0"",""1""
","""event"",""trial"",""time""
""fullscreenenter"",""1"",""1554""
","
","","","","","","","","","","","","","","","","","","","","",""
"fullscreen","1","2350","0.0-1.0","3855","2","16","Male","approach_avoid_spark_v1","""event"",""trial"",""time""
""focus"",""0"",""1""
""fullscreenenter"",""1"",""1554""
","
","""event"",""trial"",""time""
""focus"",""0"",""1""
","""event"",""trial"",""time""
""fullscreenenter"",""1"",""1554""
","
","true","","","","","","","","","","","","","","","","","","","",""
"preload","2","22915","0.0-2.0","3855","2","16","Male","approach_avoid_spark_v1","""event"",""trial"",""time""
""focus"",""0"",""1""
""fullscreenenter"",""1"",""1554""
","
","""event"",""trial"",""time""
""focus"",""0"",""1""
","""event"",""trial"",""time""
""fullscreenenter"",""1"",""1554""
","
","true","false","[]","[]","[]","","","","","","","","","","","","","","","",""
"audio-keyboard-response","3","27446","0.0-3.0","3855","2","16","Male","approach_avoid_spark_v1","""event"",""trial"",""time""
""focus"",""0"",""1""
""fullscreenenter"",""1"",""1554""
","
","""event"",""trial"",""time""
""focus"",""0"",""1""
","""event"",""trial"",""time""
""fullscreenenter"",""1"",""1554""
","
","","","","","","4530.666666666669","audio/beep_loop.wav"," ","","","","","","","","","","","","",""
"audio-button-response","4","30972","0.0-4.0","3855","2","16","Male","approach_avoid_spark_v1","""event"",""trial"",""time""
""focus"",""0"",""1""
""fullscreenenter"",""1"",""1554""
","
","""event"",""trial"",""time""
""focus"",""0"",""1""
","""event"",""trial"",""time""
""fullscreenenter"",""1"",""1554""
","
","","","","","","3528","audio/shark.wav","4","","","","","","","","","","","","",""
"audio-button-response","5","33556","0.0-5.0","3855","2","16","Male","approach_avoid_spark_v1","""event"",""trial"",""time""
""focus"",""0"",""1""
""fullscreenenter"",""1"",""1554""
","
","""event"",""trial"",""time""
""focus"",""0"",""1""
","""event"",""trial"",""time""
""fullscreenenter"",""1"",""1554""
","
","","","","","","1581","audio/turtle.wav","1","","","","","","","","","","","","",""
"preload","6","38839","0.0-6.0","3855","2","16","Male","approach_avoid_spark_v1","""event"",""trial"",""time""
""focus"",""0"",""1""
""fullscreenenter"",""1"",""1554""
","
","""event"",""trial"",""time""
""focus"",""0"",""1""
","""event"",""trial"",""time""
""fullscreenenter"",""1"",""1554""
","
","true","false","[]","[]","[]","","","","","","","","","","","","","","","",""
"html-keyboard-response","7","42245","0.0-7.0","3855","2","16","Male","approach_avoid_spark_v1","""event"",""trial"",""time""
""focus"",""0"",""1""
""fullscreenenter"",""1"",""1554""
","
","""event"",""trial"",""time""
""focus"",""0"",""1""
","""event"",""trial"",""time""
""fullscreenenter"",""1"",""1554""
","
","","","","","","3404","Welcome to the experiment. Press any key to begin and to advance the instructions."," ","","","","","","","","","","","","",""
"learning-instructions","8","50221","0.0-8.0-0.0-0.0","3855","2","16","Male","approach_avoid_spark_v1","""event"",""trial"",""time""
""focus"",""0"",""1""
""fullscreenenter"",""1"",""1554""
","
","""event"",""trial"",""time""
""focus"",""0"",""1""
","""event"",""trial"",""time""
""fullscreenenter"",""1"",""1554""
","
","","","","","","1011","<p> Welcome! Today you are going to play 6 different rounds of a decision-making game. </p><p> Use the mouse to click next to continue. </p>","","0","instructions","","","","","","","","","","",""
"learning-instructions","9","53821","0.0-8.0-0.0-0.1","3855","2","16","Male","approach_avoid_spark_v1","""event"",""trial"",""time""
""focus"",""0"",""1""
""fullscreenenter"",""1"",""1554""
","
","""event"",""trial"",""time""
""focus"",""0"",""1""
","""event"",""trial"",""time""
""fullscreenenter"",""1"",""1554""
","
","","","","","","861","<p> You will start with a practice round to learn the rules. </p>","","0","instructions","","","","","","","","","","",""
"learning-instructions","10","57740","0.0-8.0-0.0-0.2","3855","2","16","Male","approach_avoid_spark_v1","""event"",""trial"",""time""
""focus"",""0"",""1""
""fullscreenenter"",""1"",""1554""
","
","""event"",""trial"",""time""
""focus"",""0"",""1""
","""event"",""trial"",""time""
""fullscreenenter"",""1"",""1554""
","
","","","","","","460","<p> Your goal in this round is to give out sports equipment to kids. </p></div>","","0","instructions","","","","","","","","","","",""
"learning-instructions","11","65820","0.0-8.0-0.0-0.3","3855","2","16","Male","approach_avoid_spark_v1","""event"",""trial"",""time""
""focus"",""0"",""1""
""fullscreenenter"",""1"",""1554""
","
","""event"",""trial"",""time""
""focus"",""0"",""1""
","""event"",""trial"",""time""
""fullscreenenter"",""1"",""1554""
","
","","","","","","521","<p> The kids only like some of the equipment.  </p><p> On each turn, you will see a piece of sports equipment.   </p><p> You need to decide whether to give it to the kids or not.  </p>","","0","instructions","","","","","","","","","","",""
"learning-instructions","12","71708","0.0-8.0-0.0-0.4","3855","2","16","Male","approach_avoid_spark_v1","""event"",""trial"",""time""
""focus"",""0"",""1""
""fullscreenenter"",""1"",""1554""
","
","""event"",""trial"",""time""
""focus"",""0"",""1""
","""event"",""trial"",""time""
""fullscreenenter"",""1"",""1554""
","
","","","","","","1128","<p> You can give them the equipment by pressing 1 and choose not to give it to them by pressing 0. </p><br><div class=""choice-instructions-grid""> <div class=""choice-option""><img src=""images/approach.png"" class=""choice-option-img"" stage=""instructions"" position=""0"" ><div class=""choice-option-text""> Press ""1."" </div></div><div class=""choice-option""><img src=""images/avoid.png"" class=""choice-option-img"" stage=""instructions"" position=""1"" ><div class=""choice-option-text""> Press ""0."" </div></div>","","0","instructions","","","","","","","","","","",""
"learning-instructions","13","79596","0.0-8.0-0.0-0.5","3855","2","16","Male","approach_avoid_spark_v1","""event"",""trial"",""time""
""focus"",""0"",""1""
""fullscreenenter"",""1"",""1554""
","
","""event"",""trial"",""time""
""focus"",""0"",""1""
","""event"",""trial"",""time""
""fullscreenenter"",""1"",""1554""
","
","","","","","","496","<p> If you give them a piece of equipment they like, they will be happy! </p><p> But if you give them a piece of equipment they do not like, they will be sad. </p>","","0","instructions","","","","","","","","","","",""
"learning-instructions","14","91003","0.0-8.0-0.0-0.6","3855","2","16","Male","approach_avoid_spark_v1","""event"",""trial"",""time""
""focus"",""0"",""1""
""fullscreenenter"",""1"",""1554""
","
","""event"",""trial"",""time""
""focus"",""0"",""1""
","""event"",""trial"",""time""
""fullscreenenter"",""1"",""1554""
","
","","","","","","884","<p> You will earn points based on how you make kids feel. </p><p> If you make them happy, you will WIN anywhere from 1 - 9 points, </p><p> but if you make them sad, you will LOSE anywhere from 1 - 9 points. </p>","","0","instructions","","","","","","","","","","",""
"learning-instructions","15","101044","0.0-8.0-0.0-0.7","3855","2","16","Male","approach_avoid_spark_v1","""event"",""trial"",""time""
""focus"",""0"",""1""
""fullscreenenter"",""1"",""1554""
","
","""event"",""trial"",""time""
""focus"",""0"",""1""
","""event"",""trial"",""time""
""fullscreenenter"",""1"",""1554""
","
","","","","","","485","<p> You will see how many points you won or lost in the center of the screen. </p><p> Here is what you would see if you won 6 points: </p><p style=""color:green;font-size:50px;font-weight:bolder"">6</p><p style=""color:green"">The text is GREEN because you WON points.</p>","","0","instructions","","","","","","","","","","",""
"learning-instructions","16","107748","0.0-8.0-0.0-0.8","3855","2","16","Male","approach_avoid_spark_v1","""event"",""trial"",""time""
""focus"",""0"",""1""
""fullscreenenter"",""1"",""1554""
","
","""event"",""trial"",""time""
""focus"",""0"",""1""
","""event"",""trial"",""time""
""fullscreenenter"",""1"",""1554""
","
","","","","","","1199","<p> And here is what you would see if you lost 4 points: </p><p style=""color:red;font-size:50px;font-weight:bolder"">-4</p><p style=""color:red"">The text is RED because you LOST points. </p>","","0","instructions","","","","","","","","","","",""
"learning-instructions","17","123156","0.0-8.0-0.0-0.9","3855","2","16","Male","approach_avoid_spark_v1","""event"",""trial"",""time""
""focus"",""0"",""1""
""fullscreenenter"",""1"",""1554""
","
","""event"",""trial"",""time""
""focus"",""0"",""1""
","""event"",""trial"",""time""
""fullscreenenter"",""1"",""1554""
","
","","","","","","687","<p> Some of the equipment will make the kids VERY happy or sad. </p><p> These pieces of equipment will make you win or lose LOTS of points. </p><p> Other pieces of equipment will only make the kids a little happy or sad. </p><p> These pieces of equipment will make you win or lose small amounts of points. </p>","","0","instructions","","","","","","","","","","",""
"learning-instructions","18","134276","0.0-8.0-0.0-0.10","3855","2","16","Male","approach_avoid_spark_v1","""event"",""trial"",""time""
""focus"",""0"",""1""
""fullscreenenter"",""1"",""1554""
","
","""event"",""trial"",""time""
""focus"",""0"",""1""
","""event"",""trial"",""time""
""fullscreenenter"",""1"",""1554""
","
","","","","","","486","<p> If you choose not to give them the equipment, you will not win or lose any points. </p><p>  However, in the center of the screen, you will see the number of points you WOULD HAVE won or lost if you had given them the equipment. </p>","","0","instructions","","","","","","","","","","",""
"learning-instructions","19","163955","0.0-8.0-0.0-0.11","3855","2","16","Male","approach_avoid_spark_v1","""event"",""trial"",""time""
""focus"",""0"",""1""
""fullscreenenter"",""1"",""1554""
","
","""event"",""trial"",""time""
""focus"",""0"",""1""
","""event"",""trial"",""time""
""fullscreenenter"",""1"",""1554""
","
","","","","","","8157","<p> Here is what you might see if you did not give the equipment to the kids but it would have made them happy: </p><p style=""color:grey; font-size:50px; display: inline-block; border-spacing: 15px; border-width:3px; border-style:solid; border-color:red"">  &nbsp; 7 &nbsp; </p><p> Remember, in this case, you would not win or lose ANY points because you did not give them the equipment.  </p><p style=""color:grey"">The text is GREY because you earned ZERO points. </p><p style=""color:red"">However, choosing to give the kids the equipment would have made you win points. The box around the text is RED because you chose the worse option. </p>","","0","instructions","","","","","","","","","","",""
"learning-instructions","20","185682","0.0-8.0-0.0-0.12","3855","2","16","Male","approach_avoid_spark_v1","""event"",""trial"",""time""
""focus"",""0"",""1""
""fullscreenenter"",""1"",""1554""
","
","""event"",""trial"",""time""
""focus"",""0"",""1""
","""event"",""trial"",""time""
""fullscreenenter"",""1"",""1554""
","
","","","","","","645","<p> Here is what you might see if you did not give the equipment to the kids but it would have made them sad: </p><p style=""color:grey;font-size:50px; display: inline-block; border-spacing: 15px; border-width:3px; border-style:solid; border-color:green"">  &nbsp; -8 &nbsp; </p><p> Remember, in this case, you would not win or lose ANY points because you did not give them the equipment.  </p><p style=""color:grey"">The text is GREY because you earned ZERO points. </p><p  style=""color:green""> Choosing to give the kids the equipment would have made you lose points. The box around the text is GREEN because you chose the better option.</p>","","0","instructions","","","","","","","","","","",""
"learning-instructions","21","195555","0.0-8.0-0.0-0.13","3855","2","16","Male","approach_avoid_spark_v1","""event"",""trial"",""time""
""focus"",""0"",""1""
""fullscreenenter"",""1"",""1554""
","
","""event"",""trial"",""time""
""focus"",""0"",""1""
","""event"",""trial"",""time""
""fullscreenenter"",""1"",""1554""
","
","","","","","","1067","<p> You will have 3 seconds to make each choice. Try to respond before time runs out! </p><p> You will lose 5 points each time you do not make a response. </p>","","0","instructions","","","","","","","","","","",""
"learning-instructions","22","201499","0.0-8.0-0.0-0.14","3855","2","16","Male","approach_avoid_spark_v1","""event"",""trial"",""time""
""focus"",""0"",""1""
""fullscreenenter"",""1"",""1554""
","
","""event"",""trial"",""time""
""focus"",""0"",""1""
","""event"",""trial"",""time""
""fullscreenenter"",""1"",""1554""
","
","","","","","","531","<p> This is just a practice round, but in the real game, your bonus payment will depend on your total number of points.","","0","instructions","","","","","","","","","","",""
"learning-instructions","23","208018","0.0-8.0-0.0-0.15","3855","2","16","Male","approach_avoid_spark_v1","""event"",""trial"",""time""
""focus"",""0"",""1""
""fullscreenenter"",""1"",""1554""
","
","""event"",""trial"",""time""
""focus"",""0"",""1""
","""event"",""trial"",""time""
""fullscreenenter"",""1"",""1554""
","
","","","","","","751","<p> Remember, you can give them the equipment by pressing 1 and choose not to give it to them by pressing 0. </p><br><div class=""choice-instructions-grid""> <div class=""choice-option""><img src=""images/approach.png"" class=""choice-option-img"" stage=""instructions"" position=""0"" ><div class=""choice-option-text""> Press ""1."" </div></div><div class=""choice-option""><img src=""images/avoid.png"" class=""choice-option-img"" stage=""instructions"" position=""1"" ><div class=""choice-option-text""> Press ""0."" </div></div>","","0","instructions","","","","","","","","","","",""
"html-button-response","24","209178","0.0-8.0-1.0","3855","2","16","Male","approach_avoid_spark_v1","""event"",""trial"",""time""
""focus"",""0"",""1""
""fullscreenenter"",""1"",""1554""
","
","""event"",""trial"",""time""
""focus"",""0"",""1""
","""event"",""trial"",""time""
""fullscreenenter"",""1"",""1554""
","
","","","","","","1058","<p> Ready to practice? </p>","0","","","","","","","","","","","","",""
"html-keyboard-response","25","209781","0.0-8.0-2.0-0.0","3855","2","16","Male","approach_avoid_spark_v1","""event"",""trial"",""time""
""focus"",""0"",""1""
""fullscreenenter"",""1"",""1554""
","
","""event"",""trial"",""time""
""focus"",""0"",""1""
","""event"",""trial"",""time""
""fullscreenenter"",""1"",""1554""
","
","","","","","","null","<div style=""font-size:60px;"">+</div>","null","","fixation","","","","","","","","","","",""
"aa-learning-trial","26","212782","0.0-8.0-2.0-1.0","3855","2","16","Male","approach_avoid_spark_v1","""event"",""trial"",""time""
""focus"",""0"",""1""
""fullscreenenter"",""1"",""1554""
","
","""event"",""trial"",""time""
""focus"",""0"",""1""
","""event"",""trial"",""time""
""fullscreenenter"",""1"",""1554""
","
","","","","","","1742","images/racket4.png","","","learning","1","0","0","0","practice","practice","practice","-1","","",""
"html-keyboard-response","27","213284","0.0-8.0-2.0-0.1","3855","2","16","Male","approach_avoid_spark_v1","""event"",""trial"",""time""
""focus"",""0"",""1""
""fullscreenenter"",""1"",""1554""
","
","""event"",""trial"",""time""
""focus"",""0"",""1""
","""event"",""trial"",""time""
""fullscreenenter"",""1"",""1554""
","
","","","","","","null","<div style=""font-size:60px;"">+</div>","null","","fixation","","","","","","","","","","",""
"aa-learning-trial","28","216286","0.0-8.0-2.0-1.1","3855","2","16","Male","approach_avoid_spark_v1","""event"",""trial"",""time""
""focus"",""0"",""1""
""fullscreenenter"",""1"",""1554""
","
","""event"",""trial"",""time""
""focus"",""0"",""1""
","""event"",""trial"",""time""
""fullscreenenter"",""1"",""1554""
","
","","","","","","668","images/ball2.png","","","learning","-9","-9","1","1","practice","practice","practice","-1","","",""
"html-keyboard-response","29","216787","0.0-8.0-2.0-0.2","3855","2","16","Male","approach_avoid_spark_v1","""event"",""trial"",""time""
""focus"",""0"",""1""
""fullscreenenter"",""1"",""1554""
","
","""event"",""trial"",""time""
""focus"",""0"",""1""
","""event"",""trial"",""time""
""fullscreenenter"",""1"",""1554""
","
","","","","","","null","<div style=""font-size:60px;"">+</div>","null","","fixation","","","","","","","","","","",""
"aa-learning-trial","30","219790","0.0-8.0-2.0-1.2","3855","2","16","Male","approach_avoid_spark_v1","""event"",""trial"",""time""
""focus"",""0"",""1""
""fullscreenenter"",""1"",""1554""
","
","""event"",""trial"",""time""
""focus"",""0"",""1""
","""event"",""trial"",""time""
""fullscreenenter"",""1"",""1554""
","
","","","","","","1069","images/ball4.png","","","learning","9","0","0","0","practice","practice","practice","-1","","",""
"html-keyboard-response","31","220292","0.0-8.0-2.0-0.3","3855","2","16","Male","approach_avoid_spark_v1","""event"",""trial"",""time""
""focus"",""0"",""1""
""fullscreenenter"",""1"",""1554""
","
","""event"",""trial"",""time""
""focus"",""0"",""1""
","""event"",""trial"",""time""
""fullscreenenter"",""1"",""1554""
","
","","","","","","null","<div style=""font-size:60px;"">+</div>","null","","fixation","","","","","","","","","","",""
"aa-learning-trial","32","223293","0.0-8.0-2.0-1.3","3855","2","16","Male","approach_avoid_spark_v1","""event"",""trial"",""time""
""focus"",""0"",""1""
""fullscreenenter"",""1"",""1554""
","
","""event"",""trial"",""time""
""focus"",""0"",""1""
","""event"",""trial"",""time""
""fullscreenenter"",""1"",""1554""
","
","","","","","","973","images/ball3.png","","","learning","-8","-8","1","1","practice","practice","practice","-1","","",""
"html-keyboard-response","33","223793","0.0-8.0-2.0-0.4","3855","2","16","Male","approach_avoid_spark_v1","""event"",""trial"",""time""
""focus"",""0"",""1""
""fullscreenenter"",""1"",""1554""
","
","""event"",""trial"",""time""
""focus"",""0"",""1""
","""event"",""trial"",""time""
""fullscreenenter"",""1"",""1554""
","
","","","","","","null","<div style=""font-size:60px;"">+</div>","null","","fixation","","","","","","","","","","",""
"aa-learning-trial","34","226796","0.0-8.0-2.0-1.4","3855","2","16","Male","approach_avoid_spark_v1","""event"",""trial"",""time""
""focus"",""0"",""1""
""fullscreenenter"",""1"",""1554""
","
","""event"",""trial"",""time""
""focus"",""0"",""1""
","""event"",""trial"",""time""
""fullscreenenter"",""1"",""1554""
","
","","","","","","1168","images/ball2.png","","","learning","3","0","0","0","practice","practice","practice","-1","","",""
"html-keyboard-response","35","227297","0.0-8.0-2.0-0.5","3855","2","16","Male","approach_avoid_spark_v1","""event"",""trial"",""time""
""focus"",""0"",""1""
""fullscreenenter"",""1"",""1554""
","
","""event"",""trial"",""time""
""focus"",""0"",""1""
","""event"",""trial"",""time""
""fullscreenenter"",""1"",""1554""
","
","","","","","","null","<div style=""font-size:60px;"">+</div>","null","","fixation","","","","","","","","","","",""
"aa-learning-trial","36","230297","0.0-8.0-2.0-1.5","3855","2","16","Male","approach_avoid_spark_v1","""event"",""trial"",""time""
""focus"",""0"",""1""
""fullscreenenter"",""1"",""1554""
","
","""event"",""trial"",""time""
""focus"",""0"",""1""
","""event"",""trial"",""time""
""fullscreenenter"",""1"",""1554""
","
","","","","","","801","images/racket1.png","","","learning","-2","-2","1","1","practice","practice","practice","-1","","",""
"html-keyboard-response","37","230799","0.0-8.0-2.0-0.6","3855","2","16","Male","approach_avoid_spark_v1","""event"",""trial"",""time""
""focus"",""0"",""1""
""fullscreenenter"",""1"",""1554""
","
","""event"",""trial"",""time""
""focus"",""0"",""1""
","""event"",""trial"",""time""
""fullscreenenter"",""1"",""1554""
","
","","","","","","null","<div style=""font-size:60px;"">+</div>","null","","fixation","","","","","","","","","","",""
"aa-learning-trial","38","233801","0.0-8.0-2.0-1.6","3855","2","16","Male","approach_avoid_spark_v1","""event"",""trial"",""time""
""focus"",""0"",""1""
""fullscreenenter"",""1"",""1554""
","
","""event"",""trial"",""time""
""focus"",""0"",""1""
","""event"",""trial"",""time""
""fullscreenenter"",""1"",""1554""
","
","","","","","","946","images/ball4.png","","","learning","8","8","1","1","practice","practice","practice","-1","","",""
"html-keyboard-response","39","234302","0.0-8.0-2.0-0.7","3855","2","16","Male","approach_avoid_spark_v1","""event"",""trial"",""time""
""focus"",""0"",""1""
""fullscreenenter"",""1"",""1554""
","
","""event"",""trial"",""time""
""focus"",""0"",""1""
","""event"",""trial"",""time""
""fullscreenenter"",""1"",""1554""
","
","","","","","","null","<div style=""font-size:60px;"">+</div>","null","","fixation","","","","","","","","","","",""
"aa-learning-trial","40","237304","0.0-8.0-2.0-1.7","3855","2","16","Male","approach_avoid_spark_v1","""event"",""trial"",""time""
""focus"",""0"",""1""
""fullscreenenter"",""1"",""1554""
","
","""event"",""trial"",""time""
""focus"",""0"",""1""
","""event"",""trial"",""time""
""fullscreenenter"",""1"",""1554""
","
","","","","","","644","images/ball2.png","","","learning","8","8","1","1","practice","practice","practice","-1","","",""
"html-keyboard-response","41","237805","0.0-8.0-2.0-0.8","3855","2","16","Male","approach_avoid_spark_v1","""event"",""trial"",""time""
""focus"",""0"",""1""
""fullscreenenter"",""1"",""1554""
","
","""event"",""trial"",""time""
""focus"",""0"",""1""
","""event"",""trial"",""time""
""fullscreenenter"",""1"",""1554""
","
","","","","","","null","<div style=""font-size:60px;"">+</div>","null","","fixation","","","","","","","","","","",""
"aa-learning-trial","42","240806","0.0-8.0-2.0-1.8","3855","2","16","Male","approach_avoid_spark_v1","""event"",""trial"",""time""
""focus"",""0"",""1""
""fullscreenenter"",""1"",""1554""
","
","""event"",""trial"",""time""
""focus"",""0"",""1""
","""event"",""trial"",""time""
""fullscreenenter"",""1"",""1554""
","
","","","","","","1268","images/ball3.png","","","learning","7","7","1","1","practice","practice","practice","-1","","",""
"html-keyboard-response","43","241308","0.0-8.0-2.0-0.9","3855","2","16","Male","approach_avoid_spark_v1","""event"",""trial"",""time""
""focus"",""0"",""1""
""fullscreenenter"",""1"",""1554""
","
","""event"",""trial"",""time""
""focus"",""0"",""1""
","""event"",""trial"",""time""
""fullscreenenter"",""1"",""1554""
","
","","","","","","null","<div style=""font-size:60px;"">+</div>","null","","fixation","","","","","","","","","","",""
"aa-learning-trial","44","244312","0.0-8.0-2.0-1.9","3855","2","16","Male","approach_avoid_spark_v1","""event"",""trial"",""time""
""focus"",""0"",""1""
""fullscreenenter"",""1"",""1554""
","
","""event"",""trial"",""time""
""focus"",""0"",""1""
","""event"",""trial"",""time""
""fullscreenenter"",""1"",""1554""
","
","","","","","","1141","images/ball1.png","","","learning","5","5","1","1","practice","practice","practice","-1","","",""
"html-keyboard-response","45","244812","0.0-8.0-2.0-0.10","3855","2","16","Male","approach_avoid_spark_v1","""event"",""trial"",""time""
""focus"",""0"",""1""
""fullscreenenter"",""1"",""1554""
","
","""event"",""trial"",""time""
""focus"",""0"",""1""
","""event"",""trial"",""time""
""fullscreenenter"",""1"",""1554""
","
","","","","","","null","<div style=""font-size:60px;"">+</div>","null","","fixation","","","","","","","","","","",""
"aa-learning-trial","46","247815","0.0-8.0-2.0-1.10","3855","2","16","Male","approach_avoid_spark_v1","""event"",""trial"",""time""
""focus"",""0"",""1""
""fullscreenenter"",""1"",""1554""
","
","""event"",""trial"",""time""
""focus"",""0"",""1""
","""event"",""trial"",""time""
""fullscreenenter"",""1"",""1554""
","
","","","","","","629","images/racket3.png","","","learning","7","0","0","0","practice","practice","practice","-1","","",""
"html-keyboard-response","47","248315","0.0-8.0-2.0-0.11","3855","2","16","Male","approach_avoid_spark_v1","""event"",""trial"",""time""
""focus"",""0"",""1""
""fullscreenenter"",""1"",""1554""
","
","""event"",""trial"",""time""
""focus"",""0"",""1""
","""event"",""trial"",""time""
""fullscreenenter"",""1"",""1554""
","
","","","","","","null","<div style=""font-size:60px;"">+</div>","null","","fixation","","","","","","","","","","",""
"aa-learning-trial","48","251319","0.0-8.0-2.0-1.11","3855","2","16","Male","approach_avoid_spark_v1","""event"",""trial"",""time""
""focus"",""0"",""1""
""fullscreenenter"",""1"",""1554""
","
","""event"",""trial"",""time""
""focus"",""0"",""1""
","""event"",""trial"",""time""
""fullscreenenter"",""1"",""1554""
","
","","","","","","917","images/ball4.png","","","learning","-8","-8","1","1","practice","practice","practice","-1","","",""
"html-button-response","49","254074","0.0-8.0-3.0","3855","2","16","Male","approach_avoid_spark_v1","""event"",""trial"",""time""
""focus"",""0"",""1""
""fullscreenenter"",""1"",""1554""
","
","""event"",""trial"",""time""
""focus"",""0"",""1""
","""event"",""trial"",""time""
""fullscreenenter"",""1"",""1554""
","
","","","","","","2753","<p> You earned 1 points in the practice round! </p>","0","","break","","","","","","","","","","",""
"learning-instructions","50","261026","0.0-8.0-4.0-0.0","3855","2","16","Male","approach_avoid_spark_v1","""event"",""trial"",""time""
""focus"",""0"",""1""
""fullscreenenter"",""1"",""1554""
","
","""event"",""trial"",""time""
""focus"",""0"",""1""
","""event"",""trial"",""time""
""fullscreenenter"",""1"",""1554""
","
","","","","","","990","<p> It's almost time to start the real game. </p><p> Before you start, we're going to ask you a few questions about how the game works. </p>","","0","instructions","","","","","","","","","","",""
"preload","51","265208","0.0-8.0-5.0","3855","2","16","Male","approach_avoid_spark_v1","""event"",""trial"",""time""
""focus"",""0"",""1""
""fullscreenenter"",""1"",""1554""
","
","""event"",""trial"",""time""
""focus"",""0"",""1""
","""event"",""trial"",""time""
""fullscreenenter"",""1"",""1554""
","
","true","false","[]","[]","[]","","","","","","","","","","","","","","","",""
"comp-q","52","271466","0.0-8.0-6.0-0.0","3855","2","16","Male","approach_avoid_spark_v1","""event"",""trial"",""time""
""focus"",""0"",""1""
""fullscreenenter"",""1"",""1554""
","
","""event"",""trial"",""time""
""focus"",""0"",""1""
","""event"",""trial"",""time""
""fullscreenenter"",""1"",""1554""
","
","","","","","","1248","<p> <b> True or False? </b> </p><p> If you see a number in GREY, that means you earned that many points. </p>","","1","comp_question","","","","","","","","","true","",""
"comp-q","53","281250","0.0-8.0-6.0-1.0","3855","2","16","Male","approach_avoid_spark_v1","""event"",""trial"",""time""
""focus"",""0"",""1""
""fullscreenenter"",""1"",""1554""
","
","""event"",""trial"",""time""
""focus"",""0"",""1""
","""event"",""trial"",""time""
""fullscreenenter"",""1"",""1554""
","
","","","","","","1413","<p><b> That's right! </b> If you see a grey number, it means you earned ZERO points. <br> The grey numbers show the points you WOULD HAVE earned if you had made the other choice. </p>","","0","comp_answer","","","","","","","","","","",""
"comp-q","54","286586","0.0-8.0-7.0-0.0","3855","2","16","Male","approach_avoid_spark_v1","""event"",""trial"",""time""
""focus"",""0"",""1""
""fullscreenenter"",""1"",""1554""
","
","""event"",""trial"",""time""
""focus"",""0"",""1""
","""event"",""trial"",""time""
""fullscreenenter"",""1"",""1554""
","
","","","","","","638","<p> <b> True or False? </b> </p><p> You will have as much time as you want to make each choice. </p>","","1","comp_question","","","","","","","","","true","",""
"comp-q","55","291585","0.0-8.0-7.0-1.0","3855","2","16","Male","approach_avoid_spark_v1","""event"",""trial"",""time""
""focus"",""0"",""1""
""fullscreenenter"",""1"",""1554""
","
","""event"",""trial"",""time""
""focus"",""0"",""1""
","""event"",""trial"",""time""
""fullscreenenter"",""1"",""1554""
","
","","","","","","949","<p> <b> That's right! </b> You will only have 3 seconds to make each choice. </p>","","0","comp_answer","","","","","","","","","","",""
"comp-q","56","296970","0.0-8.0-8.0-0.0","3855","2","16","Male","approach_avoid_spark_v1","""event"",""trial"",""time""
""focus"",""0"",""1""
""fullscreenenter"",""1"",""1554""
","
","""event"",""trial"",""time""
""focus"",""0"",""1""
","""event"",""trial"",""time""
""fullscreenenter"",""1"",""1554""
","
","","","","","","713","<p> <b> True or False? </b> </p><p> You should use the '1' and '0' keys to make your choices. </p>","","0","comp_question","","","","","","","","","true","",""
"comp-q","57","302505","0.0-8.0-8.0-1.0","3855","2","16","Male","approach_avoid_spark_v1","""event"",""trial"",""time""
""focus"",""0"",""1""
""fullscreenenter"",""1"",""1554""
","
","""event"",""trial"",""time""
""focus"",""0"",""1""
","""event"",""trial"",""time""
""fullscreenenter"",""1"",""1554""
","
","","","","","","919","<p> <b> That's right! </b> You should use the '1' and '0' keys to make each choice. </p>","","0","comp_answer","","","","","","","","","","",""
"learning-instructions","58","309866","0.0-8.0-9.0-0.0","3855","2","16","Male","approach_avoid_spark_v1","""event"",""trial"",""time""
""focus"",""0"",""1""
""fullscreenenter"",""1"",""1554""
","
","""event"",""trial"",""time""
""focus"",""0"",""1""
","""event"",""trial"",""time""
""fullscreenenter"",""1"",""1554""
","
","","","","","","1079","<p> It's now time to start the real game. </p>Do your best, because the points you earn in the next rounds will influence your bonus payment. </p>","","0","instructions","","","","","","","","","","",""
"preload","59","309987","0.0-9.0-0.0","3855","2","16","Male","approach_avoid_spark_v1","""event"",""trial"",""time""
""focus"",""0"",""1""
""fullscreenenter"",""1"",""1554""
","
","""event"",""trial"",""time""
""focus"",""0"",""1""
","""event"",""trial"",""time""
""fullscreenenter"",""1"",""1554""
","
","true","false","[]","[]","[]","","","","","","","","","","","","","","","",""
"learning-instructions","60","316145","0.0-9.0-1.0-0.0","3855","2","16","Male","approach_avoid_spark_v1","""event"",""trial"",""time""
""focus"",""0"",""1""
""fullscreenenter"",""1"",""1554""
","
","""event"",""trial"",""time""
""focus"",""0"",""1""
","""event"",""trial"",""time""
""fullscreenenter"",""1"",""1554""
","
","","","","","","1140","<p> Your goal in this round is to take your friend for rides in different vehicles. </p></div>","","0","instructions","","","","","","","","","","",""
"learning-instructions","61","326761","0.0-9.0-1.0-0.1","3855","2","16","Male","approach_avoid_spark_v1","""event"",""trial"",""time""
""focus"",""0"",""1""
""fullscreenenter"",""1"",""1554""
","
","""event"",""trial"",""time""
""focus"",""0"",""1""
","""event"",""trial"",""time""
""fullscreenenter"",""1"",""1554""
","
","","","","","","664","<p> Your friend enjoys riding in some vehicles but not in others.  </p><p> On each turn, you will see a vehicle.   </p><p> You need to decide whether to take your friend for a ride or not.  </p>","","0","instructions","","","","","","","","","","",""
"learning-instructions","62","334313","0.0-9.0-1.0-0.2","3855","2","16","Male","approach_avoid_spark_v1","""event"",""trial"",""time""
""focus"",""0"",""1""
""fullscreenenter"",""1"",""1554""
","
","""event"",""trial"",""time""
""focus"",""0"",""1""
","""event"",""trial"",""time""
""fullscreenenter"",""1"",""1554""
","
","","","","","","1107","<p> You can take your friend for a ride in the vehicle by pressing 1 and skip the ride by pressing 0. </p><br><div class=""choice-instructions-grid""> <div class=""choice-option""><img src=""images/approach.png"" class=""choice-option-img"" stage=""instructions"" position=""0"" ><div class=""choice-option-text""> Press ""1."" </div></div><div class=""choice-option""><img src=""images/avoid.png"" class=""choice-option-img"" stage=""instructions"" position=""1"" ><div class=""choice-option-text""> Press ""0."" </div></div>","","0","instructions","","","","","","","","","","",""
"learning-instructions","63","343554","0.0-9.0-1.0-0.3","3855","2","16","Male","approach_avoid_spark_v1","""event"",""trial"",""time""
""focus"",""0"",""1""
""fullscreenenter"",""1"",""1554""
","
","""event"",""trial"",""time""
""focus"",""0"",""1""
","""event"",""trial"",""time""
""fullscreenenter"",""1"",""1554""
","
","","","","","","517","<p> If you take them for a ride in a vehicle they like, they will be thrilled! </p><p> But if you take them for a ride in a vehicle they do not like, they will be upset. </p>","","0","instructions","","","","","","","","","","",""
"learning-instructions","64","355874","0.0-9.0-1.0-0.4","3855","2","16","Male","approach_avoid_spark_v1","""event"",""trial"",""time""
""focus"",""0"",""1""
""fullscreenenter"",""1"",""1554""
","
","""event"",""trial"",""time""
""focus"",""0"",""1""
","""event"",""trial"",""time""
""fullscreenenter"",""1"",""1554""
","
","","","","","","487","<p> You will earn points based on how you made your friend feel. </p><p> If you made him thrilled, you will WIN anywhere from 1 - 9 points, </p><p> but if you made him upset, you will LOSE anywhere from 1 - 9 points. </p>","","0","instructions","","","","","","","","","","",""
"learning-instructions","65","364393","0.0-9.0-1.0-0.5","3855","2","16","Male","approach_avoid_spark_v1","""event"",""trial"",""time""
""focus"",""0"",""1""
""fullscreenenter"",""1"",""1554""
","
","""event"",""trial"",""time""
""focus"",""0"",""1""
","""event"",""trial"",""time""
""fullscreenenter"",""1"",""1554""
","
","","","","","","1236","<p> You will see how many points you won or lost in the center of the screen. </p><p> Here is what you would see if you won 5 points: </p><p style=""color:green;font-size:50px;font-weight:bolder"">5</p>","","0","instructions","","","","","","","","","","",""
"learning-instructions","66","368145","0.0-9.0-1.0-0.6","3855","2","16","Male","approach_avoid_spark_v1","""event"",""trial"",""time""
""focus"",""0"",""1""
""fullscreenenter"",""1"",""1554""
","
","""event"",""trial"",""time""
""focus"",""0"",""1""
","""event"",""trial"",""time""
""fullscreenenter"",""1"",""1554""
","
","","","","","","488","<p> And here is what you would see if you lost 3 points: </p><p style=""color:red;font-size:50px;font-weight:bolder"">-3</p>","","0","instructions","","","","","","","","","","",""
"learning-instructions","67","384385","0.0-9.0-1.0-0.7","3855","2","16","Male","approach_avoid_spark_v1","""event"",""trial"",""time""
""focus"",""0"",""1""
""fullscreenenter"",""1"",""1554""
","
","""event"",""trial"",""time""
""focus"",""0"",""1""
","""event"",""trial"",""time""
""fullscreenenter"",""1"",""1554""
","
","","","","","","778","<p> Some vehicles will make your friend REALLY thrilled or upset. </p><p> These vehicles will make you win or lose LOTS of points. </p><p> Other vehicles will only make him feel a little thrilled or upset. </p><p> These vehicles will make you win or lose small amounts of points. </p>","","0","instructions","","","","","","","","","","",""
"learning-instructions","68","396841","0.0-9.0-1.0-0.8","3855","2","16","Male","approach_avoid_spark_v1","""event"",""trial"",""time""
""focus"",""0"",""1""
""fullscreenenter"",""1"",""1554""
","
","""event"",""trial"",""time""
""focus"",""0"",""1""
","""event"",""trial"",""time""
""fullscreenenter"",""1"",""1554""
","
","","","","","","545","<p> If you choose to skip the ride, you will not win or lose any points. </p><p>  However, in the center of the screen, you will see the number of points you WOULD HAVE won or lost if you had taken your friend for a ride. </p>","","0","instructions","","","","","","","","","","",""
"learning-instructions","69","408193","0.0-9.0-1.0-0.9","3855","2","16","Male","approach_avoid_spark_v1","""event"",""trial"",""time""
""focus"",""0"",""1""
""fullscreenenter"",""1"",""1554""
","
","""event"",""trial"",""time""
""focus"",""0"",""1""
","""event"",""trial"",""time""
""fullscreenenter"",""1"",""1554""
","
","","","","","","558","<p> Here is what you might see if you did not take your friend for a ride but he would have enjoyed it: </p><p style=""color:grey; font-size:50px; display: inline-block; border-spacing: 15px; border-width:3px; border-style:solid; border-color:red"">  &nbsp; 6 &nbsp; </p><p> Remember, in this case, you would not win or lose ANY points because you skipped the ride.  </p>","","0","instructions","","","","","","","","","","",""
"learning-instructions","70","416184","0.0-9.0-1.0-0.10","3855","2","16","Male","approach_avoid_spark_v1","""event"",""trial"",""time""
""focus"",""0"",""1""
""fullscreenenter"",""1"",""1554""
","
","""event"",""trial"",""time""
""focus"",""0"",""1""
","""event"",""trial"",""time""
""fullscreenenter"",""1"",""1554""
","
","","","","","","549","<p> Try to make the best choice for each vehicle because </p><p> at the end of the game, you will earn bonus money based on how many points you earned. </p>","","0","instructions","","","","","","","","","","",""
"learning-instructions","71","424920","0.0-9.0-1.0-0.11","3855","2","16","Male","approach_avoid_spark_v1","""event"",""trial"",""time""
""focus"",""0"",""1""
""fullscreenenter"",""1"",""1554""
","
","""event"",""trial"",""time""
""focus"",""0"",""1""
","""event"",""trial"",""time""
""fullscreenenter"",""1"",""1554""
","
","","","","","","536","<p> You will have 3 seconds to make each choice. Try to respond before time runs out! </p><p> You will lose 5 points each time you do not make a response. </p>","","0","instructions","","","","","","","","","","",""
"html-keyboard-response","72","425524","0.0-9.0-2.0-0.0","3855","2","16","Male","approach_avoid_spark_v1","""event"",""trial"",""time""
""focus"",""0"",""1""
""fullscreenenter"",""1"",""1554""
","
","""event"",""trial"",""time""
""focus"",""0"",""1""
","""event"",""trial"",""time""
""fullscreenenter"",""1"",""1554""
","
","","","","","","null","<div style=""font-size:60px;"">+</div>","null","","fixation","","","","","","","","","","",""
"aa-learning-trial","73","428525","0.0-9.0-2.0-1.0","3855","2","16","Male","approach_avoid_spark_v1","""event"",""trial"",""time""
""focus"",""0"",""1""
""fullscreenenter"",""1"",""1554""
","
","""event"",""trial"",""time""
""focus"",""0"",""1""
","""event"",""trial"",""time""
""fullscreenenter"",""1"",""1554""
","
","","","","","","1211","images/train7.png","","","learning","-8","0","0","0","train","vehicles","2","0","","neutral","0"
"html-keyboard-response","74","429027","0.0-9.0-2.0-0.1","3855","2","16","Male","approach_avoid_spark_v1","""event"",""trial"",""time""
""focus"",""0"",""1""
""fullscreenenter"",""1"",""1554""
","
","""event"",""trial"",""time""
""focus"",""0"",""1""
","""event"",""trial"",""time""
""fullscreenenter"",""1"",""1554""
","
","","","","","","null","<div style=""font-size:60px;"">+</div>","null","","fixation","","","","","","","","","","",""
"aa-learning-trial","75","432028","0.0-9.0-2.0-1.1","3855","2","16","Male","approach_avoid_spark_v1","""event"",""trial"",""time""
""focus"",""0"",""1""
""fullscreenenter"",""1"",""1554""
","
","""event"",""trial"",""time""
""focus"",""0"",""1""
","""event"",""trial"",""time""
""fullscreenenter"",""1"",""1554""
","
","","","","","","574","images/truck7.png","","","learning","2","2","1","1","truck","vehicles","2","0","","good","[6]"
"html-keyboard-response","76","432529","0.0-9.0-2.0-0.2","3855","2","16","Male","approach_avoid_spark_v1","""event"",""trial"",""time""
""focus"",""0"",""1""
""fullscreenenter"",""1"",""1554""
","
","""event"",""trial"",""time""
""focus"",""0"",""1""
","""event"",""trial"",""time""
""fullscreenenter"",""1"",""1554""
","
","","","","","","null","<div style=""font-size:60px;"">+</div>","null","","fixation","","","","","","","","","","",""
"aa-learning-trial","77","435532","0.0-9.0-2.0-1.2","3855","2","16","Male","approach_avoid_spark_v1","""event"",""trial"",""time""
""focus"",""0"",""1""
""fullscreenenter"",""1"",""1554""
","
","""event"",""trial"",""time""
""focus"",""0"",""1""
","""event"",""trial"",""time""
""fullscreenenter"",""1"",""1554""
","
","","","","","","620","images/train1.png","","","learning","-3","-3","1","1","train","vehicles","2","0","","neutral","0"
"html-keyboard-response","78","436033","0.0-9.0-2.0-0.3","3855","2","16","Male","approach_avoid_spark_v1","""event"",""trial"",""time""
""focus"",""0"",""1""
""fullscreenenter"",""1"",""1554""
","
","""event"",""trial"",""time""
""focus"",""0"",""1""
","""event"",""trial"",""time""
""fullscreenenter"",""1"",""1554""
","
","","","","","","null","<div style=""font-size:60px;"">+</div>","null","","fixation","","","","","","","","","","",""
"aa-learning-trial","79","439035","0.0-9.0-2.0-1.3","3855","2","16","Male","approach_avoid_spark_v1","""event"",""trial"",""time""
""focus"",""0"",""1""
""fullscreenenter"",""1"",""1554""
","
","""event"",""trial"",""time""
""focus"",""0"",""1""
","""event"",""trial"",""time""
""fullscreenenter"",""1"",""1554""
","
","","","","","","478","images/truck7.png","","","learning","2","2","1","1","truck","vehicles","2","0","","good","[6]"
"html-keyboard-response","80","439537","0.0-9.0-2.0-0.4","3855","2","16","Male","approach_avoid_spark_v1","""event"",""trial"",""time""
""focus"",""0"",""1""
""fullscreenenter"",""1"",""1554""
","
","""event"",""trial"",""time""
""focus"",""0"",""1""
","""event"",""trial"",""time""
""fullscreenenter"",""1"",""1554""
","
","","","","","","null","<div style=""font-size:60px;"">+</div>","null","","fixation","","","","","","","","","","",""
"aa-learning-trial","81","442538","0.0-9.0-2.0-1.4","3855","2","16","Male","approach_avoid_spark_v1","""event"",""trial"",""time""
""focus"",""0"",""1""
""fullscreenenter"",""1"",""1554""
","
","""event"",""trial"",""time""
""focus"",""0"",""1""
","""event"",""trial"",""time""
""fullscreenenter"",""1"",""1554""
","
","","","","","","735","images/truck5.png","","","learning","7","7","1","1","truck","vehicles","2","0","","good","[6]"
"html-keyboard-response","82","443039","0.0-9.0-2.0-0.5","3855","2","16","Male","approach_avoid_spark_v1","""event"",""trial"",""time""
""focus"",""0"",""1""
""fullscreenenter"",""1"",""1554""
","
","""event"",""trial"",""time""
""focus"",""0"",""1""
","""event"",""trial"",""time""
""fullscreenenter"",""1"",""1554""
","
","","","","","","null","<div style=""font-size:60px;"">+</div>","null","","fixation","","","","","","","","","","",""
"aa-learning-trial","83","446042","0.0-9.0-2.0-1.5","3855","2","16","Male","approach_avoid_spark_v1","""event"",""trial"",""time""
""focus"",""0"",""1""
""fullscreenenter"",""1"",""1554""
","
","""event"",""trial"",""time""
""focus"",""0"",""1""
","""event"",""trial"",""time""
""fullscreenenter"",""1"",""1554""
","
","","","","","","1344","images/plane1.png","","","learning","-2","-2","1","1","plane","vehicles","2","0","","bad","[-3]"
"html-keyboard-response","84","446544","0.0-9.0-2.0-0.6","3855","2","16","Male","approach_avoid_spark_v1","""event"",""trial"",""time""
""focus"",""0"",""1""
""fullscreenenter"",""1"",""1554""
","
","""event"",""trial"",""time""
""focus"",""0"",""1""
","""event"",""trial"",""time""
""fullscreenenter"",""1"",""1554""
","
","","","","","","null","<div style=""font-size:60px;"">+</div>","null","","fixation","","","","","","","","","","",""
"aa-learning-trial","85","449545","0.0-9.0-2.0-1.6","3855","2","16","Male","approach_avoid_spark_v1","""event"",""trial"",""time""
""focus"",""0"",""1""
""fullscreenenter"",""1"",""1554""
","
","""event"",""trial"",""time""
""focus"",""0"",""1""
","""event"",""trial"",""time""
""fullscreenenter"",""1"",""1554""
","
","","","","","","783","images/plane6.png","","","learning","6","6","1","1","plane","vehicles","2","0","","bad","[-3]"
"html-keyboard-response","86","450046","0.0-9.0-2.0-0.7","3855","2","16","Male","approach_avoid_spark_v1","""event"",""trial"",""time""
""focus"",""0"",""1""
""fullscreenenter"",""1"",""1554""
","
","""event"",""trial"",""time""
""focus"",""0"",""1""
","""event"",""trial"",""time""
""fullscreenenter"",""1"",""1554""
","
","","","","","","null","<div style=""font-size:60px;"">+</div>","null","","fixation","","","","","","","","","","",""
"aa-learning-trial","87","453049","0.0-9.0-2.0-1.7","3855","2","16","Male","approach_avoid_spark_v1","""event"",""trial"",""time""
""focus"",""0"",""1""
""fullscreenenter"",""1"",""1554""
","
","""event"",""trial"",""time""
""focus"",""0"",""1""
","""event"",""trial"",""time""
""fullscreenenter"",""1"",""1554""
","
","","","","","","736","images/truck5.png","","","learning","7","7","1","1","truck","vehicles","2","0","","good","[6]"
"html-keyboard-response","88","453550","0.0-9.0-2.0-0.8","3855","2","16","Male","approach_avoid_spark_v1","""event"",""trial"",""time""
""focus"",""0"",""1""
""fullscreenenter"",""1"",""1554""
","
","""event"",""trial"",""time""
""focus"",""0"",""1""
","""event"",""trial"",""time""
""fullscreenenter"",""1"",""1554""
","
","","","","","","null","<div style=""font-size:60px;"">+</div>","null","","fixation","","","","","","","","","","",""
"aa-learning-trial","89","456551","0.0-9.0-2.0-1.8","3855","2","16","Male","approach_avoid_spark_v1","""event"",""trial"",""time""
""focus"",""0"",""1""
""fullscreenenter"",""1"",""1554""
","
","""event"",""trial"",""time""
""focus"",""0"",""1""
","""event"",""trial"",""time""
""fullscreenenter"",""1"",""1554""
","
","","","","","","530","images/train8.png","","","learning","9","9","1","1","train","vehicles","2","0","","neutral","0"
"html-keyboard-response","90","457053","0.0-9.0-2.0-0.9","3855","2","16","Male","approach_avoid_spark_v1","""event"",""trial"",""time""
""focus"",""0"",""1""
""fullscreenenter"",""1"",""1554""
","
","""event"",""trial"",""time""
""focus"",""0"",""1""
","""event"",""trial"",""time""
""fullscreenenter"",""1"",""1554""
","
","","","","","","null","<div style=""font-size:60px;"">+</div>","null","","fixation","","","","","","","","","","",""
"aa-learning-trial","91","460057","0.0-9.0-2.0-1.9","3855","2","16","Male","approach_avoid_spark_v1","""event"",""trial"",""time""
""focus"",""0"",""1""
""fullscreenenter"",""1"",""1554""
","
","""event"",""trial"",""time""
""focus"",""0"",""1""
","""event"",""trial"",""time""
""fullscreenenter"",""1"",""1554""
","
","","","","","","642","images/train1.png","","","learning","-3","0","0","0","train","vehicles","2","0","","neutral","0"
"html-keyboard-response","92","460557","0.0-9.0-2.0-0.10","3855","2","16","Male","approach_avoid_spark_v1","""event"",""trial"",""time""
""focus"",""0"",""1""
""fullscreenenter"",""1"",""1554""
","
","""event"",""trial"",""time""
""focus"",""0"",""1""
","""event"",""trial"",""time""
""fullscreenenter"",""1"",""1554""
","
","","","","","","null","<div style=""font-size:60px;"">+</div>","null","","fixation","","","","","","","","","","",""
"aa-learning-trial","93","463559","0.0-9.0-2.0-1.10","3855","2","16","Male","approach_avoid_spark_v1","""event"",""trial"",""time""
""focus"",""0"",""1""
""fullscreenenter"",""1"",""1554""
","
","""event"",""trial"",""time""
""focus"",""0"",""1""
","""event"",""trial"",""time""
""fullscreenenter"",""1"",""1554""
","
","","","","","","593","images/plane6.png","","","learning","6","6","1","1","plane","vehicles","2","0","","bad","[-3]"
"html-keyboard-response","94","464061","0.0-9.0-2.0-0.11","3855","2","16","Male","approach_avoid_spark_v1","""event"",""trial"",""time""
""focus"",""0"",""1""
""fullscreenenter"",""1"",""1554""
","
","""event"",""trial"",""time""
""focus"",""0"",""1""
","""event"",""trial"",""time""
""fullscreenenter"",""1"",""1554""
","
","","","","","","null","<div style=""font-size:60px;"">+</div>","null","","fixation","","","","","","","","","","",""
"aa-learning-trial","95","467064","0.0-9.0-2.0-1.11","3855","2","16","Male","approach_avoid_spark_v1","""event"",""trial"",""time""
""focus"",""0"",""1""
""fullscreenenter"",""1"",""1554""
","
","""event"",""trial"",""time""
""focus"",""0"",""1""
","""event"",""trial"",""time""
""fullscreenenter"",""1"",""1554""
","
","","","","","","801","images/plane2.png","","","learning","-6","-6","1","1","plane","vehicles","2","0","","bad","[-3]"
"html-keyboard-response","96","467565","0.0-9.0-2.0-0.12","3855","2","16","Male","approach_avoid_spark_v1","""event"",""trial"",""time""
""focus"",""0"",""1""
""fullscreenenter"",""1"",""1554""
","
","""event"",""trial"",""time""
""focus"",""0"",""1""
","""event"",""trial"",""time""
""fullscreenenter"",""1"",""1554""
","
","","","","","","null","<div style=""font-size:60px;"">+</div>","null","","fixation","","","","","","","","","","",""
"aa-learning-trial","97","470567","0.0-9.0-2.0-1.12","3855","2","16","Male","approach_avoid_spark_v1","""event"",""trial"",""time""
""focus"",""0"",""1""
""fullscreenenter"",""1"",""1554""
","
","""event"",""trial"",""time""
""focus"",""0"",""1""
","""event"",""trial"",""time""
""fullscreenenter"",""1"",""1554""
","
","","","","","","1090","images/train7.png","","","learning","-8","-8","1","1","train","vehicles","2","0","","neutral","0"
"html-keyboard-response","98","471068","0.0-9.0-2.0-0.13","3855","2","16","Male","approach_avoid_spark_v1","""event"",""trial"",""time""
""focus"",""0"",""1""
""fullscreenenter"",""1"",""1554""
","
","""event"",""trial"",""time""
""focus"",""0"",""1""
","""event"",""trial"",""time""
""fullscreenenter"",""1"",""1554""
","
","","","","","","null","<div style=""font-size:60px;"">+</div>","null","","fixation","","","","","","","","","","",""
"aa-learning-trial","99","474071","0.0-9.0-2.0-1.13","3855","2","16","Male","approach_avoid_spark_v1","""event"",""trial"",""time""
""focus"",""0"",""1""
""fullscreenenter"",""1"",""1554""
","
","""event"",""trial"",""time""
""focus"",""0"",""1""
","""event"",""trial"",""time""
""fullscreenenter"",""1"",""1554""
","
","","","","","","883","images/truck4.png","","","learning","4","0","0","0","truck","vehicles","2","0","","good","[6]"
"html-keyboard-response","100","474573","0.0-9.0-2.0-0.14","3855","2","16","Male","approach_avoid_spark_v1","""event"",""trial"",""time""
""focus"",""0"",""1""
""fullscreenenter"",""1"",""1554""
","
","""event"",""trial"",""time""
""focus"",""0"",""1""
","""event"",""trial"",""time""
""fullscreenenter"",""1"",""1554""
","
","","","","","","null","<div style=""font-size:60px;"">+</div>","null","","fixation","","","","","","","","","","",""
"aa-learning-trial","101","477575","0.0-9.0-2.0-1.14","3855","2","16","Male","approach_avoid_spark_v1","""event"",""trial"",""time""
""focus"",""0"",""1""
""fullscreenenter"",""1"",""1554""
","
","""event"",""trial"",""time""
""focus"",""0"",""1""
","""event"",""trial"",""time""
""fullscreenenter"",""1"",""1554""
","
","","","","","","882","images/plane1.png","","","learning","-2","-2","1","1","plane","vehicles","2","0","","bad","[-3]"
"html-keyboard-response","102","478076","0.0-9.0-2.0-0.15","3855","2","16","Male","approach_avoid_spark_v1","""event"",""trial"",""time""
""focus"",""0"",""1""
""fullscreenenter"",""1"",""1554""
","
","""event"",""trial"",""time""
""focus"",""0"",""1""
","""event"",""trial"",""time""
""fullscreenenter"",""1"",""1554""
","
","","","","","","null","<div style=""font-size:60px;"">+</div>","null","","fixation","","","","","","","","","","",""
"aa-learning-trial","103","481077","0.0-9.0-2.0-1.15","3855","2","16","Male","approach_avoid_spark_v1","""event"",""trial"",""time""
""focus"",""0"",""1""
""fullscreenenter"",""1"",""1554""
","
","""event"",""trial"",""time""
""focus"",""0"",""1""
","""event"",""trial"",""time""
""fullscreenenter"",""1"",""1554""
","
","","","","","","627","images/train1.png","","","learning","-3","-3","1","1","train","vehicles","2","0","","neutral","0"
"html-keyboard-response","104","481580","0.0-9.0-2.0-0.16","3855","2","16","Male","approach_avoid_spark_v1","""event"",""trial"",""time""
""focus"",""0"",""1""
""fullscreenenter"",""1"",""1554""
","
","""event"",""trial"",""time""
""focus"",""0"",""1""
","""event"",""trial"",""time""
""fullscreenenter"",""1"",""1554""
","
","","","","","","null","<div style=""font-size:60px;"">+</div>","null","","fixation","","","","","","","","","","",""
"aa-learning-trial","105","484581","0.0-9.0-2.0-1.16","3855","2","16","Male","approach_avoid_spark_v1","""event"",""trial"",""time""
""focus"",""0"",""1""
""fullscreenenter"",""1"",""1554""
","
","""event"",""trial"",""time""
""focus"",""0"",""1""
","""event"",""trial"",""time""
""fullscreenenter"",""1"",""1554""
","
","","","","","","723","images/plane6.png","","","learning","6","6","1","1","plane","vehicles","2","0","","bad","[-3]"
"html-keyboard-response","106","485082","0.0-9.0-2.0-0.17","3855","2","16","Male","approach_avoid_spark_v1","""event"",""trial"",""time""
""focus"",""0"",""1""
""fullscreenenter"",""1"",""1554""
","
","""event"",""trial"",""time""
""focus"",""0"",""1""
","""event"",""trial"",""time""
""fullscreenenter"",""1"",""1554""
","
","","","","","","null","<div style=""font-size:60px;"">+</div>","null","","fixation","","","","","","","","","","",""
"aa-learning-trial","107","488084","0.0-9.0-2.0-1.17","3855","2","16","Male","approach_avoid_spark_v1","""event"",""trial"",""time""
""focus"",""0"",""1""
""fullscreenenter"",""1"",""1554""
","
","""event"",""trial"",""time""
""focus"",""0"",""1""
","""event"",""trial"",""time""
""fullscreenenter"",""1"",""1554""
","
","","","","","","805","images/truck8.png","","","learning","-5","-5","1","1","truck","vehicles","2","0","","good","[6]"
"html-keyboard-response","108","488585","0.0-9.0-2.0-0.18","3855","2","16","Male","approach_avoid_spark_v1","""event"",""trial"",""time""
""focus"",""0"",""1""
""fullscreenenter"",""1"",""1554""
","
","""event"",""trial"",""time""
""focus"",""0"",""1""
","""event"",""trial"",""time""
""fullscreenenter"",""1"",""1554""
","
","","","","","","null","<div style=""font-size:60px;"">+</div>","null","","fixation","","","","","","","","","","",""
"aa-learning-trial","109","491589","0.0-9.0-2.0-1.18","3855","2","16","Male","approach_avoid_spark_v1","""event"",""trial"",""time""
""focus"",""0"",""1""
""fullscreenenter"",""1"",""1554""
","
","""event"",""trial"",""time""
""focus"",""0"",""1""
","""event"",""trial"",""time""
""fullscreenenter"",""1"",""1554""
","
","","","","","","468","images/train7.png","","","learning","-8","0","0","0","train","vehicles","2","0","","neutral","0"
"html-keyboard-response","110","492090","0.0-9.0-2.0-0.19","3855","2","16","Male","approach_avoid_spark_v1","""event"",""trial"",""time""
""focus"",""0"",""1""
""fullscreenenter"",""1"",""1554""
","
","""event"",""trial"",""time""
""focus"",""0"",""1""
","""event"",""trial"",""time""
""fullscreenenter"",""1"",""1554""
","
","","","","","","null","<div style=""font-size:60px;"">+</div>","null","","fixation","","","","","","","","","","",""
"aa-learning-trial","111","495092","0.0-9.0-2.0-1.19","3855","2","16","Male","approach_avoid_spark_v1","""event"",""trial"",""time""
""focus"",""0"",""1""
""fullscreenenter"",""1"",""1554""
","
","""event"",""trial"",""time""
""focus"",""0"",""1""
","""event"",""trial"",""time""
""fullscreenenter"",""1"",""1554""
","
","","","","","","932","images/truck6.png","","","learning","-9","-9","1","1","truck","vehicles","2","0","","good","[6]"
"html-keyboard-response","112","495594","0.0-9.0-2.0-0.20","3855","2","16","Male","approach_avoid_spark_v1","""event"",""trial"",""time""
""focus"",""0"",""1""
""fullscreenenter"",""1"",""1554""
","
","""event"",""trial"",""time""
""focus"",""0"",""1""
","""event"",""trial"",""time""
""fullscreenenter"",""1"",""1554""
","
","","","","","","null","<div style=""font-size:60px;"">+</div>","null","","fixation","","","","","","","","","","",""
"aa-learning-trial","113","498596","0.0-9.0-2.0-1.20","3855","2","16","Male","approach_avoid_spark_v1","""event"",""trial"",""time""
""focus"",""0"",""1""
""fullscreenenter"",""1"",""1554""
","
","""event"",""trial"",""time""
""focus"",""0"",""1""
","""event"",""trial"",""time""
""fullscreenenter"",""1"",""1554""
","
","","","","","","580","images/plane1.png","","","learning","-2","-2","1","1","plane","vehicles","2","0","","bad","[-3]"
"html-keyboard-response","114","499097","0.0-9.0-2.0-0.21","3855","2","16","Male","approach_avoid_spark_v1","""event"",""trial"",""time""
""focus"",""0"",""1""
""fullscreenenter"",""1"",""1554""
","
","""event"",""trial"",""time""
""focus"",""0"",""1""
","""event"",""trial"",""time""
""fullscreenenter"",""1"",""1554""
","
","","","","","","null","<div style=""font-size:60px;"">+</div>","null","","fixation","","","","","","","","","","",""
"aa-learning-trial","115","502099","0.0-9.0-2.0-1.21","3855","2","16","Male","approach_avoid_spark_v1","""event"",""trial"",""time""
""focus"",""0"",""1""
""fullscreenenter"",""1"",""1554""
","
","""event"",""trial"",""time""
""focus"",""0"",""1""
","""event"",""trial"",""time""
""fullscreenenter"",""1"",""1554""
","
","","","","","","485","images/truck7.png","","","learning","2","0","0","0","truck","vehicles","2","0","","good","[6]"
"html-keyboard-response","116","502599","0.0-9.0-2.0-0.22","3855","2","16","Male","approach_avoid_spark_v1","""event"",""trial"",""time""
""focus"",""0"",""1""
""fullscreenenter"",""1"",""1554""
","
","""event"",""trial"",""time""
""focus"",""0"",""1""
","""event"",""trial"",""time""
""fullscreenenter"",""1"",""1554""
","
","","","","","","null","<div style=""font-size:60px;"">+</div>","null","","fixation","","","","","","","","","","",""
"aa-learning-trial","117","505601","0.0-9.0-2.0-1.22","3855","2","16","Male","approach_avoid_spark_v1","""event"",""trial"",""time""
""focus"",""0"",""1""
""fullscreenenter"",""1"",""1554""
","
","""event"",""trial"",""time""
""focus"",""0"",""1""
","""event"",""trial"",""time""
""fullscreenenter"",""1"",""1554""
","
","","","","","","904","images/train1.png","","","learning","-3","0","0","0","train","vehicles","2","0","","neutral","0"
"html-keyboard-response","118","506102","0.0-9.0-2.0-0.23","3855","2","16","Male","approach_avoid_spark_v1","""event"",""trial"",""time""
""focus"",""0"",""1""
""fullscreenenter"",""1"",""1554""
","
","""event"",""trial"",""time""
""focus"",""0"",""1""
","""event"",""trial"",""time""
""fullscreenenter"",""1"",""1554""
","
","","","","","","null","<div style=""font-size:60px;"">+</div>","null","","fixation","","","","","","","","","","",""
"aa-learning-trial","119","509106","0.0-9.0-2.0-1.23","3855","2","16","Male","approach_avoid_spark_v1","""event"",""trial"",""time""
""focus"",""0"",""1""
""fullscreenenter"",""1"",""1554""
","
","""event"",""trial"",""time""
""focus"",""0"",""1""
","""event"",""trial"",""time""
""fullscreenenter"",""1"",""1554""
","
","","","","","","520","images/train1.png","","","learning","-3","0","0","0","train","vehicles","2","0","","neutral","0"
"html-keyboard-response","120","509608","0.0-9.0-2.0-0.24","3855","2","16","Male","approach_avoid_spark_v1","""event"",""trial"",""time""
""focus"",""0"",""1""
""fullscreenenter"",""1"",""1554""
","
","""event"",""trial"",""time""
""focus"",""0"",""1""
","""event"",""trial"",""time""
""fullscreenenter"",""1"",""1554""
","
","","","","","","null","<div style=""font-size:60px;"">+</div>","null","","fixation","","","","","","","","","","",""
"aa-learning-trial","121","512610","0.0-9.0-2.0-1.24","3855","2","16","Male","approach_avoid_spark_v1","""event"",""trial"",""time""
""focus"",""0"",""1""
""fullscreenenter"",""1"",""1554""
","
","""event"",""trial"",""time""
""focus"",""0"",""1""
","""event"",""trial"",""time""
""fullscreenenter"",""1"",""1554""
","
","","","","","","598","images/train8.png","","","learning","9","9","1","1","train","vehicles","2","0","","neutral","0"
"html-keyboard-response","122","513112","0.0-9.0-2.0-0.25","3855","2","16","Male","approach_avoid_spark_v1","""event"",""trial"",""time""
""focus"",""0"",""1""
""fullscreenenter"",""1"",""1554""
","
","""event"",""trial"",""time""
""focus"",""0"",""1""
","""event"",""trial"",""time""
""fullscreenenter"",""1"",""1554""
","
","","","","","","null","<div style=""font-size:60px;"">+</div>","null","","fixation","","","","","","","","","","",""
"aa-learning-trial","123","516113","0.0-9.0-2.0-1.25","3855","2","16","Male","approach_avoid_spark_v1","""event"",""trial"",""time""
""focus"",""0"",""1""
""fullscreenenter"",""1"",""1554""
","
","""event"",""trial"",""time""
""focus"",""0"",""1""
","""event"",""trial"",""time""
""fullscreenenter"",""1"",""1554""
","
","","","","","","615","images/train7.png","","","learning","-8","-8","1","1","train","vehicles","2","0","","neutral","0"
"html-keyboard-response","124","516615","0.0-9.0-2.0-0.26","3855","2","16","Male","approach_avoid_spark_v1","""event"",""trial"",""time""
""focus"",""0"",""1""
""fullscreenenter"",""1"",""1554""
","
","""event"",""trial"",""time""
""focus"",""0"",""1""
","""event"",""trial"",""time""
""fullscreenenter"",""1"",""1554""
","
","","","","","","null","<div style=""font-size:60px;"">+</div>","null","","fixation","","","","","","","","","","",""
"aa-learning-trial","125","519617","0.0-9.0-2.0-1.26","3855","2","16","Male","approach_avoid_spark_v1","""event"",""trial"",""time""
""focus"",""0"",""1""
""fullscreenenter"",""1"",""1554""
","
","""event"",""trial"",""time""
""focus"",""0"",""1""
","""event"",""trial"",""time""
""fullscreenenter"",""1"",""1554""
","
","","","","","","664","images/truck5.png","","","learning","7","7","1","1","truck","vehicles","2","0","","good","[6]"
"html-keyboard-response","126","520118","0.0-9.0-2.0-0.27","3855","2","16","Male","approach_avoid_spark_v1","""event"",""trial"",""time""
""focus"",""0"",""1""
""fullscreenenter"",""1"",""1554""
","
","""event"",""trial"",""time""
""focus"",""0"",""1""
","""event"",""trial"",""time""
""fullscreenenter"",""1"",""1554""
","
","","","","","","null","<div style=""font-size:60px;"">+</div>","null","","fixation","","","","","","","","","","",""
"aa-learning-trial","127","523120","0.0-9.0-2.0-1.27","3855","2","16","Male","approach_avoid_spark_v1","""event"",""trial"",""time""
""focus"",""0"",""1""
""fullscreenenter"",""1"",""1554""
","
","""event"",""trial"",""time""
""focus"",""0"",""1""
","""event"",""trial"",""time""
""fullscreenenter"",""1"",""1554""
","
","","","","","","536","images/truck7.png","","","learning","2","2","1","1","truck","vehicles","2","0","","good","[6]"
"html-keyboard-response","128","523621","0.0-9.0-2.0-0.28","3855","2","16","Male","approach_avoid_spark_v1","""event"",""trial"",""time""
""focus"",""0"",""1""
""fullscreenenter"",""1"",""1554""
","
","""event"",""trial"",""time""
""focus"",""0"",""1""
","""event"",""trial"",""time""
""fullscreenenter"",""1"",""1554""
","
","","","","","","null","<div style=""font-size:60px;"">+</div>","null","","fixation","","","","","","","","","","",""
"aa-learning-trial","129","526623","0.0-9.0-2.0-1.28","3855","2","16","Male","approach_avoid_spark_v1","""event"",""trial"",""time""
""focus"",""0"",""1""
""fullscreenenter"",""1"",""1554""
","
","""event"",""trial"",""time""
""focus"",""0"",""1""
","""event"",""trial"",""time""
""fullscreenenter"",""1"",""1554""
","
","","","","","","970","images/plane6.png","","","learning","6","0","0","0","plane","vehicles","2","0","","bad","[-3]"
"html-keyboard-response","130","527123","0.0-9.0-2.0-0.29","3855","2","16","Male","approach_avoid_spark_v1","""event"",""trial"",""time""
""focus"",""0"",""1""
""fullscreenenter"",""1"",""1554""
","
","""event"",""trial"",""time""
""focus"",""0"",""1""
","""event"",""trial"",""time""
""fullscreenenter"",""1"",""1554""
","
","","","","","","null","<div style=""font-size:60px;"">+</div>","null","","fixation","","","","","","","","","","",""
"aa-learning-trial","131","530127","0.0-9.0-2.0-1.29","3855","2","16","Male","approach_avoid_spark_v1","""event"",""trial"",""time""
""focus"",""0"",""1""
""fullscreenenter"",""1"",""1554""
","
","""event"",""trial"",""time""
""focus"",""0"",""1""
","""event"",""trial"",""time""
""fullscreenenter"",""1"",""1554""
","
","","","","","","2539","images/plane1.png","","","learning","-2","0","0","0","plane","vehicles","2","0","","bad","[-3]"
"html-keyboard-response","132","530628","0.0-9.0-2.0-0.30","3855","2","16","Male","approach_avoid_spark_v1","""event"",""trial"",""time""
""focus"",""0"",""1""
""fullscreenenter"",""1"",""1554""
","
","""event"",""trial"",""time""
""focus"",""0"",""1""
","""event"",""trial"",""time""
""fullscreenenter"",""1"",""1554""
","
","","","","","","null","<div style=""font-size:60px;"">+</div>","null","","fixation","","","","","","","","","","",""
"aa-learning-trial","133","533629","0.0-9.0-2.0-1.30","3855","2","16","Male","approach_avoid_spark_v1","""event"",""trial"",""time""
""focus"",""0"",""1""
""fullscreenenter"",""1"",""1554""
","
","""event"",""trial"",""time""
""focus"",""0"",""1""
","""event"",""trial"",""time""
""fullscreenenter"",""1"",""1554""
","
","","","","","","714","images/truck5.png","","","learning","7","7","1","1","truck","vehicles","2","0","","good","[6]"
"html-keyboard-response","134","534130","0.0-9.0-2.0-0.31","3855","2","16","Male","approach_avoid_spark_v1","""event"",""trial"",""time""
""focus"",""0"",""1""
""fullscreenenter"",""1"",""1554""
","
","""event"",""trial"",""time""
""focus"",""0"",""1""
","""event"",""trial"",""time""
""fullscreenenter"",""1"",""1554""
","
","","","","","","null","<div style=""font-size:60px;"">+</div>","null","","fixation","","","","","","","","","","",""
"aa-learning-trial","135","537132","0.0-9.0-2.0-1.31","3855","2","16","Male","approach_avoid_spark_v1","""event"",""trial"",""time""
""focus"",""0"",""1""
""fullscreenenter"",""1"",""1554""
","
","""event"",""trial"",""time""
""focus"",""0"",""1""
","""event"",""trial"",""time""
""fullscreenenter"",""1"",""1554""
","
","","","","","","603","images/truck7.png","","","learning","2","2","1","1","truck","vehicles","2","0","","good","[6]"
"html-keyboard-response","136","537633","0.0-9.0-2.0-0.32","3855","2","16","Male","approach_avoid_spark_v1","""event"",""trial"",""time""
""focus"",""0"",""1""
""fullscreenenter"",""1"",""1554""
","
","""event"",""trial"",""time""
""focus"",""0"",""1""
","""event"",""trial"",""time""
""fullscreenenter"",""1"",""1554""
","
","","","","","","null","<div style=""font-size:60px;"">+</div>","null","","fixation","","","","","","","","","","",""
"aa-learning-trial","137","540636","0.0-9.0-2.0-1.32","3855","2","16","Male","approach_avoid_spark_v1","""event"",""trial"",""time""
""focus"",""0"",""1""
""fullscreenenter"",""1"",""1554""
","
","""event"",""trial"",""time""
""focus"",""0"",""1""
","""event"",""trial"",""time""
""fullscreenenter"",""1"",""1554""
","
","","","","","","null","images/plane1.png","","","learning","-2","-5","","null","plane","vehicles","2","0","","bad","[-3]"
"html-keyboard-response","138","541137","0.0-9.0-2.0-0.33","3855","2","16","Male","approach_avoid_spark_v1","""event"",""trial"",""time""
""focus"",""0"",""1""
""fullscreenenter"",""1"",""1554""
","
","""event"",""trial"",""time""
""focus"",""0"",""1""
","""event"",""trial"",""time""
""fullscreenenter"",""1"",""1554""
","
","","","","","","null","<div style=""font-size:60px;"">+</div>","null","","fixation","","","","","","","","","","",""
"aa-learning-trial","139","544138","0.0-9.0-2.0-1.33","3855","2","16","Male","approach_avoid_spark_v1","""event"",""trial"",""time""
""focus"",""0"",""1""
""fullscreenenter"",""1"",""1554""
","
","""event"",""trial"",""time""
""focus"",""0"",""1""
","""event"",""trial"",""time""
""fullscreenenter"",""1"",""1554""
","
","","","","","","861","images/truck7.png","","","learning","2","2","1","1","truck","vehicles","2","0","","good","[6]"
"html-keyboard-response","140","544641","0.0-9.0-2.0-0.34","3855","2","16","Male","approach_avoid_spark_v1","""event"",""trial"",""time""
""focus"",""0"",""1""
""fullscreenenter"",""1"",""1554""
","
","""event"",""trial"",""time""
""focus"",""0"",""1""
","""event"",""trial"",""time""
""fullscreenenter"",""1"",""1554""
","
","","","","","","null","<div style=""font-size:60px;"">+</div>","null","","fixation","","","","","","","","","","",""
"aa-learning-trial","141","547645","0.0-9.0-2.0-1.34","3855","2","16","Male","approach_avoid_spark_v1","""event"",""trial"",""time""
""focus"",""0"",""1""
""fullscreenenter"",""1"",""1554""
","
","""event"",""trial"",""time""
""focus"",""0"",""1""
","""event"",""trial"",""time""
""fullscreenenter"",""1"",""1554""
","
","","","","","","1405","images/train7.png","","","learning","-8","0","0","0","train","vehicles","2","0","","neutral","0"
"html-keyboard-response","142","548146","0.0-9.0-2.0-0.35","3855","2","16","Male","approach_avoid_spark_v1","""event"",""trial"",""time""
""focus"",""0"",""1""
""fullscreenenter"",""1"",""1554""
","
","""event"",""trial"",""time""
""focus"",""0"",""1""
","""event"",""trial"",""time""
""fullscreenenter"",""1"",""1554""
","
","","","","","","null","<div style=""font-size:60px;"">+</div>","null","","fixation","","","","","","","","","","",""
"aa-learning-trial","143","551147","0.0-9.0-2.0-1.35","3855","2","16","Male","approach_avoid_spark_v1","""event"",""trial"",""time""
""focus"",""0"",""1""
""fullscreenenter"",""1"",""1554""
","
","""event"",""trial"",""time""
""focus"",""0"",""1""
","""event"",""trial"",""time""
""fullscreenenter"",""1"",""1554""
","
","","","","","","1085","images/train4.png","","","learning","5","5","1","1","train","vehicles","2","0","","neutral","0"
"html-keyboard-response","144","551647","0.0-9.0-2.0-0.36","3855","2","16","Male","approach_avoid_spark_v1","""event"",""trial"",""time""
""focus"",""0"",""1""
""fullscreenenter"",""1"",""1554""
","
","""event"",""trial"",""time""
""focus"",""0"",""1""
","""event"",""trial"",""time""
""fullscreenenter"",""1"",""1554""
","
","","","","","","null","<div style=""font-size:60px;"">+</div>","null","","fixation","","","","","","","","","","",""
"aa-learning-trial","145","554650","0.0-9.0-2.0-1.36","3855","2","16","Male","approach_avoid_spark_v1","""event"",""trial"",""time""
""focus"",""0"",""1""
""fullscreenenter"",""1"",""1554""
","
","""event"",""trial"",""time""
""focus"",""0"",""1""
","""event"",""trial"",""time""
""fullscreenenter"",""1"",""1554""
","
","","","","","","1391","images/plane6.png","","","learning","6","6","1","1","plane","vehicles","2","0","","bad","[-3]"
"html-keyboard-response","146","555151","0.0-9.0-2.0-0.37","3855","2","16","Male","approach_avoid_spark_v1","""event"",""trial"",""time""
""focus"",""0"",""1""
""fullscreenenter"",""1"",""1554""
","
","""event"",""trial"",""time""
""focus"",""0"",""1""
","""event"",""trial"",""time""
""fullscreenenter"",""1"",""1554""
","
","","","","","","null","<div style=""font-size:60px;"">+</div>","null","","fixation","","","","","","","","","","",""
"aa-learning-trial","147","558153","0.0-9.0-2.0-1.37","3855","2","16","Male","approach_avoid_spark_v1","""event"",""trial"",""time""
""focus"",""0"",""1""
""fullscreenenter"",""1"",""1554""
","
","""event"",""trial"",""time""
""focus"",""0"",""1""
","""event"",""trial"",""time""
""fullscreenenter"",""1"",""1554""
","
","","","","","","879","images/plane1.png","","","learning","-2","0","0","0","plane","vehicles","2","0","","bad","[-3]"
"html-keyboard-response","148","558655","0.0-9.0-2.0-0.38","3855","2","16","Male","approach_avoid_spark_v1","""event"",""trial"",""time""
""focus"",""0"",""1""
""fullscreenenter"",""1"",""1554""
","
","""event"",""trial"",""time""
""focus"",""0"",""1""
","""event"",""trial"",""time""
""fullscreenenter"",""1"",""1554""
","
","","","","","","null","<div style=""font-size:60px;"">+</div>","null","","fixation","","","","","","","","","","",""
"aa-learning-trial","149","561656","0.0-9.0-2.0-1.38","3855","2","16","Male","approach_avoid_spark_v1","""event"",""trial"",""time""
""focus"",""0"",""1""
""fullscreenenter"",""1"",""1554""
","
","""event"",""trial"",""time""
""focus"",""0"",""1""
","""event"",""trial"",""time""
""fullscreenenter"",""1"",""1554""
","
","","","","","","960","images/train5.png","","","learning","-1","-1","1","1","train","vehicles","2","0","","neutral","0"
"html-keyboard-response","150","562158","0.0-9.0-2.0-0.39","3855","2","16","Male","approach_avoid_spark_v1","""event"",""trial"",""time""
""focus"",""0"",""1""
""fullscreenenter"",""1"",""1554""
","
","""event"",""trial"",""time""
""focus"",""0"",""1""
","""event"",""trial"",""time""
""fullscreenenter"",""1"",""1554""
","
","","","","","","null","<div style=""font-size:60px;"">+</div>","null","","fixation","","","","","","","","","","",""
"aa-learning-trial","151","565161","0.0-9.0-2.0-1.39","3855","2","16","Male","approach_avoid_spark_v1","""event"",""trial"",""time""
""focus"",""0"",""1""
""fullscreenenter"",""1"",""1554""
","
","""event"",""trial"",""time""
""focus"",""0"",""1""
","""event"",""trial"",""time""
""fullscreenenter"",""1"",""1554""
","
","","","","","","656","images/truck5.png","","","learning","7","7","1","1","truck","vehicles","2","0","","good","[6]"
"html-keyboard-response","152","565661","0.0-9.0-2.0-0.40","3855","2","16","Male","approach_avoid_spark_v1","""event"",""trial"",""time""
""focus"",""0"",""1""
""fullscreenenter"",""1"",""1554""
","
","""event"",""trial"",""time""
""focus"",""0"",""1""
","""event"",""trial"",""time""
""fullscreenenter"",""1"",""1554""
","
","","","","","","null","<div style=""font-size:60px;"">+</div>","null","","fixation","","","","","","","","","","",""
"aa-learning-trial","153","568664","0.0-9.0-2.0-1.40","3855","2","16","Male","approach_avoid_spark_v1","""event"",""trial"",""time""
""focus"",""0"",""1""
""fullscreenenter"",""1"",""1554""
","
","""event"",""trial"",""time""
""focus"",""0"",""1""
","""event"",""trial"",""time""
""fullscreenenter"",""1"",""1554""
","
","","","","","","848","images/truck4.png","","","learning","4","4","1","1","truck","vehicles","2","0","","good","[6]"
"html-keyboard-response","154","569165","0.0-9.0-2.0-0.41","3855","2","16","Male","approach_avoid_spark_v1","""event"",""trial"",""time""
""focus"",""0"",""1""
""fullscreenenter"",""1"",""1554""
","
","""event"",""trial"",""time""
""focus"",""0"",""1""
","""event"",""trial"",""time""
""fullscreenenter"",""1"",""1554""
","
","","","","","","null","<div style=""font-size:60px;"">+</div>","null","","fixation","","","","","","","","","","",""
"aa-learning-trial","155","572167","0.0-9.0-2.0-1.41","3855","2","16","Male","approach_avoid_spark_v1","""event"",""trial"",""time""
""focus"",""0"",""1""
""fullscreenenter"",""1"",""1554""
","
","""event"",""trial"",""time""
""focus"",""0"",""1""
","""event"",""trial"",""time""
""fullscreenenter"",""1"",""1554""
","
","","","","","","784","images/plane6.png","","","learning","6","0","0","0","plane","vehicles","2","0","","bad","[-3]"
"html-keyboard-response","156","572671","0.0-9.0-2.0-0.42","3855","2","16","Male","approach_avoid_spark_v1","""event"",""trial"",""time""
""focus"",""0"",""1""
""fullscreenenter"",""1"",""1554""
","
","""event"",""trial"",""time""
""focus"",""0"",""1""
","""event"",""trial"",""time""
""fullscreenenter"",""1"",""1554""
","
","","","","","","null","<div style=""font-size:60px;"">+</div>","null","","fixation","","","","","","","","","","",""
"aa-learning-trial","157","575672","0.0-9.0-2.0-1.42","3855","2","16","Male","approach_avoid_spark_v1","""event"",""trial"",""time""
""focus"",""0"",""1""
""fullscreenenter"",""1"",""1554""
","
","""event"",""trial"",""time""
""focus"",""0"",""1""
","""event"",""trial"",""time""
""fullscreenenter"",""1"",""1554""
","
","","","","","","1071","images/plane2.png","","","learning","-6","0","0","0","plane","vehicles","2","0","","bad","[-3]"
"html-keyboard-response","158","576173","0.0-9.0-2.0-0.43","3855","2","16","Male","approach_avoid_spark_v1","""event"",""trial"",""time""
""focus"",""0"",""1""
""fullscreenenter"",""1"",""1554""
","
","""event"",""trial"",""time""
""focus"",""0"",""1""
","""event"",""trial"",""time""
""fullscreenenter"",""1"",""1554""
","
","","","","","","null","<div style=""font-size:60px;"">+</div>","null","","fixation","","","","","","","","","","",""
"aa-learning-trial","159","579175","0.0-9.0-2.0-1.43","3855","2","16","Male","approach_avoid_spark_v1","""event"",""trial"",""time""
""focus"",""0"",""1""
""fullscreenenter"",""1"",""1554""
","
","""event"",""trial"",""time""
""focus"",""0"",""1""
","""event"",""trial"",""time""
""fullscreenenter"",""1"",""1554""
","
","","","","","","497","images/truck5.png","","","learning","7","7","1","1","truck","vehicles","2","0","","good","[6]"
"html-keyboard-response","160","579676","0.0-9.0-2.0-0.44","3855","2","16","Male","approach_avoid_spark_v1","""event"",""trial"",""time""
""focus"",""0"",""1""
""fullscreenenter"",""1"",""1554""
","
","""event"",""trial"",""time""
""focus"",""0"",""1""
","""event"",""trial"",""time""
""fullscreenenter"",""1"",""1554""
","
","","","","","","null","<div style=""font-size:60px;"">+</div>","null","","fixation","","","","","","","","","","",""
"aa-learning-trial","161","582678","0.0-9.0-2.0-1.44","3855","2","16","Male","approach_avoid_spark_v1","""event"",""trial"",""time""
""focus"",""0"",""1""
""fullscreenenter"",""1"",""1554""
","
","""event"",""trial"",""time""
""focus"",""0"",""1""
","""event"",""trial"",""time""
""fullscreenenter"",""1"",""1554""
","
","","","","","","769","images/truck4.png","","","learning","4","4","1","1","truck","vehicles","2","0","","good","[6]"
"html-keyboard-response","162","583180","0.0-9.0-2.0-0.45","3855","2","16","Male","approach_avoid_spark_v1","""event"",""trial"",""time""
""focus"",""0"",""1""
""fullscreenenter"",""1"",""1554""
","
","""event"",""trial"",""time""
""focus"",""0"",""1""
","""event"",""trial"",""time""
""fullscreenenter"",""1"",""1554""
","
","","","","","","null","<div style=""font-size:60px;"">+</div>","null","","fixation","","","","","","","","","","",""
"aa-learning-trial","163","586181","0.0-9.0-2.0-1.45","3855","2","16","Male","approach_avoid_spark_v1","""event"",""trial"",""time""
""focus"",""0"",""1""
""fullscreenenter"",""1"",""1554""
","
","""event"",""trial"",""time""
""focus"",""0"",""1""
","""event"",""trial"",""time""
""fullscreenenter"",""1"",""1554""
","
","","","","","","1138","images/train8.png","","","learning","9","9","1","1","train","vehicles","2","0","","neutral","0"
"html-keyboard-response","164","586682","0.0-9.0-2.0-0.46","3855","2","16","Male","approach_avoid_spark_v1","""event"",""trial"",""time""
""focus"",""0"",""1""
""fullscreenenter"",""1"",""1554""
","
","""event"",""trial"",""time""
""focus"",""0"",""1""
","""event"",""trial"",""time""
""fullscreenenter"",""1"",""1554""
","
","","","","","","null","<div style=""font-size:60px;"">+</div>","null","","fixation","","","","","","","","","","",""
"aa-learning-trial","165","589684","0.0-9.0-2.0-1.46","3855","2","16","Male","approach_avoid_spark_v1","""event"",""trial"",""time""
""focus"",""0"",""1""
""fullscreenenter"",""1"",""1554""
","
","""event"",""trial"",""time""
""focus"",""0"",""1""
","""event"",""trial"",""time""
""fullscreenenter"",""1"",""1554""
","
","","","","","","979","images/train1.png","","","learning","-3","0","0","0","train","vehicles","2","0","","neutral","0"
"html-keyboard-response","166","590186","0.0-9.0-2.0-0.47","3855","2","16","Male","approach_avoid_spark_v1","""event"",""trial"",""time""
""focus"",""0"",""1""
""fullscreenenter"",""1"",""1554""
","
","""event"",""trial"",""time""
""focus"",""0"",""1""
","""event"",""trial"",""time""
""fullscreenenter"",""1"",""1554""
","
","","","","","","null","<div style=""font-size:60px;"">+</div>","null","","fixation","","","","","","","","","","",""
"aa-learning-trial","167","593188","0.0-9.0-2.0-1.47","3855","2","16","Male","approach_avoid_spark_v1","""event"",""trial"",""time""
""focus"",""0"",""1""
""fullscreenenter"",""1"",""1554""
","
","""event"",""trial"",""time""
""focus"",""0"",""1""
","""event"",""trial"",""time""
""fullscreenenter"",""1"",""1554""
","
","","","","","","1027","images/plane5.png","","","learning","3","3","1","1","plane","vehicles","2","0","","bad","[-3]"
"html-keyboard-response","168","593691","0.0-9.0-2.0-0.48","3855","2","16","Male","approach_avoid_spark_v1","""event"",""trial"",""time""
""focus"",""0"",""1""
""fullscreenenter"",""1"",""1554""
","
","""event"",""trial"",""time""
""focus"",""0"",""1""
","""event"",""trial"",""time""
""fullscreenenter"",""1"",""1554""
","
","","","","","","null","<div style=""font-size:60px;"">+</div>","null","","fixation","","","","","","","","","","",""
"aa-learning-trial","169","596693","0.0-9.0-2.0-1.48","3855","2","16","Male","approach_avoid_spark_v1","""event"",""trial"",""time""
""focus"",""0"",""1""
""fullscreenenter"",""1"",""1554""
","
","""event"",""trial"",""time""
""focus"",""0"",""1""
","""event"",""trial"",""time""
""fullscreenenter"",""1"",""1554""
","
","","","","","","947","images/plane2.png","","","learning","-6","0","0","0","plane","vehicles","2","0","","bad","[-3]"
"html-keyboard-response","170","597194","0.0-9.0-2.0-0.49","3855","2","16","Male","approach_avoid_spark_v1","""event"",""trial"",""time""
""focus"",""0"",""1""
""fullscreenenter"",""1"",""1554""
","
","""event"",""trial"",""time""
""focus"",""0"",""1""
","""event"",""trial"",""time""
""fullscreenenter"",""1"",""1554""
","
","","","","","","null","<div style=""font-size:60px;"">+</div>","null","","fixation","","","","","","","","","","",""
"aa-learning-trial","171","600197","0.0-9.0-2.0-1.49","3855","2","16","Male","approach_avoid_spark_v1","""event"",""trial"",""time""
""focus"",""0"",""1""
""fullscreenenter"",""1"",""1554""
","
","""event"",""trial"",""time""
""focus"",""0"",""1""
","""event"",""trial"",""time""
""fullscreenenter"",""1"",""1554""
","
","","","","","","1138","images/plane4.png","","","learning","-4","-4","1","1","plane","vehicles","2","0","","bad","[-3]"
"html-keyboard-response","172","600699","0.0-9.0-2.0-0.50","3855","2","16","Male","approach_avoid_spark_v1","""event"",""trial"",""time""
""focus"",""0"",""1""
""fullscreenenter"",""1"",""1554""
","
","""event"",""trial"",""time""
""focus"",""0"",""1""
","""event"",""trial"",""time""
""fullscreenenter"",""1"",""1554""
","
","","","","","","null","<div style=""font-size:60px;"">+</div>","null","","fixation","","","","","","","","","","",""
"aa-learning-trial","173","603700","0.0-9.0-2.0-1.50","3855","2","16","Male","approach_avoid_spark_v1","""event"",""trial"",""time""
""focus"",""0"",""1""
""fullscreenenter"",""1"",""1554""
","
","""event"",""trial"",""time""
""focus"",""0"",""1""
","""event"",""trial"",""time""
""fullscreenenter"",""1"",""1554""
","
","","","","","","1043","images/train7.png","","","learning","-8","-8","1","1","train","vehicles","2","0","","neutral","0"
"html-button-response","174","606695","0.0-9.0-3.0","3855","2","16","Male","approach_avoid_spark_v1","""event"",""trial"",""time""
""focus"",""0"",""1""
""fullscreenenter"",""1"",""1554""
","
","""event"",""trial"",""time""
""focus"",""0"",""1""
","""event"",""trial"",""time""
""fullscreenenter"",""1"",""1554""
","
","","","","","","2994","<p> You have completed the round! <p> In this round, you earned 53 points! </p>","0","","break","","","","","","","","","","",""
"html-button-response","175","608495","0.0-10.0","3855","2","16","Male","approach_avoid_spark_v1","""event"",""trial"",""time""
""focus"",""0"",""1""
""fullscreenenter"",""1"",""1554""
","
","""event"",""trial"",""time""
""focus"",""0"",""1""
","""event"",""trial"",""time""
""fullscreenenter"",""1"",""1554""
","
","","","","","","1798","<p> Now it's time to play another round. </p>","0","","transition_screen","","","","","","","","","","",""
"preload","176","608636","0.0-11.0-0.0","3855","2","16","Male","approach_avoid_spark_v1","""event"",""trial"",""time""
""focus"",""0"",""1""
""fullscreenenter"",""1"",""1554""
","
","""event"",""trial"",""time""
""focus"",""0"",""1""
","""event"",""trial"",""time""
""fullscreenenter"",""1"",""1554""
","
","true","false","[]","[]","[]","","","","","","","","","","","","","","","",""
"learning-instructions","177","617719","0.0-11.0-1.0-0.0","3855","2","16","Male","approach_avoid_spark_v1","""event"",""trial"",""time""
""focus"",""0"",""1""
""fullscreenenter"",""1"",""1554""
","
","""event"",""trial"",""time""
""focus"",""0"",""1""
","""event"",""trial"",""time""
""fullscreenenter"",""1"",""1554""
","
","","","","","","3875","<p> Your goal in this round is to sell different plants to a picky customer. </p></div>","","0","instructions","","","","","","","","","","",""
"learning-instructions","178","645383","0.0-11.0-1.0-0.1","3855","2","16","Male","approach_avoid_spark_v1","""event"",""trial"",""time""
""focus"",""0"",""1""
""fullscreenenter"",""1"",""1554""
","
","""event"",""trial"",""time""
""focus"",""0"",""1""
","""event"",""trial"",""time""
""fullscreenenter"",""1"",""1554""
","
","","","","","","18569","<p> The customer likes some plants and dislikes others.  </p><p> On each turn, you will see a plant.   </p><p> You need to decide whether to offer it to the customer or not.  </p>","","0","instructions","","","","","","","","","","",""
"learning-instructions","179","657534","0.0-11.0-1.0-0.2","3855","2","16","Male","approach_avoid_spark_v1","""event"",""trial"",""time""
""focus"",""0"",""1""
""fullscreenenter"",""1"",""1554""
","
","""event"",""trial"",""time""
""focus"",""0"",""1""
","""event"",""trial"",""time""
""fullscreenenter"",""1"",""1554""
","
","","","","","","6721","<p> You can offer the plant by pressing 1 and decide to not offer it by pressing 0. </p><br><div class=""choice-instructions-grid""> <div class=""choice-option""><img src=""images/approach.png"" class=""choice-option-img"" stage=""instructions"" position=""0"" ><div class=""choice-option-text""> Press ""1."" </div></div><div class=""choice-option""><img src=""images/avoid.png"" class=""choice-option-img"" stage=""instructions"" position=""1"" ><div class=""choice-option-text""> Press ""0."" </div></div>","","0","instructions","","","","","","","","","","",""
"learning-instructions","180","671118","0.0-11.0-1.0-0.3","3855","2","16","Male","approach_avoid_spark_v1","""event"",""trial"",""time""
""focus"",""0"",""1""
""fullscreenenter"",""1"",""1554""
","
","""event"",""trial"",""time""
""focus"",""0"",""1""
","""event"",""trial"",""time""
""fullscreenenter"",""1"",""1554""
","
","","","","","","4865","<p> If you offer a plant to the customer that she likes, she will be very pleased! </p><p> But if you offer a plant that she does NOT like, she will be annoyed. </p>","","0","instructions","","","","","","","","","","",""
"learning-instructions","181","687342","0.0-11.0-1.0-0.4","3855","2","16","Male","approach_avoid_spark_v1","""event"",""trial"",""time""
""focus"",""0"",""1""
""fullscreenenter"",""1"",""1554""
","
","""event"",""trial"",""time""
""focus"",""0"",""1""
","""event"",""trial"",""time""
""fullscreenenter"",""1"",""1554""
","
","","","","","","4028","<p> You will earn points based on how you made the customer feel. </p><p> If you made her pleased, you will WIN anywhere from 1 - 9 points, </p><p> but if you made her annoyed, you will LOSE anywhere from 1 - 9 points. </p>","","0","instructions","","","","","","","","","","",""
"learning-instructions","182","695565","0.0-11.0-1.0-0.5","3855","2","16","Male","approach_avoid_spark_v1","""event"",""trial"",""time""
""focus"",""0"",""1""
""fullscreenenter"",""1"",""1554""
","
","""event"",""trial"",""time""
""focus"",""0"",""1""
","""event"",""trial"",""time""
""fullscreenenter"",""1"",""1554""
","
","","","","","","1562","<p> You will see how many points you won or lost in the center of the screen. </p><p> Here is what you would see if you won 5 points: </p><p style=""color:green;font-size:50px;font-weight:bolder"">5</p>","","0","instructions","","","","","","","","","","",""
"learning-instructions","183","700789","0.0-11.0-1.0-0.6","3855","2","16","Male","approach_avoid_spark_v1","""event"",""trial"",""time""
""focus"",""0"",""1""
""fullscreenenter"",""1"",""1554""
","
","""event"",""trial"",""time""
""focus"",""0"",""1""
","""event"",""trial"",""time""
""fullscreenenter"",""1"",""1554""
","
","","","","","","2377","<p> And here is what you would see if you lost 3 points: </p><p style=""color:red;font-size:50px;font-weight:bolder"">-3</p>","","0","instructions","","","","","","","","","","",""
"learning-instructions","184","717557","0.0-11.0-1.0-0.7","3855","2","16","Male","approach_avoid_spark_v1","""event"",""trial"",""time""
""focus"",""0"",""1""
""fullscreenenter"",""1"",""1554""
","
","""event"",""trial"",""time""
""focus"",""0"",""1""
","""event"",""trial"",""time""
""fullscreenenter"",""1"",""1554""
","
","","","","","","2355","<p> Some plants will make the customer VERY pleased or annoyed. </p><p> These plants will make you win or lose LOTS of points. </p><p> The customer will have less strong feelings about other plants. </p><p> These plants will make you win or lose small amounts of points. </p>","","0","instructions","","","","","","","","","","",""
"learning-instructions","185","738589","0.0-11.0-1.0-0.8","3855","2","16","Male","approach_avoid_spark_v1","""event"",""trial"",""time""
""focus"",""0"",""1""
""fullscreenenter"",""1"",""1554""
","
","""event"",""trial"",""time""
""focus"",""0"",""1""
","""event"",""trial"",""time""
""fullscreenenter"",""1"",""1554""
","
","","","","","","8737","<p> If you choose to not offer the plant to the customer, you will not win or lose any points. </p><p>  However, in the center of the screen, you will see the number of points you WOULD HAVE won or lost if you had offered the plant. </p>","","0","instructions","","","","","","","","","","",""
"learning-instructions","186","754405","0.0-11.0-1.0-0.9","3855","2","16","Male","approach_avoid_spark_v1","""event"",""trial"",""time""
""focus"",""0"",""1""
""fullscreenenter"",""1"",""1554""
","
","""event"",""trial"",""time""
""focus"",""0"",""1""
","""event"",""trial"",""time""
""fullscreenenter"",""1"",""1554""
","
","","","","","","4632","<p> Here is what you might see if you did not offer the plant but the customer would have liked it: </p><p style=""color:grey; font-size:50px; display: inline-block; border-spacing: 15px; border-width:3px; border-style:solid; border-color:red"">  &nbsp; 6 &nbsp; </p><p> Remember, in this case, you would not win or lose ANY points because you did not offer the plant.  </p>","","0","instructions","","","","","","","","","","",""
"learning-instructions","187","765125","0.0-11.0-1.0-0.10","3855","2","16","Male","approach_avoid_spark_v1","""event"",""trial"",""time""
""focus"",""0"",""1""
""fullscreenenter"",""1"",""1554""
","
","""event"",""trial"",""time""
""focus"",""0"",""1""
","""event"",""trial"",""time""
""fullscreenenter"",""1"",""1554""
","
","","","","","","3312","<p> Try to make the best choice for each plant because </p><p> at the end of the game, you will earn bonus money based on how many points you earned. </p>","","0","instructions","","","","","","","","","","",""
"learning-instructions","188","776237","0.0-11.0-1.0-0.11","3855","2","16","Male","approach_avoid_spark_v1","""event"",""trial"",""time""
""focus"",""0"",""1""
""fullscreenenter"",""1"",""1554""
","
","""event"",""trial"",""time""
""focus"",""0"",""1""
","""event"",""trial"",""time""
""fullscreenenter"",""1"",""1554""
","
","","","","","","2914","<p> You will have 3 seconds to make each choice. Try to respond before time runs out! </p><p> You will lose 5 points each time you do not make a response. </p>","","0","instructions","","","","","","","","","","",""
"html-keyboard-response","189","776839","0.0-11.0-2.0-0.0","3855","2","16","Male","approach_avoid_spark_v1","""event"",""trial"",""time""
""focus"",""0"",""1""
""fullscreenenter"",""1"",""1554""
","
","""event"",""trial"",""time""
""focus"",""0"",""1""
","""event"",""trial"",""time""
""fullscreenenter"",""1"",""1554""
","
","","","","","","null","<div style=""font-size:60px;"">+</div>","null","","fixation","","","","","","","","","","",""
"aa-learning-trial","190","779841","0.0-11.0-2.0-1.0","3855","2","16","Male","approach_avoid_spark_v1","""event"",""trial"",""time""
""focus"",""0"",""1""
""fullscreenenter"",""1"",""1554""
","
","""event"",""trial"",""time""
""focus"",""0"",""1""
","""event"",""trial"",""time""
""fullscreenenter"",""1"",""1554""
","
","","","","","","1668","images/cactus1.png","","","learning","1","0","0","0","cactus","plants","1","1","","neutral","0"
"html-keyboard-response","191","780342","0.0-11.0-2.0-0.1","3855","2","16","Male","approach_avoid_spark_v1","""event"",""trial"",""time""
""focus"",""0"",""1""
""fullscreenenter"",""1"",""1554""
","
","""event"",""trial"",""time""
""focus"",""0"",""1""
","""event"",""trial"",""time""
""fullscreenenter"",""1"",""1554""
","
","","","","","","null","<div style=""font-size:60px;"">+</div>","null","","fixation","","","","","","","","","","",""
"aa-learning-trial","192","783344","0.0-11.0-2.0-1.1","3855","2","16","Male","approach_avoid_spark_v1","""event"",""trial"",""time""
""focus"",""0"",""1""
""fullscreenenter"",""1"",""1554""
","
","""event"",""trial"",""time""
""focus"",""0"",""1""
","""event"",""trial"",""time""
""fullscreenenter"",""1"",""1554""
","
","","","","","","613","images/tree5.png","","","learning","-2","-2","1","1","tree","plants","1","1","","bad","[-4]"
"html-keyboard-response","193","783846","0.0-11.0-2.0-0.2","3855","2","16","Male","approach_avoid_spark_v1","""event"",""trial"",""time""
""focus"",""0"",""1""
""fullscreenenter"",""1"",""1554""
","
","""event"",""trial"",""time""
""focus"",""0"",""1""
","""event"",""trial"",""time""
""fullscreenenter"",""1"",""1554""
","
","","","","","","null","<div style=""font-size:60px;"">+</div>","null","","fixation","","","","","","","","","","",""
"aa-learning-trial","194","786847","0.0-11.0-2.0-1.2","3855","2","16","Male","approach_avoid_spark_v1","""event"",""trial"",""time""
""focus"",""0"",""1""
""fullscreenenter"",""1"",""1554""
","
","""event"",""trial"",""time""
""focus"",""0"",""1""
","""event"",""trial"",""time""
""fullscreenenter"",""1"",""1554""
","
","","","","","","1239","images/bush5.png","","","learning","5","5","1","1","bush","plants","1","1","","good","[6]"
"html-keyboard-response","195","787348","0.0-11.0-2.0-0.3","3855","2","16","Male","approach_avoid_spark_v1","""event"",""trial"",""time""
""focus"",""0"",""1""
""fullscreenenter"",""1"",""1554""
","
","""event"",""trial"",""time""
""focus"",""0"",""1""
","""event"",""trial"",""time""
""fullscreenenter"",""1"",""1554""
","
","","","","","","null","<div style=""font-size:60px;"">+</div>","null","","fixation","","","","","","","","","","",""
"aa-learning-trial","196","790350","0.0-11.0-2.0-1.3","3855","2","16","Male","approach_avoid_spark_v1","""event"",""trial"",""time""
""focus"",""0"",""1""
""fullscreenenter"",""1"",""1554""
","
","""event"",""trial"",""time""
""focus"",""0"",""1""
","""event"",""trial"",""time""
""fullscreenenter"",""1"",""1554""
","
","","","","","","776","images/cactus8.png","","","learning","2","2","1","1","cactus","plants","1","1","","neutral","0"
"html-keyboard-response","197","790851","0.0-11.0-2.0-0.4","3855","2","16","Male","approach_avoid_spark_v1","""event"",""trial"",""time""
""focus"",""0"",""1""
""fullscreenenter"",""1"",""1554""
","
","""event"",""trial"",""time""
""focus"",""0"",""1""
","""event"",""trial"",""time""
""fullscreenenter"",""1"",""1554""
","
","","","","","","null","<div style=""font-size:60px;"">+</div>","null","","fixation","","","","","","","","","","",""
"aa-learning-trial","198","793854","0.0-11.0-2.0-1.4","3855","2","16","Male","approach_avoid_spark_v1","""event"",""trial"",""time""
""focus"",""0"",""1""
""fullscreenenter"",""1"",""1554""
","
","""event"",""trial"",""time""
""focus"",""0"",""1""
","""event"",""trial"",""time""
""fullscreenenter"",""1"",""1554""
","
","","","","","","743","images/cactus7.png","","","learning","[-1]","-1","1","1","cactus","plants","1","1","","neutral","0"
"html-keyboard-response","199","794355","0.0-11.0-2.0-0.5","3855","2","16","Male","approach_avoid_spark_v1","""event"",""trial"",""time""
""focus"",""0"",""1""
""fullscreenenter"",""1"",""1554""
","
","""event"",""trial"",""time""
""focus"",""0"",""1""
","""event"",""trial"",""time""
""fullscreenenter"",""1"",""1554""
","
","","","","","","null","<div style=""font-size:60px;"">+</div>","null","","fixation","","","","","","","","","","",""
"aa-learning-trial","200","797358","0.0-11.0-2.0-1.5","3855","2","16","Male","approach_avoid_spark_v1","""event"",""trial"",""time""
""focus"",""0"",""1""
""fullscreenenter"",""1"",""1554""
","
","""event"",""trial"",""time""
""focus"",""0"",""1""
","""event"",""trial"",""time""
""fullscreenenter"",""1"",""1554""
","
","","","","","","775","images/tree3.png","","","learning","-8","-8","1","1","tree","plants","1","1","","bad","[-4]"
"html-keyboard-response","201","797859","0.0-11.0-2.0-0.6","3855","2","16","Male","approach_avoid_spark_v1","""event"",""trial"",""time""
""focus"",""0"",""1""
""fullscreenenter"",""1"",""1554""
","
","""event"",""trial"",""time""
""focus"",""0"",""1""
","""event"",""trial"",""time""
""fullscreenenter"",""1"",""1554""
","
","","","","","","null","<div style=""font-size:60px;"">+</div>","null","","fixation","","","","","","","","","","",""
