"trial_type","trial_index","time_elapsed","internal_node_id","subject_id","task_condition","age","gender","task_version","interactions","blur_events","focus_events","fullscreenenter_events","fullscreenexit_events","success","timeout","failed_images","failed_audio","failed_video","rt","stimulus","response","button_pressed","task_part","approach_reward","points","key_press","option_selected","stim_cat","task_block","block_condition","block_number","correct","cat_type","mean_cat_reward"
"pavlovia","0","5","0.0-0.0","6055","2","11","Female","approach_avoid_spark_v1","""event"",""trial"",""time""
""fullscreenenter"",""1"",""5707""
","
","
","""event"",""trial"",""time""
""fullscreenenter"",""1"",""5707""
","
","","","","","","","","","","","","","","","","","","","","",""
"fullscreen","1","6675","0.0-1.0","6055","2","11","Female","approach_avoid_spark_v1","""event"",""trial"",""time""
""fullscreenenter"",""1"",""5707""
","
","
","""event"",""trial"",""time""
""fullscreenenter"",""1"",""5707""
","
","true","","","","","","","","","","","","","","","","","","","",""
"preload","2","16354","0.0-2.0","6055","2","11","Female","approach_avoid_spark_v1","""event"",""trial"",""time""
""fullscreenenter"",""1"",""5707""
","
","
","""event"",""trial"",""time""
""fullscreenenter"",""1"",""5707""
","
","true","false","[]","[]","[]","","","","","","","","","","","","","","","",""
"audio-keyboard-response","3","20619","0.0-3.0","6055","2","11","Female","approach_avoid_spark_v1","""event"",""trial"",""time""
""fullscreenenter"",""1"",""5707""
","
","
","""event"",""trial"",""time""
""fullscreenenter"",""1"",""5707""
","
","","","","","","4261.333333333333","audio/beep_loop.wav"," ","","","","","","","","","","","","",""
"audio-button-response","4","24908","0.0-4.0","6055","2","11","Female","approach_avoid_spark_v1","""event"",""trial"",""time""
""fullscreenenter"",""1"",""5707""
","
","
","""event"",""trial"",""time""
""fullscreenenter"",""1"",""5707""
","
","","","","","","4280","audio/shark.wav","4","","","","","","","","","","","","",""
"audio-button-response","5","28057","0.0-5.0","6055","2","11","Female","approach_avoid_spark_v1","""event"",""trial"",""time""
""fullscreenenter"",""1"",""5707""
","
","
","""event"",""trial"",""time""
""fullscreenenter"",""1"",""5707""
","
","","","","","","2131","audio/turtle.wav","1","","","","","","","","","","","","",""
"preload","6","31898","0.0-6.0","6055","2","11","Female","approach_avoid_spark_v1","""event"",""trial"",""time""
""fullscreenenter"",""1"",""5707""
","
","
","""event"",""trial"",""time""
""fullscreenenter"",""1"",""5707""
","
","true","false","[]","[]","[]","","","","","","","","","","","","","","","",""
"html-keyboard-response","7","42462","0.0-7.0","6055","2","11","Female","approach_avoid_spark_v1","""event"",""trial"",""time""
""fullscreenenter"",""1"",""5707""
","
","
","""event"",""trial"",""time""
""fullscreenenter"",""1"",""5707""
","
","","","","","","10562.5","Welcome to the experiment. Press any key to begin and to advance the instructions."," ","","","","","","","","","","","","",""
"learning-instructions","8","51114","0.0-8.0-0.0-0.0","6055","2","11","Female","approach_avoid_spark_v1","""event"",""trial"",""time""
""fullscreenenter"",""1"",""5707""
","
","
","""event"",""trial"",""time""
""fullscreenenter"",""1"",""5707""
","
","","","","","","1691.2000000178814","<p> Welcome! Today you are going to play 6 different rounds of a decision-making game. </p><p> Use the mouse to click next to continue. </p>","","0","instructions","","","","","","","","","","",""
"learning-instructions","9","56288","0.0-8.0-0.0-0.1","6055","2","11","Female","approach_avoid_spark_v1","""event"",""trial"",""time""
""fullscreenenter"",""1"",""5707""
","
","
","""event"",""trial"",""time""
""fullscreenenter"",""1"",""5707""
","
","","","","","","2445.7999999821186","<p> You will start with a practice round to learn the rules. </p>","","0","instructions","","","","","","","","","","",""
"learning-instructions","10","60023","0.0-8.0-0.0-0.2","6055","2","11","Female","approach_avoid_spark_v1","""event"",""trial"",""time""
""fullscreenenter"",""1"",""5707""
","
","
","""event"",""trial"",""time""
""fullscreenenter"",""1"",""5707""
","
","","","","","","260.2000000178814","<p> Your goal in this round is to give out sports equipment to kids. </p></div>","","0","instructions","","","","","","","","","","",""
"learning-instructions","11","68517","0.0-8.0-0.0-0.3","6055","2","11","Female","approach_avoid_spark_v1","""event"",""trial"",""time""
""fullscreenenter"",""1"",""5707""
","
","
","""event"",""trial"",""time""
""fullscreenenter"",""1"",""5707""
","
","","","","","","934.7999999821186","<p> The kids only like some of the equipment.  </p><p> On each turn, you will see a piece of sports equipment.   </p><p> You need to decide whether to give it to the kids or not.  </p>","","0","instructions","","","","","","","","","","",""
"learning-instructions","12","75831","0.0-8.0-0.0-0.4","6055","2","11","Female","approach_avoid_spark_v1","""event"",""trial"",""time""
""fullscreenenter"",""1"",""5707""
","
","
","""event"",""trial"",""time""
""fullscreenenter"",""1"",""5707""
","
","","","","","","2548.199999988079","<p> You can give them the equipment by pressing 1 and choose not to give it to them by pressing 0. </p><br><div class=""choice-instructions-grid""> <div class=""choice-option""><img src=""images/approach.png"" class=""choice-option-img"" stage=""instructions"" position=""0"" ><div class=""choice-option-text""> Press ""1."" </div></div><div class=""choice-option""><img src=""images/avoid.png"" class=""choice-option-img"" stage=""instructions"" position=""1"" ><div class=""choice-option-text""> Press ""0."" </div></div>","","0","instructions","","","","","","","","","","",""
"learning-instructions","13","83773","0.0-8.0-0.0-0.5","6055","2","11","Female","approach_avoid_spark_v1","""event"",""trial"",""time""
""fullscreenenter"",""1"",""5707""
","
","
","""event"",""trial"",""time""
""fullscreenenter"",""1"",""5707""
","
","","","","","","550.9000000059605","<p> If you give them a piece of equipment they like, they will be happy! </p><p> But if you give them a piece of equipment they do not like, they will be sad. </p>","","0","instructions","","","","","","","","","","",""
"learning-instructions","14","94733","0.0-8.0-0.0-0.6","6055","2","11","Female","approach_avoid_spark_v1","""event"",""trial"",""time""
""fullscreenenter"",""1"",""5707""
","
","
","""event"",""trial"",""time""
""fullscreenenter"",""1"",""5707""
","
","","","","","","430","<p> You will earn points based on how you make kids feel. </p><p> If you make them happy, you will WIN anywhere from 1 - 9 points, </p><p> but if you make them sad, you will LOSE anywhere from 1 - 9 points. </p>","","0","instructions","","","","","","","","","","",""
"learning-instructions","15","105274","0.0-8.0-0.0-0.7","6055","2","11","Female","approach_avoid_spark_v1","""event"",""trial"",""time""
""fullscreenenter"",""1"",""5707""
","
","
","""event"",""trial"",""time""
""fullscreenenter"",""1"",""5707""
","
","","","","","","980.7999999821186","<p> You will see how many points you won or lost in the center of the screen. </p><p> Here is what you would see if you won 6 points: </p><p style=""color:green;font-size:50px;font-weight:bolder"">6</p><p style=""color:green"">The text is GREEN because you WON points.</p>","","0","instructions","","","","","","","","","","",""
"learning-instructions","16","111338","0.0-8.0-0.0-0.8","6055","2","11","Female","approach_avoid_spark_v1","""event"",""trial"",""time""
""fullscreenenter"",""1"",""5707""
","
","
","""event"",""trial"",""time""
""fullscreenenter"",""1"",""5707""
","
","","","","","","555.2999999821186","<p> And here is what you would see if you lost 4 points: </p><p style=""color:red;font-size:50px;font-weight:bolder"">-4</p><p style=""color:red"">The text is RED because you LOST points. </p>","","0","instructions","","","","","","","","","","",""
"learning-instructions","17","127548","0.0-8.0-0.0-0.9","6055","2","11","Female","approach_avoid_spark_v1","""event"",""trial"",""time""
""fullscreenenter"",""1"",""5707""
","
","
","""event"",""trial"",""time""
""fullscreenenter"",""1"",""5707""
","
","","","","","","1488.199999988079","<p> Some of the equipment will make the kids VERY happy or sad. </p><p> These pieces of equipment will make you win or lose LOTS of points. </p><p> Other pieces of equipment will only make the kids a little happy or sad. </p><p> These pieces of equipment will make you win or lose small amounts of points. </p>","","0","instructions","","","","","","","","","","",""
"learning-instructions","18","138574","0.0-8.0-0.0-0.10","6055","2","11","Female","approach_avoid_spark_v1","""event"",""trial"",""time""
""fullscreenenter"",""1"",""5707""
","
","
","""event"",""trial"",""time""
""fullscreenenter"",""1"",""5707""
","
","","","","","","381","<p> If you choose not to give them the equipment, you will not win or lose any points. </p><p>  However, in the center of the screen, you will see the number of points you WOULD HAVE won or lost if you had given them the equipment. </p>","","0","instructions","","","","","","","","","","",""
"learning-instructions","19","161830","0.0-8.0-0.0-0.11","6055","2","11","Female","approach_avoid_spark_v1","""event"",""trial"",""time""
""fullscreenenter"",""1"",""5707""
","
","
","""event"",""trial"",""time""
""fullscreenenter"",""1"",""5707""
","
","","","","","","1729.699999988079","<p> Here is what you might see if you did not give the equipment to the kids but it would have made them happy: </p><p style=""color:grey; font-size:50px; display: inline-block; border-spacing: 15px; border-width:3px; border-style:solid; border-color:red"">  &nbsp; 7 &nbsp; </p><p> Remember, in this case, you would not win or lose ANY points because you did not give them the equipment.  </p><p style=""color:grey"">The text is GREY because you earned ZERO points. </p><p style=""color:red"">However, choosing to give the kids the equipment would have made you win points. The box around the text is RED because you chose the worse option. </p>","","0","instructions","","","","","","","","","","",""
"learning-instructions","20","184748","0.0-8.0-0.0-0.12","6055","2","11","Female","approach_avoid_spark_v1","""event"",""trial"",""time""
""fullscreenenter"",""1"",""5707""
","
","
","""event"",""trial"",""time""
""fullscreenenter"",""1"",""5707""
","
","","","","","","1836.0999999940395","<p> Here is what you might see if you did not give the equipment to the kids but it would have made them sad: </p><p style=""color:grey;font-size:50px; display: inline-block; border-spacing: 15px; border-width:3px; border-style:solid; border-color:green"">  &nbsp; -8 &nbsp; </p><p> Remember, in this case, you would not win or lose ANY points because you did not give them the equipment.  </p><p style=""color:grey"">The text is GREY because you earned ZERO points. </p><p  style=""color:green""> Choosing to give the kids the equipment would have made you lose points. The box around the text is GREEN because you chose the better option.</p>","","0","instructions","","","","","","","","","","",""
"learning-instructions","21","203398","0.0-8.0-0.0-0.13","6055","2","11","Female","approach_avoid_spark_v1","""event"",""trial"",""time""
""fullscreenenter"",""1"",""5707""
","
","
","""event"",""trial"",""time""
""fullscreenenter"",""1"",""5707""
","
","","","","","","8885.90000000596","<p> You will have 3 seconds to make each choice. Try to respond before time runs out! </p><p> You will lose 5 points each time you do not make a response. </p>","","0","instructions","","","","","","","","","","",""
"learning-instructions","22","209482","0.0-8.0-0.0-0.14","6055","2","11","Female","approach_avoid_spark_v1","""event"",""trial"",""time""
""fullscreenenter"",""1"",""5707""
","
","
","""event"",""trial"",""time""
""fullscreenenter"",""1"",""5707""
","
","","","","","","649.5","<p> This is just a practice round, but in the real game, your bonus payment will depend on your total number of points.","","0","instructions","","","","","","","","","","",""
"learning-instructions","23","215754","0.0-8.0-0.0-0.15","6055","2","11","Female","approach_avoid_spark_v1","""event"",""trial"",""time""
""fullscreenenter"",""1"",""5707""
","
","
","""event"",""trial"",""time""
""fullscreenenter"",""1"",""5707""
","
","","","","","","491.2000000178814","<p> Remember, you can give them the equipment by pressing 1 and choose not to give it to them by pressing 0. </p><br><div class=""choice-instructions-grid""> <div class=""choice-option""><img src=""images/approach.png"" class=""choice-option-img"" stage=""instructions"" position=""0"" ><div class=""choice-option-text""> Press ""1."" </div></div><div class=""choice-option""><img src=""images/avoid.png"" class=""choice-option-img"" stage=""instructions"" position=""1"" ><div class=""choice-option-text""> Press ""0."" </div></div>","","0","instructions","","","","","","","","","","",""
"html-button-response","24","219436","0.0-8.0-1.0","6055","2","11","Female","approach_avoid_spark_v1","""event"",""trial"",""time""
""fullscreenenter"",""1"",""5707""
","
","
","""event"",""trial"",""time""
""fullscreenenter"",""1"",""5707""
","
","","","","","","3573.699999988079","<p> Ready to practice? </p>","0","","","","","","","","","","","","",""
"html-keyboard-response","25","220070","0.0-8.0-2.0-0.0","6055","2","11","Female","approach_avoid_spark_v1","""event"",""trial"",""time""
""fullscreenenter"",""1"",""5707""
","
","
","""event"",""trial"",""time""
""fullscreenenter"",""1"",""5707""
","
","","","","","","null","<div style=""font-size:60px;"">+</div>","null","","fixation","","","","","","","","","","",""
"aa-learning-trial","26","223081","0.0-8.0-2.0-1.0","6055","2","11","Female","approach_avoid_spark_v1","""event"",""trial"",""time""
""fullscreenenter"",""1"",""5707""
","
","
","""event"",""trial"",""time""
""fullscreenenter"",""1"",""5707""
","
","","","","","","null","images/ball3.png","","","learning","3","-5","","null","practice","practice","practice","-1","","",""
"html-keyboard-response","27","223600","0.0-8.0-2.0-0.1","6055","2","11","Female","approach_avoid_spark_v1","""event"",""trial"",""time""
""fullscreenenter"",""1"",""5707""
","
","
","""event"",""trial"",""time""
""fullscreenenter"",""1"",""5707""
","
","","","","","","null","<div style=""font-size:60px;"">+</div>","null","","fixation","","","","","","","","","","",""
"aa-learning-trial","28","226620","0.0-8.0-2.0-1.1","6055","2","11","Female","approach_avoid_spark_v1","""event"",""trial"",""time""
""fullscreenenter"",""1"",""5707""
","
","
","""event"",""trial"",""time""
""fullscreenenter"",""1"",""5707""
","
","","","","","","1379.6000000238419","images/racket4.png","","","learning","9","9","1","1","practice","practice","practice","-1","","",""
"html-keyboard-response","29","227130","0.0-8.0-2.0-0.2","6055","2","11","Female","approach_avoid_spark_v1","""event"",""trial"",""time""
""fullscreenenter"",""1"",""5707""
","
","
","""event"",""trial"",""time""
""fullscreenenter"",""1"",""5707""
","
","","","","","","null","<div style=""font-size:60px;"">+</div>","null","","fixation","","","","","","","","","","",""
"aa-learning-trial","30","230160","0.0-8.0-2.0-1.2","6055","2","11","Female","approach_avoid_spark_v1","""event"",""trial"",""time""
""fullscreenenter"",""1"",""5707""
","
","
","""event"",""trial"",""time""
""fullscreenenter"",""1"",""5707""
","
","","","","","","1480.7000000178814","images/ball2.png","","","learning","-4","-4","1","1","practice","practice","practice","-1","","",""
"html-keyboard-response","31","230679","0.0-8.0-2.0-0.3","6055","2","11","Female","approach_avoid_spark_v1","""event"",""trial"",""time""
""fullscreenenter"",""1"",""5707""
","
","
","""event"",""trial"",""time""
""fullscreenenter"",""1"",""5707""
","
","","","","","","null","<div style=""font-size:60px;"">+</div>","null","","fixation","","","","","","","","","","",""
"aa-learning-trial","32","233700","0.0-8.0-2.0-1.3","6055","2","11","Female","approach_avoid_spark_v1","""event"",""trial"",""time""
""fullscreenenter"",""1"",""5707""
","
","
","""event"",""trial"",""time""
""fullscreenenter"",""1"",""5707""
","
","","","","","","699.9000000059605","images/racket1.png","","","learning","1","1","1","1","practice","practice","practice","-1","","",""
"html-keyboard-response","33","234220","0.0-8.0-2.0-0.4","6055","2","11","Female","approach_avoid_spark_v1","""event"",""trial"",""time""
""fullscreenenter"",""1"",""5707""
","
","
","""event"",""trial"",""time""
""fullscreenenter"",""1"",""5707""
","
","","","","","","null","<div style=""font-size:60px;"">+</div>","null","","fixation","","","","","","","","","","",""
"aa-learning-trial","34","237230","0.0-8.0-2.0-1.4","6055","2","11","Female","approach_avoid_spark_v1","""event"",""trial"",""time""
""fullscreenenter"",""1"",""5707""
","
","
","""event"",""trial"",""time""
""fullscreenenter"",""1"",""5707""
","
","","","","","","560.2999999821186","images/racket1.png","","","learning","9","9","1","1","practice","practice","practice","-1","","",""
"html-keyboard-response","35","237749","0.0-8.0-2.0-0.5","6055","2","11","Female","approach_avoid_spark_v1","""event"",""trial"",""time""
""fullscreenenter"",""1"",""5707""
","
","
","""event"",""trial"",""time""
""fullscreenenter"",""1"",""5707""
","
","","","","","","null","<div style=""font-size:60px;"">+</div>","null","","fixation","","","","","","","","","","",""
"aa-learning-trial","36","240770","0.0-8.0-2.0-1.5","6055","2","11","Female","approach_avoid_spark_v1","""event"",""trial"",""time""
""fullscreenenter"",""1"",""5707""
","
","
","""event"",""trial"",""time""
""fullscreenenter"",""1"",""5707""
","
","","","","","","502.09999999403954","images/ball4.png","","","learning","-3","0","0","0","practice","practice","practice","-1","","",""
"html-keyboard-response","37","241289","0.0-8.0-2.0-0.6","6055","2","11","Female","approach_avoid_spark_v1","""event"",""trial"",""time""
""fullscreenenter"",""1"",""5707""
","
","
","""event"",""trial"",""time""
""fullscreenenter"",""1"",""5707""
","
","","","","","","null","<div style=""font-size:60px;"">+</div>","null","","fixation","","","","","","","","","","",""
"aa-learning-trial","38","244301","0.0-8.0-2.0-1.6","6055","2","11","Female","approach_avoid_spark_v1","""event"",""trial"",""time""
""fullscreenenter"",""1"",""5707""
","
","
","""event"",""trial"",""time""
""fullscreenenter"",""1"",""5707""
","
","","","","","","1212.0999999940395","images/ball2.png","","","learning","8","8","1","1","practice","practice","practice","-1","","",""
"html-keyboard-response","39","244809","0.0-8.0-2.0-0.7","6055","2","11","Female","approach_avoid_spark_v1","""event"",""trial"",""time""
""fullscreenenter"",""1"",""5707""
","
","
","""event"",""trial"",""time""
""fullscreenenter"",""1"",""5707""
","
","","","","","","null","<div style=""font-size:60px;"">+</div>","null","","fixation","","","","","","","","","","",""
"aa-learning-trial","40","247816","0.0-8.0-2.0-1.7","6055","2","11","Female","approach_avoid_spark_v1","""event"",""trial"",""time""
""fullscreenenter"",""1"",""5707""
","
","
","""event"",""trial"",""time""
""fullscreenenter"",""1"",""5707""
","
","","","","","","681","images/racket4.png","","","learning","2","2","1","1","practice","practice","practice","-1","","",""
"html-keyboard-response","41","248330","0.0-8.0-2.0-0.8","6055","2","11","Female","approach_avoid_spark_v1","""event"",""trial"",""time""
""fullscreenenter"",""1"",""5707""
","
","
","""event"",""trial"",""time""
""fullscreenenter"",""1"",""5707""
","
","","","","","","null","<div style=""font-size:60px;"">+</div>","null","","fixation","","","","","","","","","","",""
"aa-learning-trial","42","251335","0.0-8.0-2.0-1.8","6055","2","11","Female","approach_avoid_spark_v1","""event"",""trial"",""time""
""fullscreenenter"",""1"",""5707""
","
","
","""event"",""trial"",""time""
""fullscreenenter"",""1"",""5707""
","
","","","","","","859.1999999880791","images/ball4.png","","","learning","1","0","0","0","practice","practice","practice","-1","","",""
"html-keyboard-response","43","251839","0.0-8.0-2.0-0.9","6055","2","11","Female","approach_avoid_spark_v1","""event"",""trial"",""time""
""fullscreenenter"",""1"",""5707""
","
","
","""event"",""trial"",""time""
""fullscreenenter"",""1"",""5707""
","
","","","","","","null","<div style=""font-size:60px;"">+</div>","null","","fixation","","","","","","","","","","",""
"aa-learning-trial","44","254848","0.0-8.0-2.0-1.9","6055","2","11","Female","approach_avoid_spark_v1","""event"",""trial"",""time""
""fullscreenenter"",""1"",""5707""
","
","
","""event"",""trial"",""time""
""fullscreenenter"",""1"",""5707""
","
","","","","","","736.3999999761581","images/ball3.png","","","learning","6","6","1","1","practice","practice","practice","-1","","",""
"html-keyboard-response","45","255351","0.0-8.0-2.0-0.10","6055","2","11","Female","approach_avoid_spark_v1","""event"",""trial"",""time""
""fullscreenenter"",""1"",""5707""
","
","
","""event"",""trial"",""time""
""fullscreenenter"",""1"",""5707""
","
","","","","","","null","<div style=""font-size:60px;"">+</div>","null","","fixation","","","","","","","","","","",""
"aa-learning-trial","46","258360","0.0-8.0-2.0-1.10","6055","2","11","Female","approach_avoid_spark_v1","""event"",""trial"",""time""
""fullscreenenter"",""1"",""5707""
","
","
","""event"",""trial"",""time""
""fullscreenenter"",""1"",""5707""
","
","","","","","","760.3000000119209","images/racket2.png","","","learning","4","4","1","1","practice","practice","practice","-1","","",""
"html-keyboard-response","47","258864","0.0-8.0-2.0-0.11","6055","2","11","Female","approach_avoid_spark_v1","""event"",""trial"",""time""
""fullscreenenter"",""1"",""5707""
","
","
","""event"",""trial"",""time""
""fullscreenenter"",""1"",""5707""
","
","","","","","","null","<div style=""font-size:60px;"">+</div>","null","","fixation","","","","","","","","","","",""
"aa-learning-trial","48","261872","0.0-8.0-2.0-1.11","6055","2","11","Female","approach_avoid_spark_v1","""event"",""trial"",""time""
""fullscreenenter"",""1"",""5707""
","
","
","""event"",""trial"",""time""
""fullscreenenter"",""1"",""5707""
","
","","","","","","499.7999999821186","images/ball2.png","","","learning","6","6","1","1","practice","practice","practice","-1","","",""
"html-button-response","49","267954","0.0-8.0-3.0","6055","2","11","Female","approach_avoid_spark_v1","""event"",""trial"",""time""
""fullscreenenter"",""1"",""5707""
","
","
","""event"",""trial"",""time""
""fullscreenenter"",""1"",""5707""
","
","","","","","","6081","<p> You earned 36 points in the practice round! </p>","0","","break","","","","","","","","","","",""
"learning-instructions","50","275402","0.0-8.0-4.0-0.0","6055","2","11","Female","approach_avoid_spark_v1","""event"",""trial"",""time""
""fullscreenenter"",""1"",""5707""
","
","
","""event"",""trial"",""time""
""fullscreenenter"",""1"",""5707""
","
","","","","","","1293.5999999940395","<p> It's almost time to start the real game. </p><p> Before you start, we're going to ask you a few questions about how the game works. </p>","","0","instructions","","","","","","","","","","",""
"preload","51","277685","0.0-8.0-5.0","6055","2","11","Female","approach_avoid_spark_v1","""event"",""trial"",""time""
""fullscreenenter"",""1"",""5707""
","
","
","""event"",""trial"",""time""
""fullscreenenter"",""1"",""5707""
","
","true","false","[]","[]","[]","","","","","","","","","","","","","","","",""
"comp-q","52","283986","0.0-8.0-6.0-0.0","6055","2","11","Female","approach_avoid_spark_v1","""event"",""trial"",""time""
""fullscreenenter"",""1"",""5707""
","
","
","""event"",""trial"",""time""
""fullscreenenter"",""1"",""5707""
","
","","","","","","1306.4000000059605","<p> <b> True or False? </b> </p><p> If you see a number in GREY, that means you earned that many points. </p>","","1","comp_question","","","","","","","","","true","",""
"comp-q","53","294313","0.0-8.0-6.0-1.0","6055","2","11","Female","approach_avoid_spark_v1","""event"",""trial"",""time""
""fullscreenenter"",""1"",""5707""
","
","
","""event"",""trial"",""time""
""fullscreenenter"",""1"",""5707""
","
","","","","","","1954.1000000238419","<p><b> That's right! </b> If you see a grey number, it means you earned ZERO points. <br> The grey numbers show the points you WOULD HAVE earned if you had made the other choice. </p>","","0","comp_answer","","","","","","","","","","",""
"comp-q","54","299782","0.0-8.0-7.0-0.0","6055","2","11","Female","approach_avoid_spark_v1","""event"",""trial"",""time""
""fullscreenenter"",""1"",""5707""
","
","
","""event"",""trial"",""time""
""fullscreenenter"",""1"",""5707""
","
","","","","","","762.6999999880791","<p> <b> True or False? </b> </p><p> You will have as much time as you want to make each choice. </p>","","1","comp_question","","","","","","","","","true","",""
"comp-q","55","306578","0.0-8.0-7.0-1.0","6055","2","11","Female","approach_avoid_spark_v1","""event"",""trial"",""time""
""fullscreenenter"",""1"",""5707""
","
","
","""event"",""trial"",""time""
""fullscreenenter"",""1"",""5707""
","
","","","","","","2738","<p> <b> That's right! </b> You will only have 3 seconds to make each choice. </p>","","0","comp_answer","","","","","","","","","","",""
"comp-q","56","311540","0.0-8.0-8.0-0.0","6055","2","11","Female","approach_avoid_spark_v1","""event"",""trial"",""time""
""fullscreenenter"",""1"",""5707""
","
","
","""event"",""trial"",""time""
""fullscreenenter"",""1"",""5707""
","
","","","","","","289.5","<p> <b> True or False? </b> </p><p> You should use the '1' and '0' keys to make your choices. </p>","","0","comp_question","","","","","","","","","true","",""
"comp-q","57","317513","0.0-8.0-8.0-1.0","6055","2","11","Female","approach_avoid_spark_v1","""event"",""trial"",""time""
""fullscreenenter"",""1"",""5707""
","
","
","""event"",""trial"",""time""
""fullscreenenter"",""1"",""5707""
","
","","","","","","1342.9000000059605","<p> <b> That's right! </b> You should use the '1' and '0' keys to make each choice. </p>","","0","comp_answer","","","","","","","","","","",""
"learning-instructions","58","325613","0.0-8.0-9.0-0.0","6055","2","11","Female","approach_avoid_spark_v1","""event"",""trial"",""time""
""fullscreenenter"",""1"",""5707""
","
","
","""event"",""trial"",""time""
""fullscreenenter"",""1"",""5707""
","
","","","","","","1823.7999999821186","<p> It's now time to start the real game. </p>Do your best, because the points you earn in the next rounds will influence your bonus payment. </p>","","0","instructions","","","","","","","","","","",""
"preload","59","325755","0.0-9.0-0.0","6055","2","11","Female","approach_avoid_spark_v1","""event"",""trial"",""time""
""fullscreenenter"",""1"",""5707""
","
","
","""event"",""trial"",""time""
""fullscreenenter"",""1"",""5707""
","
","true","false","[]","[]","[]","","","","","","","","","","","","","","","",""
"learning-instructions","60","332036","0.0-9.0-1.0-0.0","6055","2","11","Female","approach_avoid_spark_v1","""event"",""trial"",""time""
""fullscreenenter"",""1"",""5707""
","
","
","""event"",""trial"",""time""
""fullscreenenter"",""1"",""5707""
","
","","","","","","1126.9000000059605","<p> Your goal in this round is to take your friend for rides in different vehicles. </p></div>","","0","instructions","","","","","","","","","","",""
"learning-instructions","61","343320","0.0-9.0-1.0-0.1","6055","2","11","Female","approach_avoid_spark_v1","""event"",""trial"",""time""
""fullscreenenter"",""1"",""5707""
","
","
","""event"",""trial"",""time""
""fullscreenenter"",""1"",""5707""
","
","","","","","","1100.5","<p> Your friend enjoys riding in some vehicles but not in others.  </p><p> On each turn, you will see a vehicle.   </p><p> You need to decide whether to take your friend for a ride or not.  </p>","","0","instructions","","","","","","","","","","",""
"learning-instructions","62","351410","0.0-9.0-1.0-0.2","6055","2","11","Female","approach_avoid_spark_v1","""event"",""trial"",""time""
""fullscreenenter"",""1"",""5707""
","
","
","""event"",""trial"",""time""
""fullscreenenter"",""1"",""5707""
","
","","","","","","1469.800000011921","<p> You can take your friend for a ride in the vehicle by pressing 1 and skip the ride by pressing 0. </p><br><div class=""choice-instructions-grid""> <div class=""choice-option""><img src=""images/approach.png"" class=""choice-option-img"" stage=""instructions"" position=""0"" ><div class=""choice-option-text""> Press ""1."" </div></div><div class=""choice-option""><img src=""images/avoid.png"" class=""choice-option-img"" stage=""instructions"" position=""1"" ><div class=""choice-option-text""> Press ""0."" </div></div>","","0","instructions","","","","","","","","","","",""
"learning-instructions","63","361231","0.0-9.0-1.0-0.3","6055","2","11","Female","approach_avoid_spark_v1","""event"",""trial"",""time""
""fullscreenenter"",""1"",""5707""
","
","
","""event"",""trial"",""time""
""fullscreenenter"",""1"",""5707""
","
","","","","","","901.5999999940395","<p> If you take them for a ride in a vehicle they like, they will be thrilled! </p><p> But if you take them for a ride in a vehicle they do not like, they will be upset. </p>","","0","instructions","","","","","","","","","","",""
"learning-instructions","64","375296","0.0-9.0-1.0-0.4","6055","2","11","Female","approach_avoid_spark_v1","""event"",""trial"",""time""
""fullscreenenter"",""1"",""5707""
","
","
","""event"",""trial"",""time""
""fullscreenenter"",""1"",""5707""
","
","","","","","","2085.7999999821186","<p> You will earn points based on how you made your friend feel. </p><p> If you made him thrilled, you will WIN anywhere from 1 - 9 points, </p><p> but if you made him upset, you will LOSE anywhere from 1 - 9 points. </p>","","0","instructions","","","","","","","","","","",""
"learning-instructions","65","383497","0.0-9.0-1.0-0.5","6055","2","11","Female","approach_avoid_spark_v1","""event"",""trial"",""time""
""fullscreenenter"",""1"",""5707""
","
","
","""event"",""trial"",""time""
""fullscreenenter"",""1"",""5707""
","
","","","","","","528","<p> You will see how many points you won or lost in the center of the screen. </p><p> Here is what you would see if you won 5 points: </p><p style=""color:green;font-size:50px;font-weight:bolder"">5</p>","","0","instructions","","","","","","","","","","",""
"learning-instructions","66","389685","0.0-9.0-1.0-0.6","6055","2","11","Female","approach_avoid_spark_v1","""event"",""trial"",""time""
""fullscreenenter"",""1"",""5707""
","
","
","""event"",""trial"",""time""
""fullscreenenter"",""1"",""5707""
","
","","","","","","2755.199999988079","<p> And here is what you would see if you lost 3 points: </p><p style=""color:red;font-size:50px;font-weight:bolder"">-3</p>","","0","instructions","","","","","","","","","","",""
"learning-instructions","67","408068","0.0-9.0-1.0-0.7","6055","2","11","Female","approach_avoid_spark_v1","""event"",""trial"",""time""
""fullscreenenter"",""1"",""5707""
","
","
","""event"",""trial"",""time""
""fullscreenenter"",""1"",""5707""
","
","","","","","","3007.4000000059605","<p> Some vehicles will make your friend REALLY thrilled or upset. </p><p> These vehicles will make you win or lose LOTS of points. </p><p> Other vehicles will only make him feel a little thrilled or upset. </p><p> These vehicles will make you win or lose small amounts of points. </p>","","0","instructions","","","","","","","","","","",""
"learning-instructions","68","421265","0.0-9.0-1.0-0.8","6055","2","11","Female","approach_avoid_spark_v1","""event"",""trial"",""time""
""fullscreenenter"",""1"",""5707""
","
","
","""event"",""trial"",""time""
""fullscreenenter"",""1"",""5707""
","
","","","","","","1134.9000000059605","<p> If you choose to skip the ride, you will not win or lose any points. </p><p>  However, in the center of the screen, you will see the number of points you WOULD HAVE won or lost if you had taken your friend for a ride. </p>","","0","instructions","","","","","","","","","","",""
"learning-instructions","69","434370","0.0-9.0-1.0-0.9","6055","2","11","Female","approach_avoid_spark_v1","""event"",""trial"",""time""
""fullscreenenter"",""1"",""5707""
","
","
","""event"",""trial"",""time""
""fullscreenenter"",""1"",""5707""
","
","","","","","","2150.699999988079","<p> Here is what you might see if you did not take your friend for a ride but he would have enjoyed it: </p><p style=""color:grey; font-size:50px; display: inline-block; border-spacing: 15px; border-width:3px; border-style:solid; border-color:red"">  &nbsp; 6 &nbsp; </p><p> Remember, in this case, you would not win or lose ANY points because you skipped the ride.  </p>","","0","instructions","","","","","","","","","","",""
"learning-instructions","70","442449","0.0-9.0-1.0-0.10","6055","2","11","Female","approach_avoid_spark_v1","""event"",""trial"",""time""
""fullscreenenter"",""1"",""5707""
","
","
","""event"",""trial"",""time""
""fullscreenenter"",""1"",""5707""
","
","","","","","","319.89999997615814","<p> Try to make the best choice for each vehicle because </p><p> at the end of the game, you will earn bonus money based on how many points you earned. </p>","","0","instructions","","","","","","","","","","",""
"learning-instructions","71","450931","0.0-9.0-1.0-0.11","6055","2","11","Female","approach_avoid_spark_v1","""event"",""trial"",""time""
""fullscreenenter"",""1"",""5707""
","
","
","""event"",""trial"",""time""
""fullscreenenter"",""1"",""5707""
","
","","","","","","282","<p> You will have 3 seconds to make each choice. Try to respond before time runs out! </p><p> You will lose 5 points each time you do not make a response. </p>","","0","instructions","","","","","","","","","","",""
"html-keyboard-response","72","451567","0.0-9.0-2.0-0.0","6055","2","11","Female","approach_avoid_spark_v1","""event"",""trial"",""time""
""fullscreenenter"",""1"",""5707""
","
","
","""event"",""trial"",""time""
""fullscreenenter"",""1"",""5707""
","
","","","","","","null","<div style=""font-size:60px;"">+</div>","null","","fixation","","","","","","","","","","",""
"aa-learning-trial","73","454577","0.0-9.0-2.0-1.0","6055","2","11","Female","approach_avoid_spark_v1","""event"",""trial"",""time""
""fullscreenenter"",""1"",""5707""
","
","
","""event"",""trial"",""time""
""fullscreenenter"",""1"",""5707""
","
","","","","","","1116.5999999940395","images/train1.png","","","learning","9","9","1","1","train","vehicles","2","0","","neutral","0"
"html-keyboard-response","74","455087","0.0-9.0-2.0-0.1","6055","2","11","Female","approach_avoid_spark_v1","""event"",""trial"",""time""
""fullscreenenter"",""1"",""5707""
","
","
","""event"",""trial"",""time""
""fullscreenenter"",""1"",""5707""
","
","","","","","","null","<div style=""font-size:60px;"">+</div>","null","","fixation","","","","","","","","","","",""
"aa-learning-trial","75","458102","0.0-9.0-2.0-1.1","6055","2","11","Female","approach_avoid_spark_v1","""event"",""trial"",""time""
""fullscreenenter"",""1"",""5707""
","
","
","""event"",""trial"",""time""
""fullscreenenter"",""1"",""5707""
","
","","","","","","642.2000000178814","images/boat1.png","","","learning","-4","-4","1","1","boat","vehicles","2","0","","bad","[-6]"
"html-keyboard-response","76","458627","0.0-9.0-2.0-0.2","6055","2","11","Female","approach_avoid_spark_v1","""event"",""trial"",""time""
""fullscreenenter"",""1"",""5707""
","
","
","""event"",""trial"",""time""
""fullscreenenter"",""1"",""5707""
","
","","","","","","null","<div style=""font-size:60px;"">+</div>","null","","fixation","","","","","","","","","","",""
"aa-learning-trial","77","461638","0.0-9.0-2.0-1.2","6055","2","11","Female","approach_avoid_spark_v1","""event"",""trial"",""time""
""fullscreenenter"",""1"",""5707""
","
","
","""event"",""trial"",""time""
""fullscreenenter"",""1"",""5707""
","
","","","","","","710.3999999761581","images/truck6.png","","","learning","-8","-8","1","1","truck","vehicles","2","0","","good","[5]"
"html-keyboard-response","78","462158","0.0-9.0-2.0-0.3","6055","2","11","Female","approach_avoid_spark_v1","""event"",""trial"",""time""
""fullscreenenter"",""1"",""5707""
","
","
","""event"",""trial"",""time""
""fullscreenenter"",""1"",""5707""
","
","","","","","","null","<div style=""font-size:60px;"">+</div>","null","","fixation","","","","","","","","","","",""
"aa-learning-trial","79","465187","0.0-9.0-2.0-1.3","6055","2","11","Female","approach_avoid_spark_v1","""event"",""trial"",""time""
""fullscreenenter"",""1"",""5707""
","
","
","""event"",""trial"",""time""
""fullscreenenter"",""1"",""5707""
","
","","","","","","593.5","images/train1.png","","","learning","9","9","1","1","train","vehicles","2","0","","neutral","0"
"html-keyboard-response","80","465707","0.0-9.0-2.0-0.4","6055","2","11","Female","approach_avoid_spark_v1","""event"",""trial"",""time""
""fullscreenenter"",""1"",""5707""
","
","
","""event"",""trial"",""time""
""fullscreenenter"",""1"",""5707""
","
","","","","","","null","<div style=""font-size:60px;"">+</div>","null","","fixation","","","","","","","","","","",""
"aa-learning-trial","81","468718","0.0-9.0-2.0-1.4","6055","2","11","Female","approach_avoid_spark_v1","""event"",""trial"",""time""
""fullscreenenter"",""1"",""5707""
","
","
","""event"",""trial"",""time""
""fullscreenenter"",""1"",""5707""
","
","","","","","","533.0999999940395","images/boat6.png","","","learning","5","0","0","0","boat","vehicles","2","0","","bad","[-6]"
"html-keyboard-response","82","469238","0.0-9.0-2.0-0.5","6055","2","11","Female","approach_avoid_spark_v1","""event"",""trial"",""time""
""fullscreenenter"",""1"",""5707""
","
","
","""event"",""trial"",""time""
""fullscreenenter"",""1"",""5707""
","
","","","","","","null","<div style=""font-size:60px;"">+</div>","null","","fixation","","","","","","","","","","",""
"aa-learning-trial","83","472268","0.0-9.0-2.0-1.5","6055","2","11","Female","approach_avoid_spark_v1","""event"",""trial"",""time""
""fullscreenenter"",""1"",""5707""
","
","
","""event"",""trial"",""time""
""fullscreenenter"",""1"",""5707""
","
","","","","","","866.4000000059605","images/truck4.png","","","learning","8","8","1","1","truck","vehicles","2","0","","good","[5]"
"html-keyboard-response","84","472788","0.0-9.0-2.0-0.6","6055","2","11","Female","approach_avoid_spark_v1","""event"",""trial"",""time""
""fullscreenenter"",""1"",""5707""
","
","
","""event"",""trial"",""time""
""fullscreenenter"",""1"",""5707""
","
","","","","","","null","<div style=""font-size:60px;"">+</div>","null","","fixation","","","","","","","","","","",""
"aa-learning-trial","85","475807","0.0-9.0-2.0-1.6","6055","2","11","Female","approach_avoid_spark_v1","""event"",""trial"",""time""
""fullscreenenter"",""1"",""5707""
","
","
","""event"",""trial"",""time""
""fullscreenenter"",""1"",""5707""
","
","","","","","","799.1000000238419","images/boat5.png","","","learning","-7","-7","1","1","boat","vehicles","2","0","","bad","[-6]"
"html-keyboard-response","86","476317","0.0-9.0-2.0-0.7","6055","2","11","Female","approach_avoid_spark_v1","""event"",""trial"",""time""
""fullscreenenter"",""1"",""5707""
","
","
","""event"",""trial"",""time""
""fullscreenenter"",""1"",""5707""
","
","","","","","","null","<div style=""font-size:60px;"">+</div>","null","","fixation","","","","","","","","","","",""
"aa-learning-trial","87","479337","0.0-9.0-2.0-1.7","6055","2","11","Female","approach_avoid_spark_v1","""event"",""trial"",""time""
""fullscreenenter"",""1"",""5707""
","
","
","""event"",""trial"",""time""
""fullscreenenter"",""1"",""5707""
","
","","","","","","370.89999997615814","images/train4.png","","","learning","3","0","0","0","train","vehicles","2","0","","neutral","0"
"html-keyboard-response","88","479848","0.0-9.0-2.0-0.8","6055","2","11","Female","approach_avoid_spark_v1","""event"",""trial"",""time""
""fullscreenenter"",""1"",""5707""
","
","
","""event"",""trial"",""time""
""fullscreenenter"",""1"",""5707""
","
","","","","","","null","<div style=""font-size:60px;"">+</div>","null","","fixation","","","","","","","","","","",""
"aa-learning-trial","89","482856","0.0-9.0-2.0-1.8","6055","2","11","Female","approach_avoid_spark_v1","""event"",""trial"",""time""
""fullscreenenter"",""1"",""5707""
","
","
","""event"",""trial"",""time""
""fullscreenenter"",""1"",""5707""
","
","","","","","","890.2000000178814","images/truck6.png","","","learning","-8","0","0","0","truck","vehicles","2","0","","good","[5]"
"html-keyboard-response","90","483365","0.0-9.0-2.0-0.9","6055","2","11","Female","approach_avoid_spark_v1","""event"",""trial"",""time""
""fullscreenenter"",""1"",""5707""
","
","
","""event"",""trial"",""time""
""fullscreenenter"",""1"",""5707""
","
","","","","","","null","<div style=""font-size:60px;"">+</div>","null","","fixation","","","","","","","","","","",""
"aa-learning-trial","91","486370","0.0-9.0-2.0-1.9","6055","2","11","Female","approach_avoid_spark_v1","""event"",""trial"",""time""
""fullscreenenter"",""1"",""5707""
","
","
","""event"",""trial"",""time""
""fullscreenenter"",""1"",""5707""
","
","","","","","","705","images/truck3.png","","","learning","-5","-5","1","1","truck","vehicles","2","0","","good","[5]"
"html-keyboard-response","92","486872","0.0-9.0-2.0-0.10","6055","2","11","Female","approach_avoid_spark_v1","""event"",""trial"",""time""
""fullscreenenter"",""1"",""5707""
","
","
","""event"",""trial"",""time""
""fullscreenenter"",""1"",""5707""
","
","","","","","","null","<div style=""font-size:60px;"">+</div>","null","","fixation","","","","","","","","","","",""
"aa-learning-trial","93","489894","0.0-9.0-2.0-1.10","6055","2","11","Female","approach_avoid_spark_v1","""event"",""trial"",""time""
""fullscreenenter"",""1"",""5707""
","
","
","""event"",""trial"",""time""
""fullscreenenter"",""1"",""5707""
","
","","","","","","998.5999999940395","images/boat1.png","","","learning","-4","0","0","0","boat","vehicles","2","0","","bad","[-6]"
"html-keyboard-response","94","490400","0.0-9.0-2.0-0.11","6055","2","11","Female","approach_avoid_spark_v1","""event"",""trial"",""time""
""fullscreenenter"",""1"",""5707""
","
","
","""event"",""trial"",""time""
""fullscreenenter"",""1"",""5707""
","
","","","","","","null","<div style=""font-size:60px;"">+</div>","null","","fixation","","","","","","","","","","",""
"aa-learning-trial","95","493408","0.0-9.0-2.0-1.11","6055","2","11","Female","approach_avoid_spark_v1","""event"",""trial"",""time""
""fullscreenenter"",""1"",""5707""
","
","
","""event"",""trial"",""time""
""fullscreenenter"",""1"",""5707""
","
","","","","","","511.40000000596046","images/train2.png","","","learning","-6","-6","1","1","train","vehicles","2","0","","neutral","0"
"html-keyboard-response","96","493912","0.0-9.0-2.0-0.12","6055","2","11","Female","approach_avoid_spark_v1","""event"",""trial"",""time""
""fullscreenenter"",""1"",""5707""
","
","
","""event"",""trial"",""time""
""fullscreenenter"",""1"",""5707""
","
","","","","","","null","<div style=""font-size:60px;"">+</div>","null","","fixation","","","","","","","","","","",""
"aa-learning-trial","97","496920","0.0-9.0-2.0-1.12","6055","2","11","Female","approach_avoid_spark_v1","""event"",""trial"",""time""
""fullscreenenter"",""1"",""5707""
","
","
","""event"",""trial"",""time""
""fullscreenenter"",""1"",""5707""
","
","","","","","","517.7000000178814","images/train2.png","","","learning","-6","-6","1","1","train","vehicles","2","0","","neutral","0"
"html-keyboard-response","98","497424","0.0-9.0-2.0-0.13","6055","2","11","Female","approach_avoid_spark_v1","""event"",""trial"",""time""
""fullscreenenter"",""1"",""5707""
","
","
","""event"",""trial"",""time""
""fullscreenenter"",""1"",""5707""
","
","","","","","","null","<div style=""font-size:60px;"">+</div>","null","","fixation","","","","","","","","","","",""
"aa-learning-trial","99","500432","0.0-9.0-2.0-1.13","6055","2","11","Female","approach_avoid_spark_v1","""event"",""trial"",""time""
""fullscreenenter"",""1"",""5707""
","
","
","""event"",""trial"",""time""
""fullscreenenter"",""1"",""5707""
","
","","","","","","888.6999999880791","images/boat5.png","","","learning","-7","0","0","0","boat","vehicles","2","0","","bad","[-6]"
"html-keyboard-response","100","500936","0.0-9.0-2.0-0.14","6055","2","11","Female","approach_avoid_spark_v1","""event"",""trial"",""time""
""fullscreenenter"",""1"",""5707""
","
","
","""event"",""trial"",""time""
""fullscreenenter"",""1"",""5707""
","
","","","","","","null","<div style=""font-size:60px;"">+</div>","null","","fixation","","","","","","","","","","",""
"aa-learning-trial","101","503944","0.0-9.0-2.0-1.14","6055","2","11","Female","approach_avoid_spark_v1","""event"",""trial"",""time""
""fullscreenenter"",""1"",""5707""
","
","
","""event"",""trial"",""time""
""fullscreenenter"",""1"",""5707""
","
","","","","","","977.6999999880791","images/truck4.png","","","learning","8","0","0","0","truck","vehicles","2","0","","good","[5]"
"html-keyboard-response","102","504448","0.0-9.0-2.0-0.15","6055","2","11","Female","approach_avoid_spark_v1","""event"",""trial"",""time""
""fullscreenenter"",""1"",""5707""
","
","
","""event"",""trial"",""time""
""fullscreenenter"",""1"",""5707""
","
","","","","","","null","<div style=""font-size:60px;"">+</div>","null","","fixation","","","","","","","","","","",""
"aa-learning-trial","103","507459","0.0-9.0-2.0-1.15","6055","2","11","Female","approach_avoid_spark_v1","""event"",""trial"",""time""
""fullscreenenter"",""1"",""5707""
","
","
","""event"",""trial"",""time""
""fullscreenenter"",""1"",""5707""
","
","","","","","","850.2000000178814","images/train2.png","","","learning","-6","0","0","0","train","vehicles","2","0","","neutral","0"
"html-keyboard-response","104","507969","0.0-9.0-2.0-0.16","6055","2","11","Female","approach_avoid_spark_v1","""event"",""trial"",""time""
""fullscreenenter"",""1"",""5707""
","
","
","""event"",""trial"",""time""
""fullscreenenter"",""1"",""5707""
","
","","","","","","null","<div style=""font-size:60px;"">+</div>","null","","fixation","","","","","","","","","","",""
"aa-learning-trial","105","510976","0.0-9.0-2.0-1.16","6055","2","11","Female","approach_avoid_spark_v1","""event"",""trial"",""time""
""fullscreenenter"",""1"",""5707""
","
","
","""event"",""trial"",""time""
""fullscreenenter"",""1"",""5707""
","
","","","","","","683.9000000059605","images/boat5.png","","","learning","-7","0","0","0","boat","vehicles","2","0","","bad","[-6]"
"html-keyboard-response","106","511480","0.0-9.0-2.0-0.17","6055","2","11","Female","approach_avoid_spark_v1","""event"",""trial"",""time""
""fullscreenenter"",""1"",""5707""
","
","
","""event"",""trial"",""time""
""fullscreenenter"",""1"",""5707""
","
","","","","","","null","<div style=""font-size:60px;"">+</div>","null","","fixation","","","","","","","","","","",""
"aa-learning-trial","107","514488","0.0-9.0-2.0-1.17","6055","2","11","Female","approach_avoid_spark_v1","""event"",""trial"",""time""
""fullscreenenter"",""1"",""5707""
","
","
","""event"",""trial"",""time""
""fullscreenenter"",""1"",""5707""
","
","","","","","","529.5","images/train1.png","","","learning","9","9","1","1","train","vehicles","2","0","","neutral","0"
"html-keyboard-response","108","514992","0.0-9.0-2.0-0.18","6055","2","11","Female","approach_avoid_spark_v1","""event"",""trial"",""time""
""fullscreenenter"",""1"",""5707""
","
","
","""event"",""trial"",""time""
""fullscreenenter"",""1"",""5707""
","
","","","","","","null","<div style=""font-size:60px;"">+</div>","null","","fixation","","","","","","","","","","",""
"aa-learning-trial","109","518001","0.0-9.0-2.0-1.18","6055","2","11","Female","approach_avoid_spark_v1","""event"",""trial"",""time""
""fullscreenenter"",""1"",""5707""
","
","
","""event"",""trial"",""time""
""fullscreenenter"",""1"",""5707""
","
","","","","","","1044.699999988079","images/truck3.png","","","learning","-5","-5","1","1","truck","vehicles","2","0","","good","[5]"
"html-keyboard-response","110","518505","0.0-9.0-2.0-0.19","6055","2","11","Female","approach_avoid_spark_v1","""event"",""trial"",""time""
""fullscreenenter"",""1"",""5707""
","
","
","""event"",""trial"",""time""
""fullscreenenter"",""1"",""5707""
","
","","","","","","null","<div style=""font-size:60px;"">+</div>","null","","fixation","","","","","","","","","","",""
"aa-learning-trial","111","521512","0.0-9.0-2.0-1.19","6055","2","11","Female","approach_avoid_spark_v1","""event"",""trial"",""time""
""fullscreenenter"",""1"",""5707""
","
","
","""event"",""trial"",""time""
""fullscreenenter"",""1"",""5707""
","
","","","","","","799","images/boat1.png","","","learning","-4","0","0","0","boat","vehicles","2","0","","bad","[-6]"
"html-keyboard-response","112","522016","0.0-9.0-2.0-0.20","6055","2","11","Female","approach_avoid_spark_v1","""event"",""trial"",""time""
""fullscreenenter"",""1"",""5707""
","
","
","""event"",""trial"",""time""
""fullscreenenter"",""1"",""5707""
","
","","","","","","null","<div style=""font-size:60px;"">+</div>","null","","fixation","","","","","","","","","","",""
"aa-learning-trial","113","525025","0.0-9.0-2.0-1.20","6055","2","11","Female","approach_avoid_spark_v1","""event"",""trial"",""time""
""fullscreenenter"",""1"",""5707""
","
","
","""event"",""trial"",""time""
""fullscreenenter"",""1"",""5707""
","
","","","","","","733.8000000119209","images/boat5.png","","","learning","-7","0","0","0","boat","vehicles","2","0","","bad","[-6]"
"html-keyboard-response","114","525528","0.0-9.0-2.0-0.21","6055","2","11","Female","approach_avoid_spark_v1","""event"",""trial"",""time""
""fullscreenenter"",""1"",""5707""
","
","
","""event"",""trial"",""time""
""fullscreenenter"",""1"",""5707""
","
","","","","","","null","<div style=""font-size:60px;"">+</div>","null","","fixation","","","","","","","","","","",""
"aa-learning-trial","115","528536","0.0-9.0-2.0-1.21","6055","2","11","Female","approach_avoid_spark_v1","""event"",""trial"",""time""
""fullscreenenter"",""1"",""5707""
","
","
","""event"",""trial"",""time""
""fullscreenenter"",""1"",""5707""
","
","","","","","","769.9000000059605","images/truck1.png","","","learning","1","1","1","1","truck","vehicles","2","0","","good","[5]"
"html-keyboard-response","116","529048","0.0-9.0-2.0-0.22","6055","2","11","Female","approach_avoid_spark_v1","""event"",""trial"",""time""
""fullscreenenter"",""1"",""5707""
","
","
","""event"",""trial"",""time""
""fullscreenenter"",""1"",""5707""
","
","","","","","","null","<div style=""font-size:60px;"">+</div>","null","","fixation","","","","","","","","","","",""
"aa-learning-trial","117","532058","0.0-9.0-2.0-1.22","6055","2","11","Female","approach_avoid_spark_v1","""event"",""trial"",""time""
""fullscreenenter"",""1"",""5707""
","
","
","""event"",""trial"",""time""
""fullscreenenter"",""1"",""5707""
","
","","","","","","643.6000000238419","images/boat7.png","","","learning","7","7","1","1","boat","vehicles","2","0","","bad","[-6]"
"html-keyboard-response","118","532568","0.0-9.0-2.0-0.23","6055","2","11","Female","approach_avoid_spark_v1","""event"",""trial"",""time""
""fullscreenenter"",""1"",""5707""
","
","
","""event"",""trial"",""time""
""fullscreenenter"",""1"",""5707""
","
","","","","","","null","<div style=""font-size:60px;"">+</div>","null","","fixation","","","","","","","","","","",""
"aa-learning-trial","119","535576","0.0-9.0-2.0-1.23","6055","2","11","Female","approach_avoid_spark_v1","""event"",""trial"",""time""
""fullscreenenter"",""1"",""5707""
","
","
","""event"",""trial"",""time""
""fullscreenenter"",""1"",""5707""
","
","","","","","","995.2999999821186","images/truck3.png","","","learning","-5","0","0","0","truck","vehicles","2","0","","good","[5]"
"html-keyboard-response","120","536080","0.0-9.0-2.0-0.24","6055","2","11","Female","approach_avoid_spark_v1","""event"",""trial"",""time""
""fullscreenenter"",""1"",""5707""
","
","
","""event"",""trial"",""time""
""fullscreenenter"",""1"",""5707""
","
","","","","","","null","<div style=""font-size:60px;"">+</div>","null","","fixation","","","","","","","","","","",""
"aa-learning-trial","121","539088","0.0-9.0-2.0-1.24","6055","2","11","Female","approach_avoid_spark_v1","""event"",""trial"",""time""
""fullscreenenter"",""1"",""5707""
","
","
","""event"",""trial"",""time""
""fullscreenenter"",""1"",""5707""
","
","","","","","","544.1999999880791","images/train4.png","","","learning","3","3","1","1","train","vehicles","2","0","","neutral","0"
"html-keyboard-response","122","539592","0.0-9.0-2.0-0.25","6055","2","11","Female","approach_avoid_spark_v1","""event"",""trial"",""time""
""fullscreenenter"",""1"",""5707""
","
","
","""event"",""trial"",""time""
""fullscreenenter"",""1"",""5707""
","
","","","","","","null","<div style=""font-size:60px;"">+</div>","null","","fixation","","","","","","","","","","",""
"aa-learning-trial","123","542600","0.0-9.0-2.0-1.25","6055","2","11","Female","approach_avoid_spark_v1","""event"",""trial"",""time""
""fullscreenenter"",""1"",""5707""
","
","
","""event"",""trial"",""time""
""fullscreenenter"",""1"",""5707""
","
","","","","","","2228","images/truck6.png","","","learning","-8","0","0","0","truck","vehicles","2","0","","good","[5]"
"html-keyboard-response","124","543104","0.0-9.0-2.0-0.26","6055","2","11","Female","approach_avoid_spark_v1","""event"",""trial"",""time""
""fullscreenenter"",""1"",""5707""
","
","
","""event"",""trial"",""time""
""fullscreenenter"",""1"",""5707""
","
","","","","","","null","<div style=""font-size:60px;"">+</div>","null","","fixation","","","","","","","","","","",""
"aa-learning-trial","125","546112","0.0-9.0-2.0-1.26","6055","2","11","Female","approach_avoid_spark_v1","""event"",""trial"",""time""
""fullscreenenter"",""1"",""5707""
","
","
","""event"",""trial"",""time""
""fullscreenenter"",""1"",""5707""
","
","","","","","","989.5999999940395","images/boat5.png","","","learning","-7","0","0","0","boat","vehicles","2","0","","bad","[-6]"
"html-keyboard-response","126","546616","0.0-9.0-2.0-0.27","6055","2","11","Female","approach_avoid_spark_v1","""event"",""trial"",""time""
""fullscreenenter"",""1"",""5707""
","
","
","""event"",""trial"",""time""
""fullscreenenter"",""1"",""5707""
","
","","","","","","null","<div style=""font-size:60px;"">+</div>","null","","fixation","","","","","","","","","","",""
"aa-learning-trial","127","549625","0.0-9.0-2.0-1.27","6055","2","11","Female","approach_avoid_spark_v1","""event"",""trial"",""time""
""fullscreenenter"",""1"",""5707""
","
","
","""event"",""trial"",""time""
""fullscreenenter"",""1"",""5707""
","
","","","","","","749.3000000119209","images/train1.png","","","learning","9","9","1","1","train","vehicles","2","0","","neutral","0"
"html-keyboard-response","128","550128","0.0-9.0-2.0-0.28","6055","2","11","Female","approach_avoid_spark_v1","""event"",""trial"",""time""
""fullscreenenter"",""1"",""5707""
","
","
","""event"",""trial"",""time""
""fullscreenenter"",""1"",""5707""
","
","","","","","","null","<div style=""font-size:60px;"">+</div>","null","","fixation","","","","","","","","","","",""
"aa-learning-trial","129","553137","0.0-9.0-2.0-1.28","6055","2","11","Female","approach_avoid_spark_v1","""event"",""trial"",""time""
""fullscreenenter"",""1"",""5707""
","
","
","""event"",""trial"",""time""
""fullscreenenter"",""1"",""5707""
","
","","","","","","685.6999999880791","images/boat1.png","","","learning","-4","0","0","0","boat","vehicles","2","0","","bad","[-6]"
"html-keyboard-response","130","553640","0.0-9.0-2.0-0.29","6055","2","11","Female","approach_avoid_spark_v1","""event"",""trial"",""time""
""fullscreenenter"",""1"",""5707""
","
","
","""event"",""trial"",""time""
""fullscreenenter"",""1"",""5707""
","
","","","","","","null","<div style=""font-size:60px;"">+</div>","null","","fixation","","","","","","","","","","",""
"aa-learning-trial","131","556648","0.0-9.0-2.0-1.29","6055","2","11","Female","approach_avoid_spark_v1","""event"",""trial"",""time""
""fullscreenenter"",""1"",""5707""
","
","
","""event"",""trial"",""time""
""fullscreenenter"",""1"",""5707""
","
","","","","","","605.3000000119209","images/boat1.png","","","learning","-4","0","0","0","boat","vehicles","2","0","","bad","[-6]"
"html-keyboard-response","132","557152","0.0-9.0-2.0-0.30","6055","2","11","Female","approach_avoid_spark_v1","""event"",""trial"",""time""
""fullscreenenter"",""1"",""5707""
","
","
","""event"",""trial"",""time""
""fullscreenenter"",""1"",""5707""
","
","","","","","","null","<div style=""font-size:60px;"">+</div>","null","","fixation","","","","","","","","","","",""
"aa-learning-trial","133","560161","0.0-9.0-2.0-1.30","6055","2","11","Female","approach_avoid_spark_v1","""event"",""trial"",""time""
""fullscreenenter"",""1"",""5707""
","
","
","""event"",""trial"",""time""
""fullscreenenter"",""1"",""5707""
","
","","","","","","855.5999999940395","images/boat6.png","","","learning","5","0","0","0","boat","vehicles","2","0","","bad","[-6]"
"html-keyboard-response","134","560664","0.0-9.0-2.0-0.31","6055","2","11","Female","approach_avoid_spark_v1","""event"",""trial"",""time""
""fullscreenenter"",""1"",""5707""
","
","
","""event"",""trial"",""time""
""fullscreenenter"",""1"",""5707""
","
","","","","","","null","<div style=""font-size:60px;"">+</div>","null","","fixation","","","","","","","","","","",""
"aa-learning-trial","135","563672","0.0-9.0-2.0-1.31","6055","2","11","Female","approach_avoid_spark_v1","""event"",""trial"",""time""
""fullscreenenter"",""1"",""5707""
","
","
","""event"",""trial"",""time""
""fullscreenenter"",""1"",""5707""
","
","","","","","","780.3000000119209","images/train8.png","","","learning","-1","-1","1","1","train","vehicles","2","0","","neutral","0"
"html-keyboard-response","136","564176","0.0-9.0-2.0-0.32","6055","2","11","Female","approach_avoid_spark_v1","""event"",""trial"",""time""
""fullscreenenter"",""1"",""5707""
","
","
","""event"",""trial"",""time""
""fullscreenenter"",""1"",""5707""
","
","","","","","","null","<div style=""font-size:60px;"">+</div>","null","","fixation","","","","","","","","","","",""
"aa-learning-trial","137","567185","0.0-9.0-2.0-1.32","6055","2","11","Female","approach_avoid_spark_v1","""event"",""trial"",""time""
""fullscreenenter"",""1"",""5707""
","
","
","""event"",""trial"",""time""
""fullscreenenter"",""1"",""5707""
","
","","","","","","599.7000000178814","images/boat6.png","","","learning","5","0","0","0","boat","vehicles","2","0","","bad","[-6]"
"html-keyboard-response","138","567688","0.0-9.0-2.0-0.33","6055","2","11","Female","approach_avoid_spark_v1","""event"",""trial"",""time""
""fullscreenenter"",""1"",""5707""
","
","
","""event"",""trial"",""time""
""fullscreenenter"",""1"",""5707""
","
","","","","","","null","<div style=""font-size:60px;"">+</div>","null","","fixation","","","","","","","","","","",""
"aa-learning-trial","139","570696","0.0-9.0-2.0-1.33","6055","2","11","Female","approach_avoid_spark_v1","""event"",""trial"",""time""
""fullscreenenter"",""1"",""5707""
","
","
","""event"",""trial"",""time""
""fullscreenenter"",""1"",""5707""
","
","","","","","","582.4000000059605","images/boat1.png","","","learning","-4","0","0","0","boat","vehicles","2","0","","bad","[-6]"
"html-keyboard-response","140","571200","0.0-9.0-2.0-0.34","6055","2","11","Female","approach_avoid_spark_v1","""event"",""trial"",""time""
""fullscreenenter"",""1"",""5707""
","
","
","""event"",""trial"",""time""
""fullscreenenter"",""1"",""5707""
","
","","","","","","null","<div style=""font-size:60px;"">+</div>","null","","fixation","","","","","","","","","","",""
"aa-learning-trial","141","574217","0.0-9.0-2.0-1.34","6055","2","11","Female","approach_avoid_spark_v1","""event"",""trial"",""time""
""fullscreenenter"",""1"",""5707""
","
","
","""event"",""trial"",""time""
""fullscreenenter"",""1"",""5707""
","
","","","","","","1019.5999999940395","images/truck6.png","","","learning","-8","0","0","0","truck","vehicles","2","0","","good","[5]"
"html-keyboard-response","142","574719","0.0-9.0-2.0-0.35","6055","2","11","Female","approach_avoid_spark_v1","""event"",""trial"",""time""
""fullscreenenter"",""1"",""5707""
","
","
","""event"",""trial"",""time""
""fullscreenenter"",""1"",""5707""
","
","","","","","","null","<div style=""font-size:60px;"">+</div>","null","","fixation","","","","","","","","","","",""
"aa-learning-trial","143","577728","0.0-9.0-2.0-1.35","6055","2","11","Female","approach_avoid_spark_v1","""event"",""trial"",""time""
""fullscreenenter"",""1"",""5707""
","
","
","""event"",""trial"",""time""
""fullscreenenter"",""1"",""5707""
","
","","","","","","730.4000000059605","images/truck4.png","","","learning","8","8","1","1","truck","vehicles","2","0","","good","[5]"
"html-keyboard-response","144","578231","0.0-9.0-2.0-0.36","6055","2","11","Female","approach_avoid_spark_v1","""event"",""trial"",""time""
""fullscreenenter"",""1"",""5707""
","
","
","""event"",""trial"",""time""
""fullscreenenter"",""1"",""5707""
","
","","","","","","null","<div style=""font-size:60px;"">+</div>","null","","fixation","","","","","","","","","","",""
"aa-learning-trial","145","581240","0.0-9.0-2.0-1.36","6055","2","11","Female","approach_avoid_spark_v1","""event"",""trial"",""time""
""fullscreenenter"",""1"",""5707""
","
","
","""event"",""trial"",""time""
""fullscreenenter"",""1"",""5707""
","
","","","","","","587.4000000059605","images/train1.png","","","learning","9","9","1","1","train","vehicles","2","0","","neutral","0"
"html-keyboard-response","146","581744","0.0-9.0-2.0-0.37","6055","2","11","Female","approach_avoid_spark_v1","""event"",""trial"",""time""
""fullscreenenter"",""1"",""5707""
","
","
","""event"",""trial"",""time""
""fullscreenenter"",""1"",""5707""
","
","","","","","","null","<div style=""font-size:60px;"">+</div>","null","","fixation","","","","","","","","","","",""
"aa-learning-trial","147","584752","0.0-9.0-2.0-1.37","6055","2","11","Female","approach_avoid_spark_v1","""event"",""trial"",""time""
""fullscreenenter"",""1"",""5707""
","
","
","""event"",""trial"",""time""
""fullscreenenter"",""1"",""5707""
","
","","","","","","793.0999999940395","images/train6.png","","","learning","-3","-3","1","1","train","vehicles","2","0","","neutral","0"
"html-keyboard-response","148","585256","0.0-9.0-2.0-0.38","6055","2","11","Female","approach_avoid_spark_v1","""event"",""trial"",""time""
""fullscreenenter"",""1"",""5707""
","
","
","""event"",""trial"",""time""
""fullscreenenter"",""1"",""5707""
","
","","","","","","null","<div style=""font-size:60px;"">+</div>","null","","fixation","","","","","","","","","","",""
"aa-learning-trial","149","588263","0.0-9.0-2.0-1.38","6055","2","11","Female","approach_avoid_spark_v1","""event"",""trial"",""time""
""fullscreenenter"",""1"",""5707""
","
","
","""event"",""trial"",""time""
""fullscreenenter"",""1"",""5707""
","
","","","","","","770.6999999880791","images/train4.png","","","learning","3","3","1","1","train","vehicles","2","0","","neutral","0"
"html-keyboard-response","150","588768","0.0-9.0-2.0-0.39","6055","2","11","Female","approach_avoid_spark_v1","""event"",""trial"",""time""
""fullscreenenter"",""1"",""5707""
","
","
","""event"",""trial"",""time""
""fullscreenenter"",""1"",""5707""
","
","","","","","","null","<div style=""font-size:60px;"">+</div>","null","","fixation","","","","","","","","","","",""
"aa-learning-trial","151","591776","0.0-9.0-2.0-1.39","6055","2","11","Female","approach_avoid_spark_v1","""event"",""trial"",""time""
""fullscreenenter"",""1"",""5707""
","
","
","""event"",""trial"",""time""
""fullscreenenter"",""1"",""5707""
","
","","","","","","917.5999999940395","images/boat4.png","","","learning","2","0","0","0","boat","vehicles","2","0","","bad","[-6]"
"html-keyboard-response","152","592279","0.0-9.0-2.0-0.40","6055","2","11","Female","approach_avoid_spark_v1","""event"",""trial"",""time""
""fullscreenenter"",""1"",""5707""
","
","
","""event"",""trial"",""time""
""fullscreenenter"",""1"",""5707""
","
","","","","","","null","<div style=""font-size:60px;"">+</div>","null","","fixation","","","","","","","","","","",""
"aa-learning-trial","153","595287","0.0-9.0-2.0-1.40","6055","2","11","Female","approach_avoid_spark_v1","""event"",""trial"",""time""
""fullscreenenter"",""1"",""5707""
","
","
","""event"",""trial"",""time""
""fullscreenenter"",""1"",""5707""
","
","","","","","","567","images/truck6.png","","","learning","-8","-8","1","1","truck","vehicles","2","0","","good","[5]"
"html-keyboard-response","154","595791","0.0-9.0-2.0-0.41","6055","2","11","Female","approach_avoid_spark_v1","""event"",""trial"",""time""
""fullscreenenter"",""1"",""5707""
","
","
","""event"",""trial"",""time""
""fullscreenenter"",""1"",""5707""
","
","","","","","","null","<div style=""font-size:60px;"">+</div>","null","","fixation","","","","","","","","","","",""
"aa-learning-trial","155","598800","0.0-9.0-2.0-1.41","6055","2","11","Female","approach_avoid_spark_v1","""event"",""trial"",""time""
""fullscreenenter"",""1"",""5707""
","
","
","""event"",""trial"",""time""
""fullscreenenter"",""1"",""5707""
","
","","","","","","671.8000000119209","images/truck4.png","","","learning","8","8","1","1","truck","vehicles","2","0","","good","[5]"
"html-keyboard-response","156","599303","0.0-9.0-2.0-0.42","6055","2","11","Female","approach_avoid_spark_v1","""event"",""trial"",""time""
""fullscreenenter"",""1"",""5707""
","
","
","""event"",""trial"",""time""
""fullscreenenter"",""1"",""5707""
","
","","","","","","null","<div style=""font-size:60px;"">+</div>","null","","fixation","","","","","","","","","","",""
"aa-learning-trial","157","602312","0.0-9.0-2.0-1.42","6055","2","11","Female","approach_avoid_spark_v1","""event"",""trial"",""time""
""fullscreenenter"",""1"",""5707""
","
","
","""event"",""trial"",""time""
""fullscreenenter"",""1"",""5707""
","
","","","","","","550.7999999821186","images/truck4.png","","","learning","8","8","1","1","truck","vehicles","2","0","","good","[5]"
"html-keyboard-response","158","602816","0.0-9.0-2.0-0.43","6055","2","11","Female","approach_avoid_spark_v1","""event"",""trial"",""time""
""fullscreenenter"",""1"",""5707""
","
","
","""event"",""trial"",""time""
""fullscreenenter"",""1"",""5707""
","
","","","","","","null","<div style=""font-size:60px;"">+</div>","null","","fixation","","","","","","","","","","",""
"aa-learning-trial","159","605830","0.0-9.0-2.0-1.43","6055","2","11","Female","approach_avoid_spark_v1","""event"",""trial"",""time""
""fullscreenenter"",""1"",""5707""
","
","
","""event"",""trial"",""time""
""fullscreenenter"",""1"",""5707""
","
","","","","","","825.0999999940395","images/train2.png","","","learning","-6","-6","1","1","train","vehicles","2","0","","neutral","0"
"html-keyboard-response","160","606336","0.0-9.0-2.0-0.44","6055","2","11","Female","approach_avoid_spark_v1","""event"",""trial"",""time""
""fullscreenenter"",""1"",""5707""
","
","
","""event"",""trial"",""time""
""fullscreenenter"",""1"",""5707""
","
","","","","","","null","<div style=""font-size:60px;"">+</div>","null","","fixation","","","","","","","","","","",""
"aa-learning-trial","161","609343","0.0-9.0-2.0-1.44","6055","2","11","Female","approach_avoid_spark_v1","""event"",""trial"",""time""
""fullscreenenter"",""1"",""5707""
","
","
","""event"",""trial"",""time""
""fullscreenenter"",""1"",""5707""
","
","","","","","","878.5","images/train2.png","","","learning","-6","0","0","0","train","vehicles","2","0","","neutral","0"
"html-keyboard-response","162","609848","0.0-9.0-2.0-0.45","6055","2","11","Female","approach_avoid_spark_v1","""event"",""trial"",""time""
""fullscreenenter"",""1"",""5707""
","
","
","""event"",""trial"",""time""
""fullscreenenter"",""1"",""5707""
","
","","","","","","null","<div style=""font-size:60px;"">+</div>","null","","fixation","","","","","","","","","","",""
"aa-learning-trial","163","612856","0.0-9.0-2.0-1.45","6055","2","11","Female","approach_avoid_spark_v1","""event"",""trial"",""time""
""fullscreenenter"",""1"",""5707""
","
","
","""event"",""trial"",""time""
""fullscreenenter"",""1"",""5707""
","
","","","","","","916.3000000119209","images/train2.png","","","learning","-6","0","0","0","train","vehicles","2","0","","neutral","0"
"html-keyboard-response","164","613364","0.0-9.0-2.0-0.46","6055","2","11","Female","approach_avoid_spark_v1","""event"",""trial"",""time""
""fullscreenenter"",""1"",""5707""
","
","
","""event"",""trial"",""time""
""fullscreenenter"",""1"",""5707""
","
","","","","","","null","<div style=""font-size:60px;"">+</div>","null","","fixation","","","","","","","","","","",""
"aa-learning-trial","165","616369","0.0-9.0-2.0-1.46","6055","2","11","Female","approach_avoid_spark_v1","""event"",""trial"",""time""
""fullscreenenter"",""1"",""5707""
","
","
","""event"",""trial"",""time""
""fullscreenenter"",""1"",""5707""
","
","","","","","","560.3000000119209","images/truck4.png","","","learning","8","8","1","1","truck","vehicles","2","0","","good","[5]"
"html-keyboard-response","166","616872","0.0-9.0-2.0-0.47","6055","2","11","Female","approach_avoid_spark_v1","""event"",""trial"",""time""
""fullscreenenter"",""1"",""5707""
","
","
","""event"",""trial"",""time""
""fullscreenenter"",""1"",""5707""
","
","","","","","","null","<div style=""font-size:60px;"">+</div>","null","","fixation","","","","","","","","","","",""
"aa-learning-trial","167","619879","0.0-9.0-2.0-1.47","6055","2","11","Female","approach_avoid_spark_v1","""event"",""trial"",""time""
""fullscreenenter"",""1"",""5707""
","
","
","""event"",""trial"",""time""
""fullscreenenter"",""1"",""5707""
","
","","","","","","854.9000000059605","images/train1.png","","","learning","9","9","1","1","train","vehicles","2","0","","neutral","0"
"html-keyboard-response","168","620383","0.0-9.0-2.0-0.48","6055","2","11","Female","approach_avoid_spark_v1","""event"",""trial"",""time""
""fullscreenenter"",""1"",""5707""
","
","
","""event"",""trial"",""time""
""fullscreenenter"",""1"",""5707""
","
","","","","","","null","<div style=""font-size:60px;"">+</div>","null","","fixation","","","","","","","","","","",""
"aa-learning-trial","169","623392","0.0-9.0-2.0-1.48","6055","2","11","Female","approach_avoid_spark_v1","""event"",""trial"",""time""
""fullscreenenter"",""1"",""5707""
","
","
","""event"",""trial"",""time""
""fullscreenenter"",""1"",""5707""
","
","","","","","","909.6000000238419","images/truck2.png","","","learning","4","4","1","1","truck","vehicles","2","0","","good","[5]"
"html-keyboard-response","170","623896","0.0-9.0-2.0-0.49","6055","2","11","Female","approach_avoid_spark_v1","""event"",""trial"",""time""
""fullscreenenter"",""1"",""5707""
","
","
","""event"",""trial"",""time""
""fullscreenenter"",""1"",""5707""
","
","","","","","","null","<div style=""font-size:60px;"">+</div>","null","","fixation","","","","","","","","","","",""
"aa-learning-trial","171","626903","0.0-9.0-2.0-1.49","6055","2","11","Female","approach_avoid_spark_v1","""event"",""trial"",""time""
""fullscreenenter"",""1"",""5707""
","
","
","""event"",""trial"",""time""
""fullscreenenter"",""1"",""5707""
","
","","","","","","1011.3000000119209","images/truck6.png","","","learning","-8","0","0","0","truck","vehicles","2","0","","good","[5]"
"html-keyboard-response","172","627408","0.0-9.0-2.0-0.50","6055","2","11","Female","approach_avoid_spark_v1","""event"",""trial"",""time""
""fullscreenenter"",""1"",""5707""
","
","
","""event"",""trial"",""time""
""fullscreenenter"",""1"",""5707""
","
","","","","","","null","<div style=""font-size:60px;"">+</div>","null","","fixation","","","","","","","","","","",""
"aa-learning-trial","173","630417","0.0-9.0-2.0-1.50","6055","2","11","Female","approach_avoid_spark_v1","""event"",""trial"",""time""
""fullscreenenter"",""1"",""5707""
","
","
","""event"",""trial"",""time""
""fullscreenenter"",""1"",""5707""
","
","","","","","","647.5999999940395","images/boat5.png","","","learning","-7","0","0","0","boat","vehicles","2","0","","bad","[-6]"
"html-button-response","174","636701","0.0-9.0-3.0","6055","2","11","Female","approach_avoid_spark_v1","""event"",""trial"",""time""
""fullscreenenter"",""1"",""5707""
","
","
","""event"",""trial"",""time""
""fullscreenenter"",""1"",""5707""
","
","","","","","","6283.5","<p> You have completed the round! <p> In this round, you earned 53 points! </p>","0","","break","","","","","","","","","","",""
"html-button-response","175","638726","0.0-10.0","6055","2","11","Female","approach_avoid_spark_v1","""event"",""trial"",""time""
""fullscreenenter"",""1"",""5707""
","
","
","""event"",""trial"",""time""
""fullscreenenter"",""1"",""5707""
","
","","","","","","2024.0999999940395","<p> Now it's time to play another round. </p>","0","","transition_screen","","","","","","","","","","",""
"preload","176","638848","0.0-11.0-0.0","6055","2","11","Female","approach_avoid_spark_v1","""event"",""trial"",""time""
""fullscreenenter"",""1"",""5707""
","
","
","""event"",""trial"",""time""
""fullscreenenter"",""1"",""5707""
","
","true","false","[]","[]","[]","","","","","","","","","","","","","","","",""
"learning-instructions","177","648627","0.0-11.0-1.0-0.0","6055","2","11","Female","approach_avoid_spark_v1","""event"",""trial"",""time""
""fullscreenenter"",""1"",""5707""
","
","
","""event"",""trial"",""time""
""fullscreenenter"",""1"",""5707""
","
","","","","","","4117.0999999940395","<p> Your goal in this round is to take care of lots of farm animals. </p></div>","","0","instructions","","","","","","","","","","",""
"learning-instructions","178","659844","0.0-11.0-1.0-0.1","6055","2","11","Female","approach_avoid_spark_v1","""event"",""trial"",""time""
""fullscreenenter"",""1"",""5707""
","
","
","""event"",""trial"",""time""
""fullscreenenter"",""1"",""5707""
","
","","","","","","1002.9000000059605","<p> Some farm animals are hungry, while other farm animals are already full.  </p><p> On each turn, you will see a farm animal.   </p><p> You need to decide whether to feed it or not.  </p>","","0","instructions","","","","","","","","","","",""
"learning-instructions","179","670092","0.0-11.0-1.0-0.2","6055","2","11","Female","approach_avoid_spark_v1","""event"",""trial"",""time""
""fullscreenenter"",""1"",""5707""
","
","
","""event"",""trial"",""time""
""fullscreenenter"",""1"",""5707""
","
","","","","","","4140.4000000059605","<p> You can feed the farm animal by pressing 1 and leave the farm animal alone by pressing 0. </p><br><div class=""choice-instructions-grid""> <div class=""choice-option""><img src=""images/approach.png"" class=""choice-option-img"" stage=""instructions"" position=""0"" ><div class=""choice-option-text""> Press ""1."" </div></div><div class=""choice-option""><img src=""images/avoid.png"" class=""choice-option-img"" stage=""instructions"" position=""1"" ><div class=""choice-option-text""> Press ""0."" </div></div>","","0","instructions","","","","","","","","","","",""
"learning-instructions","180","685337","0.0-11.0-1.0-0.3","6055","2","11","Female","approach_avoid_spark_v1","""event"",""trial"",""time""
""fullscreenenter"",""1"",""5707""
","
","
","""event"",""trial"",""time""
""fullscreenenter"",""1"",""5707""
","
","","","","","","5616","<p> If you feed a hungry farm animal, you will make it feel satisfied! </p><p> But if you feed the farm animal and it was already full, you will make it feel sick. </p>","","0","instructions","","","","","","","","","","",""
"learning-instructions","181","703247","0.0-11.0-1.0-0.4","6055","2","11","Female","approach_avoid_spark_v1","""event"",""trial"",""time""
""fullscreenenter"",""1"",""5707""
","
","
","""event"",""trial"",""time""
""fullscreenenter"",""1"",""5707""
","
","","","","","","5456.200000017881","<p> You will earn points based on how you made the farm animal feel. </p><p> If you made it satisfied, you will WIN anywhere from 1 - 9 points, </p><p> but if you made it sick, you will LOSE anywhere from 1 - 9 points. </p>","","0","instructions","","","","","","","","","","",""
"learning-instructions","182","710480","0.0-11.0-1.0-0.5","6055","2","11","Female","approach_avoid_spark_v1","""event"",""trial"",""time""
""fullscreenenter"",""1"",""5707""
","
","
","""event"",""trial"",""time""
""fullscreenenter"",""1"",""5707""
","
","","","","","","570.2000000178814","<p> You will see how many points you won or lost in the center of the screen. </p><p> Here is what you would see if you won 5 points: </p><p style=""color:green;font-size:50px;font-weight:bolder"">5</p>","","0","instructions","","","","","","","","","","",""
"learning-instructions","183","713777","0.0-11.0-1.0-0.6","6055","2","11","Female","approach_avoid_spark_v1","""event"",""trial"",""time""
""fullscreenenter"",""1"",""5707""
","
","
","""event"",""trial"",""time""
""fullscreenenter"",""1"",""5707""
","
","","","","","","456.5","<p> And here is what you would see if you lost 3 points: </p><p style=""color:red;font-size:50px;font-weight:bolder"">-3</p>","","0","instructions","","","","","","","","","","",""
"learning-instructions","184","733881","0.0-11.0-1.0-0.7","6055","2","11","Female","approach_avoid_spark_v1","""event"",""trial"",""time""
""fullscreenenter"",""1"",""5707""
","
","
","""event"",""trial"",""time""
""fullscreenenter"",""1"",""5707""
","
","","","","","","4530.0999999940395","<p> Some farm animals will become very satisfied or very sick. </p><p> These farm animals will make you win or lose LOTS of points. </p><p> Other farm animals have less strong feelings. </p><p> These farm animals will make you win or lose small amounts of points. </p>","","0","instructions","","","","","","","","","","",""
"learning-instructions","185","749068","0.0-11.0-1.0-0.8","6055","2","11","Female","approach_avoid_spark_v1","""event"",""trial"",""time""
""fullscreenenter"",""1"",""5707""
","
","
","""event"",""trial"",""time""
""fullscreenenter"",""1"",""5707""
","
","","","","","","2967.9000000059605","<p> If you choose to leave the farm animal alone, you will not win or lose any points. </p><p>  However, in the center of the screen, you will see the number of points you WOULD HAVE won or lost if you had fed the farm animal. </p>","","0","instructions","","","","","","","","","","",""
"learning-instructions","186","762354","0.0-11.0-1.0-0.9","6055","2","11","Female","approach_avoid_spark_v1","""event"",""trial"",""time""
""fullscreenenter"",""1"",""5707""
","
","
","""event"",""trial"",""time""
""fullscreenenter"",""1"",""5707""
","
","","","","","","1873.4000000059605","<p> Here is what you might see if you did not feed the farm animal but the animal was hungry: </p><p style=""color:grey; font-size:50px; display: inline-block; border-spacing: 15px; border-width:3px; border-style:solid; border-color:red"">  &nbsp; 6 &nbsp; </p><p> Remember, in this case, you would not win or lose ANY points because you did not feed the farm animal.  </p>","","0","instructions","","","","","","","","","","",""
"learning-instructions","187","774123","0.0-11.0-1.0-0.10","6055","2","11","Female","approach_avoid_spark_v1","""event"",""trial"",""time""
""fullscreenenter"",""1"",""5707""
","
","
","""event"",""trial"",""time""
""fullscreenenter"",""1"",""5707""
","
","","","","","","3971.0999999940395","<p> Try to make the best choice for each farm animal because </p><p> at the end of the game, you will earn bonus money based on how many points you earned. </p>","","0","instructions","","","","","","","","","","",""
"learning-instructions","188","783055","0.0-11.0-1.0-0.11","6055","2","11","Female","approach_avoid_spark_v1","""event"",""trial"",""time""
""fullscreenenter"",""1"",""5707""
","
","
","""event"",""trial"",""time""
""fullscreenenter"",""1"",""5707""
","
","","","","","","725","<p> You will have 3 seconds to make each choice. Try to respond before time runs out! </p><p> You will lose 5 points each time you do not make a response. </p>","","0","instructions","","","","","","","","","","",""
"html-keyboard-response","189","783688","0.0-11.0-2.0-0.0","6055","2","11","Female","approach_avoid_spark_v1","""event"",""trial"",""time""
""fullscreenenter"",""1"",""5707""
","
","
","""event"",""trial"",""time""
""fullscreenenter"",""1"",""5707""
","
","","","","","","null","<div style=""font-size:60px;"">+</div>","null","","fixation","","","","","","","","","","",""
"aa-learning-trial","190","786698","0.0-11.0-2.0-1.0","6055","2","11","Female","approach_avoid_spark_v1","""event"",""trial"",""time""
""fullscreenenter"",""1"",""5707""
","
","
","""event"",""trial"",""time""
""fullscreenenter"",""1"",""5707""
","
","","","","","","1392","images/goat4.png","","","learning","4","4","1","1","goat","animals","1","1","","good","[3]"
"html-keyboard-response","191","787209","0.0-11.0-2.0-0.1","6055","2","11","Female","approach_avoid_spark_v1","""event"",""trial"",""time""
""fullscreenenter"",""1"",""5707""
","
","
","""event"",""trial"",""time""
""fullscreenenter"",""1"",""5707""
","
","","","","","","null","<div style=""font-size:60px;"">+</div>","null","","fixation","","","","","","","","","","",""
"aa-learning-trial","192","790229","0.0-11.0-2.0-1.1","6055","2","11","Female","approach_avoid_spark_v1","""event"",""trial"",""time""
""fullscreenenter"",""1"",""5707""
","
","
","""event"",""trial"",""time""
""fullscreenenter"",""1"",""5707""
","
","","","","","","717.7999999821186","images/goat3.png","","","learning","3","3","1","1","goat","animals","1","1","","good","[3]"
"html-keyboard-response","193","790738","0.0-11.0-2.0-0.2","6055","2","11","Female","approach_avoid_spark_v1","""event"",""trial"",""time""
""fullscreenenter"",""1"",""5707""
","
","
","""event"",""trial"",""time""
""fullscreenenter"",""1"",""5707""
","
","","","","","","null","<div style=""font-size:60px;"">+</div>","null","","fixation","","","","","","","","","","",""
"aa-learning-trial","194","793749","0.0-11.0-2.0-1.2","6055","2","11","Female","approach_avoid_spark_v1","""event"",""trial"",""time""
""fullscreenenter"",""1"",""5707""
","
","
","""event"",""trial"",""time""
""fullscreenenter"",""1"",""5707""
","
","","","","","","869.8000000119209","images/horse2.png","","","learning","-2","-2","1","1","horse","animals","1","1","","bad","[-4]"
"html-keyboard-response","195","794269","0.0-11.0-2.0-0.3","6055","2","11","Female","approach_avoid_spark_v1","""event"",""trial"",""time""
""fullscreenenter"",""1"",""5707""
","
","
","""event"",""trial"",""time""
""fullscreenenter"",""1"",""5707""
","
","","","","","","null","<div style=""font-size:60px;"">+</div>","null","","fixation","","","","","","","","","","",""
"aa-learning-trial","196","797290","0.0-11.0-2.0-1.3","6055","2","11","Female","approach_avoid_spark_v1","""event"",""trial"",""time""
""fullscreenenter"",""1"",""5707""
","
","
","""event"",""trial"",""time""
""fullscreenenter"",""1"",""5707""
","
","","","","","","639.4000000059605","images/cow8.png","","","learning","1","1","1","1","cow","animals","1","1","","neutral","0"
"html-keyboard-response","197","797809","0.0-11.0-2.0-0.4","6055","2","11","Female","approach_avoid_spark_v1","""event"",""trial"",""time""
""fullscreenenter"",""1"",""5707""
","
","
","""event"",""trial"",""time""
""fullscreenenter"",""1"",""5707""
","
","","","","","","null","<div style=""font-size:60px;"">+</div>","null","","fixation","","","","","","","","","","",""
"aa-learning-trial","198","800820","0.0-11.0-2.0-1.4","6055","2","11","Female","approach_avoid_spark_v1","""event"",""trial"",""time""
""fullscreenenter"",""1"",""5707""
","
","
","""event"",""trial"",""time""
""fullscreenenter"",""1"",""5707""
","
","","","","","","569.7000000178814","images/cow7.png","","","learning","1","1","1","1","cow","animals","1","1","","neutral","0"
"html-keyboard-response","199","801329","0.0-11.0-2.0-0.5","6055","2","11","Female","approach_avoid_spark_v1","""event"",""trial"",""time""
""fullscreenenter"",""1"",""5707""
","
","
","""event"",""trial"",""time""
""fullscreenenter"",""1"",""5707""
","
","","","","","","null","<div style=""font-size:60px;"">+</div>","null","","fixation","","","","","","","","","","",""
"aa-learning-trial","200","804340","0.0-11.0-2.0-1.5","6055","2","11","Female","approach_avoid_spark_v1","""event"",""trial"",""time""
""fullscreenenter"",""1"",""5707""
","
","
","""event"",""trial"",""time""
""fullscreenenter"",""1"",""5707""
","
","","","","","","660.2999999821186","images/horse7.png","","","learning","-2","-2","1","1","horse","animals","1","1","","bad","[-4]"
"html-keyboard-response","201","804859","0.0-11.0-2.0-0.6","6055","2","11","Female","approach_avoid_spark_v1","""event"",""trial"",""time""
""fullscreenenter"",""1"",""5707""
","
","
","""event"",""trial"",""time""
""fullscreenenter"",""1"",""5707""
","
","","","","","","null","<div style=""font-size:60px;"">+</div>","null","","fixation","","","","","","","","","","",""
"aa-learning-trial","202","807870","0.0-11.0-2.0-1.6","6055","2","11","Female","approach_avoid_spark_v1","""event"",""trial"",""time""
""fullscreenenter"",""1"",""5707""
","
","
","""event"",""trial"",""time""
""fullscreenenter"",""1"",""5707""
","
","","","","","","717.8999999761581","images/cow5.png","","","learning","[1]","1","1","1","cow","animals","1","1","","neutral","0"
"html-keyboard-response","203","808380","0.0-11.0-2.0-0.7","6055","2","11","Female","approach_avoid_spark_v1","""event"",""trial"",""time""
""fullscreenenter"",""1"",""5707""
","
","
","""event"",""trial"",""time""
""fullscreenenter"",""1"",""5707""
","
","","","","","","null","<div style=""font-size:60px;"">+</div>","null","","fixation","","","","","","","","","","",""
"aa-learning-trial","204","811399","0.0-11.0-2.0-1.7","6055","2","11","Female","approach_avoid_spark_v1","""event"",""trial"",""time""
""fullscreenenter"",""1"",""5707""
","
","
","""event"",""trial"",""time""
""fullscreenenter"",""1"",""5707""
","
","","","","","","649.7000000178814","images/goat3.png","","","learning","2","2","1","1","goat","animals","1","1","","good","[3]"
"html-keyboard-response","205","811919","0.0-11.0-2.0-0.8","6055","2","11","Female","approach_avoid_spark_v1","""event"",""trial"",""time""
""fullscreenenter"",""1"",""5707""
","
","
","""event"",""trial"",""time""
""fullscreenenter"",""1"",""5707""
","
","","","","","","null","<div style=""font-size:60px;"">+</div>","null","","fixation","","","","","","","","","","",""
"aa-learning-trial","206","814928","0.0-11.0-2.0-1.8","6055","2","11","Female","approach_avoid_spark_v1","""event"",""trial"",""time""
""fullscreenenter"",""1"",""5707""
","
","
","""event"",""trial"",""time""
""fullscreenenter"",""1"",""5707""
","
","","","","","","874.5","images/horse6.png","","","learning","-3","-3","1","1","horse","animals","1","1","","bad","[-4]"
"html-keyboard-response","207","815432","0.0-11.0-2.0-0.9","6055","2","11","Female","approach_avoid_spark_v1","""event"",""trial"",""time""
""fullscreenenter"",""1"",""5707""
","
","
","""event"",""trial"",""time""
""fullscreenenter"",""1"",""5707""
","
","","","","","","null","<div style=""font-size:60px;"">+</div>","null","","fixation","","","","","","","","","","",""
"aa-learning-trial","208","818440","0.0-11.0-2.0-1.9","6055","2","11","Female","approach_avoid_spark_v1","""event"",""trial"",""time""
""fullscreenenter"",""1"",""5707""
","
","
","""event"",""trial"",""time""
""fullscreenenter"",""1"",""5707""
","
","","","","","","580.1999999880791","images/goat4.png","","","learning","1","1","1","1","goat","animals","1","1","","good","[3]"
"html-keyboard-response","209","818944","0.0-11.0-2.0-0.10","6055","2","11","Female","approach_avoid_spark_v1","""event"",""trial"",""time""
""fullscreenenter"",""1"",""5707""
","
","
","""event"",""trial"",""time""
""fullscreenenter"",""1"",""5707""
","
","","","","","","null","<div style=""font-size:60px;"">+</div>","null","","fixation","","","","","","","","","","",""
"aa-learning-trial","210","821952","0.0-11.0-2.0-1.10","6055","2","11","Female","approach_avoid_spark_v1","""event"",""trial"",""time""
""fullscreenenter"",""1"",""5707""
","
","
","""event"",""trial"",""time""
""fullscreenenter"",""1"",""5707""
","
","","","","","","596.9000000059605","images/cow5.png","","","learning","4","4","1","1","cow","animals","1","1","","neutral","0"
"html-keyboard-response","211","822456","0.0-11.0-2.0-0.11","6055","2","11","Female","approach_avoid_spark_v1","""event"",""trial"",""time""
""fullscreenenter"",""1"",""5707""
","
","
","""event"",""trial"",""time""
""fullscreenenter"",""1"",""5707""
","
","","","","","","null","<div style=""font-size:60px;"">+</div>","null","","fixation","","","","","","","","","","",""
"aa-learning-trial","212","825464","0.0-11.0-2.0-1.11","6055","2","11","Female","approach_avoid_spark_v1","""event"",""trial"",""time""
""fullscreenenter"",""1"",""5707""
","
","
","""event"",""trial"",""time""
""fullscreenenter"",""1"",""5707""
","
","","","","","","805.7999999821186","images/horse6.png","","","learning","-5","0","0","0","horse","animals","1","1","","bad","[-4]"
"html-keyboard-response","213","825968","0.0-11.0-2.0-0.12","6055","2","11","Female","approach_avoid_spark_v1","""event"",""trial"",""time""
""fullscreenenter"",""1"",""5707""
","
","
","""event"",""trial"",""time""
""fullscreenenter"",""1"",""5707""
","
","","","","","","null","<div style=""font-size:60px;"">+</div>","null","","fixation","","","","","","","","","","",""
"aa-learning-trial","214","828976","0.0-11.0-2.0-1.12","6055","2","11","Female","approach_avoid_spark_v1","""event"",""trial"",""time""
""fullscreenenter"",""1"",""5707""
","
","
","""event"",""trial"",""time""
""fullscreenenter"",""1"",""5707""
","
","","","","","","661","images/cow7.png","","","learning","1","1","1","1","cow","animals","1","1","","neutral","0"
"html-keyboard-response","215","829480","0.0-11.0-2.0-0.13","6055","2","11","Female","approach_avoid_spark_v1","""event"",""trial"",""time""
""fullscreenenter"",""1"",""5707""
","
","
","""event"",""trial"",""time""
""fullscreenenter"",""1"",""5707""
","
","","","","","","null","<div style=""font-size:60px;"">+</div>","null","","fixation","","","","","","","","","","",""
"aa-learning-trial","216","832499","0.0-11.0-2.0-1.13","6055","2","11","Female","approach_avoid_spark_v1","""event"",""trial"",""time""
""fullscreenenter"",""1"",""5707""
","
","
","""event"",""trial"",""time""
""fullscreenenter"",""1"",""5707""
","
","","","","","","537.1000000238419","images/goat8.png","","","learning","2","2","1","1","goat","animals","1","1","","good","[3]"
"html-keyboard-response","217","833008","0.0-11.0-2.0-0.14","6055","2","11","Female","approach_avoid_spark_v1","""event"",""trial"",""time""
""fullscreenenter"",""1"",""5707""
","
","
","""event"",""trial"",""time""
""fullscreenenter"",""1"",""5707""
","
","","","","","","null","<div style=""font-size:60px;"">+</div>","null","","fixation","","","","","","","","","","",""
"aa-learning-trial","218","836016","0.0-11.0-2.0-1.14","6055","2","11","Female","approach_avoid_spark_v1","""event"",""trial"",""time""
""fullscreenenter"",""1"",""5707""
","
","
","""event"",""trial"",""time""
""fullscreenenter"",""1"",""5707""
","
","","","","","","698.7000000178814","images/horse2.png","","","learning","-3","0","0","0","horse","animals","1","1","","bad","[-4]"
"html-keyboard-response","219","836521","0.0-11.0-2.0-0.15","6055","2","11","Female","approach_avoid_spark_v1","""event"",""trial"",""time""
""fullscreenenter"",""1"",""5707""
","
","
","""event"",""trial"",""time""
""fullscreenenter"",""1"",""5707""
","
","","","","","","null","<div style=""font-size:60px;"">+</div>","null","","fixation","","","","","","","","","","",""
"aa-learning-trial","220","839528","0.0-11.0-2.0-1.15","6055","2","11","Female","approach_avoid_spark_v1","""event"",""trial"",""time""
""fullscreenenter"",""1"",""5707""
","
","
","""event"",""trial"",""time""
""fullscreenenter"",""1"",""5707""
","
","","","","","","756.9000000059605","images/horse4.png","","","learning","-2","0","0","0","horse","animals","1","1","","bad","[-4]"
"html-keyboard-response","221","840033","0.0-11.0-2.0-0.16","6055","2","11","Female","approach_avoid_spark_v1","""event"",""trial"",""time""
""fullscreenenter"",""1"",""5707""
","
","
","""event"",""trial"",""time""
""fullscreenenter"",""1"",""5707""
","
","","","","","","null","<div style=""font-size:60px;"">+</div>","null","","fixation","","","","","","","","","","",""
"aa-learning-trial","222","843041","0.0-11.0-2.0-1.16","6055","2","11","Female","approach_avoid_spark_v1","""event"",""trial"",""time""
""fullscreenenter"",""1"",""5707""
","
","
","""event"",""trial"",""time""
""fullscreenenter"",""1"",""5707""
","
","","","","","","587.5","images/horse6.png","","","learning","-3","0","0","0","horse","animals","1","1","","bad","[-4]"
"html-keyboard-response","223","843544","0.0-11.0-2.0-0.17","6055","2","11","Female","approach_avoid_spark_v1","""event"",""trial"",""time""
""fullscreenenter"",""1"",""5707""
","
","
","""event"",""trial"",""time""
""fullscreenenter"",""1"",""5707""
","
","","","","","","null","<div style=""font-size:60px;"">+</div>","null","","fixation","","","","","","","","","","",""
"aa-learning-trial","224","846552","0.0-11.0-2.0-1.17","6055","2","11","Female","approach_avoid_spark_v1","""event"",""trial"",""time""
""fullscreenenter"",""1"",""5707""
","
","
","""event"",""trial"",""time""
""fullscreenenter"",""1"",""5707""
","
","","","","","","662","images/cow7.png","","","learning","1","1","1","1","cow","animals","1","1","","neutral","0"
"html-keyboard-response","225","847059","0.0-11.0-2.0-0.18","6055","2","11","Female","approach_avoid_spark_v1","""event"",""trial"",""time""
""fullscreenenter"",""1"",""5707""
","
","
","""event"",""trial"",""time""
""fullscreenenter"",""1"",""5707""
","
","","","","","","null","<div style=""font-size:60px;"">+</div>","null","","fixation","","","","","","","","","","",""
"aa-learning-trial","226","850064","0.0-11.0-2.0-1.18","6055","2","11","Female","approach_avoid_spark_v1","""event"",""trial"",""time""
""fullscreenenter"",""1"",""5707""
","
","
","""event"",""trial"",""time""
""fullscreenenter"",""1"",""5707""
","
","","","","","","746","images/horse2.png","","","learning","-5","0","0","0","horse","animals","1","1","","bad","[-4]"
"html-keyboard-response","227","850568","0.0-11.0-2.0-0.19","6055","2","11","Female","approach_avoid_spark_v1","""event"",""trial"",""time""
""fullscreenenter"",""1"",""5707""
","
","
","""event"",""trial"",""time""
""fullscreenenter"",""1"",""5707""
","
","","","","","","null","<div style=""font-size:60px;"">+</div>","null","","fixation","","","","","","","","","","",""
"aa-learning-trial","228","853576","0.0-11.0-2.0-1.19","6055","2","11","Female","approach_avoid_spark_v1","""event"",""trial"",""time""
""fullscreenenter"",""1"",""5707""
","
","
","""event"",""trial"",""time""
""fullscreenenter"",""1"",""5707""
","
","","","","","","776.1999999880791","images/horse7.png","","","learning","-4","-4","1","1","horse","animals","1","1","","bad","[-4]"
"html-keyboard-response","229","854080","0.0-11.0-2.0-0.20","6055","2","11","Female","approach_avoid_spark_v1","""event"",""trial"",""time""
""fullscreenenter"",""1"",""5707""
","
","
","""event"",""trial"",""time""
""fullscreenenter"",""1"",""5707""
","
","","","","","","null","<div style=""font-size:60px;"">+</div>","null","","fixation","","","","","","","","","","",""
"aa-learning-trial","230","857087","0.0-11.0-2.0-1.20","6055","2","11","Female","approach_avoid_spark_v1","""event"",""trial"",""time""
""fullscreenenter"",""1"",""5707""
","
","
","""event"",""trial"",""time""
""fullscreenenter"",""1"",""5707""
","
","","","","","","633.4000000059605","images/goat4.png","","","learning","3","3","1","1","goat","animals","1","1","","good","[3]"
"html-keyboard-response","231","857591","0.0-11.0-2.0-0.21","6055","2","11","Female","approach_avoid_spark_v1","""event"",""trial"",""time""
""fullscreenenter"",""1"",""5707""
","
","
","""event"",""trial"",""time""
""fullscreenenter"",""1"",""5707""
","
","","","","","","null","<div style=""font-size:60px;"">+</div>","null","","fixation","","","","","","","","","","",""
"aa-learning-trial","232","860600","0.0-11.0-2.0-1.21","6055","2","11","Female","approach_avoid_spark_v1","""event"",""trial"",""time""
""fullscreenenter"",""1"",""5707""
","
","
","""event"",""trial"",""time""
""fullscreenenter"",""1"",""5707""
","
","","","","","","573.5999999940395","images/horse3.png","","","learning","-6","0","0","0","horse","animals","1","1","","bad","[-4]"
"html-keyboard-response","233","861104","0.0-11.0-2.0-0.22","6055","2","11","Female","approach_avoid_spark_v1","""event"",""trial"",""time""
""fullscreenenter"",""1"",""5707""
","
","
","""event"",""trial"",""time""
""fullscreenenter"",""1"",""5707""
","
","","","","","","null","<div style=""font-size:60px;"">+</div>","null","","fixation","","","","","","","","","","",""
"aa-learning-trial","234","864112","0.0-11.0-2.0-1.22","6055","2","11","Female","approach_avoid_spark_v1","""event"",""trial"",""time""
""fullscreenenter"",""1"",""5707""
","
","
","""event"",""trial"",""time""
""fullscreenenter"",""1"",""5707""
","
","","","","","","551.1999999880791","images/cow8.png","","","learning","-1","-1","1","1","cow","animals","1","1","","neutral","0"
"html-keyboard-response","235","864616","0.0-11.0-2.0-0.23","6055","2","11","Female","approach_avoid_spark_v1","""event"",""trial"",""time""
""fullscreenenter"",""1"",""5707""
","
","
","""event"",""trial"",""time""
""fullscreenenter"",""1"",""5707""
","
","","","","","","null","<div style=""font-size:60px;"">+</div>","null","","fixation","","","","","","","","","","",""
"aa-learning-trial","236","867624","0.0-11.0-2.0-1.23","6055","2","11","Female","approach_avoid_spark_v1","""event"",""trial"",""time""
""fullscreenenter"",""1"",""5707""
","
","
