"trial_type","trial_index","time_elapsed","internal_node_id","subject_id","task_condition","age","gender","task_version","interactions","blur_events","focus_events","fullscreenenter_events","fullscreenexit_events","success","timeout","failed_images","failed_audio","failed_video","rt","stimulus","response","button_pressed","task_part","approach_reward","points","key_press","option_selected","stim_cat","task_block","block_condition","block_number","correct","cat_type","mean_cat_reward"
"pavlovia","0","45","0.0-0.0","6212","1","23","Female","approach_avoid_spark_v1","""event"",""trial"",""time""
""focus"",""0"",""3""
""fullscreenenter"",""1"",""2461""
","
","""event"",""trial"",""time""
""focus"",""0"",""3""
","""event"",""trial"",""time""
""fullscreenenter"",""1"",""2461""
","
","","","","","","","","","","","","","","","","","","","","",""
"fullscreen","1","3198","0.0-1.0","6212","1","23","Female","approach_avoid_spark_v1","""event"",""trial"",""time""
""focus"",""0"",""3""
""fullscreenenter"",""1"",""2461""
","
","""event"",""trial"",""time""
""focus"",""0"",""3""
","""event"",""trial"",""time""
""fullscreenenter"",""1"",""2461""
","
","true","","","","","","","","","","","","","","","","","","","",""
"preload","2","7459","0.0-2.0","6212","1","23","Female","approach_avoid_spark_v1","""event"",""trial"",""time""
""focus"",""0"",""3""
""fullscreenenter"",""1"",""2461""
","
","""event"",""trial"",""time""
""focus"",""0"",""3""
","""event"",""trial"",""time""
""fullscreenenter"",""1"",""2461""
","
","true","false","[]","[]","[]","","","","","","","","","","","","","","","",""
"audio-keyboard-response","3","9330","0.0-3.0","6212","1","23","Female","approach_avoid_spark_v1","""event"",""trial"",""time""
""focus"",""0"",""3""
""fullscreenenter"",""1"",""2461""
","
","""event"",""trial"",""time""
""focus"",""0"",""3""
","""event"",""trial"",""time""
""fullscreenenter"",""1"",""2461""
","
","","","","","","1869.333333333333","audio/beep_loop.wav"," ","","","","","","","","","","","","",""
"audio-button-response","4","11858","0.0-4.0","6212","1","23","Female","approach_avoid_spark_v1","""event"",""trial"",""time""
""focus"",""0"",""3""
""fullscreenenter"",""1"",""2461""
","
","""event"",""trial"",""time""
""focus"",""0"",""3""
","""event"",""trial"",""time""
""fullscreenenter"",""1"",""2461""
","
","","","","","","2520","audio/shark.wav","4","","","","","","","","","","","","",""
"audio-button-response","5","14343","0.0-5.0","6212","1","23","Female","approach_avoid_spark_v1","""event"",""trial"",""time""
""focus"",""0"",""3""
""fullscreenenter"",""1"",""2461""
","
","""event"",""trial"",""time""
""focus"",""0"",""3""
","""event"",""trial"",""time""
""fullscreenenter"",""1"",""2461""
","
","","","","","","1469","audio/turtle.wav","1","","","","","","","","","","","","",""
"preload","6","16909","0.0-6.0","6212","1","23","Female","approach_avoid_spark_v1","""event"",""trial"",""time""
""focus"",""0"",""3""
""fullscreenenter"",""1"",""2461""
","
","""event"",""trial"",""time""
""focus"",""0"",""3""
","""event"",""trial"",""time""
""fullscreenenter"",""1"",""2461""
","
","true","false","[]","[]","[]","","","","","","","","","","","","","","","",""
"html-keyboard-response","7","18536","0.0-7.0","6212","1","23","Female","approach_avoid_spark_v1","""event"",""trial"",""time""
""focus"",""0"",""3""
""fullscreenenter"",""1"",""2461""
","
","""event"",""trial"",""time""
""focus"",""0"",""3""
","""event"",""trial"",""time""
""fullscreenenter"",""1"",""2461""
","
","","","","","","1626","Welcome to the experiment. Press any key to begin and to advance the instructions."," ","","","","","","","","","","","","",""
"learning-instructions","8","48001","0.0-8.0-0.0-0.0","6212","1","23","Female","approach_avoid_spark_v1","""event"",""trial"",""time""
""focus"",""0"",""3""
""fullscreenenter"",""1"",""2461""
","
","""event"",""trial"",""time""
""focus"",""0"",""3""
","""event"",""trial"",""time""
""fullscreenenter"",""1"",""2461""
","
","","","","","","22493","<p> Welcome! Today you are going to play 6 different rounds of a decision-making game. </p><p> Use the mouse to click next to continue. </p>","","0","instructions","","","","","","","","","","",""
"learning-instructions","9","53498","0.0-8.0-0.0-0.1","6212","1","23","Female","approach_avoid_spark_v1","""event"",""trial"",""time""
""focus"",""0"",""3""
""fullscreenenter"",""1"",""2461""
","
","""event"",""trial"",""time""
""focus"",""0"",""3""
","""event"",""trial"",""time""
""fullscreenenter"",""1"",""2461""
","
","","","","","","2750","<p> You will start with a practice round to learn the rules. </p>","","0","instructions","","","","","","","","","","",""
"learning-instructions","10","57999","0.0-8.0-0.0-0.2","6212","1","23","Female","approach_avoid_spark_v1","""event"",""trial"",""time""
""focus"",""0"",""3""
""fullscreenenter"",""1"",""2461""
","
","""event"",""trial"",""time""
""focus"",""0"",""3""
","""event"",""trial"",""time""
""fullscreenenter"",""1"",""2461""
","
","","","","","","1030","<p> Your goal in this round is to give out sports equipment to kids. </p></div>","","0","instructions","","","","","","","","","","",""
"learning-instructions","11","66813","0.0-8.0-0.0-0.3","6212","1","23","Female","approach_avoid_spark_v1","""event"",""trial"",""time""
""focus"",""0"",""3""
""fullscreenenter"",""1"",""2461""
","
","""event"",""trial"",""time""
""focus"",""0"",""3""
","""event"",""trial"",""time""
""fullscreenenter"",""1"",""2461""
","
","","","","","","1254","<p> The kids only like some of the equipment.  </p><p> On each turn, you will see a piece of sports equipment.   </p><p> You need to decide whether to give it to the kids or not.  </p>","","0","instructions","","","","","","","","","","",""
"learning-instructions","12","72728","0.0-8.0-0.0-0.4","6212","1","23","Female","approach_avoid_spark_v1","""event"",""trial"",""time""
""focus"",""0"",""3""
""fullscreenenter"",""1"",""2461""
","
","""event"",""trial"",""time""
""focus"",""0"",""3""
","""event"",""trial"",""time""
""fullscreenenter"",""1"",""2461""
","
","","","","","","1148","<p> You can give them the equipment by pressing 1 and choose not to give it to them by pressing 0. </p><br><div class=""choice-instructions-grid""> <div class=""choice-option""><img src=""images/approach.png"" class=""choice-option-img"" stage=""instructions"" position=""0"" ><div class=""choice-option-text""> Press ""1."" </div></div><div class=""choice-option""><img src=""images/avoid.png"" class=""choice-option-img"" stage=""instructions"" position=""1"" ><div class=""choice-option-text""> Press ""0."" </div></div>","","0","instructions","","","","","","","","","","",""
"learning-instructions","13","81013","0.0-8.0-0.0-0.5","6212","1","23","Female","approach_avoid_spark_v1","""event"",""trial"",""time""
""focus"",""0"",""3""
""fullscreenenter"",""1"",""2461""
","
","""event"",""trial"",""time""
""focus"",""0"",""3""
","""event"",""trial"",""time""
""fullscreenenter"",""1"",""2461""
","
","","","","","","894","<p> If you give them a piece of equipment they like, they will be happy! </p><p> But if you give them a piece of equipment they do not like, they will be sad. </p>","","0","instructions","","","","","","","","","","",""
"learning-instructions","14","92548","0.0-8.0-0.0-0.6","6212","1","23","Female","approach_avoid_spark_v1","""event"",""trial"",""time""
""focus"",""0"",""3""
""fullscreenenter"",""1"",""2461""
","
","""event"",""trial"",""time""
""focus"",""0"",""3""
","""event"",""trial"",""time""
""fullscreenenter"",""1"",""2461""
","
","","","","","","1009","<p> You will earn points based on how you make kids feel. </p><p> If you make them happy, you will WIN anywhere from 1 - 9 points, </p><p> but if you make them sad, you will LOSE anywhere from 1 - 9 points. </p>","","0","instructions","","","","","","","","","","",""
"learning-instructions","15","104557","0.0-8.0-0.0-0.7","6212","1","23","Female","approach_avoid_spark_v1","""event"",""trial"",""time""
""focus"",""0"",""3""
""fullscreenenter"",""1"",""2461""
","
","""event"",""trial"",""time""
""focus"",""0"",""3""
","""event"",""trial"",""time""
""fullscreenenter"",""1"",""2461""
","
","","","","","","2440","<p> You will see how many points you won or lost in the center of the screen. </p><p> Here is what you would see if you won 6 points: </p><p style=""color:green;font-size:50px;font-weight:bolder"">6</p><p style=""color:green"">The text is GREEN because you WON points.</p>","","0","instructions","","","","","","","","","","",""
"learning-instructions","16","111079","0.0-8.0-0.0-0.8","6212","1","23","Female","approach_avoid_spark_v1","""event"",""trial"",""time""
""focus"",""0"",""3""
""fullscreenenter"",""1"",""2461""
","
","""event"",""trial"",""time""
""focus"",""0"",""3""
","""event"",""trial"",""time""
""fullscreenenter"",""1"",""2461""
","
","","","","","","1000","<p> And here is what you would see if you lost 4 points: </p><p style=""color:red;font-size:50px;font-weight:bolder"">-4</p><p style=""color:red"">The text is RED because you LOST points. </p>","","0","instructions","","","","","","","","","","",""
"learning-instructions","17","142834","0.0-8.0-0.0-0.9","6212","1","23","Female","approach_avoid_spark_v1","""event"",""trial"",""time""
""focus"",""0"",""3""
""fullscreenenter"",""1"",""2461""
","
","""event"",""trial"",""time""
""focus"",""0"",""3""
","""event"",""trial"",""time""
""fullscreenenter"",""1"",""2461""
","
","","","","","","17026","<p> Some of the equipment will make the kids VERY happy or sad. </p><p> These pieces of equipment will make you win or lose LOTS of points. </p><p> Other pieces of equipment will only make the kids a little happy or sad. </p><p> These pieces of equipment will make you win or lose small amounts of points. </p>","","0","instructions","","","","","","","","","","",""
"learning-instructions","18","154159","0.0-8.0-0.0-0.10","6212","1","23","Female","approach_avoid_spark_v1","""event"",""trial"",""time""
""focus"",""0"",""3""
""fullscreenenter"",""1"",""2461""
","
","""event"",""trial"",""time""
""focus"",""0"",""3""
","""event"",""trial"",""time""
""fullscreenenter"",""1"",""2461""
","
","","","","","","690","<p> If you choose not to give them the equipment, you will not win or lose any points. </p><p>  However, in the center of the screen, you will see the number of points you WOULD HAVE won or lost if you had given them the equipment. </p>","","0","instructions","","","","","","","","","","",""
"learning-instructions","19","179230","0.0-8.0-0.0-0.11","6212","1","23","Female","approach_avoid_spark_v1","""event"",""trial"",""time""
""focus"",""0"",""3""
""fullscreenenter"",""1"",""2461""
","
","""event"",""trial"",""time""
""focus"",""0"",""3""
","""event"",""trial"",""time""
""fullscreenenter"",""1"",""2461""
","
","","","","","","3531","<p> Here is what you might see if you did not give the equipment to the kids but it would have made them happy: </p><p style=""color:grey; font-size:50px; display: inline-block; border-spacing: 15px; border-width:3px; border-style:solid; border-color:red"">  &nbsp; 7 &nbsp; </p><p> Remember, in this case, you would not win or lose ANY points because you did not give them the equipment.  </p><p style=""color:grey"">The text is GREY because you earned ZERO points. </p><p style=""color:red"">However, choosing to give the kids the equipment would have made you win points. The box around the text is RED because you chose the worse option. </p>","","0","instructions","","","","","","","","","","",""
"learning-instructions","20","205533","0.0-8.0-0.0-0.12","6212","1","23","Female","approach_avoid_spark_v1","""event"",""trial"",""time""
""focus"",""0"",""3""
""fullscreenenter"",""1"",""2461""
","
","""event"",""trial"",""time""
""focus"",""0"",""3""
","""event"",""trial"",""time""
""fullscreenenter"",""1"",""2461""
","
","","","","","","5203","<p> Here is what you might see if you did not give the equipment to the kids but it would have made them sad: </p><p style=""color:grey;font-size:50px; display: inline-block; border-spacing: 15px; border-width:3px; border-style:solid; border-color:green"">  &nbsp; -8 &nbsp; </p><p> Remember, in this case, you would not win or lose ANY points because you did not give them the equipment.  </p><p style=""color:grey"">The text is GREY because you earned ZERO points. </p><p  style=""color:green""> Choosing to give the kids the equipment would have made you lose points. The box around the text is GREEN because you chose the better option.</p>","","0","instructions","","","","","","","","","","",""
"learning-instructions","21","215779","0.0-8.0-0.0-0.13","6212","1","23","Female","approach_avoid_spark_v1","""event"",""trial"",""time""
""focus"",""0"",""3""
""fullscreenenter"",""1"",""2461""
","
","""event"",""trial"",""time""
""focus"",""0"",""3""
","""event"",""trial"",""time""
""fullscreenenter"",""1"",""2461""
","
","","","","","","739","<p> You will have 3 seconds to make each choice. Try to respond before time runs out! </p><p> You will lose 5 points each time you do not make a response. </p>","","0","instructions","","","","","","","","","","",""
"learning-instructions","22","222361","0.0-8.0-0.0-0.14","6212","1","23","Female","approach_avoid_spark_v1","""event"",""trial"",""time""
""focus"",""0"",""3""
""fullscreenenter"",""1"",""2461""
","
","""event"",""trial"",""time""
""focus"",""0"",""3""
","""event"",""trial"",""time""
""fullscreenenter"",""1"",""2461""
","
","","","","","","1150","<p> This is just a practice round, but in the real game, your bonus payment will depend on your total number of points.","","0","instructions","","","","","","","","","","",""
"learning-instructions","23","228812","0.0-8.0-0.0-0.15","6212","1","23","Female","approach_avoid_spark_v1","""event"",""trial"",""time""
""focus"",""0"",""3""
""fullscreenenter"",""1"",""2461""
","
","""event"",""trial"",""time""
""focus"",""0"",""3""
","""event"",""trial"",""time""
""fullscreenenter"",""1"",""2461""
","
","","","","","","663","<p> Remember, you can give them the equipment by pressing 1 and choose not to give it to them by pressing 0. </p><br><div class=""choice-instructions-grid""> <div class=""choice-option""><img src=""images/approach.png"" class=""choice-option-img"" stage=""instructions"" position=""0"" ><div class=""choice-option-text""> Press ""1."" </div></div><div class=""choice-option""><img src=""images/avoid.png"" class=""choice-option-img"" stage=""instructions"" position=""1"" ><div class=""choice-option-text""> Press ""0."" </div></div>","","0","instructions","","","","","","","","","","",""
"html-button-response","24","230781","0.0-8.0-1.0","6212","1","23","Female","approach_avoid_spark_v1","""event"",""trial"",""time""
""focus"",""0"",""3""
""fullscreenenter"",""1"",""2461""
","
","""event"",""trial"",""time""
""focus"",""0"",""3""
","""event"",""trial"",""time""
""fullscreenenter"",""1"",""2461""
","
","","","","","","1859","<p> Ready to practice? </p>","0","","","","","","","","","","","","",""
"html-keyboard-response","25","231408","0.0-8.0-2.0-0.0","6212","1","23","Female","approach_avoid_spark_v1","""event"",""trial"",""time""
""focus"",""0"",""3""
""fullscreenenter"",""1"",""2461""
","
","""event"",""trial"",""time""
""focus"",""0"",""3""
","""event"",""trial"",""time""
""fullscreenenter"",""1"",""2461""
","
","","","","","","null","<div style=""font-size:60px;"">+</div>","null","","fixation","","","","","","","","","","",""
"aa-learning-trial","26","234421","0.0-8.0-2.0-1.0","6212","1","23","Female","approach_avoid_spark_v1","""event"",""trial"",""time""
""focus"",""0"",""3""
""fullscreenenter"",""1"",""2461""
","
","""event"",""trial"",""time""
""focus"",""0"",""3""
","""event"",""trial"",""time""
""fullscreenenter"",""1"",""2461""
","
","","","","","","2210","images/ball4.png","","","learning","-5","0","0","0","practice","practice","practice","-1","","",""
"html-keyboard-response","27","234936","0.0-8.0-2.0-0.1","6212","1","23","Female","approach_avoid_spark_v1","""event"",""trial"",""time""
""focus"",""0"",""3""
""fullscreenenter"",""1"",""2461""
","
","""event"",""trial"",""time""
""focus"",""0"",""3""
","""event"",""trial"",""time""
""fullscreenenter"",""1"",""2461""
","
","","","","","","null","<div style=""font-size:60px;"">+</div>","null","","fixation","","","","","","","","","","",""
"aa-learning-trial","28","237948","0.0-8.0-2.0-1.1","6212","1","23","Female","approach_avoid_spark_v1","""event"",""trial"",""time""
""focus"",""0"",""3""
""fullscreenenter"",""1"",""2461""
","
","""event"",""trial"",""time""
""focus"",""0"",""3""
","""event"",""trial"",""time""
""fullscreenenter"",""1"",""2461""
","
","","","","","","1005","images/ball1.png","","","learning","2","2","1","1","practice","practice","practice","-1","","",""
"html-keyboard-response","29","238463","0.0-8.0-2.0-0.2","6212","1","23","Female","approach_avoid_spark_v1","""event"",""trial"",""time""
""focus"",""0"",""3""
""fullscreenenter"",""1"",""2461""
","
","""event"",""trial"",""time""
""focus"",""0"",""3""
","""event"",""trial"",""time""
""fullscreenenter"",""1"",""2461""
","
","","","","","","null","<div style=""font-size:60px;"">+</div>","null","","fixation","","","","","","","","","","",""
"aa-learning-trial","30","241466","0.0-8.0-2.0-1.2","6212","1","23","Female","approach_avoid_spark_v1","""event"",""trial"",""time""
""focus"",""0"",""3""
""fullscreenenter"",""1"",""2461""
","
","""event"",""trial"",""time""
""focus"",""0"",""3""
","""event"",""trial"",""time""
""fullscreenenter"",""1"",""2461""
","
","","","","","","1235","images/ball4.png","","","learning","-8","0","0","0","practice","practice","practice","-1","","",""
"html-keyboard-response","31","241976","0.0-8.0-2.0-0.3","6212","1","23","Female","approach_avoid_spark_v1","""event"",""trial"",""time""
""focus"",""0"",""3""
""fullscreenenter"",""1"",""2461""
","
","""event"",""trial"",""time""
""focus"",""0"",""3""
","""event"",""trial"",""time""
""fullscreenenter"",""1"",""2461""
","
","","","","","","null","<div style=""font-size:60px;"">+</div>","null","","fixation","","","","","","","","","","",""
"aa-learning-trial","32","244987","0.0-8.0-2.0-1.3","6212","1","23","Female","approach_avoid_spark_v1","""event"",""trial"",""time""
""focus"",""0"",""3""
""fullscreenenter"",""1"",""2461""
","
","""event"",""trial"",""time""
""focus"",""0"",""3""
","""event"",""trial"",""time""
""fullscreenenter"",""1"",""2461""
","
","","","","","","1718","images/racket4.png","","","learning","2","2","1","1","practice","practice","practice","-1","","",""
"html-keyboard-response","33","245488","0.0-8.0-2.0-0.4","6212","1","23","Female","approach_avoid_spark_v1","""event"",""trial"",""time""
""focus"",""0"",""3""
""fullscreenenter"",""1"",""2461""
","
","""event"",""trial"",""time""
""focus"",""0"",""3""
","""event"",""trial"",""time""
""fullscreenenter"",""1"",""2461""
","
","","","","","","null","<div style=""font-size:60px;"">+</div>","null","","fixation","","","","","","","","","","",""
"aa-learning-trial","34","248502","0.0-8.0-2.0-1.4","6212","1","23","Female","approach_avoid_spark_v1","""event"",""trial"",""time""
""focus"",""0"",""3""
""fullscreenenter"",""1"",""2461""
","
","""event"",""trial"",""time""
""focus"",""0"",""3""
","""event"",""trial"",""time""
""fullscreenenter"",""1"",""2461""
","
","","","","","","731","images/racket1.png","","","learning","-1","-1","1","1","practice","practice","practice","-1","","",""
"html-keyboard-response","35","249006","0.0-8.0-2.0-0.5","6212","1","23","Female","approach_avoid_spark_v1","""event"",""trial"",""time""
""focus"",""0"",""3""
""fullscreenenter"",""1"",""2461""
","
","""event"",""trial"",""time""
""focus"",""0"",""3""
","""event"",""trial"",""time""
""fullscreenenter"",""1"",""2461""
","
","","","","","","null","<div style=""font-size:60px;"">+</div>","null","","fixation","","","","","","","","","","",""
"aa-learning-trial","36","252022","0.0-8.0-2.0-1.5","6212","1","23","Female","approach_avoid_spark_v1","""event"",""trial"",""time""
""focus"",""0"",""3""
""fullscreenenter"",""1"",""2461""
","
","""event"",""trial"",""time""
""focus"",""0"",""3""
","""event"",""trial"",""time""
""fullscreenenter"",""1"",""2461""
","
","","","","","","1232","images/racket4.png","","","learning","4","4","1","1","practice","practice","practice","-1","","",""
"html-keyboard-response","37","252526","0.0-8.0-2.0-0.6","6212","1","23","Female","approach_avoid_spark_v1","""event"",""trial"",""time""
""focus"",""0"",""3""
""fullscreenenter"",""1"",""2461""
","
","""event"",""trial"",""time""
""focus"",""0"",""3""
","""event"",""trial"",""time""
""fullscreenenter"",""1"",""2461""
","
","","","","","","null","<div style=""font-size:60px;"">+</div>","null","","fixation","","","","","","","","","","",""
"aa-learning-trial","38","255537","0.0-8.0-2.0-1.6","6212","1","23","Female","approach_avoid_spark_v1","""event"",""trial"",""time""
""focus"",""0"",""3""
""fullscreenenter"",""1"",""2461""
","
","""event"",""trial"",""time""
""focus"",""0"",""3""
","""event"",""trial"",""time""
""fullscreenenter"",""1"",""2461""
","
","","","","","","882","images/ball1.png","","","learning","-2","0","0","0","practice","practice","practice","-1","","",""
"html-keyboard-response","39","256052","0.0-8.0-2.0-0.7","6212","1","23","Female","approach_avoid_spark_v1","""event"",""trial"",""time""
""focus"",""0"",""3""
""fullscreenenter"",""1"",""2461""
","
","""event"",""trial"",""time""
""focus"",""0"",""3""
","""event"",""trial"",""time""
""fullscreenenter"",""1"",""2461""
","
","","","","","","null","<div style=""font-size:60px;"">+</div>","null","","fixation","","","","","","","","","","",""
"aa-learning-trial","40","259058","0.0-8.0-2.0-1.7","6212","1","23","Female","approach_avoid_spark_v1","""event"",""trial"",""time""
""focus"",""0"",""3""
""fullscreenenter"",""1"",""2461""
","
","""event"",""trial"",""time""
""focus"",""0"",""3""
","""event"",""trial"",""time""
""fullscreenenter"",""1"",""2461""
","
","","","","","","521","images/racket1.png","","","learning","-6","-6","1","1","practice","practice","practice","-1","","",""
"html-keyboard-response","41","259575","0.0-8.0-2.0-0.8","6212","1","23","Female","approach_avoid_spark_v1","""event"",""trial"",""time""
""focus"",""0"",""3""
""fullscreenenter"",""1"",""2461""
","
","""event"",""trial"",""time""
""focus"",""0"",""3""
","""event"",""trial"",""time""
""fullscreenenter"",""1"",""2461""
","
","","","","","","null","<div style=""font-size:60px;"">+</div>","null","","fixation","","","","","","","","","","",""
"aa-learning-trial","42","262582","0.0-8.0-2.0-1.8","6212","1","23","Female","approach_avoid_spark_v1","""event"",""trial"",""time""
""focus"",""0"",""3""
""fullscreenenter"",""1"",""2461""
","
","""event"",""trial"",""time""
""focus"",""0"",""3""
","""event"",""trial"",""time""
""fullscreenenter"",""1"",""2461""
","
","","","","","","1308","images/ball1.png","","","learning","7","7","1","1","practice","practice","practice","-1","","",""
"html-keyboard-response","43","263097","0.0-8.0-2.0-0.9","6212","1","23","Female","approach_avoid_spark_v1","""event"",""trial"",""time""
""focus"",""0"",""3""
""fullscreenenter"",""1"",""2461""
","
","""event"",""trial"",""time""
""focus"",""0"",""3""
","""event"",""trial"",""time""
""fullscreenenter"",""1"",""2461""
","
","","","","","","null","<div style=""font-size:60px;"">+</div>","null","","fixation","","","","","","","","","","",""
"aa-learning-trial","44","266107","0.0-8.0-2.0-1.9","6212","1","23","Female","approach_avoid_spark_v1","""event"",""trial"",""time""
""focus"",""0"",""3""
""fullscreenenter"",""1"",""2461""
","
","""event"",""trial"",""time""
""focus"",""0"",""3""
","""event"",""trial"",""time""
""fullscreenenter"",""1"",""2461""
","
","","","","","","749","images/ball4.png","","","learning","-1","-1","1","1","practice","practice","practice","-1","","",""
"html-keyboard-response","45","266622","0.0-8.0-2.0-0.10","6212","1","23","Female","approach_avoid_spark_v1","""event"",""trial"",""time""
""focus"",""0"",""3""
""fullscreenenter"",""1"",""2461""
","
","""event"",""trial"",""time""
""focus"",""0"",""3""
","""event"",""trial"",""time""
""fullscreenenter"",""1"",""2461""
","
","","","","","","null","<div style=""font-size:60px;"">+</div>","null","","fixation","","","","","","","","","","",""
"aa-learning-trial","46","269641","0.0-8.0-2.0-1.10","6212","1","23","Female","approach_avoid_spark_v1","""event"",""trial"",""time""
""focus"",""0"",""3""
""fullscreenenter"",""1"",""2461""
","
","""event"",""trial"",""time""
""focus"",""0"",""3""
","""event"",""trial"",""time""
""fullscreenenter"",""1"",""2461""
","
","","","","","","1083","images/ball3.png","","","learning","-1","-1","1","1","practice","practice","practice","-1","","",""
"html-keyboard-response","47","270146","0.0-8.0-2.0-0.11","6212","1","23","Female","approach_avoid_spark_v1","""event"",""trial"",""time""
""focus"",""0"",""3""
""fullscreenenter"",""1"",""2461""
","
","""event"",""trial"",""time""
""focus"",""0"",""3""
","""event"",""trial"",""time""
""fullscreenenter"",""1"",""2461""
","
","","","","","","null","<div style=""font-size:60px;"">+</div>","null","","fixation","","","","","","","","","","",""
"aa-learning-trial","48","273162","0.0-8.0-2.0-1.11","6212","1","23","Female","approach_avoid_spark_v1","""event"",""trial"",""time""
""focus"",""0"",""3""
""fullscreenenter"",""1"",""2461""
","
","""event"",""trial"",""time""
""focus"",""0"",""3""
","""event"",""trial"",""time""
""fullscreenenter"",""1"",""2461""
","
","","","","","","1031","images/ball2.png","","","learning","3","3","1","1","practice","practice","practice","-1","","",""
"html-button-response","49","274515","0.0-8.0-3.0","6212","1","23","Female","approach_avoid_spark_v1","""event"",""trial"",""time""
""focus"",""0"",""3""
""fullscreenenter"",""1"",""2461""
","
","""event"",""trial"",""time""
""focus"",""0"",""3""
","""event"",""trial"",""time""
""fullscreenenter"",""1"",""2461""
","
","","","","","","1351","<p> You earned 9 points in the practice round! </p>","0","","break","","","","","","","","","","",""
"learning-instructions","50","281786","0.0-8.0-4.0-0.0","6212","1","23","Female","approach_avoid_spark_v1","""event"",""trial"",""time""
""focus"",""0"",""3""
""fullscreenenter"",""1"",""2461""
","
","""event"",""trial"",""time""
""focus"",""0"",""3""
","""event"",""trial"",""time""
""fullscreenenter"",""1"",""2461""
","
","","","","","","1307","<p> It's almost time to start the real game. </p><p> Before you start, we're going to ask you a few questions about how the game works. </p>","","0","instructions","","","","","","","","","","",""
"preload","51","283101","0.0-8.0-5.0","6212","1","23","Female","approach_avoid_spark_v1","""event"",""trial"",""time""
""focus"",""0"",""3""
""fullscreenenter"",""1"",""2461""
","
","""event"",""trial"",""time""
""focus"",""0"",""3""
","""event"",""trial"",""time""
""fullscreenenter"",""1"",""2461""
","
","true","false","[]","[]","[]","","","","","","","","","","","","","","","",""
"comp-q","52","289158","0.0-8.0-6.0-0.0","6212","1","23","Female","approach_avoid_spark_v1","""event"",""trial"",""time""
""focus"",""0"",""3""
""fullscreenenter"",""1"",""2461""
","
","""event"",""trial"",""time""
""focus"",""0"",""3""
","""event"",""trial"",""time""
""fullscreenenter"",""1"",""2461""
","
","","","","","","1047","<p> <b> True or False? </b> </p><p> If you see a number in GREY, that means you earned that many points. </p>","","1","comp_question","","","","","","","","","true","",""
"comp-q","53","298608","0.0-8.0-6.0-1.0","6212","1","23","Female","approach_avoid_spark_v1","""event"",""trial"",""time""
""focus"",""0"",""3""
""fullscreenenter"",""1"",""2461""
","
","""event"",""trial"",""time""
""focus"",""0"",""3""
","""event"",""trial"",""time""
""fullscreenenter"",""1"",""2461""
","
","","","","","","1068","<p><b> That's right! </b> If you see a grey number, it means you earned ZERO points. <br> The grey numbers show the points you WOULD HAVE earned if you had made the other choice. </p>","","0","comp_answer","","","","","","","","","","",""
"comp-q","54","304202","0.0-8.0-7.0-0.0","6212","1","23","Female","approach_avoid_spark_v1","""event"",""trial"",""time""
""focus"",""0"",""3""
""fullscreenenter"",""1"",""2461""
","
","""event"",""trial"",""time""
""focus"",""0"",""3""
","""event"",""trial"",""time""
""fullscreenenter"",""1"",""2461""
","
","","","","","","880","<p> <b> True or False? </b> </p><p> You will have as much time as you want to make each choice. </p>","","1","comp_question","","","","","","","","","true","",""
"comp-q","55","309533","0.0-8.0-7.0-1.0","6212","1","23","Female","approach_avoid_spark_v1","""event"",""trial"",""time""
""focus"",""0"",""3""
""fullscreenenter"",""1"",""2461""
","
","""event"",""trial"",""time""
""focus"",""0"",""3""
","""event"",""trial"",""time""
""fullscreenenter"",""1"",""2461""
","
","","","","","","1273","<p> <b> That's right! </b> You will only have 3 seconds to make each choice. </p>","","0","comp_answer","","","","","","","","","","",""
"comp-q","56","315202","0.0-8.0-8.0-0.0","6212","1","23","Female","approach_avoid_spark_v1","""event"",""trial"",""time""
""focus"",""0"",""3""
""fullscreenenter"",""1"",""2461""
","
","""event"",""trial"",""time""
""focus"",""0"",""3""
","""event"",""trial"",""time""
""fullscreenenter"",""1"",""2461""
","
","","","","","","1001","<p> <b> True or False? </b> </p><p> You should use the '1' and '0' keys to make your choices. </p>","","0","comp_question","","","","","","","","","true","",""
"comp-q","57","320927","0.0-8.0-8.0-1.0","6212","1","23","Female","approach_avoid_spark_v1","""event"",""trial"",""time""
""focus"",""0"",""3""
""fullscreenenter"",""1"",""2461""
","
","""event"",""trial"",""time""
""focus"",""0"",""3""
","""event"",""trial"",""time""
""fullscreenenter"",""1"",""2461""
","
","","","","","","1107","<p> <b> That's right! </b> You should use the '1' and '0' keys to make each choice. </p>","","0","comp_answer","","","","","","","","","","",""
"learning-instructions","58","328621","0.0-8.0-9.0-0.0","6212","1","23","Female","approach_avoid_spark_v1","""event"",""trial"",""time""
""focus"",""0"",""3""
""fullscreenenter"",""1"",""2461""
","
","""event"",""trial"",""time""
""focus"",""0"",""3""
","""event"",""trial"",""time""
""fullscreenenter"",""1"",""2461""
","
","","","","","","1401","<p> It's now time to start the real game. </p>Do your best, because the points you earn in the next rounds will influence your bonus payment. </p>","","0","instructions","","","","","","","","","","",""
"preload","59","328762","0.0-9.0-0.0","6212","1","23","Female","approach_avoid_spark_v1","""event"",""trial"",""time""
""focus"",""0"",""3""
""fullscreenenter"",""1"",""2461""
","
","""event"",""trial"",""time""
""focus"",""0"",""3""
","""event"",""trial"",""time""
""fullscreenenter"",""1"",""2461""
","
","true","false","[]","[]","[]","","","","","","","","","","","","","","","",""
"learning-instructions","60","335300","0.0-9.0-1.0-0.0","6212","1","23","Female","approach_avoid_spark_v1","""event"",""trial"",""time""
""focus"",""0"",""3""
""fullscreenenter"",""1"",""2461""
","
","""event"",""trial"",""time""
""focus"",""0"",""3""
","""event"",""trial"",""time""
""fullscreenenter"",""1"",""2461""
","
","","","","","","1350","<p> Your goal in this round is to take your friend for rides in different vehicles. </p></div>","","0","instructions","","","","","","","","","","",""
"learning-instructions","61","346227","0.0-9.0-1.0-0.1","6212","1","23","Female","approach_avoid_spark_v1","""event"",""trial"",""time""
""focus"",""0"",""3""
""fullscreenenter"",""1"",""2461""
","
","""event"",""trial"",""time""
""focus"",""0"",""3""
","""event"",""trial"",""time""
""fullscreenenter"",""1"",""2461""
","
","","","","","","706","<p> Your friend enjoys riding in some vehicles but not in others.  </p><p> On each turn, you will see a vehicle.   </p><p> You need to decide whether to take your friend for a ride or not.  </p>","","0","instructions","","","","","","","","","","",""
"learning-instructions","62","355651","0.0-9.0-1.0-0.2","6212","1","23","Female","approach_avoid_spark_v1","""event"",""trial"",""time""
""focus"",""0"",""3""
""fullscreenenter"",""1"",""2461""
","
","""event"",""trial"",""time""
""focus"",""0"",""3""
","""event"",""trial"",""time""
""fullscreenenter"",""1"",""2461""
","
","","","","","","649","<p> You can take your friend for a ride in the vehicle by pressing 1 and skip the ride by pressing 0. </p><br><div class=""choice-instructions-grid""> <div class=""choice-option""><img src=""images/approach.png"" class=""choice-option-img"" stage=""instructions"" position=""0"" ><div class=""choice-option-text""> Press ""1."" </div></div><div class=""choice-option""><img src=""images/avoid.png"" class=""choice-option-img"" stage=""instructions"" position=""1"" ><div class=""choice-option-text""> Press ""0."" </div></div>","","0","instructions","","","","","","","","","","",""
"learning-instructions","63","368666","0.0-9.0-1.0-0.3","6212","1","23","Female","approach_avoid_spark_v1","""event"",""trial"",""time""
""focus"",""0"",""3""
""fullscreenenter"",""1"",""2461""
","
","""event"",""trial"",""time""
""focus"",""0"",""3""
","""event"",""trial"",""time""
""fullscreenenter"",""1"",""2461""
","
","","","","","","1054","<p> If you take them for a ride in a vehicle they like, they will be thrilled! </p><p> But if you take them for a ride in a vehicle they do not like, they will be upset. </p>","","0","instructions","","","","","","","","","","",""
"learning-instructions","64","385751","0.0-9.0-1.0-0.4","6212","1","23","Female","approach_avoid_spark_v1","""event"",""trial"",""time""
""focus"",""0"",""3""
""fullscreenenter"",""1"",""2461""
","
","""event"",""trial"",""time""
""focus"",""0"",""3""
","""event"",""trial"",""time""
""fullscreenenter"",""1"",""2461""
","
","","","","","","960","<p> You will earn points based on how you made your friend feel. </p><p> If you made him thrilled, you will WIN anywhere from 1 - 9 points, </p><p> but if you made him upset, you will LOSE anywhere from 1 - 9 points. </p>","","0","instructions","","","","","","","","","","",""
"learning-instructions","65","395707","0.0-9.0-1.0-0.5","6212","1","23","Female","approach_avoid_spark_v1","""event"",""trial"",""time""
""focus"",""0"",""3""
""fullscreenenter"",""1"",""2461""
","
","""event"",""trial"",""time""
""focus"",""0"",""3""
","""event"",""trial"",""time""
""fullscreenenter"",""1"",""2461""
","
","","","","","","896","<p> You will see how many points you won or lost in the center of the screen. </p><p> Here is what you would see if you won 5 points: </p><p style=""color:green;font-size:50px;font-weight:bolder"">5</p>","","0","instructions","","","","","","","","","","",""
"learning-instructions","66","402456","0.0-9.0-1.0-0.6","6212","1","23","Female","approach_avoid_spark_v1","""event"",""trial"",""time""
""focus"",""0"",""3""
""fullscreenenter"",""1"",""2461""
","
","""event"",""trial"",""time""
""focus"",""0"",""3""
","""event"",""trial"",""time""
""fullscreenenter"",""1"",""2461""
","
","","","","","","2415","<p> And here is what you would see if you lost 3 points: </p><p style=""color:red;font-size:50px;font-weight:bolder"">-3</p>","","0","instructions","","","","","","","","","","",""
"learning-instructions","67","423326","0.0-9.0-1.0-0.7","6212","1","23","Female","approach_avoid_spark_v1","""event"",""trial"",""time""
""focus"",""0"",""3""
""fullscreenenter"",""1"",""2461""
","
","""event"",""trial"",""time""
""focus"",""0"",""3""
","""event"",""trial"",""time""
""fullscreenenter"",""1"",""2461""
","
","","","","","","976","<p> Some vehicles will make your friend REALLY thrilled or upset. </p><p> These vehicles will make you win or lose LOTS of points. </p><p> Other vehicles will only make him feel a little thrilled or upset. </p><p> These vehicles will make you win or lose small amounts of points. </p>","","0","instructions","","","","","","","","","","",""
"learning-instructions","68","438837","0.0-9.0-1.0-0.8","6212","1","23","Female","approach_avoid_spark_v1","""event"",""trial"",""time""
""focus"",""0"",""3""
""fullscreenenter"",""1"",""2461""
","
","""event"",""trial"",""time""
""focus"",""0"",""3""
","""event"",""trial"",""time""
""fullscreenenter"",""1"",""2461""
","
","","","","","","725","<p> If you choose to skip the ride, you will not win or lose any points. </p><p>  However, in the center of the screen, you will see the number of points you WOULD HAVE won or lost if you had taken your friend for a ride. </p>","","0","instructions","","","","","","","","","","",""
"learning-instructions","69","451922","0.0-9.0-1.0-0.9","6212","1","23","Female","approach_avoid_spark_v1","""event"",""trial"",""time""
""focus"",""0"",""3""
""fullscreenenter"",""1"",""2461""
","
","""event"",""trial"",""time""
""focus"",""0"",""3""
","""event"",""trial"",""time""
""fullscreenenter"",""1"",""2461""
","
","","","","","","681","<p> Here is what you might see if you did not take your friend for a ride but he would have enjoyed it: </p><p style=""color:grey; font-size:50px; display: inline-block; border-spacing: 15px; border-width:3px; border-style:solid; border-color:red"">  &nbsp; 6 &nbsp; </p><p> Remember, in this case, you would not win or lose ANY points because you skipped the ride.  </p>","","0","instructions","","","","","","","","","","",""
"learning-instructions","70","461499","0.0-9.0-1.0-0.10","6212","1","23","Female","approach_avoid_spark_v1","""event"",""trial"",""time""
""focus"",""0"",""3""
""fullscreenenter"",""1"",""2461""
","
","""event"",""trial"",""time""
""focus"",""0"",""3""
","""event"",""trial"",""time""
""fullscreenenter"",""1"",""2461""
","
","","","","","","718","<p> Try to make the best choice for each vehicle because </p><p> at the end of the game, you will earn bonus money based on how many points you earned. </p>","","0","instructions","","","","","","","","","","",""
"learning-instructions","71","471448","0.0-9.0-1.0-0.11","6212","1","23","Female","approach_avoid_spark_v1","""event"",""trial"",""time""
""focus"",""0"",""3""
""fullscreenenter"",""1"",""2461""
","
","""event"",""trial"",""time""
""focus"",""0"",""3""
","""event"",""trial"",""time""
""fullscreenenter"",""1"",""2461""
","
","","","","","","1736","<p> You will have 3 seconds to make each choice. Try to respond before time runs out! </p><p> You will lose 5 points each time you do not make a response. </p>","","0","instructions","","","","","","","","","","",""
"html-keyboard-response","72","472077","0.0-9.0-2.0-0.0","6212","1","23","Female","approach_avoid_spark_v1","""event"",""trial"",""time""
""focus"",""0"",""3""
""fullscreenenter"",""1"",""2461""
","
","""event"",""trial"",""time""
""focus"",""0"",""3""
","""event"",""trial"",""time""
""fullscreenenter"",""1"",""2461""
","
","","","","","","null","<div style=""font-size:60px;"">+</div>","null","","fixation","","","","","","","","","","",""
"aa-learning-trial","73","475090","0.0-9.0-2.0-1.0","6212","1","23","Female","approach_avoid_spark_v1","""event"",""trial"",""time""
""focus"",""0"",""3""
""fullscreenenter"",""1"",""2461""
","
","""event"",""trial"",""time""
""focus"",""0"",""3""
","""event"",""trial"",""time""
""fullscreenenter"",""1"",""2461""
","
","","","","","","1162","images/truck7.png","","","learning","-2","0","0","0","truck","vehicles","1","0","","neutral","0"
"html-keyboard-response","74","475598","0.0-9.0-2.0-0.1","6212","1","23","Female","approach_avoid_spark_v1","""event"",""trial"",""time""
""focus"",""0"",""3""
""fullscreenenter"",""1"",""2461""
","
","""event"",""trial"",""time""
""focus"",""0"",""3""
","""event"",""trial"",""time""
""fullscreenenter"",""1"",""2461""
","
","","","","","","null","<div style=""font-size:60px;"">+</div>","null","","fixation","","","","","","","","","","",""
"aa-learning-trial","75","478610","0.0-9.0-2.0-1.1","6212","1","23","Female","approach_avoid_spark_v1","""event"",""trial"",""time""
""focus"",""0"",""3""
""fullscreenenter"",""1"",""2461""
","
","""event"",""trial"",""time""
""focus"",""0"",""3""
","""event"",""trial"",""time""
""fullscreenenter"",""1"",""2461""
","
","","","","","","1020","images/boat7.png","","","learning","5","5","1","1","boat","vehicles","1","0","","good","[5]"
"html-keyboard-response","76","479114","0.0-9.0-2.0-0.2","6212","1","23","Female","approach_avoid_spark_v1","""event"",""trial"",""time""
""focus"",""0"",""3""
""fullscreenenter"",""1"",""2461""
","
","""event"",""trial"",""time""
""focus"",""0"",""3""
","""event"",""trial"",""time""
""fullscreenenter"",""1"",""2461""
","
","","","","","","null","<div style=""font-size:60px;"">+</div>","null","","fixation","","","","","","","","","","",""
"aa-learning-trial","77","482119","0.0-9.0-2.0-1.2","6212","1","23","Female","approach_avoid_spark_v1","""event"",""trial"",""time""
""focus"",""0"",""3""
""fullscreenenter"",""1"",""2461""
","
","""event"",""trial"",""time""
""focus"",""0"",""3""
","""event"",""trial"",""time""
""fullscreenenter"",""1"",""2461""
","
","","","","","","604","images/boat5.png","","","learning","4","4","1","1","boat","vehicles","1","0","","good","[5]"
"html-keyboard-response","78","482637","0.0-9.0-2.0-0.3","6212","1","23","Female","approach_avoid_spark_v1","""event"",""trial"",""time""
""focus"",""0"",""3""
""fullscreenenter"",""1"",""2461""
","
","""event"",""trial"",""time""
""focus"",""0"",""3""
","""event"",""trial"",""time""
""fullscreenenter"",""1"",""2461""
","
","","","","","","null","<div style=""font-size:60px;"">+</div>","null","","fixation","","","","","","","","","","",""
"aa-learning-trial","79","485650","0.0-9.0-2.0-1.3","6212","1","23","Female","approach_avoid_spark_v1","""event"",""trial"",""time""
""focus"",""0"",""3""
""fullscreenenter"",""1"",""2461""
","
","""event"",""trial"",""time""
""focus"",""0"",""3""
","""event"",""trial"",""time""
""fullscreenenter"",""1"",""2461""
","
","","","","","","739","images/train6.png","","","learning","-4","0","0","0","train","vehicles","1","0","","bad","[-5]"
"html-keyboard-response","80","486159","0.0-9.0-2.0-0.4","6212","1","23","Female","approach_avoid_spark_v1","""event"",""trial"",""time""
""focus"",""0"",""3""
""fullscreenenter"",""1"",""2461""
","
","""event"",""trial"",""time""
""focus"",""0"",""3""
","""event"",""trial"",""time""
""fullscreenenter"",""1"",""2461""
","
","","","","","","null","<div style=""font-size:60px;"">+</div>","null","","fixation","","","","","","","","","","",""
"aa-learning-trial","81","489175","0.0-9.0-2.0-1.4","6212","1","23","Female","approach_avoid_spark_v1","""event"",""trial"",""time""
""focus"",""0"",""3""
""fullscreenenter"",""1"",""2461""
","
","""event"",""trial"",""time""
""focus"",""0"",""3""
","""event"",""trial"",""time""
""fullscreenenter"",""1"",""2461""
","
","","","","","","836","images/truck2.png","","","learning","-1","-1","1","1","truck","vehicles","1","0","","neutral","0"
"html-keyboard-response","82","489680","0.0-9.0-2.0-0.5","6212","1","23","Female","approach_avoid_spark_v1","""event"",""trial"",""time""
""focus"",""0"",""3""
""fullscreenenter"",""1"",""2461""
","
","""event"",""trial"",""time""
""focus"",""0"",""3""
","""event"",""trial"",""time""
""fullscreenenter"",""1"",""2461""
","
","","","","","","null","<div style=""font-size:60px;"">+</div>","null","","fixation","","","","","","","","","","",""
"aa-learning-trial","83","492689","0.0-9.0-2.0-1.5","6212","1","23","Female","approach_avoid_spark_v1","""event"",""trial"",""time""
""focus"",""0"",""3""
""fullscreenenter"",""1"",""2461""
","
","""event"",""trial"",""time""
""focus"",""0"",""3""
","""event"",""trial"",""time""
""fullscreenenter"",""1"",""2461""
","
","","","","","","688","images/boat5.png","","","learning","6","6","1","1","boat","vehicles","1","0","","good","[5]"
"html-keyboard-response","84","493191","0.0-9.0-2.0-0.6","6212","1","23","Female","approach_avoid_spark_v1","""event"",""trial"",""time""
""focus"",""0"",""3""
""fullscreenenter"",""1"",""2461""
","
","""event"",""trial"",""time""
""focus"",""0"",""3""
","""event"",""trial"",""time""
""fullscreenenter"",""1"",""2461""
","
","","","","","","null","<div style=""font-size:60px;"">+</div>","null","","fixation","","","","","","","","","","",""
"aa-learning-trial","85","496205","0.0-9.0-2.0-1.6","6212","1","23","Female","approach_avoid_spark_v1","""event"",""trial"",""time""
""focus"",""0"",""3""
""fullscreenenter"",""1"",""2461""
","
","""event"",""trial"",""time""
""focus"",""0"",""3""
","""event"",""trial"",""time""
""fullscreenenter"",""1"",""2461""
","
","","","","","","1103","images/train6.png","","","learning","-4","-4","1","1","train","vehicles","1","0","","bad","[-5]"
"html-keyboard-response","86","496714","0.0-9.0-2.0-0.7","6212","1","23","Female","approach_avoid_spark_v1","""event"",""trial"",""time""
""focus"",""0"",""3""
""fullscreenenter"",""1"",""2461""
","
","""event"",""trial"",""time""
""focus"",""0"",""3""
","""event"",""trial"",""time""
""fullscreenenter"",""1"",""2461""
","
","","","","","","null","<div style=""font-size:60px;"">+</div>","null","","fixation","","","","","","","","","","",""
"aa-learning-trial","87","499724","0.0-9.0-2.0-1.7","6212","1","23","Female","approach_avoid_spark_v1","""event"",""trial"",""time""
""focus"",""0"",""3""
""fullscreenenter"",""1"",""2461""
","
","""event"",""trial"",""time""
""focus"",""0"",""3""
","""event"",""trial"",""time""
""fullscreenenter"",""1"",""2461""
","
","","","","","","671","images/boat3.png","","","learning","6","6","1","1","boat","vehicles","1","0","","good","[5]"
"html-keyboard-response","88","500238","0.0-9.0-2.0-0.8","6212","1","23","Female","approach_avoid_spark_v1","""event"",""trial"",""time""
""focus"",""0"",""3""
""fullscreenenter"",""1"",""2461""
","
","""event"",""trial"",""time""
""focus"",""0"",""3""
","""event"",""trial"",""time""
""fullscreenenter"",""1"",""2461""
","
","","","","","","null","<div style=""font-size:60px;"">+</div>","null","","fixation","","","","","","","","","","",""
"aa-learning-trial","89","503255","0.0-9.0-2.0-1.8","6212","1","23","Female","approach_avoid_spark_v1","""event"",""trial"",""time""
""focus"",""0"",""3""
""fullscreenenter"",""1"",""2461""
","
","""event"",""trial"",""time""
""focus"",""0"",""3""
","""event"",""trial"",""time""
""fullscreenenter"",""1"",""2461""
","
","","","","","","810","images/truck7.png","","","learning","[1]","0","0","0","truck","vehicles","1","0","","neutral","0"
"html-keyboard-response","90","503760","0.0-9.0-2.0-0.9","6212","1","23","Female","approach_avoid_spark_v1","""event"",""trial"",""time""
""focus"",""0"",""3""
""fullscreenenter"",""1"",""2461""
","
","""event"",""trial"",""time""
""focus"",""0"",""3""
","""event"",""trial"",""time""
""fullscreenenter"",""1"",""2461""
","
","","","","","","null","<div style=""font-size:60px;"">+</div>","null","","fixation","","","","","","","","","","",""
"aa-learning-trial","91","506765","0.0-9.0-2.0-1.9","6212","1","23","Female","approach_avoid_spark_v1","""event"",""trial"",""time""
""focus"",""0"",""3""
""fullscreenenter"",""1"",""2461""
","
","""event"",""trial"",""time""
""focus"",""0"",""3""
","""event"",""trial"",""time""
""fullscreenenter"",""1"",""2461""
","
","","","","","","565","images/boat3.png","","","learning","2","2","1","1","boat","vehicles","1","0","","good","[5]"
"html-keyboard-response","92","507274","0.0-9.0-2.0-0.10","6212","1","23","Female","approach_avoid_spark_v1","""event"",""trial"",""time""
""focus"",""0"",""3""
""fullscreenenter"",""1"",""2461""
","
","""event"",""trial"",""time""
""focus"",""0"",""3""
","""event"",""trial"",""time""
""fullscreenenter"",""1"",""2461""
","
","","","","","","null","<div style=""font-size:60px;"">+</div>","null","","fixation","","","","","","","","","","",""
"aa-learning-trial","93","510279","0.0-9.0-2.0-1.10","6212","1","23","Female","approach_avoid_spark_v1","""event"",""trial"",""time""
""focus"",""0"",""3""
""fullscreenenter"",""1"",""2461""
","
","""event"",""trial"",""time""
""focus"",""0"",""3""
","""event"",""trial"",""time""
""fullscreenenter"",""1"",""2461""
","
","","","","","","840","images/train2.png","","","learning","-6","-6","1","1","train","vehicles","1","0","","bad","[-5]"
"html-keyboard-response","94","510780","0.0-9.0-2.0-0.11","6212","1","23","Female","approach_avoid_spark_v1","""event"",""trial"",""time""
""focus"",""0"",""3""
""fullscreenenter"",""1"",""2461""
","
","""event"",""trial"",""time""
""focus"",""0"",""3""
","""event"",""trial"",""time""
""fullscreenenter"",""1"",""2461""
","
","","","","","","null","<div style=""font-size:60px;"">+</div>","null","","fixation","","","","","","","","","","",""
"aa-learning-trial","95","513784","0.0-9.0-2.0-1.11","6212","1","23","Female","approach_avoid_spark_v1","""event"",""trial"",""time""
""focus"",""0"",""3""
""fullscreenenter"",""1"",""2461""
","
","""event"",""trial"",""time""
""focus"",""0"",""3""
","""event"",""trial"",""time""
""fullscreenenter"",""1"",""2461""
","
","","","","","","836","images/truck1.png","","","learning","[1]","0","0","0","truck","vehicles","1","0","","neutral","0"
"html-keyboard-response","96","514289","0.0-9.0-2.0-0.12","6212","1","23","Female","approach_avoid_spark_v1","""event"",""trial"",""time""
""focus"",""0"",""3""
""fullscreenenter"",""1"",""2461""
","
","""event"",""trial"",""time""
""focus"",""0"",""3""
","""event"",""trial"",""time""
""fullscreenenter"",""1"",""2461""
","
","","","","","","null","<div style=""font-size:60px;"">+</div>","null","","fixation","","","","","","","","","","",""
"aa-learning-trial","97","517295","0.0-9.0-2.0-1.12","6212","1","23","Female","approach_avoid_spark_v1","""event"",""trial"",""time""
""focus"",""0"",""3""
""fullscreenenter"",""1"",""2461""
","
","""event"",""trial"",""time""
""focus"",""0"",""3""
","""event"",""trial"",""time""
""fullscreenenter"",""1"",""2461""
","
","","","","","","770","images/train4.png","","","learning","-5","-5","1","1","train","vehicles","1","0","","bad","[-5]"
"html-keyboard-response","98","517808","0.0-9.0-2.0-0.13","6212","1","23","Female","approach_avoid_spark_v1","""event"",""trial"",""time""
""focus"",""0"",""3""
""fullscreenenter"",""1"",""2461""
","
","""event"",""trial"",""time""
""focus"",""0"",""3""
","""event"",""trial"",""time""
""fullscreenenter"",""1"",""2461""
","
","","","","","","null","<div style=""font-size:60px;"">+</div>","null","","fixation","","","","","","","","","","",""
"aa-learning-trial","99","520820","0.0-9.0-2.0-1.13","6212","1","23","Female","approach_avoid_spark_v1","""event"",""trial"",""time""
""focus"",""0"",""3""
""fullscreenenter"",""1"",""2461""
","
","""event"",""trial"",""time""
""focus"",""0"",""3""
","""event"",""trial"",""time""
""fullscreenenter"",""1"",""2461""
","
","","","","","","890","images/train2.png","","","learning","-5","0","0","0","train","vehicles","1","0","","bad","[-5]"
"html-keyboard-response","100","521330","0.0-9.0-2.0-0.14","6212","1","23","Female","approach_avoid_spark_v1","""event"",""trial"",""time""
""focus"",""0"",""3""
""fullscreenenter"",""1"",""2461""
","
","""event"",""trial"",""time""
""focus"",""0"",""3""
","""event"",""trial"",""time""
""fullscreenenter"",""1"",""2461""
","
","","","","","","null","<div style=""font-size:60px;"">+</div>","null","","fixation","","","","","","","","","","",""
"aa-learning-trial","101","524352","0.0-9.0-2.0-1.14","6212","1","23","Female","approach_avoid_spark_v1","""event"",""trial"",""time""
""focus"",""0"",""3""
""fullscreenenter"",""1"",""2461""
","
","""event"",""trial"",""time""
""focus"",""0"",""3""
","""event"",""trial"",""time""
""fullscreenenter"",""1"",""2461""
","
","","","","","","509","images/truck1.png","","","learning","1","0","0","0","truck","vehicles","1","0","","neutral","0"
"html-keyboard-response","102","524871","0.0-9.0-2.0-0.15","6212","1","23","Female","approach_avoid_spark_v1","""event"",""trial"",""time""
""focus"",""0"",""3""
""fullscreenenter"",""1"",""2461""
","
","""event"",""trial"",""time""
""focus"",""0"",""3""
","""event"",""trial"",""time""
""fullscreenenter"",""1"",""2461""
","
","","","","","","null","<div style=""font-size:60px;"">+</div>","null","","fixation","","","","","","","","","","",""
"aa-learning-trial","103","527881","0.0-9.0-2.0-1.15","6212","1","23","Female","approach_avoid_spark_v1","""event"",""trial"",""time""
""focus"",""0"",""3""
""fullscreenenter"",""1"",""2461""
","
","""event"",""trial"",""time""
""focus"",""0"",""3""
","""event"",""trial"",""time""
""fullscreenenter"",""1"",""2461""
","
","","","","","","699","images/truck7.png","","","learning","2","0","0","0","truck","vehicles","1","0","","neutral","0"
"html-keyboard-response","104","528401","0.0-9.0-2.0-0.16","6212","1","23","Female","approach_avoid_spark_v1","""event"",""trial"",""time""
""focus"",""0"",""3""
""fullscreenenter"",""1"",""2461""
","
","""event"",""trial"",""time""
""focus"",""0"",""3""
","""event"",""trial"",""time""
""fullscreenenter"",""1"",""2461""
","
","","","","","","null","<div style=""font-size:60px;"">+</div>","null","","fixation","","","","","","","","","","",""
"aa-learning-trial","105","531405","0.0-9.0-2.0-1.16","6212","1","23","Female","approach_avoid_spark_v1","""event"",""trial"",""time""
""focus"",""0"",""3""
""fullscreenenter"",""1"",""2461""
","
","""event"",""trial"",""time""
""focus"",""0"",""3""
","""event"",""trial"",""time""
""fullscreenenter"",""1"",""2461""
","
","","","","","","460","images/truck7.png","","","learning","-3","0","0","0","truck","vehicles","1","0","","neutral","0"
"html-keyboard-response","106","531920","0.0-9.0-2.0-0.17","6212","1","23","Female","approach_avoid_spark_v1","""event"",""trial"",""time""
""focus"",""0"",""3""
""fullscreenenter"",""1"",""2461""
","
","""event"",""trial"",""time""
""focus"",""0"",""3""
","""event"",""trial"",""time""
""fullscreenenter"",""1"",""2461""
","
","","","","","","null","<div style=""font-size:60px;"">+</div>","null","","fixation","","","","","","","","","","",""
"aa-learning-trial","107","534941","0.0-9.0-2.0-1.17","6212","1","23","Female","approach_avoid_spark_v1","""event"",""trial"",""time""
""focus"",""0"",""3""
""fullscreenenter"",""1"",""2461""
","
","""event"",""trial"",""time""
""focus"",""0"",""3""
","""event"",""trial"",""time""
""fullscreenenter"",""1"",""2461""
","
","","","","","","565","images/boat3.png","","","learning","6","6","1","1","boat","vehicles","1","0","","good","[5]"
"html-keyboard-response","108","535451","0.0-9.0-2.0-0.18","6212","1","23","Female","approach_avoid_spark_v1","""event"",""trial"",""time""
""focus"",""0"",""3""
""fullscreenenter"",""1"",""2461""
","
","""event"",""trial"",""time""
""focus"",""0"",""3""
","""event"",""trial"",""time""
""fullscreenenter"",""1"",""2461""
","
","","","","","","null","<div style=""font-size:60px;"">+</div>","null","","fixation","","","","","","","","","","",""
"aa-learning-trial","109","538458","0.0-9.0-2.0-1.18","6212","1","23","Female","approach_avoid_spark_v1","""event"",""trial"",""time""
""focus"",""0"",""3""
""fullscreenenter"",""1"",""2461""
","
","""event"",""trial"",""time""
""focus"",""0"",""3""
","""event"",""trial"",""time""
""fullscreenenter"",""1"",""2461""
","
","","","","","","400","images/boat1.png","","","learning","8","8","1","1","boat","vehicles","1","0","","good","[5]"
"html-keyboard-response","110","538965","0.0-9.0-2.0-0.19","6212","1","23","Female","approach_avoid_spark_v1","""event"",""trial"",""time""
""focus"",""0"",""3""
""fullscreenenter"",""1"",""2461""
","
","""event"",""trial"",""time""
""focus"",""0"",""3""
","""event"",""trial"",""time""
""fullscreenenter"",""1"",""2461""
","
","","","","","","null","<div style=""font-size:60px;"">+</div>","null","","fixation","","","","","","","","","","",""
"aa-learning-trial","111","541980","0.0-9.0-2.0-1.19","6212","1","23","Female","approach_avoid_spark_v1","""event"",""trial"",""time""
""focus"",""0"",""3""
""fullscreenenter"",""1"",""2461""
","
","""event"",""trial"",""time""
""focus"",""0"",""3""
","""event"",""trial"",""time""
""fullscreenenter"",""1"",""2461""
","
","","","","","","403","images/boat3.png","","","learning","6","6","1","1","boat","vehicles","1","0","","good","[5]"
"html-keyboard-response","112","542491","0.0-9.0-2.0-0.20","6212","1","23","Female","approach_avoid_spark_v1","""event"",""trial"",""time""
""focus"",""0"",""3""
""fullscreenenter"",""1"",""2461""
","
","""event"",""trial"",""time""
""focus"",""0"",""3""
","""event"",""trial"",""time""
""fullscreenenter"",""1"",""2461""
","
","","","","","","null","<div style=""font-size:60px;"">+</div>","null","","fixation","","","","","","","","","","",""
"aa-learning-trial","113","545496","0.0-9.0-2.0-1.20","6212","1","23","Female","approach_avoid_spark_v1","""event"",""trial"",""time""
""focus"",""0"",""3""
""fullscreenenter"",""1"",""2461""
","
","""event"",""trial"",""time""
""focus"",""0"",""3""
","""event"",""trial"",""time""
""fullscreenenter"",""1"",""2461""
","
","","","","","","725","images/train4.png","","","learning","-5","0","0","0","train","vehicles","1","0","","bad","[-5]"
"html-keyboard-response","114","546010","0.0-9.0-2.0-0.21","6212","1","23","Female","approach_avoid_spark_v1","""event"",""trial"",""time""
""focus"",""0"",""3""
""fullscreenenter"",""1"",""2461""
","
","""event"",""trial"",""time""
""focus"",""0"",""3""
","""event"",""trial"",""time""
""fullscreenenter"",""1"",""2461""
","
","","","","","","null","<div style=""font-size:60px;"">+</div>","null","","fixation","","","","","","","","","","",""
"aa-learning-trial","115","549019","0.0-9.0-2.0-1.21","6212","1","23","Female","approach_avoid_spark_v1","""event"",""trial"",""time""
""focus"",""0"",""3""
""fullscreenenter"",""1"",""2461""
","
","""event"",""trial"",""time""
""focus"",""0"",""3""
","""event"",""trial"",""time""
""fullscreenenter"",""1"",""2461""
","
","","","","","","691","images/boat5.png","","","learning","5","5","1","1","boat","vehicles","1","0","","good","[5]"
"html-keyboard-response","116","549530","0.0-9.0-2.0-0.22","6212","1","23","Female","approach_avoid_spark_v1","""event"",""trial"",""time""
""focus"",""0"",""3""
""fullscreenenter"",""1"",""2461""
","
","""event"",""trial"",""time""
""focus"",""0"",""3""
","""event"",""trial"",""time""
""fullscreenenter"",""1"",""2461""
","
","","","","","","null","<div style=""font-size:60px;"">+</div>","null","","fixation","","","","","","","","","","",""
"aa-learning-trial","117","552535","0.0-9.0-2.0-1.22","6212","1","23","Female","approach_avoid_spark_v1","""event"",""trial"",""time""
""focus"",""0"",""3""
""fullscreenenter"",""1"",""2461""
","
","""event"",""trial"",""time""
""focus"",""0"",""3""
","""event"",""trial"",""time""
""fullscreenenter"",""1"",""2461""
","
","","","","","","739","images/train6.png","","","learning","-3","0","0","0","train","vehicles","1","0","","bad","[-5]"
"html-keyboard-response","118","553049","0.0-9.0-2.0-0.23","6212","1","23","Female","approach_avoid_spark_v1","""event"",""trial"",""time""
""focus"",""0"",""3""
""fullscreenenter"",""1"",""2461""
","
","""event"",""trial"",""time""
""focus"",""0"",""3""
","""event"",""trial"",""time""
""fullscreenenter"",""1"",""2461""
","
","","","","","","null","<div style=""font-size:60px;"">+</div>","null","","fixation","","","","","","","","","","",""
"aa-learning-trial","119","556065","0.0-9.0-2.0-1.23","6212","1","23","Female","approach_avoid_spark_v1","""event"",""trial"",""time""
""focus"",""0"",""3""
""fullscreenenter"",""1"",""2461""
","
","""event"",""trial"",""time""
""focus"",""0"",""3""
","""event"",""trial"",""time""
""fullscreenenter"",""1"",""2461""
","
","","","","","","689","images/train6.png","","","learning","-3","0","0","0","train","vehicles","1","0","","bad","[-5]"
"html-keyboard-response","120","556575","0.0-9.0-2.0-0.24","6212","1","23","Female","approach_avoid_spark_v1","""event"",""trial"",""time""
""focus"",""0"",""3""
""fullscreenenter"",""1"",""2461""
","
","""event"",""trial"",""time""
""focus"",""0"",""3""
","""event"",""trial"",""time""
""fullscreenenter"",""1"",""2461""
","
","","","","","","null","<div style=""font-size:60px;"">+</div>","null","","fixation","","","","","","","","","","",""
"aa-learning-trial","121","559590","0.0-9.0-2.0-1.24","6212","1","23","Female","approach_avoid_spark_v1","""event"",""trial"",""time""
""focus"",""0"",""3""
""fullscreenenter"",""1"",""2461""
","
","""event"",""trial"",""time""
""focus"",""0"",""3""
","""event"",""trial"",""time""
""fullscreenenter"",""1"",""2461""
","
","","","","","","527","images/truck7.png","","","learning","1","0","0","0","truck","vehicles","1","0","","neutral","0"
"html-keyboard-response","122","560093","0.0-9.0-2.0-0.25","6212","1","23","Female","approach_avoid_spark_v1","""event"",""trial"",""time""
""focus"",""0"",""3""
""fullscreenenter"",""1"",""2461""
","
","""event"",""trial"",""time""
""focus"",""0"",""3""
","""event"",""trial"",""time""
""fullscreenenter"",""1"",""2461""
","
","","","","","","null","<div style=""font-size:60px;"">+</div>","null","","fixation","","","","","","","","","","",""
"aa-learning-trial","123","563105","0.0-9.0-2.0-1.25","6212","1","23","Female","approach_avoid_spark_v1","""event"",""trial"",""time""
""focus"",""0"",""3""
""fullscreenenter"",""1"",""2461""
","
","""event"",""trial"",""time""
""focus"",""0"",""3""
","""event"",""trial"",""time""
""fullscreenenter"",""1"",""2461""
","
","","","","","","775","images/train8.png","","","learning","-4","0","0","0","train","vehicles","1","0","","bad","[-5]"
"html-keyboard-response","124","563615","0.0-9.0-2.0-0.26","6212","1","23","Female","approach_avoid_spark_v1","""event"",""trial"",""time""
""focus"",""0"",""3""
""fullscreenenter"",""1"",""2461""
","
","""event"",""trial"",""time""
""focus"",""0"",""3""
","""event"",""trial"",""time""
""fullscreenenter"",""1"",""2461""
","
","","","","","","null","<div style=""font-size:60px;"">+</div>","null","","fixation","","","","","","","","","","",""
"aa-learning-trial","125","566626","0.0-9.0-2.0-1.26","6212","1","23","Female","approach_avoid_spark_v1","""event"",""trial"",""time""
""focus"",""0"",""3""
""fullscreenenter"",""1"",""2461""
","
","""event"",""trial"",""time""
""focus"",""0"",""3""
","""event"",""trial"",""time""
""fullscreenenter"",""1"",""2461""
","
","","","","","","1130","images/truck2.png","","","learning","-3","-3","1","1","truck","vehicles","1","0","","neutral","0"
"html-keyboard-response","126","567139","0.0-9.0-2.0-0.27","6212","1","23","Female","approach_avoid_spark_v1","""event"",""trial"",""time""
""focus"",""0"",""3""
""fullscreenenter"",""1"",""2461""
","
","""event"",""trial"",""time""
""focus"",""0"",""3""
","""event"",""trial"",""time""
""fullscreenenter"",""1"",""2461""
","
","","","","","","null","<div style=""font-size:60px;"">+</div>","null","","fixation","","","","","","","","","","",""
"aa-learning-trial","127","570154","0.0-9.0-2.0-1.27","6212","1","23","Female","approach_avoid_spark_v1","""event"",""trial"",""time""
""focus"",""0"",""3""
""fullscreenenter"",""1"",""2461""
","
","""event"",""trial"",""time""
""focus"",""0"",""3""
","""event"",""trial"",""time""
""fullscreenenter"",""1"",""2461""
","
","","","","","","522","images/boat2.png","","","learning","3","3","1","1","boat","vehicles","1","0","","good","[5]"
"html-keyboard-response","128","570661","0.0-9.0-2.0-0.28","6212","1","23","Female","approach_avoid_spark_v1","""event"",""trial"",""time""
""focus"",""0"",""3""
""fullscreenenter"",""1"",""2461""
","
","""event"",""trial"",""time""
""focus"",""0"",""3""
","""event"",""trial"",""time""
""fullscreenenter"",""1"",""2461""
","
","","","","","","null","<div style=""font-size:60px;"">+</div>","null","","fixation","","","","","","","","","","",""
"aa-learning-trial","129","573665","0.0-9.0-2.0-1.28","6212","1","23","Female","approach_avoid_spark_v1","""event"",""trial"",""time""
""focus"",""0"",""3""
""fullscreenenter"",""1"",""2461""
","
","""event"",""trial"",""time""
""focus"",""0"",""3""
","""event"",""trial"",""time""
""fullscreenenter"",""1"",""2461""
","
","","","","","","633","images/truck5.png","","","learning","2","0","0","0","truck","vehicles","1","0","","neutral","0"
"html-keyboard-response","130","574179","0.0-9.0-2.0-0.29","6212","1","23","Female","approach_avoid_spark_v1","""event"",""trial"",""time""
""focus"",""0"",""3""
""fullscreenenter"",""1"",""2461""
","
","""event"",""trial"",""time""
""focus"",""0"",""3""
","""event"",""trial"",""time""
""fullscreenenter"",""1"",""2461""
","
","","","","","","null","<div style=""font-size:60px;"">+</div>","null","","fixation","","","","","","","","","","",""
"aa-learning-trial","131","577181","0.0-9.0-2.0-1.29","6212","1","23","Female","approach_avoid_spark_v1","""event"",""trial"",""time""
""focus"",""0"",""3""
""fullscreenenter"",""1"",""2461""
","
","""event"",""trial"",""time""
""focus"",""0"",""3""
","""event"",""trial"",""time""
""fullscreenenter"",""1"",""2461""
","
","","","","","","1363","images/truck1.png","","","learning","2","0","0","0","truck","vehicles","1","0","","neutral","0"
"html-keyboard-response","132","577695","0.0-9.0-2.0-0.30","6212","1","23","Female","approach_avoid_spark_v1","""event"",""trial"",""time""
""focus"",""0"",""3""
""fullscreenenter"",""1"",""2461""
","
","""event"",""trial"",""time""
""focus"",""0"",""3""
","""event"",""trial"",""time""
""fullscreenenter"",""1"",""2461""
","
","","","","","","null","<div style=""font-size:60px;"">+</div>","null","","fixation","","","","","","","","","","",""
"aa-learning-trial","133","580699","0.0-9.0-2.0-1.30","6212","1","23","Female","approach_avoid_spark_v1","""event"",""trial"",""time""
""focus"",""0"",""3""
""fullscreenenter"",""1"",""2461""
","
","""event"",""trial"",""time""
""focus"",""0"",""3""
","""event"",""trial"",""time""
""fullscreenenter"",""1"",""2461""
","
","","","","","","730","images/truck1.png","","","learning","[-1]","-1","1","1","truck","vehicles","1","0","","neutral","0"
"html-keyboard-response","134","581216","0.0-9.0-2.0-0.31","6212","1","23","Female","approach_avoid_spark_v1","""event"",""trial"",""time""
""focus"",""0"",""3""
""fullscreenenter"",""1"",""2461""
","
","""event"",""trial"",""time""
""focus"",""0"",""3""
","""event"",""trial"",""time""
""fullscreenenter"",""1"",""2461""
","
","","","","","","null","<div style=""font-size:60px;"">+</div>","null","","fixation","","","","","","","","","","",""
"aa-learning-trial","135","584231","0.0-9.0-2.0-1.31","6212","1","23","Female","approach_avoid_spark_v1","""event"",""trial"",""time""
""focus"",""0"",""3""
""fullscreenenter"",""1"",""2461""
","
","""event"",""trial"",""time""
""focus"",""0"",""3""
","""event"",""trial"",""time""
""fullscreenenter"",""1"",""2461""
","
","","","","","","610","images/boat3.png","","","learning","5","5","1","1","boat","vehicles","1","0","","good","[5]"
"html-keyboard-response","136","584742","0.0-9.0-2.0-0.32","6212","1","23","Female","approach_avoid_spark_v1","""event"",""trial"",""time""
""focus"",""0"",""3""
""fullscreenenter"",""1"",""2461""
","
","""event"",""trial"",""time""
""focus"",""0"",""3""
","""event"",""trial"",""time""
""fullscreenenter"",""1"",""2461""
","
","","","","","","null","<div style=""font-size:60px;"">+</div>","null","","fixation","","","","","","","","","","",""
"aa-learning-trial","137","587751","0.0-9.0-2.0-1.32","6212","1","23","Female","approach_avoid_spark_v1","""event"",""trial"",""time""
""focus"",""0"",""3""
""fullscreenenter"",""1"",""2461""
","
","""event"",""trial"",""time""
""focus"",""0"",""3""
","""event"",""trial"",""time""
""fullscreenenter"",""1"",""2461""
","
","","","","","","713","images/train2.png","","","learning","-5","0","0","0","train","vehicles","1","0","","bad","[-5]"
"html-keyboard-response","138","588266","0.0-9.0-2.0-0.33","6212","1","23","Female","approach_avoid_spark_v1","""event"",""trial"",""time""
""focus"",""0"",""3""
""fullscreenenter"",""1"",""2461""
","
","""event"",""trial"",""time""
""focus"",""0"",""3""
","""event"",""trial"",""time""
""fullscreenenter"",""1"",""2461""
","
","","","","","","null","<div style=""font-size:60px;"">+</div>","null","","fixation","","","","","","","","","","",""
"aa-learning-trial","139","591275","0.0-9.0-2.0-1.33","6212","1","23","Female","approach_avoid_spark_v1","""event"",""trial"",""time""
""focus"",""0"",""3""
""fullscreenenter"",""1"",""2461""
","
","""event"",""trial"",""time""
""focus"",""0"",""3""
","""event"",""trial"",""time""
""fullscreenenter"",""1"",""2461""
","
","","","","","","542","images/train2.png","","","learning","-6","0","0","0","train","vehicles","1","0","","bad","[-5]"
"html-keyboard-response","140","591789","0.0-9.0-2.0-0.34","6212","1","23","Female","approach_avoid_spark_v1","""event"",""trial"",""time""
""focus"",""0"",""3""
""fullscreenenter"",""1"",""2461""
","
","""event"",""trial"",""time""
""focus"",""0"",""3""
","""event"",""trial"",""time""
""fullscreenenter"",""1"",""2461""
","
","","","","","","null","<div style=""font-size:60px;"">+</div>","null","","fixation","","","","","","","","","","",""
"aa-learning-trial","141","594796","0.0-9.0-2.0-1.34","6212","1","23","Female","approach_avoid_spark_v1","""event"",""trial"",""time""
""focus"",""0"",""3""
""fullscreenenter"",""1"",""2461""
","
","""event"",""trial"",""time""
""focus"",""0"",""3""
","""event"",""trial"",""time""
""fullscreenenter"",""1"",""2461""
","
","","","","","","1281","images/train1.png","","","learning","-3","0","0","0","train","vehicles","1","0","","bad","[-5]"
"html-keyboard-response","142","595306","0.0-9.0-2.0-0.35","6212","1","23","Female","approach_avoid_spark_v1","""event"",""trial"",""time""
""focus"",""0"",""3""
""fullscreenenter"",""1"",""2461""
","
","""event"",""trial"",""time""
""focus"",""0"",""3""
","""event"",""trial"",""time""
""fullscreenenter"",""1"",""2461""
","
","","","","","","null","<div style=""font-size:60px;"">+</div>","null","","fixation","","","","","","","","","","",""
"aa-learning-trial","143","598312","0.0-9.0-2.0-1.35","6212","1","23","Female","approach_avoid_spark_v1","""event"",""trial"",""time""
""focus"",""0"",""3""
""fullscreenenter"",""1"",""2461""
","
","""event"",""trial"",""time""
""focus"",""0"",""3""
","""event"",""trial"",""time""
""fullscreenenter"",""1"",""2461""
","
","","","","","","586","images/boat7.png","","","learning","7","7","1","1","boat","vehicles","1","0","","good","[5]"
"html-keyboard-response","144","598821","0.0-9.0-2.0-0.36","6212","1","23","Female","approach_avoid_spark_v1","""event"",""trial"",""time""
""focus"",""0"",""3""
""fullscreenenter"",""1"",""2461""
","
","""event"",""trial"",""time""
""focus"",""0"",""3""
","""event"",""trial"",""time""
""fullscreenenter"",""1"",""2461""
","
","","","","","","null","<div style=""font-size:60px;"">+</div>","null","","fixation","","","","","","","","","","",""
"aa-learning-trial","145","601836","0.0-9.0-2.0-1.36","6212","1","23","Female","approach_avoid_spark_v1","""event"",""trial"",""time""
""focus"",""0"",""3""
""fullscreenenter"",""1"",""2461""
","
","""event"",""trial"",""time""
""focus"",""0"",""3""
","""event"",""trial"",""time""
""fullscreenenter"",""1"",""2461""
","
","","","","","","690","images/train2.png","","","learning","-4","0","0","0","train","vehicles","1","0","","bad","[-5]"
"html-keyboard-response","146","602337","0.0-9.0-2.0-0.37","6212","1","23","Female","approach_avoid_spark_v1","""event"",""trial"",""time""
""focus"",""0"",""3""
""fullscreenenter"",""1"",""2461""
","
","""event"",""trial"",""time""
""focus"",""0"",""3""
","""event"",""trial"",""time""
""fullscreenenter"",""1"",""2461""
","
","","","","","","null","<div style=""font-size:60px;"">+</div>","null","","fixation","","","","","","","","","","",""
"aa-learning-trial","147","605346","0.0-9.0-2.0-1.37","6212","1","23","Female","approach_avoid_spark_v1","""event"",""trial"",""time""
""focus"",""0"",""3""
""fullscreenenter"",""1"",""2461""
","
","""event"",""trial"",""time""
""focus"",""0"",""3""
","""event"",""trial"",""time""
""fullscreenenter"",""1"",""2461""
","
","","","","","","902","images/train6.png","","","learning","-6","0","0","0","train","vehicles","1","0","","bad","[-5]"
"html-keyboard-response","148","605856","0.0-9.0-2.0-0.38","6212","1","23","Female","approach_avoid_spark_v1","""event"",""trial"",""time""
""focus"",""0"",""3""
""fullscreenenter"",""1"",""2461""
","
","""event"",""trial"",""time""
""focus"",""0"",""3""
","""event"",""trial"",""time""
""fullscreenenter"",""1"",""2461""
","
","","","","","","null","<div style=""font-size:60px;"">+</div>","null","","fixation","","","","","","","","","","",""
"aa-learning-trial","149","608862","0.0-9.0-2.0-1.38","6212","1","23","Female","approach_avoid_spark_v1","""event"",""trial"",""time""
""focus"",""0"",""3""
""fullscreenenter"",""1"",""2461""
","
","""event"",""trial"",""time""
""focus"",""0"",""3""
","""event"",""trial"",""time""
""fullscreenenter"",""1"",""2461""
","
","","","","","","614","images/truck2.png","","","learning","3","0","0","0","truck","vehicles","1","0","","neutral","0"
"html-keyboard-response","150","609376","0.0-9.0-2.0-0.39","6212","1","23","Female","approach_avoid_spark_v1","""event"",""trial"",""time""
""focus"",""0"",""3""
""fullscreenenter"",""1"",""2461""
","
","""event"",""trial"",""time""
""focus"",""0"",""3""
","""event"",""trial"",""time""
""fullscreenenter"",""1"",""2461""
","
","","","","","","null","<div style=""font-size:60px;"">+</div>","null","","fixation","","","","","","","","","","",""
"aa-learning-trial","151","612382","0.0-9.0-2.0-1.39","6212","1","23","Female","approach_avoid_spark_v1","""event"",""trial"",""time""
""focus"",""0"",""3""
""fullscreenenter"",""1"",""2461""
","
","""event"",""trial"",""time""
""focus"",""0"",""3""
","""event"",""trial"",""time""
""fullscreenenter"",""1"",""2461""
","
","","","","","","503","images/boat5.png","","","learning","8","8","1","1","boat","vehicles","1","0","","good","[5]"
"html-keyboard-response","152","612895","0.0-9.0-2.0-0.40","6212","1","23","Female","approach_avoid_spark_v1","""event"",""trial"",""time""
""focus"",""0"",""3""
""fullscreenenter"",""1"",""2461""
","
","""event"",""trial"",""time""
""focus"",""0"",""3""
","""event"",""trial"",""time""
""fullscreenenter"",""1"",""2461""
","
","","","","","","null","<div style=""font-size:60px;"">+</div>","null","","fixation","","","","","","","","","","",""
"aa-learning-trial","153","615906","0.0-9.0-2.0-1.40","6212","1","23","Female","approach_avoid_spark_v1","""event"",""trial"",""time""
""focus"",""0"",""3""
""fullscreenenter"",""1"",""2461""
","
","""event"",""trial"",""time""
""focus"",""0"",""3""
","""event"",""trial"",""time""
""fullscreenenter"",""1"",""2461""
","
","","","","","","1203","images/truck6.png","","","learning","[-1]","0","0","0","truck","vehicles","1","0","","neutral","0"
"html-keyboard-response","154","616410","0.0-9.0-2.0-0.41","6212","1","23","Female","approach_avoid_spark_v1","""event"",""trial"",""time""
""focus"",""0"",""3""
""fullscreenenter"",""1"",""2461""
","
","""event"",""trial"",""time""
""focus"",""0"",""3""
","""event"",""trial"",""time""
""fullscreenenter"",""1"",""2461""
","
","","","","","","null","<div style=""font-size:60px;"">+</div>","null","","fixation","","","","","","","","","","",""
"aa-learning-trial","155","619421","0.0-9.0-2.0-1.41","6212","1","23","Female","approach_avoid_spark_v1","""event"",""trial"",""time""
""focus"",""0"",""3""
""fullscreenenter"",""1"",""2461""
","
","""event"",""trial"",""time""
""focus"",""0"",""3""
","""event"",""trial"",""time""
""fullscreenenter"",""1"",""2461""
","
","","","","","","581","images/truck1.png","","","learning","-1","0","0","0","truck","vehicles","1","0","","neutral","0"
"html-keyboard-response","156","619935","0.0-9.0-2.0-0.42","6212","1","23","Female","approach_avoid_spark_v1","""event"",""trial"",""time""
""focus"",""0"",""3""
""fullscreenenter"",""1"",""2461""
","
","""event"",""trial"",""time""
""focus"",""0"",""3""
","""event"",""trial"",""time""
""fullscreenenter"",""1"",""2461""
","
","","","","","","null","<div style=""font-size:60px;"">+</div>","null","","fixation","","","","","","","","","","",""
"aa-learning-trial","157","622942","0.0-9.0-2.0-1.42","6212","1","23","Female","approach_avoid_spark_v1","""event"",""trial"",""time""
""focus"",""0"",""3""
""fullscreenenter"",""1"",""2461""
","
","""event"",""trial"",""time""
""focus"",""0"",""3""
","""event"",""trial"",""time""
""fullscreenenter"",""1"",""2461""
","
","","","","","","538","images/train2.png","","","learning","-3","0","0","0","train","vehicles","1","0","","bad","[-5]"
"html-keyboard-response","158","623455","0.0-9.0-2.0-0.43","6212","1","23","Female","approach_avoid_spark_v1","""event"",""trial"",""time""
""focus"",""0"",""3""
""fullscreenenter"",""1"",""2461""
","
","""event"",""trial"",""time""
""focus"",""0"",""3""
","""event"",""trial"",""time""
""fullscreenenter"",""1"",""2461""
","
","","","","","","null","<div style=""font-size:60px;"">+</div>","null","","fixation","","","","","","","","","","",""
"aa-learning-trial","159","626469","0.0-9.0-2.0-1.43","6212","1","23","Female","approach_avoid_spark_v1","""event"",""trial"",""time""
""focus"",""0"",""3""
""fullscreenenter"",""1"",""2461""
","
","""event"",""trial"",""time""
""focus"",""0"",""3""
","""event"",""trial"",""time""
""fullscreenenter"",""1"",""2461""
","
","","","","","","581","images/boat3.png","","","learning","6","6","1","1","boat","vehicles","1","0","","good","[5]"
"html-keyboard-response","160","626970","0.0-9.0-2.0-0.44","6212","1","23","Female","approach_avoid_spark_v1","""event"",""trial"",""time""
""focus"",""0"",""3""
""fullscreenenter"",""1"",""2461""
","
","""event"",""trial"",""time""
""focus"",""0"",""3""
","""event"",""trial"",""time""
""fullscreenenter"",""1"",""2461""
","
","","","","","","null","<div style=""font-size:60px;"">+</div>","null","","fixation","","","","","","","","","","",""
"aa-learning-trial","161","629985","0.0-9.0-2.0-1.44","6212","1","23","Female","approach_avoid_spark_v1","""event"",""trial"",""time""
""focus"",""0"",""3""
""fullscreenenter"",""1"",""2461""
","
","""event"",""trial"",""time""
""focus"",""0"",""3""
","""event"",""trial"",""time""
""fullscreenenter"",""1"",""2461""
","
","","","","","","612","images/train4.png","","","learning","-5","0","0","0","train","vehicles","1","0","","bad","[-5]"
"html-keyboard-response","162","630500","0.0-9.0-2.0-0.45","6212","1","23","Female","approach_avoid_spark_v1","""event"",""trial"",""time""
""focus"",""0"",""3""
""fullscreenenter"",""1"",""2461""
","
","""event"",""trial"",""time""
""focus"",""0"",""3""
","""event"",""trial"",""time""
""fullscreenenter"",""1"",""2461""
","
","","","","","","null","<div style=""font-size:60px;"">+</div>","null","","fixation","","","","","","","","","","",""
"aa-learning-trial","163","633516","0.0-9.0-2.0-1.45","6212","1","23","Female","approach_avoid_spark_v1","""event"",""trial"",""time""
""focus"",""0"",""3""
""fullscreenenter"",""1"",""2461""
","
","""event"",""trial"",""time""
""focus"",""0"",""3""
","""event"",""trial"",""time""
""fullscreenenter"",""1"",""2461""
","
","","","","","","644","images/truck1.png","","","learning","-3","0","0","0","truck","vehicles","1","0","","neutral","0"
"html-keyboard-response","164","634029","0.0-9.0-2.0-0.46","6212","1","23","Female","approach_avoid_spark_v1","""event"",""trial"",""time""
""focus"",""0"",""3""
""fullscreenenter"",""1"",""2461""
","
","""event"",""trial"",""time""
""focus"",""0"",""3""
","""event"",""trial"",""time""
""fullscreenenter"",""1"",""2461""
","
","","","","","","null","<div style=""font-size:60px;"">+</div>","null","","fixation","","","","","","","","","","",""
"aa-learning-trial","165","637036","0.0-9.0-2.0-1.46","6212","1","23","Female","approach_avoid_spark_v1","""event"",""trial"",""time""
""focus"",""0"",""3""
""fullscreenenter"",""1"",""2461""
","
","""event"",""trial"",""time""
""focus"",""0"",""3""
","""event"",""trial"",""time""
""fullscreenenter"",""1"",""2461""
","
","","","","","","544","images/truck7.png","","","learning","[-1]","0","0","0","truck","vehicles","1","0","","neutral","0"
"html-keyboard-response","166","637546","0.0-9.0-2.0-0.47","6212","1","23","Female","approach_avoid_spark_v1","""event"",""trial"",""time""
""focus"",""0"",""3""
""fullscreenenter"",""1"",""2461""
","
","""event"",""trial"",""time""
""focus"",""0"",""3""
","""event"",""trial"",""time""
""fullscreenenter"",""1"",""2461""
","
","","","","","","null","<div style=""font-size:60px;"">+</div>","null","","fixation","","","","","","","","","","",""
"aa-learning-trial","167","640563","0.0-9.0-2.0-1.47","6212","1","23","Female","approach_avoid_spark_v1","""event"",""trial"",""time""
""focus"",""0"",""3""
""fullscreenenter"",""1"",""2461""
","
","""event"",""trial"",""time""
""focus"",""0"",""3""
","""event"",""trial"",""time""
""fullscreenenter"",""1"",""2461""
","
","","","","","","538","images/boat5.png","","","learning","8","8","1","1","boat","vehicles","1","0","","good","[5]"
"html-keyboard-response","168","641081","0.0-9.0-2.0-0.48","6212","1","23","Female","approach_avoid_spark_v1","""event"",""trial"",""time""
""focus"",""0"",""3""
""fullscreenenter"",""1"",""2461""
","
","""event"",""trial"",""time""
""focus"",""0"",""3""
","""event"",""trial"",""time""
""fullscreenenter"",""1"",""2461""
","
","","","","","","null","<div style=""font-size:60px;"">+</div>","null","","fixation","","","","","","","","","","",""
"aa-learning-trial","169","644102","0.0-9.0-2.0-1.48","6212","1","23","Female","approach_avoid_spark_v1","""event"",""trial"",""time""
""focus"",""0"",""3""
""fullscreenenter"",""1"",""2461""
","
","""event"",""trial"",""time""
""focus"",""0"",""3""
","""event"",""trial"",""time""
""fullscreenenter"",""1"",""2461""
","
","","","","","","666","images/train6.png","","","learning","-5","0","0","0","train","vehicles","1","0","","bad","[-5]"
"html-keyboard-response","170","644622","0.0-9.0-2.0-0.49","6212","1","23","Female","approach_avoid_spark_v1","""event"",""trial"",""time""
""focus"",""0"",""3""
""fullscreenenter"",""1"",""2461""
","
","""event"",""trial"",""time""
""focus"",""0"",""3""
","""event"",""trial"",""time""
""fullscreenenter"",""1"",""2461""
","
","","","","","","null","<div style=""font-size:60px;"">+</div>","null","","fixation","","","","","","","","","","",""
"aa-learning-trial","171","647633","0.0-9.0-2.0-1.49","6212","1","23","Female","approach_avoid_spark_v1","""event"",""trial"",""time""
""focus"",""0"",""3""
""fullscreenenter"",""1"",""2461""
","
","""event"",""trial"",""time""
""focus"",""0"",""3""
","""event"",""trial"",""time""
""fullscreenenter"",""1"",""2461""
","
","","","","","","578","images/boat5.png","","","learning","5","5","1","1","boat","vehicles","1","0","","good","[5]"
"html-keyboard-response","172","648152","0.0-9.0-2.0-0.50","6212","1","23","Female","approach_avoid_spark_v1","""event"",""trial"",""time""
""focus"",""0"",""3""
""fullscreenenter"",""1"",""2461""
","
","""event"",""trial"",""time""
""focus"",""0"",""3""
","""event"",""trial"",""time""
""fullscreenenter"",""1"",""2461""
","
","","","","","","null","<div style=""font-size:60px;"">+</div>","null","","fixation","","","","","","","","","","",""
"aa-learning-trial","173","651163","0.0-9.0-2.0-1.50","6212","1","23","Female","approach_avoid_spark_v1","""event"",""trial"",""time""
""focus"",""0"",""3""
""fullscreenenter"",""1"",""2461""
","
","""event"",""trial"",""time""
""focus"",""0"",""3""
","""event"",""trial"",""time""
""fullscreenenter"",""1"",""2461""
","
","","","","","","587","images/boat7.png","","","learning","4","4","1","1","boat","vehicles","1","0","","good","[5]"
"html-button-response","174","653695","0.0-9.0-3.0","6212","1","23","Female","approach_avoid_spark_v1","""event"",""trial"",""time""
""focus"",""0"",""3""
""fullscreenenter"",""1"",""2461""
","
","""event"",""trial"",""time""
""focus"",""0"",""3""
","""event"",""trial"",""time""
""fullscreenenter"",""1"",""2461""
","
","","","","","","2530","<p> You have completed the round! <p> In this round, you earned 74 points! </p>","0","","break","","","","","","","","","","",""
"html-button-response","175","654850","0.0-10.0","6212","1","23","Female","approach_avoid_spark_v1","""event"",""trial"",""time""
""focus"",""0"",""3""
""fullscreenenter"",""1"",""2461""
","
","""event"",""trial"",""time""
""focus"",""0"",""3""
","""event"",""trial"",""time""
""fullscreenenter"",""1"",""2461""
","
","","","","","","1155","<p> Now it's time to play another round. </p>","0","","transition_screen","","","","","","","","","","",""
"preload","176","654985","0.0-11.0-0.0","6212","1","23","Female","approach_avoid_spark_v1","""event"",""trial"",""time""
""focus"",""0"",""3""
""fullscreenenter"",""1"",""2461""
","
","""event"",""trial"",""time""
""focus"",""0"",""3""
","""event"",""trial"",""time""
""fullscreenenter"",""1"",""2461""
","
","true","false","[]","[]","[]","","","","","","","","","","","","","","","",""
"learning-instructions","177","662275","0.0-11.0-1.0-0.0","6212","1","23","Female","approach_avoid_spark_v1","""event"",""trial"",""time""
""focus"",""0"",""3""
""fullscreenenter"",""1"",""2461""
","
","""event"",""trial"",""time""
""focus"",""0"",""3""
","""event"",""trial"",""time""
""fullscreenenter"",""1"",""2461""
","
","","","","","","1610","<p> Your goal in this round is to decorate your friend's new house with furniture. </p></div>","","0","instructions","","","","","","","","","","",""
"learning-instructions","178","673715","0.0-11.0-1.0-0.1","6212","1","23","Female","approach_avoid_spark_v1","""event"",""trial"",""time""
""focus"",""0"",""3""
""fullscreenenter"",""1"",""2461""
","
","""event"",""trial"",""time""
""focus"",""0"",""3""
","""event"",""trial"",""time""
""fullscreenenter"",""1"",""2461""
","
","","","","","","771","<p> Your friend likes some pieces of furniture but not others.  </p><p> On each turn, you will see a piece of furniture.   </p><p> You need to decide whether to put it in your friend's house or not.  </p>","","0","instructions","","","","","","","","","","",""
"learning-instructions","179","681321","0.0-11.0-1.0-0.2","6212","1","23","Female","approach_avoid_spark_v1","""event"",""trial"",""time""
""focus"",""0"",""3""
""fullscreenenter"",""1"",""2461""
","
","""event"",""trial"",""time""
""focus"",""0"",""3""
","""event"",""trial"",""time""
""fullscreenenter"",""1"",""2461""
","
","","","","","","1488","<p> You can put the furniture in her house by pressing 1 and deliver it elsewhere by pressing 0. </p><br><div class=""choice-instructions-grid""> <div class=""choice-option""><img src=""images/approach.png"" class=""choice-option-img"" stage=""instructions"" position=""0"" ><div class=""choice-option-text""> Press ""1."" </div></div><div class=""choice-option""><img src=""images/avoid.png"" class=""choice-option-img"" stage=""instructions"" position=""1"" ><div class=""choice-option-text""> Press ""0."" </div></div>","","0","instructions","","","","","","","","","","",""
"learning-instructions","180","691586","0.0-11.0-1.0-0.3","6212","1","23","Female","approach_avoid_spark_v1","""event"",""trial"",""time""
""focus"",""0"",""3""
""fullscreenenter"",""1"",""2461""
","
","""event"",""trial"",""time""
""focus"",""0"",""3""
","""event"",""trial"",""time""
""fullscreenenter"",""1"",""2461""
","
","","","","","","931","<p> If you decorate your friend's house with furniture she likes, she will be happy! </p><p> But if you give her furniture that she does not like, she will be annoyed. </p>","","0","instructions","","","","","","","","","","",""
"learning-instructions","181","704468","0.0-11.0-1.0-0.4","6212","1","23","Female","approach_avoid_spark_v1","""event"",""trial"",""time""
""focus"",""0"",""3""
""fullscreenenter"",""1"",""2461""
","
","""event"",""trial"",""time""
""focus"",""0"",""3""
","""event"",""trial"",""time""
""fullscreenenter"",""1"",""2461""
","
","","","","","","734","<p> You will earn points based on how you made your friend feel. </p><p> If you made her happy, you will WIN anywhere from 1 - 9 points, </p><p> but if you made her annoyed you will LOSE anywhere from 1 - 9 points. </p>","","0","instructions","","","","","","","","","","",""
"learning-instructions","182","712175","0.0-11.0-1.0-0.5","6212","1","23","Female","approach_avoid_spark_v1","""event"",""trial"",""time""
""focus"",""0"",""3""
""fullscreenenter"",""1"",""2461""
","
","""event"",""trial"",""time""
""focus"",""0"",""3""
","""event"",""trial"",""time""
""fullscreenenter"",""1"",""2461""
","
","","","","","","1041","<p> You will see how many points you won or lost in the center of the screen. </p><p> Here is what you would see if you won 5 points: </p><p style=""color:green;font-size:50px;font-weight:bolder"">5</p>","","0","instructions","","","","","","","","","","",""
"learning-instructions","183","717196","0.0-11.0-1.0-0.6","6212","1","23","Female","approach_avoid_spark_v1","""event"",""trial"",""time""
""focus"",""0"",""3""
""fullscreenenter"",""1"",""2461""
","
","""event"",""trial"",""time""
""focus"",""0"",""3""
","""event"",""trial"",""time""
""fullscreenenter"",""1"",""2461""
","
","","","","","","2171","<p> And here is what you would see if you lost 3 points: </p><p style=""color:red;font-size:50px;font-weight:bolder"">-3</p>","","0","instructions","","","","","","","","","","",""
"learning-instructions","184","736083","0.0-11.0-1.0-0.7","6212","1","23","Female","approach_avoid_spark_v1","""event"",""trial"",""time""
""focus"",""0"",""3""
""fullscreenenter"",""1"",""2461""
","
","""event"",""trial"",""time""
""focus"",""0"",""3""
","""event"",""trial"",""time""
""fullscreenenter"",""1"",""2461""
","
","","","","","","1479","<p> Some pieces of furniture will make her feel very happy or very annoyed. </p><p> These pieces of furniture will make you win or lose LOTS of points. </p><p> Other pieces of furniture will only make her feel a little happy or a little annoyed. </p><p> These pieces of furniture will make you win or lose small amounts of points. </p>","","0","instructions","","","","","","","","","","",""
"learning-instructions","185","750581","0.0-11.0-1.0-0.8","6212","1","23","Female","approach_avoid_spark_v1","""event"",""trial"",""time""
""focus"",""0"",""3""
""fullscreenenter"",""1"",""2461""
","
","""event"",""trial"",""time""
""focus"",""0"",""3""
","""event"",""trial"",""time""
""fullscreenenter"",""1"",""2461""
","
","","","","","","676","<p> If you choose to deliver a piece of furniture elsewhere, you will not win or lose any points. </p><p>  However, in the center of the screen, you will see the number of points you WOULD HAVE won or lost if you had given the furniture to your friend. </p>","","0","instructions","","","","","","","","","","",""
"learning-instructions","186","766780","0.0-11.0-1.0-0.9","6212","1","23","Female","approach_avoid_spark_v1","""event"",""trial"",""time""
""focus"",""0"",""3""
""fullscreenenter"",""1"",""2461""
","
","""event"",""trial"",""time""
""focus"",""0"",""3""
","""event"",""trial"",""time""
""fullscreenenter"",""1"",""2461""
","
","","","","","","607","<p> Here is what you might see if you did not give a piece of furniture to your friend that would have made her happy: </p><p style=""color:grey; font-size:50px; display: inline-block; border-spacing: 15px; border-width:3px; border-style:solid; border-color:red"">  &nbsp; 6 &nbsp; </p><p> Remember, in this case, you would not win or lose ANY points because you did not give her the furniture.  </p>","","0","instructions","","","","","","","","","","",""
"learning-instructions","187","777301","0.0-11.0-1.0-0.10","6212","1","23","Female","approach_avoid_spark_v1","""event"",""trial"",""time""
""focus"",""0"",""3""
""fullscreenenter"",""1"",""2461""
","
","""event"",""trial"",""time""
""focus"",""0"",""3""
","""event"",""trial"",""time""
""fullscreenenter"",""1"",""2461""
","
","","","","","","576","<p> Try to make the best choice for each piece of furniture because </p><p> at the end of the game, you will earn bonus money based on how many points you earned. </p>","","0","instructions","","","","","","","","","","",""
"learning-instructions","188","785932","0.0-11.0-1.0-0.11","6212","1","23","Female","approach_avoid_spark_v1","""event"",""trial"",""time""
""focus"",""0"",""3""
""fullscreenenter"",""1"",""2461""
","
","""event"",""trial"",""time""
""focus"",""0"",""3""
","""event"",""trial"",""time""
""fullscreenenter"",""1"",""2461""
","
","","","","","","427","<p> You will have 3 seconds to make each choice. Try to respond before time runs out! </p><p> You will lose 5 points each time you do not make a response. </p>","","0","instructions","","","","","","","","","","",""
"html-keyboard-response","189","786542","0.0-11.0-2.0-0.0","6212","1","23","Female","approach_avoid_spark_v1","""event"",""trial"",""time""
""focus"",""0"",""3""
""fullscreenenter"",""1"",""2461""
","
","""event"",""trial"",""time""
""focus"",""0"",""3""
","""event"",""trial"",""time""
""fullscreenenter"",""1"",""2461""
","
","","","","","","null","<div style=""font-size:60px;"">+</div>","null","","fixation","","","","","","","","","","",""
"aa-learning-trial","190","789552","0.0-11.0-2.0-1.0","6212","1","23","Female","approach_avoid_spark_v1","""event"",""trial"",""time""
""focus"",""0"",""3""
""fullscreenenter"",""1"",""2461""
","
","""event"",""trial"",""time""
""focus"",""0"",""3""
","""event"",""trial"",""time""
""fullscreenenter"",""1"",""2461""
","
","","","","","","663","images/table4.png","","","learning","-4","-4","1","1","table","furniture","2","1","","neutral","0"
"html-keyboard-response","191","790067","0.0-11.0-2.0-0.1","6212","1","23","Female","approach_avoid_spark_v1","""event"",""trial"",""time""
""focus"",""0"",""3""
""fullscreenenter"",""1"",""2461""
","
","""event"",""trial"",""time""
""focus"",""0"",""3""
","""event"",""trial"",""time""
""fullscreenenter"",""1"",""2461""
","
","","","","","","null","<div style=""font-size:60px;"">+</div>","null","","fixation","","","","","","","","","","",""
"aa-learning-trial","192","793081","0.0-11.0-2.0-1.1","6212","1","23","Female","approach_avoid_spark_v1","""event"",""trial"",""time""
""focus"",""0"",""3""
""fullscreenenter"",""1"",""2461""
","
","""event"",""trial"",""time""
""focus"",""0"",""3""
","""event"",""trial"",""time""
""fullscreenenter"",""1"",""2461""
","
","","","","","","701","images/table6.png","","","learning","5","0","0","0","table","furniture","2","1","","neutral","0"
"html-keyboard-response","193","793585","0.0-11.0-2.0-0.2","6212","1","23","Female","approach_avoid_spark_v1","""event"",""trial"",""time""
""focus"",""0"",""3""
""fullscreenenter"",""1"",""2461""
","
","""event"",""trial"",""time""
""focus"",""0"",""3""
","""event"",""trial"",""time""
""fullscreenenter"",""1"",""2461""
","
","","","","","","null","<div style=""font-size:60px;"">+</div>","null","","fixation","","","","","","","","","","",""
"aa-learning-trial","194","796601","0.0-11.0-2.0-1.2","6212","1","23","Female","approach_avoid_spark_v1","""event"",""trial"",""time""
""focus"",""0"",""3""
""fullscreenenter"",""1"",""2461""
","
","""event"",""trial"",""time""
""focus"",""0"",""3""
","""event"",""trial"",""time""
""fullscreenenter"",""1"",""2461""
","
","","","","","","672","images/chair7.png","","","learning","-9","-9","1","1","chair","furniture","2","1","","bad","[-5]"
"html-keyboard-response","195","797118","0.0-11.0-2.0-0.3","6212","1","23","Female","approach_avoid_spark_v1","""event"",""trial"",""time""
""focus"",""0"",""3""
""fullscreenenter"",""1"",""2461""
","
","""event"",""trial"",""time""
""focus"",""0"",""3""
","""event"",""trial"",""time""
""fullscreenenter"",""1"",""2461""
","
","","","","","","null","<div style=""font-size:60px;"">+</div>","null","","fixation","","","","","","","","","","",""
"aa-learning-trial","196","800133","0.0-11.0-2.0-1.3","6212","1","23","Female","approach_avoid_spark_v1","""event"",""trial"",""time""
""focus"",""0"",""3""
""fullscreenenter"",""1"",""2461""
","
","""event"",""trial"",""time""
""focus"",""0"",""3""
","""event"",""trial"",""time""
""fullscreenenter"",""1"",""2461""
","
","","","","","","1036","images/table5.png","","","learning","-2","-2","1","1","table","furniture","2","1","","neutral","0"
"html-keyboard-response","197","800638","0.0-11.0-2.0-0.4","6212","1","23","Female","approach_avoid_spark_v1","""event"",""trial"",""time""
""focus"",""0"",""3""
""fullscreenenter"",""1"",""2461""
","
","""event"",""trial"",""time""
""focus"",""0"",""3""
","""event"",""trial"",""time""
""fullscreenenter"",""1"",""2461""
","
","","","","","","null","<div style=""font-size:60px;"">+</div>","null","","fixation","","","","","","","","","","",""
"aa-learning-trial","198","803653","0.0-11.0-2.0-1.4","6212","1","23","Female","approach_avoid_spark_v1","""event"",""trial"",""time""
""focus"",""0"",""3""
""fullscreenenter"",""1"",""2461""
","
","""event"",""trial"",""time""
""focus"",""0"",""3""
","""event"",""trial"",""time""
""fullscreenenter"",""1"",""2461""
","
","","","","","","1097","images/bed3.png","","","learning","2","2","1","1","bed","furniture","2","1","","good","[4]"
"html-keyboard-response","199","804167","0.0-11.0-2.0-0.5","6212","1","23","Female","approach_avoid_spark_v1","""event"",""trial"",""time""
""focus"",""0"",""3""
""fullscreenenter"",""1"",""2461""
","
","""event"",""trial"",""time""
""focus"",""0"",""3""
","""event"",""trial"",""time""
""fullscreenenter"",""1"",""2461""
","
","","","","","","null","<div style=""font-size:60px;"">+</div>","null","","fixation","","","","","","","","","","",""
"aa-learning-trial","200","807178","0.0-11.0-2.0-1.5","6212","1","23","Female","approach_avoid_spark_v1","""event"",""trial"",""time""
""focus"",""0"",""3""
""fullscreenenter"",""1"",""2461""
","
","""event"",""trial"",""time""
""focus"",""0"",""3""
","""event"",""trial"",""time""
""fullscreenenter"",""1"",""2461""
","
