"trial_type","trial_index","time_elapsed","internal_node_id","subject_id","task_condition","age","gender","task_version","interactions","blur_events","focus_events","fullscreenenter_events","fullscreenexit_events","success","timeout","failed_images","failed_audio","failed_video","rt","stimulus","response","button_pressed","task_part","approach_reward","points","key_press","option_selected","stim_cat","task_block","block_condition","block_number","correct","cat_type","mean_cat_reward"
"pavlovia","0","4","0.0-0.0","5190","1","25","Female","approach_avoid_spark_v1","""event"",""trial"",""time""
""fullscreenenter"",""1"",""2961""
","
","
","""event"",""trial"",""time""
""fullscreenenter"",""1"",""2961""
","
","","","","","","","","","","","","","","","","","","","","",""
"fullscreen","1","3952","0.0-1.0","5190","1","25","Female","approach_avoid_spark_v1","""event"",""trial"",""time""
""fullscreenenter"",""1"",""2961""
","
","
","""event"",""trial"",""time""
""fullscreenenter"",""1"",""2961""
","
","true","","","","","","","","","","","","","","","","","","","",""
"preload","2","6666","0.0-2.0","5190","1","25","Female","approach_avoid_spark_v1","""event"",""trial"",""time""
""fullscreenenter"",""1"",""2961""
","
","
","""event"",""trial"",""time""
""fullscreenenter"",""1"",""2961""
","
","true","false","[]","[]","[]","","","","","","","","","","","","","","","",""
"audio-keyboard-response","3","9192","0.0-3.0","5190","1","25","Female","approach_avoid_spark_v1","""event"",""trial"",""time""
""fullscreenenter"",""1"",""2961""
","
","
","""event"",""trial"",""time""
""fullscreenenter"",""1"",""2961""
","
","","","","","","2522.6666666666665","audio/beep_loop.wav"," ","","","","","","","","","","","","",""
"audio-button-response","4","11184","0.0-4.0","5190","1","25","Female","approach_avoid_spark_v1","""event"",""trial"",""time""
""fullscreenenter"",""1"",""2961""
","
","
","""event"",""trial"",""time""
""fullscreenenter"",""1"",""2961""
","
","","","","","","1984","audio/shark.wav","4","","","","","","","","","","","","",""
"audio-button-response","5","13458","0.0-5.0","5190","1","25","Female","approach_avoid_spark_v1","""event"",""trial"",""time""
""fullscreenenter"",""1"",""2961""
","
","
","""event"",""trial"",""time""
""fullscreenenter"",""1"",""2961""
","
","","","","","","1275","audio/turtle.wav","1","","","","","","","","","","","","",""
"preload","6","15751","0.0-6.0","5190","1","25","Female","approach_avoid_spark_v1","""event"",""trial"",""time""
""fullscreenenter"",""1"",""2961""
","
","
","""event"",""trial"",""time""
""fullscreenenter"",""1"",""2961""
","
","true","false","[]","[]","[]","","","","","","","","","","","","","","","",""
"html-keyboard-response","7","19893","0.0-7.0","5190","1","25","Female","approach_avoid_spark_v1","""event"",""trial"",""time""
""fullscreenenter"",""1"",""2961""
","
","
","""event"",""trial"",""time""
""fullscreenenter"",""1"",""2961""
","
","","","","","","4139.600000023842","Welcome to the experiment. Press any key to begin and to advance the instructions."," ","","","","","","","","","","","","",""
"learning-instructions","8","28152","0.0-8.0-0.0-0.0","5190","1","25","Female","approach_avoid_spark_v1","""event"",""trial"",""time""
""fullscreenenter"",""1"",""2961""
","
","
","""event"",""trial"",""time""
""fullscreenenter"",""1"",""2961""
","
","","","","","","1302.1000000238419","<p> Welcome! Today you are going to play 6 different rounds of a decision-making game. </p><p> Use the mouse to click next to continue. </p>","","0","instructions","","","","","","","","","","",""
"learning-instructions","9","32257","0.0-8.0-0.0-0.1","5190","1","25","Female","approach_avoid_spark_v1","""event"",""trial"",""time""
""fullscreenenter"",""1"",""2961""
","
","
","""event"",""trial"",""time""
""fullscreenenter"",""1"",""2961""
","
","","","","","","1380.9000000357628","<p> You will start with a practice round to learn the rules. </p>","","0","instructions","","","","","","","","","","",""
"learning-instructions","10","36535","0.0-8.0-0.0-0.2","5190","1","25","Female","approach_avoid_spark_v1","""event"",""trial"",""time""
""fullscreenenter"",""1"",""2961""
","
","
","""event"",""trial"",""time""
""fullscreenenter"",""1"",""2961""
","
","","","","","","831.7000000476837","<p> Your goal in this round is to give out sports equipment to kids. </p></div>","","0","instructions","","","","","","","","","","",""
"learning-instructions","11","46046","0.0-8.0-0.0-0.3","5190","1","25","Female","approach_avoid_spark_v1","""event"",""trial"",""time""
""fullscreenenter"",""1"",""2961""
","
","
","""event"",""trial"",""time""
""fullscreenenter"",""1"",""2961""
","
","","","","","","1964.300000011921","<p> The kids only like some of the equipment.  </p><p> On each turn, you will see a piece of sports equipment.   </p><p> You need to decide whether to give it to the kids or not.  </p>","","0","instructions","","","","","","","","","","",""
"learning-instructions","12","51505","0.0-8.0-0.0-0.4","5190","1","25","Female","approach_avoid_spark_v1","""event"",""trial"",""time""
""fullscreenenter"",""1"",""2961""
","
","
","""event"",""trial"",""time""
""fullscreenenter"",""1"",""2961""
","
","","","","","","712.5","<p> You can give them the equipment by pressing 1 and choose not to give it to them by pressing 0. </p><br><div class=""choice-instructions-grid""> <div class=""choice-option""><img src=""images/approach.png"" class=""choice-option-img"" stage=""instructions"" position=""0"" ><div class=""choice-option-text""> Press ""1."" </div></div><div class=""choice-option""><img src=""images/avoid.png"" class=""choice-option-img"" stage=""instructions"" position=""1"" ><div class=""choice-option-text""> Press ""0."" </div></div>","","0","instructions","","","","","","","","","","",""
"learning-instructions","13","60266","0.0-8.0-0.0-0.5","5190","1","25","Female","approach_avoid_spark_v1","""event"",""trial"",""time""
""fullscreenenter"",""1"",""2961""
","
","
","""event"",""trial"",""time""
""fullscreenenter"",""1"",""2961""
","
","","","","","","1378.300000011921","<p> If you give them a piece of equipment they like, they will be happy! </p><p> But if you give them a piece of equipment they do not like, they will be sad. </p>","","0","instructions","","","","","","","","","","",""
"learning-instructions","14","71511","0.0-8.0-0.0-0.6","5190","1","25","Female","approach_avoid_spark_v1","""event"",""trial"",""time""
""fullscreenenter"",""1"",""2961""
","
","
","""event"",""trial"",""time""
""fullscreenenter"",""1"",""2961""
","
","","","","","","741.4000000357628","<p> You will earn points based on how you make kids feel. </p><p> If you make them happy, you will WIN anywhere from 1 - 9 points, </p><p> but if you make them sad, you will LOSE anywhere from 1 - 9 points. </p>","","0","instructions","","","","","","","","","","",""
"learning-instructions","15","81723","0.0-8.0-0.0-0.7","5190","1","25","Female","approach_avoid_spark_v1","""event"",""trial"",""time""
""fullscreenenter"",""1"",""2961""
","
","
","""event"",""trial"",""time""
""fullscreenenter"",""1"",""2961""
","
","","","","","","659","<p> You will see how many points you won or lost in the center of the screen. </p><p> Here is what you would see if you won 6 points: </p><p style=""color:green;font-size:50px;font-weight:bolder"">6</p><p style=""color:green"">The text is GREEN because you WON points.</p>","","0","instructions","","","","","","","","","","",""
"learning-instructions","16","88080","0.0-8.0-0.0-0.8","5190","1","25","Female","approach_avoid_spark_v1","""event"",""trial"",""time""
""fullscreenenter"",""1"",""2961""
","
","
","""event"",""trial"",""time""
""fullscreenenter"",""1"",""2961""
","
","","","","","","850.5","<p> And here is what you would see if you lost 4 points: </p><p style=""color:red;font-size:50px;font-weight:bolder"">-4</p><p style=""color:red"">The text is RED because you LOST points. </p>","","0","instructions","","","","","","","","","","",""
"learning-instructions","17","103402","0.0-8.0-0.0-0.9","5190","1","25","Female","approach_avoid_spark_v1","""event"",""trial"",""time""
""fullscreenenter"",""1"",""2961""
","
","
","""event"",""trial"",""time""
""fullscreenenter"",""1"",""2961""
","
","","","","","","615.1999999880791","<p> Some of the equipment will make the kids VERY happy or sad. </p><p> These pieces of equipment will make you win or lose LOTS of points. </p><p> Other pieces of equipment will only make the kids a little happy or sad. </p><p> These pieces of equipment will make you win or lose small amounts of points. </p>","","0","instructions","","","","","","","","","","",""
"learning-instructions","18","114962","0.0-8.0-0.0-0.10","5190","1","25","Female","approach_avoid_spark_v1","""event"",""trial"",""time""
""fullscreenenter"",""1"",""2961""
","
","
","""event"",""trial"",""time""
""fullscreenenter"",""1"",""2961""
","
","","","","","","936.6999999880791","<p> If you choose not to give them the equipment, you will not win or lose any points. </p><p>  However, in the center of the screen, you will see the number of points you WOULD HAVE won or lost if you had given them the equipment. </p>","","0","instructions","","","","","","","","","","",""
"learning-instructions","19","137796","0.0-8.0-0.0-0.11","5190","1","25","Female","approach_avoid_spark_v1","""event"",""trial"",""time""
""fullscreenenter"",""1"",""2961""
","
","
","""event"",""trial"",""time""
""fullscreenenter"",""1"",""2961""
","
","","","","","","1308.1000000238419","<p> Here is what you might see if you did not give the equipment to the kids but it would have made them happy: </p><p style=""color:grey; font-size:50px; display: inline-block; border-spacing: 15px; border-width:3px; border-style:solid; border-color:red"">  &nbsp; 7 &nbsp; </p><p> Remember, in this case, you would not win or lose ANY points because you did not give them the equipment.  </p><p style=""color:grey"">The text is GREY because you earned ZERO points. </p><p style=""color:red"">However, choosing to give the kids the equipment would have made you win points. The box around the text is RED because you chose the worse option. </p>","","0","instructions","","","","","","","","","","",""
"learning-instructions","20","159830","0.0-8.0-0.0-0.12","5190","1","25","Female","approach_avoid_spark_v1","""event"",""trial"",""time""
""fullscreenenter"",""1"",""2961""
","
","
","""event"",""trial"",""time""
""fullscreenenter"",""1"",""2961""
","
","","","","","","961.8999999761581","<p> Here is what you might see if you did not give the equipment to the kids but it would have made them sad: </p><p style=""color:grey;font-size:50px; display: inline-block; border-spacing: 15px; border-width:3px; border-style:solid; border-color:green"">  &nbsp; -8 &nbsp; </p><p> Remember, in this case, you would not win or lose ANY points because you did not give them the equipment.  </p><p style=""color:grey"">The text is GREY because you earned ZERO points. </p><p  style=""color:green""> Choosing to give the kids the equipment would have made you lose points. The box around the text is GREEN because you chose the better option.</p>","","0","instructions","","","","","","","","","","",""
"learning-instructions","21","169593","0.0-8.0-0.0-0.13","5190","1","25","Female","approach_avoid_spark_v1","""event"",""trial"",""time""
""fullscreenenter"",""1"",""2961""
","
","
","""event"",""trial"",""time""
""fullscreenenter"",""1"",""2961""
","
","","","","","","965","<p> You will have 3 seconds to make each choice. Try to respond before time runs out! </p><p> You will lose 5 points each time you do not make a response. </p>","","0","instructions","","","","","","","","","","",""
"learning-instructions","22","176395","0.0-8.0-0.0-0.14","5190","1","25","Female","approach_avoid_spark_v1","""event"",""trial"",""time""
""fullscreenenter"",""1"",""2961""
","
","
","""event"",""trial"",""time""
""fullscreenenter"",""1"",""2961""
","
","","","","","","1393.4000000357628","<p> This is just a practice round, but in the real game, your bonus payment will depend on your total number of points.","","0","instructions","","","","","","","","","","",""
"learning-instructions","23","183110","0.0-8.0-0.0-0.15","5190","1","25","Female","approach_avoid_spark_v1","""event"",""trial"",""time""
""fullscreenenter"",""1"",""2961""
","
","
","""event"",""trial"",""time""
""fullscreenenter"",""1"",""2961""
","
","","","","","","951","<p> Remember, you can give them the equipment by pressing 1 and choose not to give it to them by pressing 0. </p><br><div class=""choice-instructions-grid""> <div class=""choice-option""><img src=""images/approach.png"" class=""choice-option-img"" stage=""instructions"" position=""0"" ><div class=""choice-option-text""> Press ""1."" </div></div><div class=""choice-option""><img src=""images/avoid.png"" class=""choice-option-img"" stage=""instructions"" position=""1"" ><div class=""choice-option-text""> Press ""0."" </div></div>","","0","instructions","","","","","","","","","","",""
"html-button-response","24","184536","0.0-8.0-1.0","5190","1","25","Female","approach_avoid_spark_v1","""event"",""trial"",""time""
""fullscreenenter"",""1"",""2961""
","
","
","""event"",""trial"",""time""
""fullscreenenter"",""1"",""2961""
","
","","","","","","1323.699999988079","<p> Ready to practice? </p>","0","","","","","","","","","","","","",""
"html-keyboard-response","25","185139","0.0-8.0-2.0-0.0","5190","1","25","Female","approach_avoid_spark_v1","""event"",""trial"",""time""
""fullscreenenter"",""1"",""2961""
","
","
","""event"",""trial"",""time""
""fullscreenenter"",""1"",""2961""
","
","","","","","","null","<div style=""font-size:60px;"">+</div>","null","","fixation","","","","","","","","","","",""
"aa-learning-trial","26","188143","0.0-8.0-2.0-1.0","5190","1","25","Female","approach_avoid_spark_v1","""event"",""trial"",""time""
""fullscreenenter"",""1"",""2961""
","
","
","""event"",""trial"",""time""
""fullscreenenter"",""1"",""2961""
","
","","","","","","2085.7999999523163","images/racket1.png","","","learning","2","2","1","1","practice","practice","practice","-1","","",""
"html-keyboard-response","27","188644","0.0-8.0-2.0-0.1","5190","1","25","Female","approach_avoid_spark_v1","""event"",""trial"",""time""
""fullscreenenter"",""1"",""2961""
","
","
","""event"",""trial"",""time""
""fullscreenenter"",""1"",""2961""
","
","","","","","","null","<div style=""font-size:60px;"">+</div>","null","","fixation","","","","","","","","","","",""
"aa-learning-trial","28","191648","0.0-8.0-2.0-1.1","5190","1","25","Female","approach_avoid_spark_v1","""event"",""trial"",""time""
""fullscreenenter"",""1"",""2961""
","
","
","""event"",""trial"",""time""
""fullscreenenter"",""1"",""2961""
","
","","","","","","1746.8999999761581","images/ball1.png","","","learning","-1","0","0","0","practice","practice","practice","-1","","",""
"html-keyboard-response","29","192149","0.0-8.0-2.0-0.2","5190","1","25","Female","approach_avoid_spark_v1","""event"",""trial"",""time""
""fullscreenenter"",""1"",""2961""
","
","
","""event"",""trial"",""time""
""fullscreenenter"",""1"",""2961""
","
","","","","","","null","<div style=""font-size:60px;"">+</div>","null","","fixation","","","","","","","","","","",""
"aa-learning-trial","30","195151","0.0-8.0-2.0-1.2","5190","1","25","Female","approach_avoid_spark_v1","""event"",""trial"",""time""
""fullscreenenter"",""1"",""2961""
","
","
","""event"",""trial"",""time""
""fullscreenenter"",""1"",""2961""
","
","","","","","","1641.199999988079","images/racket3.png","","","learning","-6","-6","1","1","practice","practice","practice","-1","","",""
"html-keyboard-response","31","195653","0.0-8.0-2.0-0.3","5190","1","25","Female","approach_avoid_spark_v1","""event"",""trial"",""time""
""fullscreenenter"",""1"",""2961""
","
","
","""event"",""trial"",""time""
""fullscreenenter"",""1"",""2961""
","
","","","","","","null","<div style=""font-size:60px;"">+</div>","null","","fixation","","","","","","","","","","",""
"aa-learning-trial","32","198656","0.0-8.0-2.0-1.3","5190","1","25","Female","approach_avoid_spark_v1","""event"",""trial"",""time""
""fullscreenenter"",""1"",""2961""
","
","
","""event"",""trial"",""time""
""fullscreenenter"",""1"",""2961""
","
","","","","","","1573.0999999642372","images/racket3.png","","","learning","-7","0","0","0","practice","practice","practice","-1","","",""
"html-keyboard-response","33","199160","0.0-8.0-2.0-0.4","5190","1","25","Female","approach_avoid_spark_v1","""event"",""trial"",""time""
""fullscreenenter"",""1"",""2961""
","
","
","""event"",""trial"",""time""
""fullscreenenter"",""1"",""2961""
","
","","","","","","null","<div style=""font-size:60px;"">+</div>","null","","fixation","","","","","","","","","","",""
"aa-learning-trial","34","202164","0.0-8.0-2.0-1.4","5190","1","25","Female","approach_avoid_spark_v1","""event"",""trial"",""time""
""fullscreenenter"",""1"",""2961""
","
","
","""event"",""trial"",""time""
""fullscreenenter"",""1"",""2961""
","
","","","","","","1267.800000011921","images/ball3.png","","","learning","3","3","1","1","practice","practice","practice","-1","","",""
"html-keyboard-response","35","202666","0.0-8.0-2.0-0.5","5190","1","25","Female","approach_avoid_spark_v1","""event"",""trial"",""time""
""fullscreenenter"",""1"",""2961""
","
","
","""event"",""trial"",""time""
""fullscreenenter"",""1"",""2961""
","
","","","","","","null","<div style=""font-size:60px;"">+</div>","null","","fixation","","","","","","","","","","",""
"aa-learning-trial","36","205669","0.0-8.0-2.0-1.5","5190","1","25","Female","approach_avoid_spark_v1","""event"",""trial"",""time""
""fullscreenenter"",""1"",""2961""
","
","
","""event"",""trial"",""time""
""fullscreenenter"",""1"",""2961""
","
","","","","","","1099.699999988079","images/ball3.png","","","learning","-5","-5","1","1","practice","practice","practice","-1","","",""
"html-keyboard-response","37","206171","0.0-8.0-2.0-0.6","5190","1","25","Female","approach_avoid_spark_v1","""event"",""trial"",""time""
""fullscreenenter"",""1"",""2961""
","
","
","""event"",""trial"",""time""
""fullscreenenter"",""1"",""2961""
","
","","","","","","null","<div style=""font-size:60px;"">+</div>","null","","fixation","","","","","","","","","","",""
"aa-learning-trial","38","209176","0.0-8.0-2.0-1.6","5190","1","25","Female","approach_avoid_spark_v1","""event"",""trial"",""time""
""fullscreenenter"",""1"",""2961""
","
","
","""event"",""trial"",""time""
""fullscreenenter"",""1"",""2961""
","
","","","","","","1419","images/ball4.png","","","learning","9","9","1","1","practice","practice","practice","-1","","",""
"html-keyboard-response","39","209680","0.0-8.0-2.0-0.7","5190","1","25","Female","approach_avoid_spark_v1","""event"",""trial"",""time""
""fullscreenenter"",""1"",""2961""
","
","
","""event"",""trial"",""time""
""fullscreenenter"",""1"",""2961""
","
","","","","","","null","<div style=""font-size:60px;"">+</div>","null","","fixation","","","","","","","","","","",""
"aa-learning-trial","40","212687","0.0-8.0-2.0-1.7","5190","1","25","Female","approach_avoid_spark_v1","""event"",""trial"",""time""
""fullscreenenter"",""1"",""2961""
","
","
","""event"",""trial"",""time""
""fullscreenenter"",""1"",""2961""
","
","","","","","","1311.1000000238419","images/racket2.png","","","learning","-8","0","0","0","practice","practice","practice","-1","","",""
"html-keyboard-response","41","213189","0.0-8.0-2.0-0.8","5190","1","25","Female","approach_avoid_spark_v1","""event"",""trial"",""time""
""fullscreenenter"",""1"",""2961""
","
","
","""event"",""trial"",""time""
""fullscreenenter"",""1"",""2961""
","
","","","","","","null","<div style=""font-size:60px;"">+</div>","null","","fixation","","","","","","","","","","",""
"aa-learning-trial","42","216198","0.0-8.0-2.0-1.8","5190","1","25","Female","approach_avoid_spark_v1","""event"",""trial"",""time""
""fullscreenenter"",""1"",""2961""
","
","
","""event"",""trial"",""time""
""fullscreenenter"",""1"",""2961""
","
","","","","","","998.0999999642372","images/ball3.png","","","learning","-6","-6","1","1","practice","practice","practice","-1","","",""
"html-keyboard-response","43","216699","0.0-8.0-2.0-0.9","5190","1","25","Female","approach_avoid_spark_v1","""event"",""trial"",""time""
""fullscreenenter"",""1"",""2961""
","
","
","""event"",""trial"",""time""
""fullscreenenter"",""1"",""2961""
","
","","","","","","null","<div style=""font-size:60px;"">+</div>","null","","fixation","","","","","","","","","","",""
"aa-learning-trial","44","219703","0.0-8.0-2.0-1.9","5190","1","25","Female","approach_avoid_spark_v1","""event"",""trial"",""time""
""fullscreenenter"",""1"",""2961""
","
","
","""event"",""trial"",""time""
""fullscreenenter"",""1"",""2961""
","
","","","","","","1817.699999988079","images/ball4.png","","","learning","-4","-4","1","1","practice","practice","practice","-1","","",""
"html-keyboard-response","45","220208","0.0-8.0-2.0-0.10","5190","1","25","Female","approach_avoid_spark_v1","""event"",""trial"",""time""
""fullscreenenter"",""1"",""2961""
","
","
","""event"",""trial"",""time""
""fullscreenenter"",""1"",""2961""
","
","","","","","","null","<div style=""font-size:60px;"">+</div>","null","","fixation","","","","","","","","","","",""
"aa-learning-trial","46","223216","0.0-8.0-2.0-1.10","5190","1","25","Female","approach_avoid_spark_v1","""event"",""trial"",""time""
""fullscreenenter"",""1"",""2961""
","
","
","""event"",""trial"",""time""
""fullscreenenter"",""1"",""2961""
","
","","","","","","907.3999999761581","images/ball2.png","","","learning","-8","-8","1","1","practice","practice","practice","-1","","",""
"html-keyboard-response","47","223717","0.0-8.0-2.0-0.11","5190","1","25","Female","approach_avoid_spark_v1","""event"",""trial"",""time""
""fullscreenenter"",""1"",""2961""
","
","
","""event"",""trial"",""time""
""fullscreenenter"",""1"",""2961""
","
","","","","","","null","<div style=""font-size:60px;"">+</div>","null","","fixation","","","","","","","","","","",""
"aa-learning-trial","48","226720","0.0-8.0-2.0-1.11","5190","1","25","Female","approach_avoid_spark_v1","""event"",""trial"",""time""
""fullscreenenter"",""1"",""2961""
","
","
","""event"",""trial"",""time""
""fullscreenenter"",""1"",""2961""
","
","","","","","","937.1000000238419","images/ball4.png","","","learning","-1","-1","1","1","practice","practice","practice","-1","","",""
"html-button-response","49","229038","0.0-8.0-3.0","5190","1","25","Female","approach_avoid_spark_v1","""event"",""trial"",""time""
""fullscreenenter"",""1"",""2961""
","
","
","""event"",""trial"",""time""
""fullscreenenter"",""1"",""2961""
","
","","","","","","2314.699999988079","<p> You earned -16 points in the practice round! </p>","0","","break","","","","","","","","","","",""
"learning-instructions","50","236226","0.0-8.0-4.0-0.0","5190","1","25","Female","approach_avoid_spark_v1","""event"",""trial"",""time""
""fullscreenenter"",""1"",""2961""
","
","
","""event"",""trial"",""time""
""fullscreenenter"",""1"",""2961""
","
","","","","","","1186.199999988079","<p> It's almost time to start the real game. </p><p> Before you start, we're going to ask you a few questions about how the game works. </p>","","0","instructions","","","","","","","","","","",""
"preload","51","237229","0.0-8.0-5.0","5190","1","25","Female","approach_avoid_spark_v1","""event"",""trial"",""time""
""fullscreenenter"",""1"",""2961""
","
","
","""event"",""trial"",""time""
""fullscreenenter"",""1"",""2961""
","
","true","false","[]","[]","[]","","","","","","","","","","","","","","","",""
"comp-q","52","243453","0.0-8.0-6.0-0.0","5190","1","25","Female","approach_avoid_spark_v1","""event"",""trial"",""time""
""fullscreenenter"",""1"",""2961""
","
","
","""event"",""trial"",""time""
""fullscreenenter"",""1"",""2961""
","
","","","","","","1228.5999999642372","<p> <b> True or False? </b> </p><p> If you see a number in GREY, that means you earned that many points. </p>","","1","comp_question","","","","","","","","","true","",""
"comp-q","53","252583","0.0-8.0-6.0-1.0","5190","1","25","Female","approach_avoid_spark_v1","""event"",""trial"",""time""
""fullscreenenter"",""1"",""2961""
","
","
","""event"",""trial"",""time""
""fullscreenenter"",""1"",""2961""
","
","","","","","","769.5","<p><b> That's right! </b> If you see a grey number, it means you earned ZERO points. <br> The grey numbers show the points you WOULD HAVE earned if you had made the other choice. </p>","","0","comp_answer","","","","","","","","","","",""
"comp-q","54","257840","0.0-8.0-7.0-0.0","5190","1","25","Female","approach_avoid_spark_v1","""event"",""trial"",""time""
""fullscreenenter"",""1"",""2961""
","
","
","""event"",""trial"",""time""
""fullscreenenter"",""1"",""2961""
","
","","","","","","565.6999999880791","<p> <b> True or False? </b> </p><p> You will have as much time as you want to make each choice. </p>","","1","comp_question","","","","","","","","","true","",""
"comp-q","55","262850","0.0-8.0-7.0-1.0","5190","1","25","Female","approach_avoid_spark_v1","""event"",""trial"",""time""
""fullscreenenter"",""1"",""2961""
","
","
","""event"",""trial"",""time""
""fullscreenenter"",""1"",""2961""
","
","","","","","","972.5","<p> <b> That's right! </b> You will only have 3 seconds to make each choice. </p>","","0","comp_answer","","","","","","","","","","",""
"comp-q","56","268220","0.0-8.0-8.0-0.0","5190","1","25","Female","approach_avoid_spark_v1","""event"",""trial"",""time""
""fullscreenenter"",""1"",""2961""
","
","
","""event"",""trial"",""time""
""fullscreenenter"",""1"",""2961""
","
","","","","","","716","<p> <b> True or False? </b> </p><p> You should use the '1' and '0' keys to make your choices. </p>","","0","comp_question","","","","","","","","","true","",""
"comp-q","57","274068","0.0-8.0-8.0-1.0","5190","1","25","Female","approach_avoid_spark_v1","""event"",""trial"",""time""
""fullscreenenter"",""1"",""2961""
","
","
","""event"",""trial"",""time""
""fullscreenenter"",""1"",""2961""
","
","","","","","","1240.800000011921","<p> <b> That's right! </b> You should use the '1' and '0' keys to make each choice. </p>","","0","comp_answer","","","","","","","","","","",""
"learning-instructions","58","281438","0.0-8.0-9.0-0.0","5190","1","25","Female","approach_avoid_spark_v1","""event"",""trial"",""time""
""fullscreenenter"",""1"",""2961""
","
","
","""event"",""trial"",""time""
""fullscreenenter"",""1"",""2961""
","
","","","","","","1101.0999999642372","<p> It's now time to start the real game. </p>Do your best, because the points you earn in the next rounds will influence your bonus payment. </p>","","0","instructions","","","","","","","","","","",""
"preload","59","281561","0.0-9.0-0.0","5190","1","25","Female","approach_avoid_spark_v1","""event"",""trial"",""time""
""fullscreenenter"",""1"",""2961""
","
","
","""event"",""trial"",""time""
""fullscreenenter"",""1"",""2961""
","
","true","false","[]","[]","[]","","","","","","","","","","","","","","","",""
"learning-instructions","60","287664","0.0-9.0-1.0-0.0","5190","1","25","Female","approach_avoid_spark_v1","""event"",""trial"",""time""
""fullscreenenter"",""1"",""2961""
","
","
","""event"",""trial"",""time""
""fullscreenenter"",""1"",""2961""
","
","","","","","","1226.300000011921","<p> Your goal in this round is to sell different plants to a picky customer. </p></div>","","0","instructions","","","","","","","","","","",""
"learning-instructions","61","297212","0.0-9.0-1.0-0.1","5190","1","25","Female","approach_avoid_spark_v1","""event"",""trial"",""time""
""fullscreenenter"",""1"",""2961""
","
","
","""event"",""trial"",""time""
""fullscreenenter"",""1"",""2961""
","
","","","","","","507.69999998807907","<p> The customer likes some plants and dislikes others.  </p><p> On each turn, you will see a plant.   </p><p> You need to decide whether to offer it to the customer or not.  </p>","","0","instructions","","","","","","","","","","",""
"learning-instructions","62","303404","0.0-9.0-1.0-0.2","5190","1","25","Female","approach_avoid_spark_v1","""event"",""trial"",""time""
""fullscreenenter"",""1"",""2961""
","
","
","""event"",""trial"",""time""
""fullscreenenter"",""1"",""2961""
","
","","","","","","783.5","<p> You can offer the plant by pressing 1 and decide to not offer it by pressing 0. </p><br><div class=""choice-instructions-grid""> <div class=""choice-option""><img src=""images/approach.png"" class=""choice-option-img"" stage=""instructions"" position=""0"" ><div class=""choice-option-text""> Press ""1."" </div></div><div class=""choice-option""><img src=""images/avoid.png"" class=""choice-option-img"" stage=""instructions"" position=""1"" ><div class=""choice-option-text""> Press ""0."" </div></div>","","0","instructions","","","","","","","","","","",""
"learning-instructions","63","312886","0.0-9.0-1.0-0.3","5190","1","25","Female","approach_avoid_spark_v1","""event"",""trial"",""time""
""fullscreenenter"",""1"",""2961""
","
","
","""event"",""trial"",""time""
""fullscreenenter"",""1"",""2961""
","
","","","","","","820.9000000357628","<p> If you offer a plant to the customer that she likes, she will be very pleased! </p><p> But if you offer a plant that she does NOT like, she will be annoyed. </p>","","0","instructions","","","","","","","","","","",""
"learning-instructions","64","325820","0.0-9.0-1.0-0.4","5190","1","25","Female","approach_avoid_spark_v1","""event"",""trial"",""time""
""fullscreenenter"",""1"",""2961""
","
","
","""event"",""trial"",""time""
""fullscreenenter"",""1"",""2961""
","
","","","","","","703.8999999761581","<p> You will earn points based on how you made the customer feel. </p><p> If you made her pleased, you will WIN anywhere from 1 - 9 points, </p><p> but if you made her annoyed, you will LOSE anywhere from 1 - 9 points. </p>","","0","instructions","","","","","","","","","","",""
"learning-instructions","65","334182","0.0-9.0-1.0-0.5","5190","1","25","Female","approach_avoid_spark_v1","""event"",""trial"",""time""
""fullscreenenter"",""1"",""2961""
","
","
","""event"",""trial"",""time""
""fullscreenenter"",""1"",""2961""
","
","","","","","","548.3999999761581","<p> You will see how many points you won or lost in the center of the screen. </p><p> Here is what you would see if you won 5 points: </p><p style=""color:green;font-size:50px;font-weight:bolder"">5</p>","","0","instructions","","","","","","","","","","",""
"learning-instructions","66","338304","0.0-9.0-1.0-0.6","5190","1","25","Female","approach_avoid_spark_v1","""event"",""trial"",""time""
""fullscreenenter"",""1"",""2961""
","
","
","""event"",""trial"",""time""
""fullscreenenter"",""1"",""2961""
","
","","","","","","766.8999999761581","<p> And here is what you would see if you lost 3 points: </p><p style=""color:red;font-size:50px;font-weight:bolder"">-3</p>","","0","instructions","","","","","","","","","","",""
"learning-instructions","67","353730","0.0-9.0-1.0-0.7","5190","1","25","Female","approach_avoid_spark_v1","""event"",""trial"",""time""
""fullscreenenter"",""1"",""2961""
","
","
","""event"",""trial"",""time""
""fullscreenenter"",""1"",""2961""
","
","","","","","","538.1000000238419","<p> Some plants will make the customer VERY pleased or annoyed. </p><p> These plants will make you win or lose LOTS of points. </p><p> The customer will have less strong feelings about other plants. </p><p> These plants will make you win or lose small amounts of points. </p>","","0","instructions","","","","","","","","","","",""
"learning-instructions","68","367066","0.0-9.0-1.0-0.8","5190","1","25","Female","approach_avoid_spark_v1","""event"",""trial"",""time""
""fullscreenenter"",""1"",""2961""
","
","
","""event"",""trial"",""time""
""fullscreenenter"",""1"",""2961""
","
","","","","","","743.6999999880791","<p> If you choose to not offer the plant to the customer, you will not win or lose any points. </p><p>  However, in the center of the screen, you will see the number of points you WOULD HAVE won or lost if you had offered the plant. </p>","","0","instructions","","","","","","","","","","",""
"learning-instructions","69","380008","0.0-9.0-1.0-0.9","5190","1","25","Female","approach_avoid_spark_v1","""event"",""trial"",""time""
""fullscreenenter"",""1"",""2961""
","
","
","""event"",""trial"",""time""
""fullscreenenter"",""1"",""2961""
","
","","","","","","1434.6000000238419","<p> Here is what you might see if you did not offer the plant but the customer would have liked it: </p><p style=""color:grey; font-size:50px; display: inline-block; border-spacing: 15px; border-width:3px; border-style:solid; border-color:red"">  &nbsp; 6 &nbsp; </p><p> Remember, in this case, you would not win or lose ANY points because you did not offer the plant.  </p>","","0","instructions","","","","","","","","","","",""
"learning-instructions","70","388185","0.0-9.0-1.0-0.10","5190","1","25","Female","approach_avoid_spark_v1","""event"",""trial"",""time""
""fullscreenenter"",""1"",""2961""
","
","
","""event"",""trial"",""time""
""fullscreenenter"",""1"",""2961""
","
","","","","","","722.0999999642372","<p> Try to make the best choice for each plant because </p><p> at the end of the game, you will earn bonus money based on how many points you earned. </p>","","0","instructions","","","","","","","","","","",""
"learning-instructions","71","396990","0.0-9.0-1.0-0.11","5190","1","25","Female","approach_avoid_spark_v1","""event"",""trial"",""time""
""fullscreenenter"",""1"",""2961""
","
","
","""event"",""trial"",""time""
""fullscreenenter"",""1"",""2961""
","
","","","","","","618.5999999642372","<p> You will have 3 seconds to make each choice. Try to respond before time runs out! </p><p> You will lose 5 points each time you do not make a response. </p>","","0","instructions","","","","","","","","","","",""
"html-keyboard-response","72","397593","0.0-9.0-2.0-0.0","5190","1","25","Female","approach_avoid_spark_v1","""event"",""trial"",""time""
""fullscreenenter"",""1"",""2961""
","
","
","""event"",""trial"",""time""
""fullscreenenter"",""1"",""2961""
","
","","","","","","null","<div style=""font-size:60px;"">+</div>","null","","fixation","","","","","","","","","","",""
"aa-learning-trial","73","400597","0.0-9.0-2.0-1.0","5190","1","25","Female","approach_avoid_spark_v1","""event"",""trial"",""time""
""fullscreenenter"",""1"",""2961""
","
","
","""event"",""trial"",""time""
""fullscreenenter"",""1"",""2961""
","
","","","","","","1865.6000000238419","images/tree4.png","","","learning","[1]","1","1","1","tree","plants","1","0","","neutral","0"
"html-keyboard-response","74","401101","0.0-9.0-2.0-0.1","5190","1","25","Female","approach_avoid_spark_v1","""event"",""trial"",""time""
""fullscreenenter"",""1"",""2961""
","
","
","""event"",""trial"",""time""
""fullscreenenter"",""1"",""2961""
","
","","","","","","null","<div style=""font-size:60px;"">+</div>","null","","fixation","","","","","","","","","","",""
"aa-learning-trial","75","404106","0.0-9.0-2.0-1.1","5190","1","25","Female","approach_avoid_spark_v1","""event"",""trial"",""time""
""fullscreenenter"",""1"",""2961""
","
","
","""event"",""trial"",""time""
""fullscreenenter"",""1"",""2961""
","
","","","","","","1023.6000000238419","images/bush6.png","","","learning","-5","-5","1","1","bush","plants","1","0","","bad","[-4]"
"html-keyboard-response","76","404608","0.0-9.0-2.0-0.2","5190","1","25","Female","approach_avoid_spark_v1","""event"",""trial"",""time""
""fullscreenenter"",""1"",""2961""
","
","
","""event"",""trial"",""time""
""fullscreenenter"",""1"",""2961""
","
","","","","","","null","<div style=""font-size:60px;"">+</div>","null","","fixation","","","","","","","","","","",""
"aa-learning-trial","77","407612","0.0-9.0-2.0-1.2","5190","1","25","Female","approach_avoid_spark_v1","""event"",""trial"",""time""
""fullscreenenter"",""1"",""2961""
","
","
","""event"",""trial"",""time""
""fullscreenenter"",""1"",""2961""
","
","","","","","","1021.0999999642372","images/tree8.png","","","learning","[-1]","-1","1","1","tree","plants","1","0","","neutral","0"
"html-keyboard-response","78","408117","0.0-9.0-2.0-0.3","5190","1","25","Female","approach_avoid_spark_v1","""event"",""trial"",""time""
""fullscreenenter"",""1"",""2961""
","
","
","""event"",""trial"",""time""
""fullscreenenter"",""1"",""2961""
","
","","","","","","null","<div style=""font-size:60px;"">+</div>","null","","fixation","","","","","","","","","","",""
"aa-learning-trial","79","411120","0.0-9.0-2.0-1.3","5190","1","25","Female","approach_avoid_spark_v1","""event"",""trial"",""time""
""fullscreenenter"",""1"",""2961""
","
","
","""event"",""trial"",""time""
""fullscreenenter"",""1"",""2961""
","
","","","","","","1200.699999988079","images/bush7.png","","","learning","-5","-5","1","1","bush","plants","1","0","","bad","[-4]"
"html-keyboard-response","80","411623","0.0-9.0-2.0-0.4","5190","1","25","Female","approach_avoid_spark_v1","""event"",""trial"",""time""
""fullscreenenter"",""1"",""2961""
","
","
","""event"",""trial"",""time""
""fullscreenenter"",""1"",""2961""
","
","","","","","","null","<div style=""font-size:60px;"">+</div>","null","","fixation","","","","","","","","","","",""
"aa-learning-trial","81","414627","0.0-9.0-2.0-1.4","5190","1","25","Female","approach_avoid_spark_v1","""event"",""trial"",""time""
""fullscreenenter"",""1"",""2961""
","
","
","""event"",""trial"",""time""
""fullscreenenter"",""1"",""2961""
","
","","","","","","930.4000000357628","images/bush6.png","","","learning","-8","-8","1","1","bush","plants","1","0","","bad","[-4]"
"html-keyboard-response","82","415129","0.0-9.0-2.0-0.5","5190","1","25","Female","approach_avoid_spark_v1","""event"",""trial"",""time""
""fullscreenenter"",""1"",""2961""
","
","
","""event"",""trial"",""time""
""fullscreenenter"",""1"",""2961""
","
","","","","","","null","<div style=""font-size:60px;"">+</div>","null","","fixation","","","","","","","","","","",""
"aa-learning-trial","83","418133","0.0-9.0-2.0-1.5","5190","1","25","Female","approach_avoid_spark_v1","""event"",""trial"",""time""
""fullscreenenter"",""1"",""2961""
","
","
","""event"",""trial"",""time""
""fullscreenenter"",""1"",""2961""
","
","","","","","","1112.699999988079","images/bush7.png","","","learning","-2","-2","1","1","bush","plants","1","0","","bad","[-4]"
"html-keyboard-response","84","418634","0.0-9.0-2.0-0.6","5190","1","25","Female","approach_avoid_spark_v1","""event"",""trial"",""time""
""fullscreenenter"",""1"",""2961""
","
","
","""event"",""trial"",""time""
""fullscreenenter"",""1"",""2961""
","
","","","","","","null","<div style=""font-size:60px;"">+</div>","null","","fixation","","","","","","","","","","",""
"aa-learning-trial","85","421639","0.0-9.0-2.0-1.6","5190","1","25","Female","approach_avoid_spark_v1","""event"",""trial"",""time""
""fullscreenenter"",""1"",""2961""
","
","
","""event"",""trial"",""time""
""fullscreenenter"",""1"",""2961""
","
","","","","","","1326.699999988079","images/cactus5.png","","","learning","2","2","1","1","cactus","plants","1","0","","good","[3]"
"html-keyboard-response","86","422140","0.0-9.0-2.0-0.7","5190","1","25","Female","approach_avoid_spark_v1","""event"",""trial"",""time""
""fullscreenenter"",""1"",""2961""
","
","
","""event"",""trial"",""time""
""fullscreenenter"",""1"",""2961""
","
","","","","","","null","<div style=""font-size:60px;"">+</div>","null","","fixation","","","","","","","","","","",""
"aa-learning-trial","87","425144","0.0-9.0-2.0-1.7","5190","1","25","Female","approach_avoid_spark_v1","""event"",""trial"",""time""
""fullscreenenter"",""1"",""2961""
","
","
","""event"",""trial"",""time""
""fullscreenenter"",""1"",""2961""
","
","","","","","","755.6999999880791","images/cactus5.png","","","learning","5","5","1","1","cactus","plants","1","0","","good","[3]"
"html-keyboard-response","88","425646","0.0-9.0-2.0-0.8","5190","1","25","Female","approach_avoid_spark_v1","""event"",""trial"",""time""
""fullscreenenter"",""1"",""2961""
","
","
","""event"",""trial"",""time""
""fullscreenenter"",""1"",""2961""
","
","","","","","","null","<div style=""font-size:60px;"">+</div>","null","","fixation","","","","","","","","","","",""
"aa-learning-trial","89","428649","0.0-9.0-2.0-1.8","5190","1","25","Female","approach_avoid_spark_v1","""event"",""trial"",""time""
""fullscreenenter"",""1"",""2961""
","
","
","""event"",""trial"",""time""
""fullscreenenter"",""1"",""2961""
","
","","","","","","1406.5999999642372","images/tree5.png","","","learning","-1","0","0","0","tree","plants","1","0","","neutral","0"
"html-keyboard-response","90","429155","0.0-9.0-2.0-0.9","5190","1","25","Female","approach_avoid_spark_v1","""event"",""trial"",""time""
""fullscreenenter"",""1"",""2961""
","
","
","""event"",""trial"",""time""
""fullscreenenter"",""1"",""2961""
","
","","","","","","null","<div style=""font-size:60px;"">+</div>","null","","fixation","","","","","","","","","","",""
"aa-learning-trial","91","432159","0.0-9.0-2.0-1.9","5190","1","25","Female","approach_avoid_spark_v1","""event"",""trial"",""time""
""fullscreenenter"",""1"",""2961""
","
","
","""event"",""trial"",""time""
""fullscreenenter"",""1"",""2961""
","
","","","","","","1192.199999988079","images/cactus8.png","","","learning","6","6","1","1","cactus","plants","1","0","","good","[3]"
"html-keyboard-response","92","432661","0.0-9.0-2.0-0.10","5190","1","25","Female","approach_avoid_spark_v1","""event"",""trial"",""time""
""fullscreenenter"",""1"",""2961""
","
","
","""event"",""trial"",""time""
""fullscreenenter"",""1"",""2961""
","
","","","","","","null","<div style=""font-size:60px;"">+</div>","null","","fixation","","","","","","","","","","",""
"aa-learning-trial","93","435667","0.0-9.0-2.0-1.10","5190","1","25","Female","approach_avoid_spark_v1","""event"",""trial"",""time""
""fullscreenenter"",""1"",""2961""
","
","
","""event"",""trial"",""time""
""fullscreenenter"",""1"",""2961""
","
","","","","","","1120.1000000238419","images/tree8.png","","","learning","-1","0","0","0","tree","plants","1","0","","neutral","0"
"html-keyboard-response","94","436170","0.0-9.0-2.0-0.11","5190","1","25","Female","approach_avoid_spark_v1","""event"",""trial"",""time""
""fullscreenenter"",""1"",""2961""
","
","
","""event"",""trial"",""time""
""fullscreenenter"",""1"",""2961""
","
","","","","","","null","<div style=""font-size:60px;"">+</div>","null","","fixation","","","","","","","","","","",""
"aa-learning-trial","95","439177","0.0-9.0-2.0-1.11","5190","1","25","Female","approach_avoid_spark_v1","""event"",""trial"",""time""
""fullscreenenter"",""1"",""2961""
","
","
","""event"",""trial"",""time""
""fullscreenenter"",""1"",""2961""
","
","","","","","","1553.5999999642372","images/tree5.png","","","learning","2","0","0","0","tree","plants","1","0","","neutral","0"
"html-keyboard-response","96","439679","0.0-9.0-2.0-0.12","5190","1","25","Female","approach_avoid_spark_v1","""event"",""trial"",""time""
""fullscreenenter"",""1"",""2961""
","
","
","""event"",""trial"",""time""
""fullscreenenter"",""1"",""2961""
","
","","","","","","null","<div style=""font-size:60px;"">+</div>","null","","fixation","","","","","","","","","","",""
"aa-learning-trial","97","442682","0.0-9.0-2.0-1.12","5190","1","25","Female","approach_avoid_spark_v1","""event"",""trial"",""time""
""fullscreenenter"",""1"",""2961""
","
","
","""event"",""trial"",""time""
""fullscreenenter"",""1"",""2961""
","
","","","","","","1211.2000000476837","images/cactus1.png","","","learning","1","1","1","1","cactus","plants","1","0","","good","[3]"
"html-keyboard-response","98","443187","0.0-9.0-2.0-0.13","5190","1","25","Female","approach_avoid_spark_v1","""event"",""trial"",""time""
""fullscreenenter"",""1"",""2961""
","
","
","""event"",""trial"",""time""
""fullscreenenter"",""1"",""2961""
","
","","","","","","null","<div style=""font-size:60px;"">+</div>","null","","fixation","","","","","","","","","","",""
"aa-learning-trial","99","446195","0.0-9.0-2.0-1.13","5190","1","25","Female","approach_avoid_spark_v1","""event"",""trial"",""time""
""fullscreenenter"",""1"",""2961""
","
","
","""event"",""trial"",""time""
""fullscreenenter"",""1"",""2961""
","
","","","","","","1591.3999999761581","images/bush3.png","","","learning","-3","0","0","0","bush","plants","1","0","","bad","[-4]"
"html-keyboard-response","100","446700","0.0-9.0-2.0-0.14","5190","1","25","Female","approach_avoid_spark_v1","""event"",""trial"",""time""
""fullscreenenter"",""1"",""2961""
","
","
","""event"",""trial"",""time""
""fullscreenenter"",""1"",""2961""
","
","","","","","","null","<div style=""font-size:60px;"">+</div>","null","","fixation","","","","","","","","","","",""
"aa-learning-trial","101","449705","0.0-9.0-2.0-1.14","5190","1","25","Female","approach_avoid_spark_v1","""event"",""trial"",""time""
""fullscreenenter"",""1"",""2961""
","
","
","""event"",""trial"",""time""
""fullscreenenter"",""1"",""2961""
","
","","","","","","1009.8999999761581","images/cactus8.png","","","learning","4","4","1","1","cactus","plants","1","0","","good","[3]"
"html-keyboard-response","102","450207","0.0-9.0-2.0-0.15","5190","1","25","Female","approach_avoid_spark_v1","""event"",""trial"",""time""
""fullscreenenter"",""1"",""2961""
","
","
","""event"",""trial"",""time""
""fullscreenenter"",""1"",""2961""
","
","","","","","","null","<div style=""font-size:60px;"">+</div>","null","","fixation","","","","","","","","","","",""
"aa-learning-trial","103","453214","0.0-9.0-2.0-1.15","5190","1","25","Female","approach_avoid_spark_v1","""event"",""trial"",""time""
""fullscreenenter"",""1"",""2961""
","
","
","""event"",""trial"",""time""
""fullscreenenter"",""1"",""2961""
","
","","","","","","1373.1000000238419","images/tree4.png","","","learning","[-1]","0","0","0","tree","plants","1","0","","neutral","0"
"html-keyboard-response","104","453716","0.0-9.0-2.0-0.16","5190","1","25","Female","approach_avoid_spark_v1","""event"",""trial"",""time""
""fullscreenenter"",""1"",""2961""
","
","
","""event"",""trial"",""time""
""fullscreenenter"",""1"",""2961""
","
","","","","","","null","<div style=""font-size:60px;"">+</div>","null","","fixation","","","","","","","","","","",""
"aa-learning-trial","105","456719","0.0-9.0-2.0-1.16","5190","1","25","Female","approach_avoid_spark_v1","""event"",""trial"",""time""
""fullscreenenter"",""1"",""2961""
","
","
","""event"",""trial"",""time""
""fullscreenenter"",""1"",""2961""
","
","","","","","","1141.7000000476837","images/cactus5.png","","","learning","4","4","1","1","cactus","plants","1","0","","good","[3]"
"html-keyboard-response","106","457221","0.0-9.0-2.0-0.17","5190","1","25","Female","approach_avoid_spark_v1","""event"",""trial"",""time""
""fullscreenenter"",""1"",""2961""
","
","
","""event"",""trial"",""time""
""fullscreenenter"",""1"",""2961""
","
","","","","","","null","<div style=""font-size:60px;"">+</div>","null","","fixation","","","","","","","","","","",""
"aa-learning-trial","107","460227","0.0-9.0-2.0-1.17","5190","1","25","Female","approach_avoid_spark_v1","""event"",""trial"",""time""
""fullscreenenter"",""1"",""2961""
","
","
","""event"",""trial"",""time""
""fullscreenenter"",""1"",""2961""
","
","","","","","","1165.5","images/bush7.png","","","learning","-8","-8","1","1","bush","plants","1","0","","bad","[-4]"
"html-keyboard-response","108","460729","0.0-9.0-2.0-0.18","5190","1","25","Female","approach_avoid_spark_v1","""event"",""trial"",""time""
""fullscreenenter"",""1"",""2961""
","
","
","""event"",""trial"",""time""
""fullscreenenter"",""1"",""2961""
","
","","","","","","null","<div style=""font-size:60px;"">+</div>","null","","fixation","","","","","","","","","","",""
"aa-learning-trial","109","463732","0.0-9.0-2.0-1.18","5190","1","25","Female","approach_avoid_spark_v1","""event"",""trial"",""time""
""fullscreenenter"",""1"",""2961""
","
","
","""event"",""trial"",""time""
""fullscreenenter"",""1"",""2961""
","
","","","","","","1195.199999988079","images/bush1.png","","","learning","-8","0","0","0","bush","plants","1","0","","bad","[-4]"
"html-keyboard-response","110","464238","0.0-9.0-2.0-0.19","5190","1","25","Female","approach_avoid_spark_v1","""event"",""trial"",""time""
""fullscreenenter"",""1"",""2961""
","
","
","""event"",""trial"",""time""
""fullscreenenter"",""1"",""2961""
","
","","","","","","null","<div style=""font-size:60px;"">+</div>","null","","fixation","","","","","","","","","","",""
"aa-learning-trial","111","467242","0.0-9.0-2.0-1.19","5190","1","25","Female","approach_avoid_spark_v1","""event"",""trial"",""time""
""fullscreenenter"",""1"",""2961""
","
","
","""event"",""trial"",""time""
""fullscreenenter"",""1"",""2961""
","
","","","","","","1221.1000000238419","images/tree8.png","","","learning","1","0","0","0","tree","plants","1","0","","neutral","0"
"html-keyboard-response","112","467748","0.0-9.0-2.0-0.20","5190","1","25","Female","approach_avoid_spark_v1","""event"",""trial"",""time""
""fullscreenenter"",""1"",""2961""
","
","
","""event"",""trial"",""time""
""fullscreenenter"",""1"",""2961""
","
","","","","","","null","<div style=""font-size:60px;"">+</div>","null","","fixation","","","","","","","","","","",""
"aa-learning-trial","113","470751","0.0-9.0-2.0-1.20","5190","1","25","Female","approach_avoid_spark_v1","""event"",""trial"",""time""
""fullscreenenter"",""1"",""2961""
","
","
","""event"",""trial"",""time""
""fullscreenenter"",""1"",""2961""
","
","","","","","","1347.8999999761581","images/bush3.png","","","learning","-4","0","0","0","bush","plants","1","0","","bad","[-4]"
"html-keyboard-response","114","471256","0.0-9.0-2.0-0.21","5190","1","25","Female","approach_avoid_spark_v1","""event"",""trial"",""time""
""fullscreenenter"",""1"",""2961""
","
","
","""event"",""trial"",""time""
""fullscreenenter"",""1"",""2961""
","
","","","","","","null","<div style=""font-size:60px;"">+</div>","null","","fixation","","","","","","","","","","",""
"aa-learning-trial","115","474260","0.0-9.0-2.0-1.21","5190","1","25","Female","approach_avoid_spark_v1","""event"",""trial"",""time""
""fullscreenenter"",""1"",""2961""
","
","
","""event"",""trial"",""time""
""fullscreenenter"",""1"",""2961""
","
","","","","","","810.8999999761581","images/cactus8.png","","","learning","3","3","1","1","cactus","plants","1","0","","good","[3]"
"html-keyboard-response","116","474761","0.0-9.0-2.0-0.22","5190","1","25","Female","approach_avoid_spark_v1","""event"",""trial"",""time""
""fullscreenenter"",""1"",""2961""
","
","
","""event"",""trial"",""time""
""fullscreenenter"",""1"",""2961""
","
","","","","","","null","<div style=""font-size:60px;"">+</div>","null","","fixation","","","","","","","","","","",""
"aa-learning-trial","117","477767","0.0-9.0-2.0-1.22","5190","1","25","Female","approach_avoid_spark_v1","""event"",""trial"",""time""
""fullscreenenter"",""1"",""2961""
","
","
","""event"",""trial"",""time""
""fullscreenenter"",""1"",""2961""
","
","","","","","","1167.1000000238419","images/bush7.png","","","learning","-5","0","0","0","bush","plants","1","0","","bad","[-4]"
"html-keyboard-response","118","478270","0.0-9.0-2.0-0.23","5190","1","25","Female","approach_avoid_spark_v1","""event"",""trial"",""time""
""fullscreenenter"",""1"",""2961""
","
","
","""event"",""trial"",""time""
""fullscreenenter"",""1"",""2961""
","
","","","","","","null","<div style=""font-size:60px;"">+</div>","null","","fixation","","","","","","","","","","",""
"aa-learning-trial","119","481278","0.0-9.0-2.0-1.23","5190","1","25","Female","approach_avoid_spark_v1","""event"",""trial"",""time""
""fullscreenenter"",""1"",""2961""
","
","
","""event"",""trial"",""time""
""fullscreenenter"",""1"",""2961""
","
","","","","","","1540.5","images/bush2.png","","","learning","-4","0","0","0","bush","plants","1","0","","bad","[-4]"
"html-keyboard-response","120","481780","0.0-9.0-2.0-0.24","5190","1","25","Female","approach_avoid_spark_v1","""event"",""trial"",""time""
""fullscreenenter"",""1"",""2961""
","
","
","""event"",""trial"",""time""
""fullscreenenter"",""1"",""2961""
","
","","","","","","null","<div style=""font-size:60px;"">+</div>","null","","fixation","","","","","","","","","","",""
"aa-learning-trial","121","484782","0.0-9.0-2.0-1.24","5190","1","25","Female","approach_avoid_spark_v1","""event"",""trial"",""time""
""fullscreenenter"",""1"",""2961""
","
","
","""event"",""trial"",""time""
""fullscreenenter"",""1"",""2961""
","
","","","","","","927.8999999761581","images/bush6.png","","","learning","-8","0","0","0","bush","plants","1","0","","bad","[-4]"
"html-keyboard-response","122","485284","0.0-9.0-2.0-0.25","5190","1","25","Female","approach_avoid_spark_v1","""event"",""trial"",""time""
""fullscreenenter"",""1"",""2961""
","
","
","""event"",""trial"",""time""
""fullscreenenter"",""1"",""2961""
","
","","","","","","null","<div style=""font-size:60px;"">+</div>","null","","fixation","","","","","","","","","","",""
"aa-learning-trial","123","488292","0.0-9.0-2.0-1.25","5190","1","25","Female","approach_avoid_spark_v1","""event"",""trial"",""time""
""fullscreenenter"",""1"",""2961""
","
","
","""event"",""trial"",""time""
""fullscreenenter"",""1"",""2961""
","
","","","","","","1343.7999999523163","images/tree4.png","","","learning","1","0","0","0","tree","plants","1","0","","neutral","0"
"html-keyboard-response","124","488798","0.0-9.0-2.0-0.26","5190","1","25","Female","approach_avoid_spark_v1","""event"",""trial"",""time""
""fullscreenenter"",""1"",""2961""
","
","
","""event"",""trial"",""time""
""fullscreenenter"",""1"",""2961""
","
","","","","","","null","<div style=""font-size:60px;"">+</div>","null","","fixation","","","","","","","","","","",""
"aa-learning-trial","125","491806","0.0-9.0-2.0-1.26","5190","1","25","Female","approach_avoid_spark_v1","""event"",""trial"",""time""
""fullscreenenter"",""1"",""2961""
","
","
","""event"",""trial"",""time""
""fullscreenenter"",""1"",""2961""
","
","","","","","","881.8000000119209","images/tree6.png","","","learning","1","0","0","0","tree","plants","1","0","","neutral","0"
"html-keyboard-response","126","492308","0.0-9.0-2.0-0.27","5190","1","25","Female","approach_avoid_spark_v1","""event"",""trial"",""time""
""fullscreenenter"",""1"",""2961""
","
","
","""event"",""trial"",""time""
""fullscreenenter"",""1"",""2961""
","
","","","","","","null","<div style=""font-size:60px;"">+</div>","null","","fixation","","","","","","","","","","",""
"aa-learning-trial","127","495315","0.0-9.0-2.0-1.27","5190","1","25","Female","approach_avoid_spark_v1","""event"",""trial"",""time""
""fullscreenenter"",""1"",""2961""
","
","
","""event"",""trial"",""time""
""fullscreenenter"",""1"",""2961""
","
","","","","","","864.3999999761581","images/cactus1.png","","","learning","4","4","1","1","cactus","plants","1","0","","good","[3]"
"html-keyboard-response","128","495817","0.0-9.0-2.0-0.28","5190","1","25","Female","approach_avoid_spark_v1","""event"",""trial"",""time""
""fullscreenenter"",""1"",""2961""
","
","
","""event"",""trial"",""time""
""fullscreenenter"",""1"",""2961""
","
","","","","","","null","<div style=""font-size:60px;"">+</div>","null","","fixation","","","","","","","","","","",""
"aa-learning-trial","129","498820","0.0-9.0-2.0-1.28","5190","1","25","Female","approach_avoid_spark_v1","""event"",""trial"",""time""
""fullscreenenter"",""1"",""2961""
","
","
","""event"",""trial"",""time""
""fullscreenenter"",""1"",""2961""
","
","","","","","","913.6000000238419","images/cactus5.png","","","learning","4","4","1","1","cactus","plants","1","0","","good","[3]"
"html-keyboard-response","130","499321","0.0-9.0-2.0-0.29","5190","1","25","Female","approach_avoid_spark_v1","""event"",""trial"",""time""
""fullscreenenter"",""1"",""2961""
","
","
","""event"",""trial"",""time""
""fullscreenenter"",""1"",""2961""
","
","","","","","","null","<div style=""font-size:60px;"">+</div>","null","","fixation","","","","","","","","","","",""
"aa-learning-trial","131","502329","0.0-9.0-2.0-1.29","5190","1","25","Female","approach_avoid_spark_v1","""event"",""trial"",""time""
""fullscreenenter"",""1"",""2961""
","
","
","""event"",""trial"",""time""
""fullscreenenter"",""1"",""2961""
","
","","","","","","1231","images/bush6.png","","","learning","-5","0","0","0","bush","plants","1","0","","bad","[-4]"
"html-keyboard-response","132","502830","0.0-9.0-2.0-0.30","5190","1","25","Female","approach_avoid_spark_v1","""event"",""trial"",""time""
""fullscreenenter"",""1"",""2961""
","
","
","""event"",""trial"",""time""
""fullscreenenter"",""1"",""2961""
","
","","","","","","null","<div style=""font-size:60px;"">+</div>","null","","fixation","","","","","","","","","","",""
"aa-learning-trial","133","505839","0.0-9.0-2.0-1.30","5190","1","25","Female","approach_avoid_spark_v1","""event"",""trial"",""time""
""fullscreenenter"",""1"",""2961""
","
","
","""event"",""trial"",""time""
""fullscreenenter"",""1"",""2961""
","
","","","","","","1049.199999988079","images/bush7.png","","","learning","-4","0","0","0","bush","plants","1","0","","bad","[-4]"
"html-keyboard-response","134","506344","0.0-9.0-2.0-0.31","5190","1","25","Female","approach_avoid_spark_v1","""event"",""trial"",""time""
""fullscreenenter"",""1"",""2961""
","
","
","""event"",""trial"",""time""
""fullscreenenter"",""1"",""2961""
","
","","","","","","null","<div style=""font-size:60px;"">+</div>","null","","fixation","","","","","","","","","","",""
"aa-learning-trial","135","509348","0.0-9.0-2.0-1.31","5190","1","25","Female","approach_avoid_spark_v1","""event"",""trial"",""time""
""fullscreenenter"",""1"",""2961""
","
","
","""event"",""trial"",""time""
""fullscreenenter"",""1"",""2961""
","
","","","","","","894.8000000119209","images/cactus8.png","","","learning","4","4","1","1","cactus","plants","1","0","","good","[3]"
"html-keyboard-response","136","509854","0.0-9.0-2.0-0.32","5190","1","25","Female","approach_avoid_spark_v1","""event"",""trial"",""time""
""fullscreenenter"",""1"",""2961""
","
","
","""event"",""trial"",""time""
""fullscreenenter"",""1"",""2961""
","
","","","","","","null","<div style=""font-size:60px;"">+</div>","null","","fixation","","","","","","","","","","",""
"aa-learning-trial","137","512857","0.0-9.0-2.0-1.32","5190","1","25","Female","approach_avoid_spark_v1","""event"",""trial"",""time""
""fullscreenenter"",""1"",""2961""
","
","
","""event"",""trial"",""time""
""fullscreenenter"",""1"",""2961""
","
","","","","","","1128.8999999761581","images/bush6.png","","","learning","-5","0","0","0","bush","plants","1","0","","bad","[-4]"
"html-keyboard-response","138","513363","0.0-9.0-2.0-0.33","5190","1","25","Female","approach_avoid_spark_v1","""event"",""trial"",""time""
""fullscreenenter"",""1"",""2961""
","
","
","""event"",""trial"",""time""
""fullscreenenter"",""1"",""2961""
","
","","","","","","null","<div style=""font-size:60px;"">+</div>","null","","fixation","","","","","","","","","","",""
"aa-learning-trial","139","516372","0.0-9.0-2.0-1.33","5190","1","25","Female","approach_avoid_spark_v1","""event"",""trial"",""time""
""fullscreenenter"",""1"",""2961""
","
","
","""event"",""trial"",""time""
""fullscreenenter"",""1"",""2961""
","
","","","","","","1253.800000011921","images/tree8.png","","","learning","1","1","1","1","tree","plants","1","0","","neutral","0"
"html-keyboard-response","140","516878","0.0-9.0-2.0-0.34","5190","1","25","Female","approach_avoid_spark_v1","""event"",""trial"",""time""
""fullscreenenter"",""1"",""2961""
","
","
","""event"",""trial"",""time""
""fullscreenenter"",""1"",""2961""
","
","","","","","","null","<div style=""font-size:60px;"">+</div>","null","","fixation","","","","","","","","","","",""
"aa-learning-trial","141","519886","0.0-9.0-2.0-1.34","5190","1","25","Female","approach_avoid_spark_v1","""event"",""trial"",""time""
""fullscreenenter"",""1"",""2961""
","
","
","""event"",""trial"",""time""
""fullscreenenter"",""1"",""2961""
","
","","","","","","1131.5999999642372","images/tree5.png","","","learning","[-1]","-1","1","1","tree","plants","1","0","","neutral","0"
"html-keyboard-response","142","520388","0.0-9.0-2.0-0.35","5190","1","25","Female","approach_avoid_spark_v1","""event"",""trial"",""time""
""fullscreenenter"",""1"",""2961""
","
","
","""event"",""trial"",""time""
""fullscreenenter"",""1"",""2961""
","
","","","","","","null","<div style=""font-size:60px;"">+</div>","null","","fixation","","","","","","","","","","",""
"aa-learning-trial","143","523386","0.0-9.0-2.0-1.35","5190","1","25","Female","approach_avoid_spark_v1","""event"",""trial"",""time""
""fullscreenenter"",""1"",""2961""
","
","
","""event"",""trial"",""time""
""fullscreenenter"",""1"",""2961""
","
","","","","","","1112.5999999642372","images/bush6.png","","","learning","-5","0","0","0","bush","plants","1","0","","bad","[-4]"
"html-keyboard-response","144","523887","0.0-9.0-2.0-0.36","5190","1","25","Female","approach_avoid_spark_v1","""event"",""trial"",""time""
""fullscreenenter"",""1"",""2961""
","
","
","""event"",""trial"",""time""
""fullscreenenter"",""1"",""2961""
","
","","","","","","null","<div style=""font-size:60px;"">+</div>","null","","fixation","","","","","","","","","","",""
"aa-learning-trial","145","526884","0.0-9.0-2.0-1.36","5190","1","25","Female","approach_avoid_spark_v1","""event"",""trial"",""time""
""fullscreenenter"",""1"",""2961""
","
","
","""event"",""trial"",""time""
""fullscreenenter"",""1"",""2961""
","
","","","","","","1373.1000000238419","images/tree2.png","","","learning","-1","-1","1","1","tree","plants","1","0","","neutral","0"
"html-keyboard-response","146","527384","0.0-9.0-2.0-0.37","5190","1","25","Female","approach_avoid_spark_v1","""event"",""trial"",""time""
""fullscreenenter"",""1"",""2961""
","
","
","""event"",""trial"",""time""
""fullscreenenter"",""1"",""2961""
","
","","","","","","null","<div style=""font-size:60px;"">+</div>","null","","fixation","","","","","","","","","","",""
"aa-learning-trial","147","530383","0.0-9.0-2.0-1.37","5190","1","25","Female","approach_avoid_spark_v1","""event"",""trial"",""time""
""fullscreenenter"",""1"",""2961""
","
","
","""event"",""trial"",""time""
""fullscreenenter"",""1"",""2961""
","
","","","","","","1154.8999999761581","images/tree5.png","","","learning","1","0","0","0","tree","plants","1","0","","neutral","0"
"html-keyboard-response","148","530888","0.0-9.0-2.0-0.38","5190","1","25","Female","approach_avoid_spark_v1","""event"",""trial"",""time""
""fullscreenenter"",""1"",""2961""
","
","
","""event"",""trial"",""time""
""fullscreenenter"",""1"",""2961""
","
","","","","","","null","<div style=""font-size:60px;"">+</div>","null","","fixation","","","","","","","","","","",""
"aa-learning-trial","149","533893","0.0-9.0-2.0-1.38","5190","1","25","Female","approach_avoid_spark_v1","""event"",""trial"",""time""
""fullscreenenter"",""1"",""2961""
","
","
","""event"",""trial"",""time""
""fullscreenenter"",""1"",""2961""
","
","","","","","","851.5999999642372","images/cactus5.png","","","learning","4","4","1","1","cactus","plants","1","0","","good","[3]"
"html-keyboard-response","150","534398","0.0-9.0-2.0-0.39","5190","1","25","Female","approach_avoid_spark_v1","""event"",""trial"",""time""
""fullscreenenter"",""1"",""2961""
","
","
","""event"",""trial"",""time""
""fullscreenenter"",""1"",""2961""
","
","","","","","","null","<div style=""font-size:60px;"">+</div>","null","","fixation","","","","","","","","","","",""
"aa-learning-trial","151","537400","0.0-9.0-2.0-1.39","5190","1","25","Female","approach_avoid_spark_v1","""event"",""trial"",""time""
""fullscreenenter"",""1"",""2961""
","
","
","""event"",""trial"",""time""
""fullscreenenter"",""1"",""2961""
","
","","","","","","926.1999999880791","images/cactus8.png","","","learning","4","4","1","1","cactus","plants","1","0","","good","[3]"
"html-keyboard-response","152","537906","0.0-9.0-2.0-0.40","5190","1","25","Female","approach_avoid_spark_v1","""event"",""trial"",""time""
""fullscreenenter"",""1"",""2961""
","
","
","""event"",""trial"",""time""
""fullscreenenter"",""1"",""2961""
","
","","","","","","null","<div style=""font-size:60px;"">+</div>","null","","fixation","","","","","","","","","","",""
"aa-learning-trial","153","540911","0.0-9.0-2.0-1.40","5190","1","25","Female","approach_avoid_spark_v1","""event"",""trial"",""time""
""fullscreenenter"",""1"",""2961""
","
","
","""event"",""trial"",""time""
""fullscreenenter"",""1"",""2961""
","
","","","","","","1303.1000000238419","images/tree8.png","","","learning","2","2","1","1","tree","plants","1","0","","neutral","0"
"html-keyboard-response","154","541415","0.0-9.0-2.0-0.41","5190","1","25","Female","approach_avoid_spark_v1","""event"",""trial"",""time""
""fullscreenenter"",""1"",""2961""
","
","
","""event"",""trial"",""time""
""fullscreenenter"",""1"",""2961""
","
","","","","","","null","<div style=""font-size:60px;"">+</div>","null","","fixation","","","","","","","","","","",""
"aa-learning-trial","155","544418","0.0-9.0-2.0-1.41","5190","1","25","Female","approach_avoid_spark_v1","""event"",""trial"",""time""
""fullscreenenter"",""1"",""2961""
","
","
","""event"",""trial"",""time""
""fullscreenenter"",""1"",""2961""
","
","","","","","","1041.4000000357628","images/cactus3.png","","","learning","4","4","1","1","cactus","plants","1","0","","good","[3]"
"html-keyboard-response","156","544924","0.0-9.0-2.0-0.42","5190","1","25","Female","approach_avoid_spark_v1","""event"",""trial"",""time""
""fullscreenenter"",""1"",""2961""
","
","
","""event"",""trial"",""time""
""fullscreenenter"",""1"",""2961""
","
","","","","","","null","<div style=""font-size:60px;"">+</div>","null","","fixation","","","","","","","","","","",""
"aa-learning-trial","157","547927","0.0-9.0-2.0-1.42","5190","1","25","Female","approach_avoid_spark_v1","""event"",""trial"",""time""
""fullscreenenter"",""1"",""2961""
","
","
","""event"",""trial"",""time""
""fullscreenenter"",""1"",""2961""
","
","","","","","","1541.5","images/tree5.png","","","learning","4","4","1","1","tree","plants","1","0","","neutral","0"
"html-keyboard-response","158","548433","0.0-9.0-2.0-0.43","5190","1","25","Female","approach_avoid_spark_v1","""event"",""trial"",""time""
""fullscreenenter"",""1"",""2961""
","
","
","""event"",""trial"",""time""
""fullscreenenter"",""1"",""2961""
","
","","","","","","null","<div style=""font-size:60px;"">+</div>","null","","fixation","","","","","","","","","","",""
"aa-learning-trial","159","551439","0.0-9.0-2.0-1.43","5190","1","25","Female","approach_avoid_spark_v1","""event"",""trial"",""time""
""fullscreenenter"",""1"",""2961""
","
","
","""event"",""trial"",""time""
""fullscreenenter"",""1"",""2961""
","
","","","","","","1217.1000000238419","images/tree5.png","","","learning","-1","-1","1","1","tree","plants","1","0","","neutral","0"
"html-keyboard-response","160","551941","0.0-9.0-2.0-0.44","5190","1","25","Female","approach_avoid_spark_v1","""event"",""trial"",""time""
""fullscreenenter"",""1"",""2961""
","
","
","""event"",""trial"",""time""
""fullscreenenter"",""1"",""2961""
","
","","","","","","null","<div style=""font-size:60px;"">+</div>","null","","fixation","","","","","","","","","","",""
"aa-learning-trial","161","554943","0.0-9.0-2.0-1.44","5190","1","25","Female","approach_avoid_spark_v1","""event"",""trial"",""time""
""fullscreenenter"",""1"",""2961""
","
","
","""event"",""trial"",""time""
""fullscreenenter"",""1"",""2961""
","
","","","","","","1487.4000000357628","images/cactus4.png","","","learning","2","2","1","1","cactus","plants","1","0","","good","[3]"
"html-keyboard-response","162","555448","0.0-9.0-2.0-0.45","5190","1","25","Female","approach_avoid_spark_v1","""event"",""trial"",""time""
""fullscreenenter"",""1"",""2961""
","
","
","""event"",""trial"",""time""
""fullscreenenter"",""1"",""2961""
","
","","","","","","null","<div style=""font-size:60px;"">+</div>","null","","fixation","","","","","","","","","","",""
"aa-learning-trial","163","558452","0.0-9.0-2.0-1.45","5190","1","25","Female","approach_avoid_spark_v1","""event"",""trial"",""time""
""fullscreenenter"",""1"",""2961""
","
","
","""event"",""trial"",""time""
""fullscreenenter"",""1"",""2961""
","
","","","","","","1201.3999999761581","images/bush3.png","","","learning","-3","0","0","0","bush","plants","1","0","","bad","[-4]"
"html-keyboard-response","164","558957","0.0-9.0-2.0-0.46","5190","1","25","Female","approach_avoid_spark_v1","""event"",""trial"",""time""
""fullscreenenter"",""1"",""2961""
","
","
","""event"",""trial"",""time""
""fullscreenenter"",""1"",""2961""
","
","","","","","","null","<div style=""font-size:60px;"">+</div>","null","","fixation","","","","","","","","","","",""
"aa-learning-trial","165","561965","0.0-9.0-2.0-1.46","5190","1","25","Female","approach_avoid_spark_v1","""event"",""trial"",""time""
""fullscreenenter"",""1"",""2961""
","
","
","""event"",""trial"",""time""
""fullscreenenter"",""1"",""2961""
","
","","","","","","1069.6000000238419","images/cactus8.png","","","learning","6","6","1","1","cactus","plants","1","0","","good","[3]"
"html-keyboard-response","166","562467","0.0-9.0-2.0-0.47","5190","1","25","Female","approach_avoid_spark_v1","""event"",""trial"",""time""
""fullscreenenter"",""1"",""2961""
","
","
","""event"",""trial"",""time""
""fullscreenenter"",""1"",""2961""
","
","","","","","","null","<div style=""font-size:60px;"">+</div>","null","","fixation","","","","","","","","","","",""
"aa-learning-trial","167","565473","0.0-9.0-2.0-1.47","5190","1","25","Female","approach_avoid_spark_v1","""event"",""trial"",""time""
""fullscreenenter"",""1"",""2961""
","
","
","""event"",""trial"",""time""
""fullscreenenter"",""1"",""2961""
","
","","","","","","1013.6000000238419","images/cactus5.png","","","learning","5","5","1","1","cactus","plants","1","0","","good","[3]"
"html-keyboard-response","168","565976","0.0-9.0-2.0-0.48","5190","1","25","Female","approach_avoid_spark_v1","""event"",""trial"",""time""
""fullscreenenter"",""1"",""2961""
","
","
","""event"",""trial"",""time""
""fullscreenenter"",""1"",""2961""
","
","","","","","","null","<div style=""font-size:60px;"">+</div>","null","","fixation","","","","","","","","","","",""
"aa-learning-trial","169","568982","0.0-9.0-2.0-1.48","5190","1","25","Female","approach_avoid_spark_v1","""event"",""trial"",""time""
""fullscreenenter"",""1"",""2961""
","
","
","""event"",""trial"",""time""
""fullscreenenter"",""1"",""2961""
","
","","","","","","882.3999999761581","images/cactus1.png","","","learning","4","4","1","1","cactus","plants","1","0","","good","[3]"
"html-keyboard-response","170","569483","0.0-9.0-2.0-0.49","5190","1","25","Female","approach_avoid_spark_v1","""event"",""trial"",""time""
""fullscreenenter"",""1"",""2961""
","
","
","""event"",""trial"",""time""
""fullscreenenter"",""1"",""2961""
","
","","","","","","null","<div style=""font-size:60px;"">+</div>","null","","fixation","","","","","","","","","","",""
"aa-learning-trial","171","572491","0.0-9.0-2.0-1.49","5190","1","25","Female","approach_avoid_spark_v1","""event"",""trial"",""time""
""fullscreenenter"",""1"",""2961""
","
","
","""event"",""trial"",""time""
""fullscreenenter"",""1"",""2961""
","
","","","","","","988.6000000238419","images/bush7.png","","","learning","-4","0","0","0","bush","plants","1","0","","bad","[-4]"
"html-keyboard-response","172","572993","0.0-9.0-2.0-0.50","5190","1","25","Female","approach_avoid_spark_v1","""event"",""trial"",""time""
""fullscreenenter"",""1"",""2961""
","
","
","""event"",""trial"",""time""
""fullscreenenter"",""1"",""2961""
","
","","","","","","null","<div style=""font-size:60px;"">+</div>","null","","fixation","","","","","","","","","","",""
"aa-learning-trial","173","576000","0.0-9.0-2.0-1.50","5190","1","25","Female","approach_avoid_spark_v1","""event"",""trial"",""time""
""fullscreenenter"",""1"",""2961""
","
","
","""event"",""trial"",""time""
""fullscreenenter"",""1"",""2961""
","
","","","","","","1077.199999988079","images/tree8.png","","","learning","-2","-2","1","1","tree","plants","1","0","","neutral","0"
"html-button-response","174","579126","0.0-9.0-3.0","5190","1","25","Female","approach_avoid_spark_v1","""event"",""trial"",""time""
""fullscreenenter"",""1"",""2961""
","
","
","""event"",""trial"",""time""
""fullscreenenter"",""1"",""2961""
","
","","","","","","3124","<p> You have completed the round! <p> In this round, you earned 40 points! </p>","0","","break","","","","","","","","","","",""
"html-button-response","175","580152","0.0-10.0","5190","1","25","Female","approach_avoid_spark_v1","""event"",""trial"",""time""
""fullscreenenter"",""1"",""2961""
","
","
","""event"",""trial"",""time""
""fullscreenenter"",""1"",""2961""
","
","","","","","","1024.3999999761581","<p> Now it's time to play another round. </p>","0","","transition_screen","","","","","","","","","","",""
"preload","176","580277","0.0-11.0-0.0","5190","1","25","Female","approach_avoid_spark_v1","""event"",""trial"",""time""
""fullscreenenter"",""1"",""2961""
","
","
","""event"",""trial"",""time""
""fullscreenenter"",""1"",""2961""
","
","true","false","[]","[]","[]","","","","","","","","","","","","","","","",""
"learning-instructions","177","585537","0.0-11.0-1.0-0.0","5190","1","25","Female","approach_avoid_spark_v1","""event"",""trial"",""time""
""fullscreenenter"",""1"",""2961""
","
","
","""event"",""trial"",""time""
""fullscreenenter"",""1"",""2961""
","
","","","","","","1878.4000000357628","<p> Your goal in this round is to eat tasty fruit. </p></div>","","0","instructions","","","","","","","","","","",""
"learning-instructions","178","595903","0.0-11.0-1.0-0.1","5190","1","25","Female","approach_avoid_spark_v1","""event"",""trial"",""time""
""fullscreenenter"",""1"",""2961""
","
","
","""event"",""trial"",""time""
""fullscreenenter"",""1"",""2961""
","
","","","","","","847.5","<p> Some of the fruits you will see are tasty. Others are rotten on the inside.  </p><p> On each turn, you will see a fruit.   </p><p> You need to decide whether to eat it or not.  </p>","","0","instructions","","","","","","","","","","",""
"learning-instructions","179","601435","0.0-11.0-1.0-0.2","5190","1","25","Female","approach_avoid_spark_v1","""event"",""trial"",""time""
""fullscreenenter"",""1"",""2961""
","
","
","""event"",""trial"",""time""
""fullscreenenter"",""1"",""2961""
","
","","","","","","826.2999999523163","<p> You can eat the fruit by pressing 1 and choose not to eat it by pressing 0. </p><br><div class=""choice-instructions-grid""> <div class=""choice-option""><img src=""images/approach.png"" class=""choice-option-img"" stage=""instructions"" position=""0"" ><div class=""choice-option-text""> Press ""1."" </div></div><div class=""choice-option""><img src=""images/avoid.png"" class=""choice-option-img"" stage=""instructions"" position=""1"" ><div class=""choice-option-text""> Press ""0."" </div></div>","","0","instructions","","","","","","","","","","",""
"learning-instructions","180","609226","0.0-11.0-1.0-0.3","5190","1","25","Female","approach_avoid_spark_v1","""event"",""trial"",""time""
""fullscreenenter"",""1"",""2961""
","
","
","""event"",""trial"",""time""
""fullscreenenter"",""1"",""2961""
","
","","","","","","649.8999999761581","<p> If you eat the fruit and it was tasty, you will win points! </p><p> But if you eat the fruit and it was rotten, you will lose points. </p>","","0","instructions","","","","","","","","","","",""
"learning-instructions","181","621407","0.0-11.0-1.0-0.4","5190","1","25","Female","approach_avoid_spark_v1","""event"",""trial"",""time""
""fullscreenenter"",""1"",""2961""
","
","
","""event"",""trial"",""time""
""fullscreenenter"",""1"",""2961""
","
","","","","","","1043.8999999761581","<p> You will earn points based on how tasty or rotten the fruit was. </p><p> If it was tasty, you will WIN anywhere from 1 - 9 points, </p><p> but if it was rotten, you will LOSE anywhere from 1 - 9 points. </p>","","0","instructions","","","","","","","","","","",""
"learning-instructions","182","628813","0.0-11.0-1.0-0.5","5190","1","25","Female","approach_avoid_spark_v1","""event"",""trial"",""time""
""fullscreenenter"",""1"",""2961""
","
","
","""event"",""trial"",""time""
""fullscreenenter"",""1"",""2961""
","
","","","","","","753.6000000238419","<p> You will see how many points you won or lost in the center of the screen. </p><p> Here is what you would see if you earned 5 points: </p><p style=""color:green;font-size:50px;font-weight:bolder"">5</p>","","0","instructions","","","","","","","","","","",""
"learning-instructions","183","632221","0.0-11.0-1.0-0.6","5190","1","25","Female","approach_avoid_spark_v1","""event"",""trial"",""time""
""fullscreenenter"",""1"",""2961""
","
","
","""event"",""trial"",""time""
""fullscreenenter"",""1"",""2961""
","
","","","","","","577.6999999880791","<p> And here is what you would see if you lost 3 points: </p><p style=""color:red;font-size:50px;font-weight:bolder"">-3</p>","","0","instructions","","","","","","","","","","",""
"learning-instructions","184","647149","0.0-11.0-1.0-0.7","5190","1","25","Female","approach_avoid_spark_v1","""event"",""trial"",""time""
""fullscreenenter"",""1"",""2961""
","
","
","""event"",""trial"",""time""
""fullscreenenter"",""1"",""2961""
","
","","","","","","1223","<p> Some fruit is very tasty or very rotten. </p><p> These fruits will make you win or lose LOTS of points. </p><p> Other fruits are only kind of tasty or kind of rotten. </p><p> These fruits will make you win or lose small amounts of points. </p>","","0","instructions","","","","","","","","","","",""
"learning-instructions","185","658108","0.0-11.0-1.0-0.8","5190","1","25","Female","approach_avoid_spark_v1","""event"",""trial"",""time""
""fullscreenenter"",""1"",""2961""
","
","
","""event"",""trial"",""time""
""fullscreenenter"",""1"",""2961""
","
","","","","","","672.1000000238419","<p> If you choose to not eat the fruit, you will not win or lose any points. </p><p>  However, in the center of the screen, you will see the number of points you WOULD HAVE earned if you had eaten the fruit. </p>","","0","instructions","","","","","","","","","","",""
"learning-instructions","186","668352","0.0-11.0-1.0-0.9","5190","1","25","Female","approach_avoid_spark_v1","""event"",""trial"",""time""
""fullscreenenter"",""1"",""2961""
","
","
","""event"",""trial"",""time""
""fullscreenenter"",""1"",""2961""
","
","","","","","","585.1000000238419","<p> Here is what you might see if you did not eat the fruit but the fruit was tasty: </p><p style=""color:grey; font-size:50px; display: inline-block; border-spacing: 15px; border-width:3px; border-style:solid; border-color:red"">  &nbsp; 6 &nbsp; </p><p> Remember, in this case, you would not win or lose ANY points because you did not eat the fruit.  </p>","","0","instructions","","","","","","","","","","",""
"learning-instructions","187","677069","0.0-11.0-1.0-0.10","5190","1","25","Female","approach_avoid_spark_v1","""event"",""trial"",""time""
""fullscreenenter"",""1"",""2961""
","
","
","""event"",""trial"",""time""
""fullscreenenter"",""1"",""2961""
","
","","","","","","1094.1000000238419","<p> Try to make the best choice for each fruit because </p><p> at the end of the game, you will earn bonus money based on how many points you earned. </p>","","0","instructions","","","","","","","","","","",""
"learning-instructions","188","685891","0.0-11.0-1.0-0.11","5190","1","25","Female","approach_avoid_spark_v1","""event"",""trial"",""time""
""fullscreenenter"",""1"",""2961""
","
","
","""event"",""trial"",""time""
""fullscreenenter"",""1"",""2961""
","
","","","","","","635.3000000119209","<p> You will have 3 seconds to make each choice. Try to respond before time runs out! </p><p> You will lose 5 points each time you do not make a response. </p>","","0","instructions","","","","","","","","","","",""
"html-keyboard-response","189","686493","0.0-11.0-2.0-0.0","5190","1","25","Female","approach_avoid_spark_v1","""event"",""trial"",""time""
""fullscreenenter"",""1"",""2961""
","
","
","""event"",""trial"",""time""
""fullscreenenter"",""1"",""2961""
","
","","","","","","null","<div style=""font-size:60px;"">+</div>","null","","fixation","","","","","","","","","","",""
"aa-learning-trial","190","689497","0.0-11.0-2.0-1.0","5190","1","25","Female","approach_avoid_spark_v1","""event"",""trial"",""time""
""fullscreenenter"",""1"",""2961""
","
","
","""event"",""trial"",""time""
""fullscreenenter"",""1"",""2961""
","
","","","","","","1556.699999988079","images/banana8.png","","","learning","-9","-9","1","1","banana","fruit","2","1","","good","[6]"
"html-keyboard-response","191","690001","0.0-11.0-2.0-0.1","5190","1","25","Female","approach_avoid_spark_v1","""event"",""trial"",""time""
""fullscreenenter"",""1"",""2961""
","
","
","""event"",""trial"",""time""
""fullscreenenter"",""1"",""2961""
","
","","","","","","null","<div style=""font-size:60px;"">+</div>","null","","fixation","","","","","","","","","","",""
"aa-learning-trial","192","693003","0.0-11.0-2.0-1.1","5190","1","25","Female","approach_avoid_spark_v1","""event"",""trial"",""time""
""fullscreenenter"",""1"",""2961""
","
","
","""event"",""trial"",""time""
""fullscreenenter"",""1"",""2961""
","
","","","","","","802.3000000119209","images/apple7.png","","","learning","2","2","1","1","apple","fruit","2","1","","neutral","0"
"html-keyboard-response","193","693505","0.0-11.0-2.0-0.2","5190","1","25","Female","approach_avoid_spark_v1","""event"",""trial"",""time""
""fullscreenenter"",""1"",""2961""
","
","
","""event"",""trial"",""time""
""fullscreenenter"",""1"",""2961""
","
","","","","","","null","<div style=""font-size:60px;"">+</div>","null","","fixation","","","","","","","","","","",""
"aa-learning-trial","194","696510","0.0-11.0-2.0-1.2","5190","1","25","Female","approach_avoid_spark_v1","""event"",""trial"",""time""
""fullscreenenter"",""1"",""2961""
","
","
","""event"",""trial"",""time""
""fullscreenenter"",""1"",""2961""
","
","","","","","","992.9000000357628","images/orange5.png","","","learning","-1","-1","1","1","orange","fruit","2","1","","bad","[-6]"
"html-keyboard-response","195","697012","0.0-11.0-2.0-0.3","5190","1","25","Female","approach_avoid_spark_v1","""event"",""trial"",""time""
""fullscreenenter"",""1"",""2961""
","
","
","""event"",""trial"",""time""
""fullscreenenter"",""1"",""2961""
","
","","","","","","null","<div style=""font-size:60px;"">+</div>","null","","fixation","","","","","","","","","","",""
"aa-learning-trial","196","700019","0.0-11.0-2.0-1.3","5190","1","25","Female","approach_avoid_spark_v1","""event"",""trial"",""time""
""fullscreenenter"",""1"",""2961""
","
","
","""event"",""trial"",""time""
""fullscreenenter"",""1"",""2961""
","
","","","","","","1110","images/apple1.png","","","learning","-7","-7","1","1","apple","fruit","2","1","","neutral","0"
"html-keyboard-response","197","700520","0.0-11.0-2.0-0.4","5190","1","25","Female","approach_avoid_spark_v1","""event"",""trial"",""time""
""fullscreenenter"",""1"",""2961""
","
","
","""event"",""trial"",""time""
""fullscreenenter"",""1"",""2961""
","
","","","","","","null","<div style=""font-size:60px;"">+</div>","null","","fixation","","","","","","","","","","",""
"aa-learning-trial","198","703524","0.0-11.0-2.0-1.4","5190","1","25","Female","approach_avoid_spark_v1","""event"",""trial"",""time""
""fullscreenenter"",""1"",""2961""
","
","
","""event"",""trial"",""time""
""fullscreenenter"",""1"",""2961""
","
","","","","","","931.6999999880791","images/banana7.png","","","learning","1","0","0","0","banana","fruit","2","1","","good","[6]"
"html-keyboard-response","199","704026","0.0-11.0-2.0-0.5","5190","1","25","Female","approach_avoid_spark_v1","""event"",""trial"",""time""
""fullscreenenter"",""1"",""2961""
","
","
","""event"",""trial"",""time""
""fullscreenenter"",""1"",""2961""
","
","","","","","","null","<div style=""font-size:60px;"">+</div>","null","","fixation","","","","","","","","","","",""
"aa-learning-trial","200","707031","0.0-11.0-2.0-1.5","5190","1","25","Female","approach_avoid_spark_v1","""event"",""trial"",""time""
""fullscreenenter"",""1"",""2961""
","
","
","""event"",""trial"",""time""
""fullscreenenter"",""1"",""2961""
","
","","","","","","1368.7000000476837","images/apple4.png","","","learning","3","3","1","1","apple","fruit","2","1","","neutral","0"
"html-keyboard-response","201","707533","0.0-11.0-2.0-0.6","5190","1","25","Female","approach_avoid_spark_v1","""event"",""trial"",""time""
""fullscreenenter"",""1"",""2961""
","
","
","""event"",""trial"",""time""
""fullscreenenter"",""1"",""2961""
","
","","","","","","null","<div style=""font-size:60px;"">+</div>","null","","fixation","","","","","","","","","","",""
"aa-learning-trial","202","710537","0.0-11.0-2.0-1.6","5190","1","25","Female","approach_avoid_spark_v1","""event"",""trial"",""time""
""fullscreenenter"",""1"",""2961""
","
","
","""event"",""trial"",""time""
""fullscreenenter"",""1"",""2961""
","
","","","","","","980.2000000476837","images/banana8.png","","","learning","-9","0","0","0","banana","fruit","2","1","","good","[6]"
"html-keyboard-response","203","711039","0.0-11.0-2.0-0.7","5190","1","25","Female","approach_avoid_spark_v1","""event"",""trial"",""time""
""fullscreenenter"",""1"",""2961""
","
","
","""event"",""trial"",""time""
""fullscreenenter"",""1"",""2961""
","
","","","","","","null","<div style=""font-size:60px;"">+</div>","null","","fixation","","","","","","","","","","",""
"aa-learning-trial","204","714044","0.0-11.0-2.0-1.7","5190","1","25","Female","approach_avoid_spark_v1","""event"",""trial"",""time""
""fullscreenenter"",""1"",""2961""
","
","
","""event"",""trial"",""time""
""fullscreenenter"",""1"",""2961""
","
","","","","","","887.6999999880791","images/orange2.png","","","learning","8","8","1","1","orange","fruit","2","1","","bad","[-6]"
"html-keyboard-response","205","714545","0.0-11.0-2.0-0.8","5190","1","25","Female","approach_avoid_spark_v1","""event"",""trial"",""time""
""fullscreenenter"",""1"",""2961""
","
","
","""event"",""trial"",""time""
""fullscreenenter"",""1"",""2961""
","
","","","","","","null","<div style=""font-size:60px;"">+</div>","null","","fixation","","","","","","","","","","",""
"aa-learning-trial","206","717549","0.0-11.0-2.0-1.8","5190","1","25","Female","approach_avoid_spark_v1","""event"",""trial"",""time""
""fullscreenenter"",""1"",""2961""
","
","
","""event"",""trial"",""time""
""fullscreenenter"",""1"",""2961""
","
","","","","","","791.5","images/orange2.png","","","learning","8","8","1","1","orange","fruit","2","1","","bad","[-6]"
"html-keyboard-response","207","718051","0.0-11.0-2.0-0.9","5190","1","25","Female","approach_avoid_spark_v1","""event"",""trial"",""time""
""fullscreenenter"",""1"",""2961""
","
","
","""event"",""trial"",""time""
""fullscreenenter"",""1"",""2961""
","
","","","","","","null","<div style=""font-size:60px;"">+</div>","null","","fixation","","","","","","","","","","",""
"aa-learning-trial","208","721054","0.0-11.0-2.0-1.9","5190","1","25","Female","approach_avoid_spark_v1","""event"",""trial"",""time""
""fullscreenenter"",""1"",""2961""
","
","
","""event"",""trial"",""time""
""fullscreenenter"",""1"",""2961""
","
","","","","","","796.5","images/banana7.png","","","learning","1","0","0","0","banana","fruit","2","1","","good","[6]"
"html-keyboard-response","209","721558","0.0-11.0-2.0-0.10","5190","1","25","Female","approach_avoid_spark_v1","""event"",""trial"",""time""
""fullscreenenter"",""1"",""2961""
","
","
","""event"",""trial"",""time""
""fullscreenenter"",""1"",""2961""
","
","","","","","","null","<div style=""font-size:60px;"">+</div>","null","","fixation","","","","","","","","","","",""
"aa-learning-trial","210","724563","0.0-11.0-2.0-1.10","5190","1","25","Female","approach_avoid_spark_v1","""event"",""trial"",""time""
""fullscreenenter"",""1"",""2961""
","
","
","""event"",""trial"",""time""
""fullscreenenter"",""1"",""2961""
","
","","","","","","904","images/banana3.png","","","learning","9","9","1","1","banana","fruit","2","1","","good","[6]"
"html-keyboard-response","211","725065","0.0-11.0-2.0-0.11","5190","1","25","Female","approach_avoid_spark_v1","""event"",""trial"",""time""
""fullscreenenter"",""1"",""2961""
","
","
","""event"",""trial"",""time""
""fullscreenenter"",""1"",""2961""
","
","","","","","","null","<div style=""font-size:60px;"">+</div>","null","","fixation","","","","","","","","","","",""
"aa-learning-trial","212","728072","0.0-11.0-2.0-1.11","5190","1","25","Female","approach_avoid_spark_v1","""event"",""trial"",""time""
""fullscreenenter"",""1"",""2961""
","
","
","""event"",""trial"",""time""
""fullscreenenter"",""1"",""2961""
","
","","","","","","1710.1000000238419","images/orange7.png","","","learning","-6","-6","1","1","orange","fruit","2","1","","bad","[-6]"
"html-keyboard-response","213","728579","0.0-11.0-2.0-0.12","5190","1","25","Female","approach_avoid_spark_v1","""event"",""trial"",""time""
""fullscreenenter"",""1"",""2961""
","
","
","""event"",""trial"",""time""
""fullscreenenter"",""1"",""2961""
","
","","","","","","null","<div style=""font-size:60px;"">+</div>","null","","fixation","","","","","","","","","","",""
"aa-learning-trial","214","731587","0.0-11.0-2.0-1.12","5190","1","25","Female","approach_avoid_spark_v1","""event"",""trial"",""time""
""fullscreenenter"",""1"",""2961""
","
","
","""event"",""trial"",""time""
""fullscreenenter"",""1"",""2961""
","
","","","","","","580.5","images/orange5.png","","","learning","-1","0","0","0","orange","fruit","2","1","","bad","[-6]"
"html-keyboard-response","215","732089","0.0-11.0-2.0-0.13","5190","1","25","Female","approach_avoid_spark_v1","""event"",""trial"",""time""
""fullscreenenter"",""1"",""2961""
","
","
","""event"",""trial"",""time""
""fullscreenenter"",""1"",""2961""
","
","","","","","","null","<div style=""font-size:60px;"">+</div>","null","","fixation","","","","","","","","","","",""
"aa-learning-trial","216","735096","0.0-11.0-2.0-1.13","5190","1","25","Female","approach_avoid_spark_v1","""event"",""trial"",""time""
""fullscreenenter"",""1"",""2961""
","
","
","""event"",""trial"",""time""
""fullscreenenter"",""1"",""2961""
","
","","","","","","1391.5","images/apple7.png","","","learning","2","2","1","1","apple","fruit","2","1","","neutral","0"
"html-keyboard-response","217","735598","0.0-11.0-2.0-0.14","5190","1","25","Female","approach_avoid_spark_v1","""event"",""trial"",""time""
""fullscreenenter"",""1"",""2961""
","
","
","""event"",""trial"",""time""
""fullscreenenter"",""1"",""2961""
","
","","","","","","null","<div style=""font-size:60px;"">+</div>","null","","fixation","","","","","","","","","","",""
"aa-learning-trial","218","738605","0.0-11.0-2.0-1.14","5190","1","25","Female","approach_avoid_spark_v1","""event"",""trial"",""time""
""fullscreenenter"",""1"",""2961""
","
","
","""event"",""trial"",""time""
""fullscreenenter"",""1"",""2961""
","
","","","","","","1343","images/apple1.png","","","learning","-7","0","0","0","apple","fruit","2","1","","neutral","0"
"html-keyboard-response","219","739107","0.0-11.0-2.0-0.15","5190","1","25","Female","approach_avoid_spark_v1","""event"",""trial"",""time""
""fullscreenenter"",""1"",""2961""
","
","
","""event"",""trial"",""time""
""fullscreenenter"",""1"",""2961""
","
","","","","","","null","<div style=""font-size:60px;"">+</div>","null","","fixation","","","","","","","","","","",""
"aa-learning-trial","220","742115","0.0-11.0-2.0-1.15","5190","1","25","Female","approach_avoid_spark_v1","""event"",""trial"",""time""
""fullscreenenter"",""1"",""2961""
","
","
","""event"",""trial"",""time""
""fullscreenenter"",""1"",""2961""
","
","","","","","","1391.4000000357628","images/orange2.png","","","learning","8","8","1","1","orange","fruit","2","1","","bad","[-6]"
"html-keyboard-response","221","742616","0.0-11.0-2.0-0.16","5190","1","25","Female","approach_avoid_spark_v1","""event"",""trial"",""time""
""fullscreenenter"",""1"",""2961""
","
","
","""event"",""trial"",""time""
""fullscreenenter"",""1"",""2961""
","
","","","","","","null","<div style=""font-size:60px;"">+</div>","null","","fixation","","","","","","","","","","",""
"aa-learning-trial","222","745620","0.0-11.0-2.0-1.16","5190","1","25","Female","approach_avoid_spark_v1","""event"",""trial"",""time""
""fullscreenenter"",""1"",""2961""
","
","
","""event"",""trial"",""time""
""fullscreenenter"",""1"",""2961""
","
","","","","","","1253.5","images/orange3.png","","","learning","-4","-4","1","1","orange","fruit","2","1","","bad","[-6]"
"html-keyboard-response","223","746125","0.0-11.0-2.0-0.17","5190","1","25","Female","approach_avoid_spark_v1","""event"",""trial"",""time""
""fullscreenenter"",""1"",""2961""
","
","
","""event"",""trial"",""time""
""fullscreenenter"",""1"",""2961""
","
","","","","","","null","<div style=""font-size:60px;"">+</div>","null","","fixation","","","","","","","","","","",""
"aa-learning-trial","224","749128","0.0-11.0-2.0-1.17","5190","1","25","Female","approach_avoid_spark_v1","""event"",""trial"",""time""
""fullscreenenter"",""1"",""2961""
","
","
","""event"",""trial"",""time""
""fullscreenenter"",""1"",""2961""
","
","","","","","","1689.5","images/banana7.png","","","learning","1","1","1","1","banana","fruit","2","1","","good","[6]"
"html-keyboard-response","225","749634","0.0-11.0-2.0-0.18","5190","1","25","Female","approach_avoid_spark_v1","""event"",""trial"",""time""
""fullscreenenter"",""1"",""2961""
","
","
","""event"",""trial"",""time""
""fullscreenenter"",""1"",""2961""
","
","","","","","","null","<div style=""font-size:60px;"">+</div>","null","","fixation","","","","","","","","","","",""
"aa-learning-trial","226","752638","0.0-11.0-2.0-1.18","5190","1","25","Female","approach_avoid_spark_v1","""event"",""trial"",""time""
""fullscreenenter"",""1"",""2961""
","
","
","""event"",""trial"",""time""
""fullscreenenter"",""1"",""2961""
","
","","","","","","2152.300000011921","images/banana8.png","","","learning","-9","-9","1","1","banana","fruit","2","1","","good","[6]"
"html-keyboard-response","227","753143","0.0-11.0-2.0-0.19","5190","1","25","Female","approach_avoid_spark_v1","""event"",""trial"",""time""
""fullscreenenter"",""1"",""2961""
","
","
","""event"",""trial"",""time""
""fullscreenenter"",""1"",""2961""
","
","","","","","","null","<div style=""font-size:60px;"">+</div>","null","","fixation","","","","","","","","","","",""
"aa-learning-trial","228","756147","0.0-11.0-2.0-1.19","5190","1","25","Female","approach_avoid_spark_v1","""event"",""trial"",""time""
""fullscreenenter"",""1"",""2961""
","
","
","""event"",""trial"",""time""
""fullscreenenter"",""1"",""2961""
","
","","","","","","1110.6000000238419","images/banana7.png","","","learning","1","1","1","1","banana","fruit","2","1","","good","[6]"
"html-keyboard-response","229","756653","0.0-11.0-2.0-0.20","5190","1","25","Female","approach_avoid_spark_v1","""event"",""trial"",""time""
""fullscreenenter"",""1"",""2961""
","
","
","""event"",""trial"",""time""
""fullscreenenter"",""1"",""2961""
","
","","","","","","null","<div style=""font-size:60px;"">+</div>","null","","fixation","","","","","","","","","","",""
"aa-learning-trial","230","759661","0.0-11.0-2.0-1.20","5190","1","25","Female","approach_avoid_spark_v1","""event"",""trial"",""time""
""fullscreenenter"",""1"",""2961""
","
","
","""event"",""trial"",""time""
""fullscreenenter"",""1"",""2961""
","
","","","","","","931.3000000119209","images/apple1.png","","","learning","-7","0","0","0","apple","fruit","2","1","","neutral","0"
"html-keyboard-response","231","760163","0.0-11.0-2.0-0.21","5190","1","25","Female","approach_avoid_spark_v1","""event"",""trial"",""time""
""fullscreenenter"",""1"",""2961""
","
","
","""event"",""trial"",""time""
""fullscreenenter"",""1"",""2961""
","
","","","","","","null","<div style=""font-size:60px;"">+</div>","null","","fixation","","","","","","","","","","",""
"aa-learning-trial","232","763166","0.0-11.0-2.0-1.21","5190","1","25","Female","approach_avoid_spark_v1","""event"",""trial"",""time""
""fullscreenenter"",""1"",""2961""
","
","
","""event"",""trial"",""time""
""fullscreenenter"",""1"",""2961""
","
","","","","","","1134.5","images/orange7.png","","","learning","-6","-6","1","1","orange","fruit","2","1","","bad","[-6]"
"html-keyboard-response","233","763672","0.0-11.0-2.0-0.22","5190","1","25","Female","approach_avoid_spark_v1","""event"",""trial"",""time""
""fullscreenenter"",""1"",""2961""
","
","
","""event"",""trial"",""time""
""fullscreenenter"",""1"",""2961""
","
","","","","","","null","<div style=""font-size:60px;"">+</div>","null","","fixation","","","","","","","","","","",""
"aa-learning-trial","234","766680","0.0-11.0-2.0-1.22","5190","1","25","Female","approach_avoid_spark_v1","""event"",""trial"",""time""
""fullscreenenter"",""1"",""2961""
","
","
","""event"",""trial"",""time""
""fullscreenenter"",""1"",""2961""
","
","","","","","","1494.0999999642372","images/banana8.png","","","learning","-9","0","0","0","banana","fruit","2","1","","good","[6]"
"html-keyboard-response","235","767183","0.0-11.0-2.0-0.23","5190","1","25","Female","approach_avoid_spark_v1","""event"",""trial"",""time""
""fullscreenenter"",""1"",""2961""
","
","
","""event"",""trial"",""time""
""fullscreenenter"",""1"",""2961""
","
","","","","","","null","<div style=""font-size:60px;"">+</div>","null","","fixation","","","","","","","","","","",""
"aa-learning-trial","236","770187","0.0-11.0-2.0-1.23","5190","1","25","Female","approach_avoid_spark_v1","""event"",""trial"",""time""
""fullscreenenter"",""1"",""2961""
","
","
","""event"",""trial"",""time""
""fullscreenenter"",""1"",""2961""
","
