"trial_type","trial_index","time_elapsed","internal_node_id","subject_id","task_condition","age","gender","task_version","interactions","blur_events","focus_events","fullscreenenter_events","fullscreenexit_events","success","timeout","failed_images","failed_audio","failed_video","rt","stimulus","response","button_pressed","task_part","approach_reward","points","key_press","option_selected","stim_cat","task_block","block_condition","block_number","correct","cat_type","mean_cat_reward"
"pavlovia","0","2","0.0-0.0","4288","2","18","Male","approach_avoid_spark_v1","""event"",""trial"",""time""
""fullscreenenter"",""1"",""163068""
","
","
","""event"",""trial"",""time""
""fullscreenenter"",""1"",""163068""
","
","","","","","","","","","","","","","","","","","","","","",""
"fullscreen","1","164063","0.0-1.0","4288","2","18","Male","approach_avoid_spark_v1","""event"",""trial"",""time""
""fullscreenenter"",""1"",""163068""
","
","
","""event"",""trial"",""time""
""fullscreenenter"",""1"",""163068""
","
","true","","","","","","","","","","","","","","","","","","","",""
"preload","2","179219","0.0-2.0","4288","2","18","Male","approach_avoid_spark_v1","""event"",""trial"",""time""
""fullscreenenter"",""1"",""163068""
","
","
","""event"",""trial"",""time""
""fullscreenenter"",""1"",""163068""
","
","true","false","[]","[]","[]","","","","","","","","","","","","","","","",""
"audio-keyboard-response","3","208744","0.0-3.0","4288","2","18","Male","approach_avoid_spark_v1","""event"",""trial"",""time""
""fullscreenenter"",""1"",""163068""
","
","
","""event"",""trial"",""time""
""fullscreenenter"",""1"",""163068""
","
","","","","","","29525.333333333336","audio/beep_loop.wav"," ","","","","","","","","","","","","",""
"audio-button-response","4","210911","0.0-4.0","4288","2","18","Male","approach_avoid_spark_v1","""event"",""trial"",""time""
""fullscreenenter"",""1"",""163068""
","
","
","""event"",""trial"",""time""
""fullscreenenter"",""1"",""163068""
","
","","","","","","2165","audio/shark.wav","4","","","","","","","","","","","","",""
"audio-button-response","5","213490","0.0-5.0","4288","2","18","Male","approach_avoid_spark_v1","""event"",""trial"",""time""
""fullscreenenter"",""1"",""163068""
","
","
","""event"",""trial"",""time""
""fullscreenenter"",""1"",""163068""
","
","","","","","","1573","audio/turtle.wav","1","","","","","","","","","","","","",""
"preload","6","219107","0.0-6.0","4288","2","18","Male","approach_avoid_spark_v1","""event"",""trial"",""time""
""fullscreenenter"",""1"",""163068""
","
","
","""event"",""trial"",""time""
""fullscreenenter"",""1"",""163068""
","
","true","false","[]","[]","[]","","","","","","","","","","","","","","","",""
"html-keyboard-response","7","220741","0.0-7.0","4288","2","18","Male","approach_avoid_spark_v1","""event"",""trial"",""time""
""fullscreenenter"",""1"",""163068""
","
","
","""event"",""trial"",""time""
""fullscreenenter"",""1"",""163068""
","
","","","","","","1632.7000000476837","Welcome to the experiment. Press any key to begin and to advance the instructions."," ","","","","","","","","","","","","",""
"learning-instructions","8","228899","0.0-8.0-0.0-0.0","4288","2","18","Male","approach_avoid_spark_v1","""event"",""trial"",""time""
""fullscreenenter"",""1"",""163068""
","
","
","""event"",""trial"",""time""
""fullscreenenter"",""1"",""163068""
","
","","","","","","1207","<p> Welcome! Today you are going to play 6 different rounds of a decision-making game. </p><p> Use the mouse to click next to continue. </p>","","0","instructions","","","","","","","","","","",""
"learning-instructions","9","232412","0.0-8.0-0.0-0.1","4288","2","18","Male","approach_avoid_spark_v1","""event"",""trial"",""time""
""fullscreenenter"",""1"",""163068""
","
","
","""event"",""trial"",""time""
""fullscreenenter"",""1"",""163068""
","
","","","","","","788.3999999761581","<p> You will start with a practice round to learn the rules. </p>","","0","instructions","","","","","","","","","","",""
"learning-instructions","10","236319","0.0-8.0-0.0-0.2","4288","2","18","Male","approach_avoid_spark_v1","""event"",""trial"",""time""
""fullscreenenter"",""1"",""163068""
","
","
","""event"",""trial"",""time""
""fullscreenenter"",""1"",""163068""
","
","","","","","","461","<p> Your goal in this round is to give out sports equipment to kids. </p></div>","","0","instructions","","","","","","","","","","",""
"learning-instructions","11","244508","0.0-8.0-0.0-0.3","4288","2","18","Male","approach_avoid_spark_v1","""event"",""trial"",""time""
""fullscreenenter"",""1"",""163068""
","
","
","""event"",""trial"",""time""
""fullscreenenter"",""1"",""163068""
","
","","","","","","643.7000000476837","<p> The kids only like some of the equipment.  </p><p> On each turn, you will see a piece of sports equipment.   </p><p> You need to decide whether to give it to the kids or not.  </p>","","0","instructions","","","","","","","","","","",""
"learning-instructions","12","249778","0.0-8.0-0.0-0.4","4288","2","18","Male","approach_avoid_spark_v1","""event"",""trial"",""time""
""fullscreenenter"",""1"",""163068""
","
","
","""event"",""trial"",""time""
""fullscreenenter"",""1"",""163068""
","
","","","","","","520.8999999761581","<p> You can give them the equipment by pressing 1 and choose not to give it to them by pressing 0. </p><br><div class=""choice-instructions-grid""> <div class=""choice-option""><img src=""images/approach.png"" class=""choice-option-img"" stage=""instructions"" position=""0"" ><div class=""choice-option-text""> Press ""1."" </div></div><div class=""choice-option""><img src=""images/avoid.png"" class=""choice-option-img"" stage=""instructions"" position=""1"" ><div class=""choice-option-text""> Press ""0."" </div></div>","","0","instructions","","","","","","","","","","",""
"learning-instructions","13","257368","0.0-8.0-0.0-0.5","4288","2","18","Male","approach_avoid_spark_v1","""event"",""trial"",""time""
""fullscreenenter"",""1"",""163068""
","
","
","""event"",""trial"",""time""
""fullscreenenter"",""1"",""163068""
","
","","","","","","209","<p> If you give them a piece of equipment they like, they will be happy! </p><p> But if you give them a piece of equipment they do not like, they will be sad. </p>","","0","instructions","","","","","","","","","","",""
"learning-instructions","14","268236","0.0-8.0-0.0-0.6","4288","2","18","Male","approach_avoid_spark_v1","""event"",""trial"",""time""
""fullscreenenter"",""1"",""163068""
","
","
","""event"",""trial"",""time""
""fullscreenenter"",""1"",""163068""
","
","","","","","","362.5","<p> You will earn points based on how you make kids feel. </p><p> If you make them happy, you will WIN anywhere from 1 - 9 points, </p><p> but if you make them sad, you will LOSE anywhere from 1 - 9 points. </p>","","0","instructions","","","","","","","","","","",""
"learning-instructions","15","278349","0.0-8.0-0.0-0.7","4288","2","18","Male","approach_avoid_spark_v1","""event"",""trial"",""time""
""fullscreenenter"",""1"",""163068""
","
","
","""event"",""trial"",""time""
""fullscreenenter"",""1"",""163068""
","
","","","","","","560.6000000238419","<p> You will see how many points you won or lost in the center of the screen. </p><p> Here is what you would see if you won 6 points: </p><p style=""color:green;font-size:50px;font-weight:bolder"">6</p><p style=""color:green"">The text is GREEN because you WON points.</p>","","0","instructions","","","","","","","","","","",""
"learning-instructions","16","284278","0.0-8.0-0.0-0.8","4288","2","18","Male","approach_avoid_spark_v1","""event"",""trial"",""time""
""fullscreenenter"",""1"",""163068""
","
","
","""event"",""trial"",""time""
""fullscreenenter"",""1"",""163068""
","
","","","","","","424.7000000476837","<p> And here is what you would see if you lost 4 points: </p><p style=""color:red;font-size:50px;font-weight:bolder"">-4</p><p style=""color:red"">The text is RED because you LOST points. </p>","","0","instructions","","","","","","","","","","",""
"learning-instructions","17","299591","0.0-8.0-0.0-0.9","4288","2","18","Male","approach_avoid_spark_v1","""event"",""trial"",""time""
""fullscreenenter"",""1"",""163068""
","
","
","""event"",""trial"",""time""
""fullscreenenter"",""1"",""163068""
","
","","","","","","602.0999999046326","<p> Some of the equipment will make the kids VERY happy or sad. </p><p> These pieces of equipment will make you win or lose LOTS of points. </p><p> Other pieces of equipment will only make the kids a little happy or sad. </p><p> These pieces of equipment will make you win or lose small amounts of points. </p>","","0","instructions","","","","","","","","","","",""
"learning-instructions","18","310806","0.0-8.0-0.0-0.10","4288","2","18","Male","approach_avoid_spark_v1","""event"",""trial"",""time""
""fullscreenenter"",""1"",""163068""
","
","
","""event"",""trial"",""time""
""fullscreenenter"",""1"",""163068""
","
","","","","","","591.3999999761581","<p> If you choose not to give them the equipment, you will not win or lose any points. </p><p>  However, in the center of the screen, you will see the number of points you WOULD HAVE won or lost if you had given them the equipment. </p>","","0","instructions","","","","","","","","","","",""
"learning-instructions","19","342598","0.0-8.0-0.0-0.11","4288","2","18","Male","approach_avoid_spark_v1","""event"",""trial"",""time""
""fullscreenenter"",""1"",""163068""
","
","
","""event"",""trial"",""time""
""fullscreenenter"",""1"",""163068""
","
","","","","","","10265.700000047684","<p> Here is what you might see if you did not give the equipment to the kids but it would have made them happy: </p><p style=""color:grey; font-size:50px; display: inline-block; border-spacing: 15px; border-width:3px; border-style:solid; border-color:red"">  &nbsp; 7 &nbsp; </p><p> Remember, in this case, you would not win or lose ANY points because you did not give them the equipment.  </p><p style=""color:grey"">The text is GREY because you earned ZERO points. </p><p style=""color:red"">However, choosing to give the kids the equipment would have made you win points. The box around the text is RED because you chose the worse option. </p>","","0","instructions","","","","","","","","","","",""
"learning-instructions","20","364006","0.0-8.0-0.0-0.12","4288","2","18","Male","approach_avoid_spark_v1","""event"",""trial"",""time""
""fullscreenenter"",""1"",""163068""
","
","
","""event"",""trial"",""time""
""fullscreenenter"",""1"",""163068""
","
","","","","","","335.60000002384186","<p> Here is what you might see if you did not give the equipment to the kids but it would have made them sad: </p><p style=""color:grey;font-size:50px; display: inline-block; border-spacing: 15px; border-width:3px; border-style:solid; border-color:green"">  &nbsp; -8 &nbsp; </p><p> Remember, in this case, you would not win or lose ANY points because you did not give them the equipment.  </p><p style=""color:grey"">The text is GREY because you earned ZERO points. </p><p  style=""color:green""> Choosing to give the kids the equipment would have made you lose points. The box around the text is GREEN because you chose the better option.</p>","","0","instructions","","","","","","","","","","",""
"learning-instructions","21","373647","0.0-8.0-0.0-0.13","4288","2","18","Male","approach_avoid_spark_v1","""event"",""trial"",""time""
""fullscreenenter"",""1"",""163068""
","
","
","""event"",""trial"",""time""
""fullscreenenter"",""1"",""163068""
","
","","","","","","477.40000009536743","<p> You will have 3 seconds to make each choice. Try to respond before time runs out! </p><p> You will lose 5 points each time you do not make a response. </p>","","0","instructions","","","","","","","","","","",""
"learning-instructions","22","379538","0.0-8.0-0.0-0.14","4288","2","18","Male","approach_avoid_spark_v1","""event"",""trial"",""time""
""fullscreenenter"",""1"",""163068""
","
","
","""event"",""trial"",""time""
""fullscreenenter"",""1"",""163068""
","
","","","","","","486.5","<p> This is just a practice round, but in the real game, your bonus payment will depend on your total number of points.","","0","instructions","","","","","","","","","","",""
"learning-instructions","23","386051","0.0-8.0-0.0-0.15","4288","2","18","Male","approach_avoid_spark_v1","""event"",""trial"",""time""
""fullscreenenter"",""1"",""163068""
","
","
","""event"",""trial"",""time""
""fullscreenenter"",""1"",""163068""
","
","","","","","","752.5","<p> Remember, you can give them the equipment by pressing 1 and choose not to give it to them by pressing 0. </p><br><div class=""choice-instructions-grid""> <div class=""choice-option""><img src=""images/approach.png"" class=""choice-option-img"" stage=""instructions"" position=""0"" ><div class=""choice-option-text""> Press ""1."" </div></div><div class=""choice-option""><img src=""images/avoid.png"" class=""choice-option-img"" stage=""instructions"" position=""1"" ><div class=""choice-option-text""> Press ""0."" </div></div>","","0","instructions","","","","","","","","","","",""
"html-button-response","24","387469","0.0-8.0-1.0","4288","2","18","Male","approach_avoid_spark_v1","""event"",""trial"",""time""
""fullscreenenter"",""1"",""163068""
","
","
","""event"",""trial"",""time""
""fullscreenenter"",""1"",""163068""
","
","","","","","","1315.5","<p> Ready to practice? </p>","0","","","","","","","","","","","","",""
"html-keyboard-response","25","388073","0.0-8.0-2.0-0.0","4288","2","18","Male","approach_avoid_spark_v1","""event"",""trial"",""time""
""fullscreenenter"",""1"",""163068""
","
","
","""event"",""trial"",""time""
""fullscreenenter"",""1"",""163068""
","
","","","","","","null","<div style=""font-size:60px;"">+</div>","null","","fixation","","","","","","","","","","",""
"aa-learning-trial","26","391081","0.0-8.0-2.0-1.0","4288","2","18","Male","approach_avoid_spark_v1","""event"",""trial"",""time""
""fullscreenenter"",""1"",""163068""
","
","
","""event"",""trial"",""time""
""fullscreenenter"",""1"",""163068""
","
","","","","","","1048.8999999761581","images/racket4.png","","","learning","-9","-9","1","1","practice","practice","practice","-1","","",""
"html-keyboard-response","27","391588","0.0-8.0-2.0-0.1","4288","2","18","Male","approach_avoid_spark_v1","""event"",""trial"",""time""
""fullscreenenter"",""1"",""163068""
","
","
","""event"",""trial"",""time""
""fullscreenenter"",""1"",""163068""
","
","","","","","","null","<div style=""font-size:60px;"">+</div>","null","","fixation","","","","","","","","","","",""
"aa-learning-trial","28","394597","0.0-8.0-2.0-1.1","4288","2","18","Male","approach_avoid_spark_v1","""event"",""trial"",""time""
""fullscreenenter"",""1"",""163068""
","
","
","""event"",""trial"",""time""
""fullscreenenter"",""1"",""163068""
","
","","","","","","1300.5","images/racket3.png","","","learning","-5","0","0","0","practice","practice","practice","-1","","",""
"html-keyboard-response","29","395103","0.0-8.0-2.0-0.2","4288","2","18","Male","approach_avoid_spark_v1","""event"",""trial"",""time""
""fullscreenenter"",""1"",""163068""
","
","
","""event"",""trial"",""time""
""fullscreenenter"",""1"",""163068""
","
","","","","","","null","<div style=""font-size:60px;"">+</div>","null","","fixation","","","","","","","","","","",""
"aa-learning-trial","30","398111","0.0-8.0-2.0-1.2","4288","2","18","Male","approach_avoid_spark_v1","""event"",""trial"",""time""
""fullscreenenter"",""1"",""163068""
","
","
","""event"",""trial"",""time""
""fullscreenenter"",""1"",""163068""
","
","","","","","","783.2000000476837","images/racket4.png","","","learning","-4","0","0","0","practice","practice","practice","-1","","",""
"html-keyboard-response","31","398617","0.0-8.0-2.0-0.3","4288","2","18","Male","approach_avoid_spark_v1","""event"",""trial"",""time""
""fullscreenenter"",""1"",""163068""
","
","
","""event"",""trial"",""time""
""fullscreenenter"",""1"",""163068""
","
","","","","","","null","<div style=""font-size:60px;"">+</div>","null","","fixation","","","","","","","","","","",""
"aa-learning-trial","32","401626","0.0-8.0-2.0-1.3","4288","2","18","Male","approach_avoid_spark_v1","""event"",""trial"",""time""
""fullscreenenter"",""1"",""163068""
","
","
","""event"",""trial"",""time""
""fullscreenenter"",""1"",""163068""
","
","","","","","","769.3000000715256","images/racket1.png","","","learning","-8","0","0","0","practice","practice","practice","-1","","",""
"html-keyboard-response","33","402132","0.0-8.0-2.0-0.4","4288","2","18","Male","approach_avoid_spark_v1","""event"",""trial"",""time""
""fullscreenenter"",""1"",""163068""
","
","
","""event"",""trial"",""time""
""fullscreenenter"",""1"",""163068""
","
","","","","","","null","<div style=""font-size:60px;"">+</div>","null","","fixation","","","","","","","","","","",""
"aa-learning-trial","34","405140","0.0-8.0-2.0-1.4","4288","2","18","Male","approach_avoid_spark_v1","""event"",""trial"",""time""
""fullscreenenter"",""1"",""163068""
","
","
","""event"",""trial"",""time""
""fullscreenenter"",""1"",""163068""
","
","","","","","","767.1000000238419","images/racket4.png","","","learning","-4","0","0","0","practice","practice","practice","-1","","",""
"html-keyboard-response","35","405647","0.0-8.0-2.0-0.5","4288","2","18","Male","approach_avoid_spark_v1","""event"",""trial"",""time""
""fullscreenenter"",""1"",""163068""
","
","
","""event"",""trial"",""time""
""fullscreenenter"",""1"",""163068""
","
","","","","","","null","<div style=""font-size:60px;"">+</div>","null","","fixation","","","","","","","","","","",""
"aa-learning-trial","36","408655","0.0-8.0-2.0-1.5","4288","2","18","Male","approach_avoid_spark_v1","""event"",""trial"",""time""
""fullscreenenter"",""1"",""163068""
","
","
","""event"",""trial"",""time""
""fullscreenenter"",""1"",""163068""
","
","","","","","","452.90000009536743","images/racket4.png","","","learning","4","0","0","0","practice","practice","practice","-1","","",""
"html-keyboard-response","37","409161","0.0-8.0-2.0-0.6","4288","2","18","Male","approach_avoid_spark_v1","""event"",""trial"",""time""
""fullscreenenter"",""1"",""163068""
","
","
","""event"",""trial"",""time""
""fullscreenenter"",""1"",""163068""
","
","","","","","","null","<div style=""font-size:60px;"">+</div>","null","","fixation","","","","","","","","","","",""
"aa-learning-trial","38","412169","0.0-8.0-2.0-1.6","4288","2","18","Male","approach_avoid_spark_v1","""event"",""trial"",""time""
""fullscreenenter"",""1"",""163068""
","
","
","""event"",""trial"",""time""
""fullscreenenter"",""1"",""163068""
","
","","","","","","910.3000000715256","images/ball2.png","","","learning","-8","-8","1","1","practice","practice","practice","-1","","",""
"html-keyboard-response","39","412673","0.0-8.0-2.0-0.7","4288","2","18","Male","approach_avoid_spark_v1","""event"",""trial"",""time""
""fullscreenenter"",""1"",""163068""
","
","
","""event"",""trial"",""time""
""fullscreenenter"",""1"",""163068""
","
","","","","","","null","<div style=""font-size:60px;"">+</div>","null","","fixation","","","","","","","","","","",""
"aa-learning-trial","40","415679","0.0-8.0-2.0-1.7","4288","2","18","Male","approach_avoid_spark_v1","""event"",""trial"",""time""
""fullscreenenter"",""1"",""163068""
","
","
","""event"",""trial"",""time""
""fullscreenenter"",""1"",""163068""
","
","","","","","","938.3000000715256","images/racket2.png","","","learning","-5","0","0","0","practice","practice","practice","-1","","",""
"html-keyboard-response","41","416182","0.0-8.0-2.0-0.8","4288","2","18","Male","approach_avoid_spark_v1","""event"",""trial"",""time""
""fullscreenenter"",""1"",""163068""
","
","
","""event"",""trial"",""time""
""fullscreenenter"",""1"",""163068""
","
","","","","","","null","<div style=""font-size:60px;"">+</div>","null","","fixation","","","","","","","","","","",""
"aa-learning-trial","42","419191","0.0-8.0-2.0-1.8","4288","2","18","Male","approach_avoid_spark_v1","""event"",""trial"",""time""
""fullscreenenter"",""1"",""163068""
","
","
","""event"",""trial"",""time""
""fullscreenenter"",""1"",""163068""
","
","","","","","","587.1000000238419","images/ball4.png","","","learning","4","4","1","1","practice","practice","practice","-1","","",""
"html-keyboard-response","43","419695","0.0-8.0-2.0-0.9","4288","2","18","Male","approach_avoid_spark_v1","""event"",""trial"",""time""
""fullscreenenter"",""1"",""163068""
","
","
","""event"",""trial"",""time""
""fullscreenenter"",""1"",""163068""
","
","","","","","","null","<div style=""font-size:60px;"">+</div>","null","","fixation","","","","","","","","","","",""
"aa-learning-trial","44","422702","0.0-8.0-2.0-1.9","4288","2","18","Male","approach_avoid_spark_v1","""event"",""trial"",""time""
""fullscreenenter"",""1"",""163068""
","
","
","""event"",""trial"",""time""
""fullscreenenter"",""1"",""163068""
","
","","","","","","761.1000000238419","images/racket2.png","","","learning","-6","0","0","0","practice","practice","practice","-1","","",""
"html-keyboard-response","45","423210","0.0-8.0-2.0-0.10","4288","2","18","Male","approach_avoid_spark_v1","""event"",""trial"",""time""
""fullscreenenter"",""1"",""163068""
","
","
","""event"",""trial"",""time""
""fullscreenenter"",""1"",""163068""
","
","","","","","","null","<div style=""font-size:60px;"">+</div>","null","","fixation","","","","","","","","","","",""
"aa-learning-trial","46","426218","0.0-8.0-2.0-1.10","4288","2","18","Male","approach_avoid_spark_v1","""event"",""trial"",""time""
""fullscreenenter"",""1"",""163068""
","
","
","""event"",""trial"",""time""
""fullscreenenter"",""1"",""163068""
","
","","","","","","645.6999999284744","images/ball1.png","","","learning","7","7","1","1","practice","practice","practice","-1","","",""
"html-keyboard-response","47","426721","0.0-8.0-2.0-0.11","4288","2","18","Male","approach_avoid_spark_v1","""event"",""trial"",""time""
""fullscreenenter"",""1"",""163068""
","
","
","""event"",""trial"",""time""
""fullscreenenter"",""1"",""163068""
","
","","","","","","null","<div style=""font-size:60px;"">+</div>","null","","fixation","","","","","","","","","","",""
"aa-learning-trial","48","429727","0.0-8.0-2.0-1.11","4288","2","18","Male","approach_avoid_spark_v1","""event"",""trial"",""time""
""fullscreenenter"",""1"",""163068""
","
","
","""event"",""trial"",""time""
""fullscreenenter"",""1"",""163068""
","
","","","","","","947.6999999284744","images/ball4.png","","","learning","-5","-5","1","1","practice","practice","practice","-1","","",""
"html-button-response","49","431807","0.0-8.0-3.0","4288","2","18","Male","approach_avoid_spark_v1","""event"",""trial"",""time""
""fullscreenenter"",""1"",""163068""
","
","
","""event"",""trial"",""time""
""fullscreenenter"",""1"",""163068""
","
","","","","","","2076.5","<p> You earned -11 points in the practice round! </p>","0","","break","","","","","","","","","","",""
"learning-instructions","50","438963","0.0-8.0-4.0-0.0","4288","2","18","Male","approach_avoid_spark_v1","""event"",""trial"",""time""
""fullscreenenter"",""1"",""163068""
","
","
","""event"",""trial"",""time""
""fullscreenenter"",""1"",""163068""
","
","","","","","","1171.0999999046326","<p> It's almost time to start the real game. </p><p> Before you start, we're going to ask you a few questions about how the game works. </p>","","0","instructions","","","","","","","","","","",""
"preload","51","440873","0.0-8.0-5.0","4288","2","18","Male","approach_avoid_spark_v1","""event"",""trial"",""time""
""fullscreenenter"",""1"",""163068""
","
","
","""event"",""trial"",""time""
""fullscreenenter"",""1"",""163068""
","
","true","false","[]","[]","[]","","","","","","","","","","","","","","","",""
"comp-q","52","446730","0.0-8.0-6.0-0.0","4288","2","18","Male","approach_avoid_spark_v1","""event"",""trial"",""time""
""fullscreenenter"",""1"",""163068""
","
","
","""event"",""trial"",""time""
""fullscreenenter"",""1"",""163068""
","
","","","","","","858.1999999284744","<p> <b> True or False? </b> </p><p> If you see a number in GREY, that means you earned that many points. </p>","","1","comp_question","","","","","","","","","true","",""
"comp-q","53","456667","0.0-8.0-6.0-1.0","4288","2","18","Male","approach_avoid_spark_v1","""event"",""trial"",""time""
""fullscreenenter"",""1"",""163068""
","
","
","""event"",""trial"",""time""
""fullscreenenter"",""1"",""163068""
","
","","","","","","1579.0999999046326","<p><b> That's right! </b> If you see a grey number, it means you earned ZERO points. <br> The grey numbers show the points you WOULD HAVE earned if you had made the other choice. </p>","","0","comp_answer","","","","","","","","","","",""
"comp-q","54","462495","0.0-8.0-7.0-0.0","4288","2","18","Male","approach_avoid_spark_v1","""event"",""trial"",""time""
""fullscreenenter"",""1"",""163068""
","
","
","""event"",""trial"",""time""
""fullscreenenter"",""1"",""163068""
","
","","","","","","1140.7999999523163","<p> <b> True or False? </b> </p><p> You will have as much time as you want to make each choice. </p>","","1","comp_question","","","","","","","","","true","",""
"comp-q","55","467204","0.0-8.0-7.0-1.0","4288","2","18","Male","approach_avoid_spark_v1","""event"",""trial"",""time""
""fullscreenenter"",""1"",""163068""
","
","
","""event"",""trial"",""time""
""fullscreenenter"",""1"",""163068""
","
","","","","","","665.7999999523163","<p> <b> That's right! </b> You will only have 3 seconds to make each choice. </p>","","0","comp_answer","","","","","","","","","","",""
"comp-q","56","473655","0.0-8.0-8.0-0.0","4288","2","18","Male","approach_avoid_spark_v1","""event"",""trial"",""time""
""fullscreenenter"",""1"",""163068""
","
","
","""event"",""trial"",""time""
""fullscreenenter"",""1"",""163068""
","
","","","","","","1794.3000000715256","<p> <b> True or False? </b> </p><p> You should use the '1' and '0' keys to make your choices. </p>","","0","comp_question","","","","","","","","","true","",""
"comp-q","57","479346","0.0-8.0-8.0-1.0","4288","2","18","Male","approach_avoid_spark_v1","""event"",""trial"",""time""
""fullscreenenter"",""1"",""163068""
","
","
","""event"",""trial"",""time""
""fullscreenenter"",""1"",""163068""
","
","","","","","","1085.7000000476837","<p> <b> That's right! </b> You should use the '1' and '0' keys to make each choice. </p>","","0","comp_answer","","","","","","","","","","",""
"learning-instructions","58","486458","0.0-8.0-9.0-0.0","4288","2","18","Male","approach_avoid_spark_v1","""event"",""trial"",""time""
""fullscreenenter"",""1"",""163068""
","
","
","""event"",""trial"",""time""
""fullscreenenter"",""1"",""163068""
","
","","","","","","843.2999999523163","<p> It's now time to start the real game. </p>Do your best, because the points you earn in the next rounds will influence your bonus payment. </p>","","0","instructions","","","","","","","","","","",""
"preload","59","486572","0.0-9.0-0.0","4288","2","18","Male","approach_avoid_spark_v1","""event"",""trial"",""time""
""fullscreenenter"",""1"",""163068""
","
","
","""event"",""trial"",""time""
""fullscreenenter"",""1"",""163068""
","
","true","false","[]","[]","[]","","","","","","","","","","","","","","","",""
"learning-instructions","60","491267","0.0-9.0-1.0-0.0","4288","2","18","Male","approach_avoid_spark_v1","""event"",""trial"",""time""
""fullscreenenter"",""1"",""163068""
","
","
","""event"",""trial"",""time""
""fullscreenenter"",""1"",""163068""
","
","","","","","","1133.8999999761581","<p> Your goal in this round is to take care of lots of animals. </p></div>","","0","instructions","","","","","","","","","","",""
"learning-instructions","61","522900","0.0-9.0-1.0-0.1","4288","2","18","Male","approach_avoid_spark_v1","""event"",""trial"",""time""
""fullscreenenter"",""1"",""163068""
","
","
","""event"",""trial"",""time""
""fullscreenenter"",""1"",""163068""
","
","","","","","","22496.199999928474","<p> Some animals want to be pet, while other animals want to be left alone.  </p><p> On each turn, you will see an animal.   </p><p> You need to decide whether to pet it or not.  </p>","","0","instructions","","","","","","","","","","",""
"learning-instructions","62","575104","0.0-9.0-1.0-0.2","4288","2","18","Male","approach_avoid_spark_v1","""event"",""trial"",""time""
""fullscreenenter"",""1"",""163068""
","
","
","""event"",""trial"",""time""
""fullscreenenter"",""1"",""163068""
","
","","","","","","47370.800000071526","<p> You can pet the animal by pressing 1 and leave the animal alone by pressing 0. </p><br><div class=""choice-instructions-grid""> <div class=""choice-option""><img src=""images/approach.png"" class=""choice-option-img"" stage=""instructions"" position=""0"" ><div class=""choice-option-text""> Press ""1."" </div></div><div class=""choice-option""><img src=""images/avoid.png"" class=""choice-option-img"" stage=""instructions"" position=""1"" ><div class=""choice-option-text""> Press ""0."" </div></div>","","0","instructions","","","","","","","","","","",""
"learning-instructions","63","588304","0.0-9.0-1.0-0.3","4288","2","18","Male","approach_avoid_spark_v1","""event"",""trial"",""time""
""fullscreenenter"",""1"",""163068""
","
","
","""event"",""trial"",""time""
""fullscreenenter"",""1"",""163068""
","
","","","","","","4540.600000023842","<p> If you pet an animal that wants to be pet, you will make it feel happy! </p><p> But if you pet an animal that wants to be left alone, you will make it feel angry. </p>","","0","instructions","","","","","","","","","","",""
"learning-instructions","64","602544","0.0-9.0-1.0-0.4","4288","2","18","Male","approach_avoid_spark_v1","""event"",""trial"",""time""
""fullscreenenter"",""1"",""163068""
","
","
","""event"",""trial"",""time""
""fullscreenenter"",""1"",""163068""
","
","","","","","","1031.7000000476837","<p> You will earn points based on how you made the animal feel. </p><p> If you made it feel happy, you will WIN anywhere from 1 - 9 points, </p><p> but if you made it feel angry, you will LOSE anywhere from 1 - 9 points. </p>","","0","instructions","","","","","","","","","","",""
"learning-instructions","65","610349","0.0-9.0-1.0-0.5","4288","2","18","Male","approach_avoid_spark_v1","""event"",""trial"",""time""
""fullscreenenter"",""1"",""163068""
","
","
","""event"",""trial"",""time""
""fullscreenenter"",""1"",""163068""
","
","","","","","","532.5","<p> You will see how many points you won or lost in the center of the screen. </p><p> Here is what you would see if you won 5 points: </p><p style=""color:green;font-size:50px;font-weight:bolder"">5</p>","","0","instructions","","","","","","","","","","",""
"learning-instructions","66","614611","0.0-9.0-1.0-0.6","4288","2","18","Male","approach_avoid_spark_v1","""event"",""trial"",""time""
""fullscreenenter"",""1"",""163068""
","
","
","""event"",""trial"",""time""
""fullscreenenter"",""1"",""163068""
","
","","","","","","997.6000000238419","<p> And here is what you would see if you lost 3 points: </p><p style=""color:red;font-size:50px;font-weight:bolder"">-3</p>","","0","instructions","","","","","","","","","","",""
"learning-instructions","67","628315","0.0-9.0-1.0-0.7","4288","2","18","Male","approach_avoid_spark_v1","""event"",""trial"",""time""
""fullscreenenter"",""1"",""163068""
","
","
","""event"",""trial"",""time""
""fullscreenenter"",""1"",""163068""
","
","","","","","","413.8000000715256","<p> Some animals will become very happy or very angry. </p><p> These animals will make you win or lose LOTS of points. </p><p> Other animals have less strong feelings. </p><p> These animals will make you win or lose small amounts of points. </p>","","0","instructions","","","","","","","","","","",""
"learning-instructions","68","695663","0.0-9.0-1.0-0.8","4288","2","18","Male","approach_avoid_spark_v1","""event"",""trial"",""time""
""fullscreenenter"",""1"",""163068""
","
","
","""event"",""trial"",""time""
""fullscreenenter"",""1"",""163068""
","
","","","","","","55693.59999990463","<p> If you choose to leave the animal alone, you will not win or lose any points. </p><p>  However, in the center of the screen, you will see the number of points you WOULD HAVE won or lost if you had pet the animal. </p>","","0","instructions","","","","","","","","","","",""
"learning-instructions","69","708872","0.0-9.0-1.0-0.9","4288","2","18","Male","approach_avoid_spark_v1","""event"",""trial"",""time""
""fullscreenenter"",""1"",""163068""
","
","
","""event"",""trial"",""time""
""fullscreenenter"",""1"",""163068""
","
","","","","","","1975.6999999284744","<p> Here is what you might see if you did not pet the animal but the animal wanted to be pet: </p><p style=""color:grey; font-size:50px; display: inline-block; border-spacing: 15px; border-width:3px; border-style:solid; border-color:red"">  &nbsp; 6 &nbsp; </p><p> Remember, in this case, you would not win or lose ANY points because you did not pet the animal.  </p>","","0","instructions","","","","","","","","","","",""
"learning-instructions","70","717360","0.0-9.0-1.0-0.10","4288","2","18","Male","approach_avoid_spark_v1","""event"",""trial"",""time""
""fullscreenenter"",""1"",""163068""
","
","
","""event"",""trial"",""time""
""fullscreenenter"",""1"",""163068""
","
","","","","","","1652.5","<p> Try to make the best choice for each animal because </p><p> at the end of the game, you will earn bonus money based on how many points you earned. </p>","","0","instructions","","","","","","","","","","",""
"learning-instructions","71","726664","0.0-9.0-1.0-0.11","4288","2","18","Male","approach_avoid_spark_v1","""event"",""trial"",""time""
""fullscreenenter"",""1"",""163068""
","
","
","""event"",""trial"",""time""
""fullscreenenter"",""1"",""163068""
","
","","","","","","1116.1999999284744","<p> You will have 3 seconds to make each choice. Try to respond before time runs out! </p><p> You will lose 5 points each time you do not make a response. </p>","","0","instructions","","","","","","","","","","",""
"html-keyboard-response","72","727269","0.0-9.0-2.0-0.0","4288","2","18","Male","approach_avoid_spark_v1","""event"",""trial"",""time""
""fullscreenenter"",""1"",""163068""
","
","
","""event"",""trial"",""time""
""fullscreenenter"",""1"",""163068""
","
","","","","","","null","<div style=""font-size:60px;"">+</div>","null","","fixation","","","","","","","","","","",""
"aa-learning-trial","73","730278","0.0-9.0-2.0-1.0","4288","2","18","Male","approach_avoid_spark_v1","""event"",""trial"",""time""
""fullscreenenter"",""1"",""163068""
","
","
","""event"",""trial"",""time""
""fullscreenenter"",""1"",""163068""
","
","","","","","","1151.1000000238419","images/dog3.png","","","learning","4","4","1","1","dog","pets","2","0","","neutral","0"
"html-keyboard-response","74","730785","0.0-9.0-2.0-0.1","4288","2","18","Male","approach_avoid_spark_v1","""event"",""trial"",""time""
""fullscreenenter"",""1"",""163068""
","
","
","""event"",""trial"",""time""
""fullscreenenter"",""1"",""163068""
","
","","","","","","null","<div style=""font-size:60px;"">+</div>","null","","fixation","","","","","","","","","","",""
"aa-learning-trial","75","733793","0.0-9.0-2.0-1.1","4288","2","18","Male","approach_avoid_spark_v1","""event"",""trial"",""time""
""fullscreenenter"",""1"",""163068""
","
","
","""event"",""trial"",""time""
""fullscreenenter"",""1"",""163068""
","
","","","","","","626.6000000238419","images/dog1.png","","","learning","6","6","1","1","dog","pets","2","0","","neutral","0"
"html-keyboard-response","76","734299","0.0-9.0-2.0-0.2","4288","2","18","Male","approach_avoid_spark_v1","""event"",""trial"",""time""
""fullscreenenter"",""1"",""163068""
","
","
","""event"",""trial"",""time""
""fullscreenenter"",""1"",""163068""
","
","","","","","","null","<div style=""font-size:60px;"">+</div>","null","","fixation","","","","","","","","","","",""
"aa-learning-trial","77","737308","0.0-9.0-2.0-1.2","4288","2","18","Male","approach_avoid_spark_v1","""event"",""trial"",""time""
""fullscreenenter"",""1"",""163068""
","
","
","""event"",""trial"",""time""
""fullscreenenter"",""1"",""163068""
","
","","","","","","413.89999997615814","images/dog1.png","","","learning","6","6","1","1","dog","pets","2","0","","neutral","0"
"html-keyboard-response","78","737814","0.0-9.0-2.0-0.3","4288","2","18","Male","approach_avoid_spark_v1","""event"",""trial"",""time""
""fullscreenenter"",""1"",""163068""
","
","
","""event"",""trial"",""time""
""fullscreenenter"",""1"",""163068""
","
","","","","","","null","<div style=""font-size:60px;"">+</div>","null","","fixation","","","","","","","","","","",""
"aa-learning-trial","79","740822","0.0-9.0-2.0-1.3","4288","2","18","Male","approach_avoid_spark_v1","""event"",""trial"",""time""
""fullscreenenter"",""1"",""163068""
","
","
","""event"",""trial"",""time""
""fullscreenenter"",""1"",""163068""
","
","","","","","","802.5","images/rabbit2.png","","","learning","-7","0","0","0","rabbit","pets","2","0","","good","[5]"
"html-keyboard-response","80","741329","0.0-9.0-2.0-0.4","4288","2","18","Male","approach_avoid_spark_v1","""event"",""trial"",""time""
""fullscreenenter"",""1"",""163068""
","
","
","""event"",""trial"",""time""
""fullscreenenter"",""1"",""163068""
","
","","","","","","null","<div style=""font-size:60px;"">+</div>","null","","fixation","","","","","","","","","","",""
"aa-learning-trial","81","744336","0.0-9.0-2.0-1.4","4288","2","18","Male","approach_avoid_spark_v1","""event"",""trial"",""time""
""fullscreenenter"",""1"",""163068""
","
","
","""event"",""trial"",""time""
""fullscreenenter"",""1"",""163068""
","
","","","","","","507.39999997615814","images/rabbit5.png","","","learning","-2","0","0","0","rabbit","pets","2","0","","good","[5]"
"html-keyboard-response","82","744842","0.0-9.0-2.0-0.5","4288","2","18","Male","approach_avoid_spark_v1","""event"",""trial"",""time""
""fullscreenenter"",""1"",""163068""
","
","
","""event"",""trial"",""time""
""fullscreenenter"",""1"",""163068""
","
","","","","","","null","<div style=""font-size:60px;"">+</div>","null","","fixation","","","","","","","","","","",""
"aa-learning-trial","83","747845","0.0-9.0-2.0-1.5","4288","2","18","Male","approach_avoid_spark_v1","""event"",""trial"",""time""
""fullscreenenter"",""1"",""163068""
","
","
","""event"",""trial"",""time""
""fullscreenenter"",""1"",""163068""
","
","","","","","","892.6999999284744","images/cat6.png","","","learning","1","1","1","1","cat","pets","2","0","","bad","[-4]"
"html-keyboard-response","84","748349","0.0-9.0-2.0-0.6","4288","2","18","Male","approach_avoid_spark_v1","""event"",""trial"",""time""
""fullscreenenter"",""1"",""163068""
","
","
","""event"",""trial"",""time""
""fullscreenenter"",""1"",""163068""
","
","","","","","","null","<div style=""font-size:60px;"">+</div>","null","","fixation","","","","","","","","","","",""
"aa-learning-trial","85","751354","0.0-9.0-2.0-1.6","4288","2","18","Male","approach_avoid_spark_v1","""event"",""trial"",""time""
""fullscreenenter"",""1"",""163068""
","
","
","""event"",""trial"",""time""
""fullscreenenter"",""1"",""163068""
","
","","","","","","552.7999999523163","images/dog8.png","","","learning","-4","-4","1","1","dog","pets","2","0","","neutral","0"
"html-keyboard-response","86","751862","0.0-9.0-2.0-0.7","4288","2","18","Male","approach_avoid_spark_v1","""event"",""trial"",""time""
""fullscreenenter"",""1"",""163068""
","
","
","""event"",""trial"",""time""
""fullscreenenter"",""1"",""163068""
","
","","","","","","null","<div style=""font-size:60px;"">+</div>","null","","fixation","","","","","","","","","","",""
"aa-learning-trial","87","754870","0.0-9.0-2.0-1.7","4288","2","18","Male","approach_avoid_spark_v1","""event"",""trial"",""time""
""fullscreenenter"",""1"",""163068""
","
","
","""event"",""trial"",""time""
""fullscreenenter"",""1"",""163068""
","
","","","","","","688.7999999523163","images/cat5.png","","","learning","-8","-8","1","1","cat","pets","2","0","","bad","[-4]"
"html-keyboard-response","88","755373","0.0-9.0-2.0-0.8","4288","2","18","Male","approach_avoid_spark_v1","""event"",""trial"",""time""
""fullscreenenter"",""1"",""163068""
","
","
","""event"",""trial"",""time""
""fullscreenenter"",""1"",""163068""
","
","","","","","","null","<div style=""font-size:60px;"">+</div>","null","","fixation","","","","","","","","","","",""
"aa-learning-trial","89","758378","0.0-9.0-2.0-1.8","4288","2","18","Male","approach_avoid_spark_v1","""event"",""trial"",""time""
""fullscreenenter"",""1"",""163068""
","
","
","""event"",""trial"",""time""
""fullscreenenter"",""1"",""163068""
","
","","","","","","559.8000000715256","images/dog3.png","","","learning","4","4","1","1","dog","pets","2","0","","neutral","0"
"html-keyboard-response","90","758885","0.0-9.0-2.0-0.9","4288","2","18","Male","approach_avoid_spark_v1","""event"",""trial"",""time""
""fullscreenenter"",""1"",""163068""
","
","
","""event"",""trial"",""time""
""fullscreenenter"",""1"",""163068""
","
","","","","","","null","<div style=""font-size:60px;"">+</div>","null","","fixation","","","","","","","","","","",""
"aa-learning-trial","91","761894","0.0-9.0-2.0-1.9","4288","2","18","Male","approach_avoid_spark_v1","""event"",""trial"",""time""
""fullscreenenter"",""1"",""163068""
","
","
","""event"",""trial"",""time""
""fullscreenenter"",""1"",""163068""
","
","","","","","","694.1000000238419","images/rabbit5.png","","","learning","-2","0","0","0","rabbit","pets","2","0","","good","[5]"
"html-keyboard-response","92","762400","0.0-9.0-2.0-0.10","4288","2","18","Male","approach_avoid_spark_v1","""event"",""trial"",""time""
""fullscreenenter"",""1"",""163068""
","
","
","""event"",""trial"",""time""
""fullscreenenter"",""1"",""163068""
","
","","","","","","null","<div style=""font-size:60px;"">+</div>","null","","fixation","","","","","","","","","","",""
"aa-learning-trial","93","765409","0.0-9.0-2.0-1.10","4288","2","18","Male","approach_avoid_spark_v1","""event"",""trial"",""time""
""fullscreenenter"",""1"",""163068""
","
","
","""event"",""trial"",""time""
""fullscreenenter"",""1"",""163068""
","
","","","","","","896","images/cat4.png","","","learning","7","7","1","1","cat","pets","2","0","","bad","[-4]"
"html-keyboard-response","94","765912","0.0-9.0-2.0-0.11","4288","2","18","Male","approach_avoid_spark_v1","""event"",""trial"",""time""
""fullscreenenter"",""1"",""163068""
","
","
","""event"",""trial"",""time""
""fullscreenenter"",""1"",""163068""
","
","","","","","","null","<div style=""font-size:60px;"">+</div>","null","","fixation","","","","","","","","","","",""
"aa-learning-trial","95","768918","0.0-9.0-2.0-1.11","4288","2","18","Male","approach_avoid_spark_v1","""event"",""trial"",""time""
""fullscreenenter"",""1"",""163068""
","
","
","""event"",""trial"",""time""
""fullscreenenter"",""1"",""163068""
","
","","","","","","1157","images/rabbit7.png","","","learning","5","5","1","1","rabbit","pets","2","0","","good","[5]"
"html-keyboard-response","96","769424","0.0-9.0-2.0-0.12","4288","2","18","Male","approach_avoid_spark_v1","""event"",""trial"",""time""
""fullscreenenter"",""1"",""163068""
","
","
","""event"",""trial"",""time""
""fullscreenenter"",""1"",""163068""
","
","","","","","","null","<div style=""font-size:60px;"">+</div>","null","","fixation","","","","","","","","","","",""
"aa-learning-trial","97","772433","0.0-9.0-2.0-1.12","4288","2","18","Male","approach_avoid_spark_v1","""event"",""trial"",""time""
""fullscreenenter"",""1"",""163068""
","
","
","""event"",""trial"",""time""
""fullscreenenter"",""1"",""163068""
","
","","","","","","1045.7999999523163","images/cat5.png","","","learning","-8","0","0","0","cat","pets","2","0","","bad","[-4]"
"html-keyboard-response","98","772937","0.0-9.0-2.0-0.13","4288","2","18","Male","approach_avoid_spark_v1","""event"",""trial"",""time""
""fullscreenenter"",""1"",""163068""
","
","
","""event"",""trial"",""time""
""fullscreenenter"",""1"",""163068""
","
","","","","","","null","<div style=""font-size:60px;"">+</div>","null","","fixation","","","","","","","","","","",""
"aa-learning-trial","99","775940","0.0-9.0-2.0-1.13","4288","2","18","Male","approach_avoid_spark_v1","""event"",""trial"",""time""
""fullscreenenter"",""1"",""163068""
","
","
","""event"",""trial"",""time""
""fullscreenenter"",""1"",""163068""
","
","","","","","","1782.2999999523163","images/rabbit2.png","","","learning","-7","-7","1","1","rabbit","pets","2","0","","good","[5]"
"html-keyboard-response","100","776447","0.0-9.0-2.0-0.14","4288","2","18","Male","approach_avoid_spark_v1","""event"",""trial"",""time""
""fullscreenenter"",""1"",""163068""
","
","
","""event"",""trial"",""time""
""fullscreenenter"",""1"",""163068""
","
","","","","","","null","<div style=""font-size:60px;"">+</div>","null","","fixation","","","","","","","","","","",""
"aa-learning-trial","101","779454","0.0-9.0-2.0-1.14","4288","2","18","Male","approach_avoid_spark_v1","""event"",""trial"",""time""
""fullscreenenter"",""1"",""163068""
","
","
","""event"",""trial"",""time""
""fullscreenenter"",""1"",""163068""
","
","","","","","","794.8999999761581","images/cat6.png","","","learning","1","1","1","1","cat","pets","2","0","","bad","[-4]"
"html-keyboard-response","102","779958","0.0-9.0-2.0-0.15","4288","2","18","Male","approach_avoid_spark_v1","""event"",""trial"",""time""
""fullscreenenter"",""1"",""163068""
","
","
","""event"",""trial"",""time""
""fullscreenenter"",""1"",""163068""
","
","","","","","","null","<div style=""font-size:60px;"">+</div>","null","","fixation","","","","","","","","","","",""
"aa-learning-trial","103","782962","0.0-9.0-2.0-1.15","4288","2","18","Male","approach_avoid_spark_v1","""event"",""trial"",""time""
""fullscreenenter"",""1"",""163068""
","
","
","""event"",""trial"",""time""
""fullscreenenter"",""1"",""163068""
","
","","","","","","647.8999999761581","images/rabbit2.png","","","learning","-7","0","0","0","rabbit","pets","2","0","","good","[5]"
"html-keyboard-response","104","783466","0.0-9.0-2.0-0.16","4288","2","18","Male","approach_avoid_spark_v1","""event"",""trial"",""time""
""fullscreenenter"",""1"",""163068""
","
","
","""event"",""trial"",""time""
""fullscreenenter"",""1"",""163068""
","
","","","","","","null","<div style=""font-size:60px;"">+</div>","null","","fixation","","","","","","","","","","",""
"aa-learning-trial","105","786475","0.0-9.0-2.0-1.16","4288","2","18","Male","approach_avoid_spark_v1","""event"",""trial"",""time""
""fullscreenenter"",""1"",""163068""
","
","
","""event"",""trial"",""time""
""fullscreenenter"",""1"",""163068""
","
","","","","","","1093.6999999284744","images/rabbit5.png","","","learning","-2","0","0","0","rabbit","pets","2","0","","good","[5]"
"html-keyboard-response","106","786979","0.0-9.0-2.0-0.17","4288","2","18","Male","approach_avoid_spark_v1","""event"",""trial"",""time""
""fullscreenenter"",""1"",""163068""
","
","
","""event"",""trial"",""time""
""fullscreenenter"",""1"",""163068""
","
","","","","","","null","<div style=""font-size:60px;"">+</div>","null","","fixation","","","","","","","","","","",""
"aa-learning-trial","107","789985","0.0-9.0-2.0-1.17","4288","2","18","Male","approach_avoid_spark_v1","""event"",""trial"",""time""
""fullscreenenter"",""1"",""163068""
","
","
","""event"",""trial"",""time""
""fullscreenenter"",""1"",""163068""
","
","","","","","","535.2000000476837","images/dog8.png","","","learning","-4","-4","1","1","dog","pets","2","0","","neutral","0"
"html-keyboard-response","108","790491","0.0-9.0-2.0-0.18","4288","2","18","Male","approach_avoid_spark_v1","""event"",""trial"",""time""
""fullscreenenter"",""1"",""163068""
","
","
","""event"",""trial"",""time""
""fullscreenenter"",""1"",""163068""
","
","","","","","","null","<div style=""font-size:60px;"">+</div>","null","","fixation","","","","","","","","","","",""
"aa-learning-trial","109","793499","0.0-9.0-2.0-1.18","4288","2","18","Male","approach_avoid_spark_v1","""event"",""trial"",""time""
""fullscreenenter"",""1"",""163068""
","
","
","""event"",""trial"",""time""
""fullscreenenter"",""1"",""163068""
","
","","","","","","594.7000000476837","images/dog1.png","","","learning","6","6","1","1","dog","pets","2","0","","neutral","0"
"html-keyboard-response","110","794003","0.0-9.0-2.0-0.19","4288","2","18","Male","approach_avoid_spark_v1","""event"",""trial"",""time""
""fullscreenenter"",""1"",""163068""
","
","
","""event"",""trial"",""time""
""fullscreenenter"",""1"",""163068""
","
","","","","","","null","<div style=""font-size:60px;"">+</div>","null","","fixation","","","","","","","","","","",""
"aa-learning-trial","111","797008","0.0-9.0-2.0-1.19","4288","2","18","Male","approach_avoid_spark_v1","""event"",""trial"",""time""
""fullscreenenter"",""1"",""163068""
","
","
","""event"",""trial"",""time""
""fullscreenenter"",""1"",""163068""
","
","","","","","","740.8000000715256","images/cat6.png","","","learning","1","0","0","0","cat","pets","2","0","","bad","[-4]"
"html-keyboard-response","112","797514","0.0-9.0-2.0-0.20","4288","2","18","Male","approach_avoid_spark_v1","""event"",""trial"",""time""
""fullscreenenter"",""1"",""163068""
","
","
","""event"",""trial"",""time""
""fullscreenenter"",""1"",""163068""
","
","","","","","","null","<div style=""font-size:60px;"">+</div>","null","","fixation","","","","","","","","","","",""
"aa-learning-trial","113","800522","0.0-9.0-2.0-1.20","4288","2","18","Male","approach_avoid_spark_v1","""event"",""trial"",""time""
""fullscreenenter"",""1"",""163068""
","
","
","""event"",""trial"",""time""
""fullscreenenter"",""1"",""163068""
","
","","","","","","841.6999999284744","images/rabbit4.png","","","learning","-5","-5","1","1","rabbit","pets","2","0","","good","[5]"
"html-keyboard-response","114","801023","0.0-9.0-2.0-0.21","4288","2","18","Male","approach_avoid_spark_v1","""event"",""trial"",""time""
""fullscreenenter"",""1"",""163068""
","
","
","""event"",""trial"",""time""
""fullscreenenter"",""1"",""163068""
","
","","","","","","null","<div style=""font-size:60px;"">+</div>","null","","fixation","","","","","","","","","","",""
"aa-learning-trial","115","804032","0.0-9.0-2.0-1.21","4288","2","18","Male","approach_avoid_spark_v1","""event"",""trial"",""time""
""fullscreenenter"",""1"",""163068""
","
","
","""event"",""trial"",""time""
""fullscreenenter"",""1"",""163068""
","
","","","","","","423.7000000476837","images/dog1.png","","","learning","6","6","1","1","dog","pets","2","0","","neutral","0"
"html-keyboard-response","116","804538","0.0-9.0-2.0-0.22","4288","2","18","Male","approach_avoid_spark_v1","""event"",""trial"",""time""
""fullscreenenter"",""1"",""163068""
","
","
","""event"",""trial"",""time""
""fullscreenenter"",""1"",""163068""
","
","","","","","","null","<div style=""font-size:60px;"">+</div>","null","","fixation","","","","","","","","","","",""
"aa-learning-trial","117","807546","0.0-9.0-2.0-1.22","4288","2","18","Male","approach_avoid_spark_v1","""event"",""trial"",""time""
""fullscreenenter"",""1"",""163068""
","
","
","""event"",""trial"",""time""
""fullscreenenter"",""1"",""163068""
","
","","","","","","672.2999999523163","images/dog3.png","","","learning","4","4","1","1","dog","pets","2","0","","neutral","0"
"html-keyboard-response","118","808049","0.0-9.0-2.0-0.23","4288","2","18","Male","approach_avoid_spark_v1","""event"",""trial"",""time""
""fullscreenenter"",""1"",""163068""
","
","
","""event"",""trial"",""time""
""fullscreenenter"",""1"",""163068""
","
","","","","","","null","<div style=""font-size:60px;"">+</div>","null","","fixation","","","","","","","","","","",""
"aa-learning-trial","119","811056","0.0-9.0-2.0-1.23","4288","2","18","Male","approach_avoid_spark_v1","""event"",""trial"",""time""
""fullscreenenter"",""1"",""163068""
","
","
","""event"",""trial"",""time""
""fullscreenenter"",""1"",""163068""
","
","","","","","","732.7999999523163","images/cat5.png","","","learning","-8","0","0","0","cat","pets","2","0","","bad","[-4]"
"html-keyboard-response","120","811562","0.0-9.0-2.0-0.24","4288","2","18","Male","approach_avoid_spark_v1","""event"",""trial"",""time""
""fullscreenenter"",""1"",""163068""
","
","
","""event"",""trial"",""time""
""fullscreenenter"",""1"",""163068""
","
","","","","","","null","<div style=""font-size:60px;"">+</div>","null","","fixation","","","","","","","","","","",""
"aa-learning-trial","121","814570","0.0-9.0-2.0-1.24","4288","2","18","Male","approach_avoid_spark_v1","""event"",""trial"",""time""
""fullscreenenter"",""1"",""163068""
","
","
","""event"",""trial"",""time""
""fullscreenenter"",""1"",""163068""
","
","","","","","","884.8999999761581","images/rabbit2.png","","","learning","-7","-7","1","1","rabbit","pets","2","0","","good","[5]"
"html-keyboard-response","122","815072","0.0-9.0-2.0-0.25","4288","2","18","Male","approach_avoid_spark_v1","""event"",""trial"",""time""
""fullscreenenter"",""1"",""163068""
","
","
","""event"",""trial"",""time""
""fullscreenenter"",""1"",""163068""
","
","","","","","","null","<div style=""font-size:60px;"">+</div>","null","","fixation","","","","","","","","","","",""
"aa-learning-trial","123","818079","0.0-9.0-2.0-1.25","4288","2","18","Male","approach_avoid_spark_v1","""event"",""trial"",""time""
""fullscreenenter"",""1"",""163068""
","
","
","""event"",""trial"",""time""
""fullscreenenter"",""1"",""163068""
","
","","","","","","583.6000000238419","images/dog6.png","","","learning","-9","-9","1","1","dog","pets","2","0","","neutral","0"
"html-keyboard-response","124","818585","0.0-9.0-2.0-0.26","4288","2","18","Male","approach_avoid_spark_v1","""event"",""trial"",""time""
""fullscreenenter"",""1"",""163068""
","
","
","""event"",""trial"",""time""
""fullscreenenter"",""1"",""163068""
","
","","","","","","null","<div style=""font-size:60px;"">+</div>","null","","fixation","","","","","","","","","","",""
"aa-learning-trial","125","821594","0.0-9.0-2.0-1.26","4288","2","18","Male","approach_avoid_spark_v1","""event"",""trial"",""time""
""fullscreenenter"",""1"",""163068""
","
","
","""event"",""trial"",""time""
""fullscreenenter"",""1"",""163068""
","
","","","","","","784.2999999523163","images/rabbit5.png","","","learning","-2","0","0","0","rabbit","pets","2","0","","good","[5]"
"html-keyboard-response","126","822101","0.0-9.0-2.0-0.27","4288","2","18","Male","approach_avoid_spark_v1","""event"",""trial"",""time""
""fullscreenenter"",""1"",""163068""
","
","
","""event"",""trial"",""time""
""fullscreenenter"",""1"",""163068""
","
","","","","","","null","<div style=""font-size:60px;"">+</div>","null","","fixation","","","","","","","","","","",""
"aa-learning-trial","127","825109","0.0-9.0-2.0-1.27","4288","2","18","Male","approach_avoid_spark_v1","""event"",""trial"",""time""
""fullscreenenter"",""1"",""163068""
","
","
","""event"",""trial"",""time""
""fullscreenenter"",""1"",""163068""
","
","","","","","","450.09999990463257","images/dog1.png","","","learning","6","6","1","1","dog","pets","2","0","","neutral","0"
"html-keyboard-response","128","825612","0.0-9.0-2.0-0.28","4288","2","18","Male","approach_avoid_spark_v1","""event"",""trial"",""time""
""fullscreenenter"",""1"",""163068""
","
","
","""event"",""trial"",""time""
""fullscreenenter"",""1"",""163068""
","
","","","","","","null","<div style=""font-size:60px;"">+</div>","null","","fixation","","","","","","","","","","",""
"aa-learning-trial","129","828617","0.0-9.0-2.0-1.28","4288","2","18","Male","approach_avoid_spark_v1","""event"",""trial"",""time""
""fullscreenenter"",""1"",""163068""
","
","
","""event"",""trial"",""time""
""fullscreenenter"",""1"",""163068""
","
","","","","","","762.6999999284744","images/cat6.png","","","learning","1","0","0","0","cat","pets","2","0","","bad","[-4]"
"html-keyboard-response","130","829124","0.0-9.0-2.0-0.29","4288","2","18","Male","approach_avoid_spark_v1","""event"",""trial"",""time""
""fullscreenenter"",""1"",""163068""
","
","
","""event"",""trial"",""time""
""fullscreenenter"",""1"",""163068""
","
","","","","","","null","<div style=""font-size:60px;"">+</div>","null","","fixation","","","","","","","","","","",""
"aa-learning-trial","131","832133","0.0-9.0-2.0-1.29","4288","2","18","Male","approach_avoid_spark_v1","""event"",""trial"",""time""
""fullscreenenter"",""1"",""163068""
","
","
","""event"",""trial"",""time""
""fullscreenenter"",""1"",""163068""
","
","","","","","","644.3000000715256","images/dog3.png","","","learning","4","4","1","1","dog","pets","2","0","","neutral","0"
"html-keyboard-response","132","832635","0.0-9.0-2.0-0.30","4288","2","18","Male","approach_avoid_spark_v1","""event"",""trial"",""time""
""fullscreenenter"",""1"",""163068""
","
","
","""event"",""trial"",""time""
""fullscreenenter"",""1"",""163068""
","
","","","","","","null","<div style=""font-size:60px;"">+</div>","null","","fixation","","","","","","","","","","",""
"aa-learning-trial","133","835642","0.0-9.0-2.0-1.30","4288","2","18","Male","approach_avoid_spark_v1","""event"",""trial"",""time""
""fullscreenenter"",""1"",""163068""
","
","
","""event"",""trial"",""time""
""fullscreenenter"",""1"",""163068""
","
","","","","","","603.8999999761581","images/cat5.png","","","learning","-8","0","0","0","cat","pets","2","0","","bad","[-4]"
"html-keyboard-response","134","836148","0.0-9.0-2.0-0.31","4288","2","18","Male","approach_avoid_spark_v1","""event"",""trial"",""time""
""fullscreenenter"",""1"",""163068""
","
","
","""event"",""trial"",""time""
""fullscreenenter"",""1"",""163068""
","
","","","","","","null","<div style=""font-size:60px;"">+</div>","null","","fixation","","","","","","","","","","",""
"aa-learning-trial","135","839156","0.0-9.0-2.0-1.31","4288","2","18","Male","approach_avoid_spark_v1","""event"",""trial"",""time""
""fullscreenenter"",""1"",""163068""
","
","
","""event"",""trial"",""time""
""fullscreenenter"",""1"",""163068""
","
","","","","","","473","images/cat5.png","","","learning","-8","0","0","0","cat","pets","2","0","","bad","[-4]"
"html-keyboard-response","136","839663","0.0-9.0-2.0-0.32","4288","2","18","Male","approach_avoid_spark_v1","""event"",""trial"",""time""
""fullscreenenter"",""1"",""163068""
","
","
","""event"",""trial"",""time""
""fullscreenenter"",""1"",""163068""
","
","","","","","","null","<div style=""font-size:60px;"">+</div>","null","","fixation","","","","","","","","","","",""
"aa-learning-trial","137","842672","0.0-9.0-2.0-1.32","4288","2","18","Male","approach_avoid_spark_v1","""event"",""trial"",""time""
""fullscreenenter"",""1"",""163068""
","
","
","""event"",""trial"",""time""
""fullscreenenter"",""1"",""163068""
","
","","","","","","689.6000000238419","images/rabbit7.png","","","learning","5","5","1","1","rabbit","pets","2","0","","good","[5]"
"html-keyboard-response","138","843174","0.0-9.0-2.0-0.33","4288","2","18","Male","approach_avoid_spark_v1","""event"",""trial"",""time""
""fullscreenenter"",""1"",""163068""
","
","
","""event"",""trial"",""time""
""fullscreenenter"",""1"",""163068""
","
","","","","","","null","<div style=""font-size:60px;"">+</div>","null","","fixation","","","","","","","","","","",""
"aa-learning-trial","139","846178","0.0-9.0-2.0-1.33","4288","2","18","Male","approach_avoid_spark_v1","""event"",""trial"",""time""
""fullscreenenter"",""1"",""163068""
","
","
","""event"",""trial"",""time""
""fullscreenenter"",""1"",""163068""
","
","","","","","","860.5","images/cat4.png","","","learning","7","7","1","1","cat","pets","2","0","","bad","[-4]"
"html-keyboard-response","140","846682","0.0-9.0-2.0-0.34","4288","2","18","Male","approach_avoid_spark_v1","""event"",""trial"",""time""
""fullscreenenter"",""1"",""163068""
","
","
","""event"",""trial"",""time""
""fullscreenenter"",""1"",""163068""
","
","","","","","","null","<div style=""font-size:60px;"">+</div>","null","","fixation","","","","","","","","","","",""
"aa-learning-trial","141","849691","0.0-9.0-2.0-1.34","4288","2","18","Male","approach_avoid_spark_v1","""event"",""trial"",""time""
""fullscreenenter"",""1"",""163068""
","
","
","""event"",""trial"",""time""
""fullscreenenter"",""1"",""163068""
","
","","","","","","921.6000000238419","images/rabbit5.png","","","learning","-2","-2","1","1","rabbit","pets","2","0","","good","[5]"
"html-keyboard-response","142","850195","0.0-9.0-2.0-0.35","4288","2","18","Male","approach_avoid_spark_v1","""event"",""trial"",""time""
""fullscreenenter"",""1"",""163068""
","
","
","""event"",""trial"",""time""
""fullscreenenter"",""1"",""163068""
","
","","","","","","null","<div style=""font-size:60px;"">+</div>","null","","fixation","","","","","","","","","","",""
"aa-learning-trial","143","853200","0.0-9.0-2.0-1.35","4288","2","18","Male","approach_avoid_spark_v1","""event"",""trial"",""time""
""fullscreenenter"",""1"",""163068""
","
","
","""event"",""trial"",""time""
""fullscreenenter"",""1"",""163068""
","
","","","","","","623.9000000953674","images/rabbit2.png","","","learning","-7","-7","1","1","rabbit","pets","2","0","","good","[5]"
"html-keyboard-response","144","853707","0.0-9.0-2.0-0.36","4288","2","18","Male","approach_avoid_spark_v1","""event"",""trial"",""time""
""fullscreenenter"",""1"",""163068""
","
","
","""event"",""trial"",""time""
""fullscreenenter"",""1"",""163068""
","
","","","","","","null","<div style=""font-size:60px;"">+</div>","null","","fixation","","","","","","","","","","",""
"aa-learning-trial","145","856714","0.0-9.0-2.0-1.36","4288","2","18","Male","approach_avoid_spark_v1","""event"",""trial"",""time""
""fullscreenenter"",""1"",""163068""
","
","
","""event"",""trial"",""time""
""fullscreenenter"",""1"",""163068""
","
","","","","","","596.5999999046326","images/dog4.png","","","learning","2","2","1","1","dog","pets","2","0","","neutral","0"
"html-keyboard-response","146","857217","0.0-9.0-2.0-0.37","4288","2","18","Male","approach_avoid_spark_v1","""event"",""trial"",""time""
""fullscreenenter"",""1"",""163068""
","
","
","""event"",""trial"",""time""
""fullscreenenter"",""1"",""163068""
","
","","","","","","null","<div style=""font-size:60px;"">+</div>","null","","fixation","","","","","","","","","","",""
"aa-learning-trial","147","860224","0.0-9.0-2.0-1.37","4288","2","18","Male","approach_avoid_spark_v1","""event"",""trial"",""time""
""fullscreenenter"",""1"",""163068""
","
","
","""event"",""trial"",""time""
""fullscreenenter"",""1"",""163068""
","
","","","","","","552.7999999523163","images/cat5.png","","","learning","-8","0","0","0","cat","pets","2","0","","bad","[-4]"
"html-keyboard-response","148","860730","0.0-9.0-2.0-0.38","4288","2","18","Male","approach_avoid_spark_v1","""event"",""trial"",""time""
""fullscreenenter"",""1"",""163068""
","
","
","""event"",""trial"",""time""
""fullscreenenter"",""1"",""163068""
","
","","","","","","null","<div style=""font-size:60px;"">+</div>","null","","fixation","","","","","","","","","","",""
"aa-learning-trial","149","863739","0.0-9.0-2.0-1.38","4288","2","18","Male","approach_avoid_spark_v1","""event"",""trial"",""time""
""fullscreenenter"",""1"",""163068""
","
","
","""event"",""trial"",""time""
""fullscreenenter"",""1"",""163068""
","
","","","","","","753.7000000476837","images/rabbit2.png","","","learning","-7","-7","1","1","rabbit","pets","2","0","","good","[5]"
"html-keyboard-response","150","864242","0.0-9.0-2.0-0.39","4288","2","18","Male","approach_avoid_spark_v1","""event"",""trial"",""time""
""fullscreenenter"",""1"",""163068""
","
","
","""event"",""trial"",""time""
""fullscreenenter"",""1"",""163068""
","
","","","","","","null","<div style=""font-size:60px;"">+</div>","null","","fixation","","","","","","","","","","",""
"aa-learning-trial","151","867246","0.0-9.0-2.0-1.39","4288","2","18","Male","approach_avoid_spark_v1","""event"",""trial"",""time""
""fullscreenenter"",""1"",""163068""
","
","
","""event"",""trial"",""time""
""fullscreenenter"",""1"",""163068""
","
","","","","","","593.3999999761581","images/cat6.png","","","learning","1","1","1","1","cat","pets","2","0","","bad","[-4]"
"html-keyboard-response","152","867754","0.0-9.0-2.0-0.40","4288","2","18","Male","approach_avoid_spark_v1","""event"",""trial"",""time""
""fullscreenenter"",""1"",""163068""
","
","
","""event"",""trial"",""time""
""fullscreenenter"",""1"",""163068""
","
","","","","","","null","<div style=""font-size:60px;"">+</div>","null","","fixation","","","","","","","","","","",""
"aa-learning-trial","153","870761","0.0-9.0-2.0-1.40","4288","2","18","Male","approach_avoid_spark_v1","""event"",""trial"",""time""
""fullscreenenter"",""1"",""163068""
","
","
","""event"",""trial"",""time""
""fullscreenenter"",""1"",""163068""
","
","","","","","","597.2000000476837","images/dog8.png","","","learning","-4","-4","1","1","dog","pets","2","0","","neutral","0"
"html-keyboard-response","154","871263","0.0-9.0-2.0-0.41","4288","2","18","Male","approach_avoid_spark_v1","""event"",""trial"",""time""
""fullscreenenter"",""1"",""163068""
","
","
","""event"",""trial"",""time""
""fullscreenenter"",""1"",""163068""
","
","","","","","","null","<div style=""font-size:60px;"">+</div>","null","","fixation","","","","","","","","","","",""
"aa-learning-trial","155","874267","0.0-9.0-2.0-1.41","4288","2","18","Male","approach_avoid_spark_v1","""event"",""trial"",""time""
""fullscreenenter"",""1"",""163068""
","
","
","""event"",""trial"",""time""
""fullscreenenter"",""1"",""163068""
","
","","","","","","723.1000000238419","images/rabbit7.png","","","learning","5","5","1","1","rabbit","pets","2","0","","good","[5]"
"html-keyboard-response","156","874772","0.0-9.0-2.0-0.42","4288","2","18","Male","approach_avoid_spark_v1","""event"",""trial"",""time""
""fullscreenenter"",""1"",""163068""
","
","
","""event"",""trial"",""time""
""fullscreenenter"",""1"",""163068""
","
","","","","","","null","<div style=""font-size:60px;"">+</div>","null","","fixation","","","","","","","","","","",""
"aa-learning-trial","157","877776","0.0-9.0-2.0-1.42","4288","2","18","Male","approach_avoid_spark_v1","""event"",""trial"",""time""
""fullscreenenter"",""1"",""163068""
","
","
","""event"",""trial"",""time""
""fullscreenenter"",""1"",""163068""
","
","","","","","","1223.1000000238419","images/rabbit5.png","","","learning","-2","0","0","0","rabbit","pets","2","0","","good","[5]"
"html-keyboard-response","158","878278","0.0-9.0-2.0-0.43","4288","2","18","Male","approach_avoid_spark_v1","""event"",""trial"",""time""
""fullscreenenter"",""1"",""163068""
","
","
","""event"",""trial"",""time""
""fullscreenenter"",""1"",""163068""
","
","","","","","","null","<div style=""font-size:60px;"">+</div>","null","","fixation","","","","","","","","","","",""
"aa-learning-trial","159","881282","0.0-9.0-2.0-1.43","4288","2","18","Male","approach_avoid_spark_v1","""event"",""trial"",""time""
""fullscreenenter"",""1"",""163068""
","
","
","""event"",""trial"",""time""
""fullscreenenter"",""1"",""163068""
","
","","","","","","621.8999999761581","images/dog1.png","","","learning","6","6","1","1","dog","pets","2","0","","neutral","0"
"html-keyboard-response","160","881785","0.0-9.0-2.0-0.44","4288","2","18","Male","approach_avoid_spark_v1","""event"",""trial"",""time""
""fullscreenenter"",""1"",""163068""
","
","
","""event"",""trial"",""time""
""fullscreenenter"",""1"",""163068""
","
","","","","","","null","<div style=""font-size:60px;"">+</div>","null","","fixation","","","","","","","","","","",""
"aa-learning-trial","161","884795","0.0-9.0-2.0-1.44","4288","2","18","Male","approach_avoid_spark_v1","""event"",""trial"",""time""
""fullscreenenter"",""1"",""163068""
","
","
","""event"",""trial"",""time""
""fullscreenenter"",""1"",""163068""
","
","","","","","","619.1000000238419","images/cat8.png","","","learning","-3","-3","1","1","cat","pets","2","0","","bad","[-4]"
"html-keyboard-response","162","885298","0.0-9.0-2.0-0.45","4288","2","18","Male","approach_avoid_spark_v1","""event"",""trial"",""time""
""fullscreenenter"",""1"",""163068""
","
","
","""event"",""trial"",""time""
""fullscreenenter"",""1"",""163068""
","
","","","","","","null","<div style=""font-size:60px;"">+</div>","null","","fixation","","","","","","","","","","",""
"aa-learning-trial","163","888303","0.0-9.0-2.0-1.45","4288","2","18","Male","approach_avoid_spark_v1","""event"",""trial"",""time""
""fullscreenenter"",""1"",""163068""
","
","
","""event"",""trial"",""time""
""fullscreenenter"",""1"",""163068""
","
","","","","","","611.3000000715256","images/cat1.png","","","learning","3","3","1","1","cat","pets","2","0","","bad","[-4]"
"html-keyboard-response","164","888809","0.0-9.0-2.0-0.46","4288","2","18","Male","approach_avoid_spark_v1","""event"",""trial"",""time""
""fullscreenenter"",""1"",""163068""
","
","
","""event"",""trial"",""time""
""fullscreenenter"",""1"",""163068""
","
","","","","","","null","<div style=""font-size:60px;"">+</div>","null","","fixation","","","","","","","","","","",""
"aa-learning-trial","165","891811","0.0-9.0-2.0-1.46","4288","2","18","Male","approach_avoid_spark_v1","""event"",""trial"",""time""
""fullscreenenter"",""1"",""163068""
","
","
","""event"",""trial"",""time""
""fullscreenenter"",""1"",""163068""
","
","","","","","","530.7999999523163","images/dog3.png","","","learning","4","4","1","1","dog","pets","2","0","","neutral","0"
"html-keyboard-response","166","892313","0.0-9.0-2.0-0.47","4288","2","18","Male","approach_avoid_spark_v1","""event"",""trial"",""time""
""fullscreenenter"",""1"",""163068""
","
","
","""event"",""trial"",""time""
""fullscreenenter"",""1"",""163068""
","
","","","","","","null","<div style=""font-size:60px;"">+</div>","null","","fixation","","","","","","","","","","",""
"aa-learning-trial","167","895321","0.0-9.0-2.0-1.47","4288","2","18","Male","approach_avoid_spark_v1","""event"",""trial"",""time""
""fullscreenenter"",""1"",""163068""
","
","
","""event"",""trial"",""time""
""fullscreenenter"",""1"",""163068""
","
","","","","","","900","images/rabbit3.png","","","learning","8","8","1","1","rabbit","pets","2","0","","good","[5]"
"html-keyboard-response","168","895828","0.0-9.0-2.0-0.48","4288","2","18","Male","approach_avoid_spark_v1","""event"",""trial"",""time""
""fullscreenenter"",""1"",""163068""
","
","
","""event"",""trial"",""time""
""fullscreenenter"",""1"",""163068""
","
","","","","","","null","<div style=""font-size:60px;"">+</div>","null","","fixation","","","","","","","","","","",""
"aa-learning-trial","169","898835","0.0-9.0-2.0-1.48","4288","2","18","Male","approach_avoid_spark_v1","""event"",""trial"",""time""
""fullscreenenter"",""1"",""163068""
","
","
","""event"",""trial"",""time""
""fullscreenenter"",""1"",""163068""
","
","","","","","","620.8999999761581","images/cat4.png","","","learning","7","7","1","1","cat","pets","2","0","","bad","[-4]"
"html-keyboard-response","170","899337","0.0-9.0-2.0-0.49","4288","2","18","Male","approach_avoid_spark_v1","""event"",""trial"",""time""
""fullscreenenter"",""1"",""163068""
","
","
","""event"",""trial"",""time""
""fullscreenenter"",""1"",""163068""
","
","","","","","","null","<div style=""font-size:60px;"">+</div>","null","","fixation","","","","","","","","","","",""
"aa-learning-trial","171","902341","0.0-9.0-2.0-1.49","4288","2","18","Male","approach_avoid_spark_v1","""event"",""trial"",""time""
""fullscreenenter"",""1"",""163068""
","
","
","""event"",""trial"",""time""
""fullscreenenter"",""1"",""163068""
","
","","","","","","689.3999999761581","images/cat6.png","","","learning","1","1","1","1","cat","pets","2","0","","bad","[-4]"
"html-keyboard-response","172","902847","0.0-9.0-2.0-0.50","4288","2","18","Male","approach_avoid_spark_v1","""event"",""trial"",""time""
""fullscreenenter"",""1"",""163068""
","
","
","""event"",""trial"",""time""
""fullscreenenter"",""1"",""163068""
","
","","","","","","null","<div style=""font-size:60px;"">+</div>","null","","fixation","","","","","","","","","","",""
"aa-learning-trial","173","905854","0.0-9.0-2.0-1.50","4288","2","18","Male","approach_avoid_spark_v1","""event"",""trial"",""time""
""fullscreenenter"",""1"",""163068""
","
","
","""event"",""trial"",""time""
""fullscreenenter"",""1"",""163068""
","
","","","","","","621.8000000715256","images/dog3.png","","","learning","4","4","1","1","dog","pets","2","0","","neutral","0"
"html-button-response","174","907592","0.0-9.0-3.0","4288","2","18","Male","approach_avoid_spark_v1","""event"",""trial"",""time""
""fullscreenenter"",""1"",""163068""
","
","
","""event"",""trial"",""time""
""fullscreenenter"",""1"",""163068""
","
","","","","","","1734.7000000476837","<p> You have completed the round! <p> In this round, you earned 46 points! </p>","0","","break","","","","","","","","","","",""
"html-button-response","175","908665","0.0-10.0","4288","2","18","Male","approach_avoid_spark_v1","""event"",""trial"",""time""
""fullscreenenter"",""1"",""163068""
","
","
","""event"",""trial"",""time""
""fullscreenenter"",""1"",""163068""
","
","","","","","","1072.5","<p> Now it's time to play another round. </p>","0","","transition_screen","","","","","","","","","","",""
"preload","176","908779","0.0-11.0-0.0","4288","2","18","Male","approach_avoid_spark_v1","""event"",""trial"",""time""
""fullscreenenter"",""1"",""163068""
","
","
","""event"",""trial"",""time""
""fullscreenenter"",""1"",""163068""
","
","true","false","[]","[]","[]","","","","","","","","","","","","","","","",""
"learning-instructions","177","915178","0.0-11.0-1.0-0.0","4288","2","18","Male","approach_avoid_spark_v1","""event"",""trial"",""time""
""fullscreenenter"",""1"",""163068""
","
","
","""event"",""trial"",""time""
""fullscreenenter"",""1"",""163068""
","
","","","","","","1096.8999999761581","<p> Your goal in this round is to sell different plants to a picky customer. </p></div>","","0","instructions","","","","","","","","","","",""
"learning-instructions","178","924701","0.0-11.0-1.0-0.1","4288","2","18","Male","approach_avoid_spark_v1","""event"",""trial"",""time""
""fullscreenenter"",""1"",""163068""
","
","
","""event"",""trial"",""time""
""fullscreenenter"",""1"",""163068""
","
","","","","","","380.5","<p> The customer likes some plants and dislikes others.  </p><p> On each turn, you will see a plant.   </p><p> You need to decide whether to offer it to the customer or not.  </p>","","0","instructions","","","","","","","","","","",""
"learning-instructions","179","930402","0.0-11.0-1.0-0.2","4288","2","18","Male","approach_avoid_spark_v1","""event"",""trial"",""time""
""fullscreenenter"",""1"",""163068""
","
","
","""event"",""trial"",""time""
""fullscreenenter"",""1"",""163068""
","
","","","","","","335.6999999284744","<p> You can offer the plant by pressing 1 and decide to not offer it by pressing 0. </p><br><div class=""choice-instructions-grid""> <div class=""choice-option""><img src=""images/approach.png"" class=""choice-option-img"" stage=""instructions"" position=""0"" ><div class=""choice-option-text""> Press ""1."" </div></div><div class=""choice-option""><img src=""images/avoid.png"" class=""choice-option-img"" stage=""instructions"" position=""1"" ><div class=""choice-option-text""> Press ""0."" </div></div>","","0","instructions","","","","","","","","","","",""
"learning-instructions","180","939942","0.0-11.0-1.0-0.3","4288","2","18","Male","approach_avoid_spark_v1","""event"",""trial"",""time""
""fullscreenenter"",""1"",""163068""
","
","
","""event"",""trial"",""time""
""fullscreenenter"",""1"",""163068""
","
","","","","","","885.3000000715256","<p> If you offer a plant to the customer that she likes, she will be very pleased! </p><p> But if you offer a plant that she does NOT like, she will be annoyed. </p>","","0","instructions","","","","","","","","","","",""
"learning-instructions","181","952559","0.0-11.0-1.0-0.4","4288","2","18","Male","approach_avoid_spark_v1","""event"",""trial"",""time""
""fullscreenenter"",""1"",""163068""
","
","
","""event"",""trial"",""time""
""fullscreenenter"",""1"",""163068""
","
","","","","","","393.39999997615814","<p> You will earn points based on how you made the customer feel. </p><p> If you made her pleased, you will WIN anywhere from 1 - 9 points, </p><p> but if you made her annoyed, you will LOSE anywhere from 1 - 9 points. </p>","","0","instructions","","","","","","","","","","",""
"learning-instructions","182","959454","0.0-11.0-1.0-0.5","4288","2","18","Male","approach_avoid_spark_v1","""event"",""trial"",""time""
""fullscreenenter"",""1"",""163068""
","
","
","""event"",""trial"",""time""
""fullscreenenter"",""1"",""163068""
","
","","","","","","248.10000002384186","<p> You will see how many points you won or lost in the center of the screen. </p><p> Here is what you would see if you won 5 points: </p><p style=""color:green;font-size:50px;font-weight:bolder"">5</p>","","0","instructions","","","","","","","","","","",""
"learning-instructions","183","962448","0.0-11.0-1.0-0.6","4288","2","18","Male","approach_avoid_spark_v1","""event"",""trial"",""time""
""fullscreenenter"",""1"",""163068""
","
","
","""event"",""trial"",""time""
""fullscreenenter"",""1"",""163068""
","
","","","","","","164.69999992847443","<p> And here is what you would see if you lost 3 points: </p><p style=""color:red;font-size:50px;font-weight:bolder"">-3</p>","","0","instructions","","","","","","","","","","",""
"learning-instructions","184","977631","0.0-11.0-1.0-0.7","4288","2","18","Male","approach_avoid_spark_v1","""event"",""trial"",""time""
""fullscreenenter"",""1"",""163068""
","
","
","""event"",""trial"",""time""
""fullscreenenter"",""1"",""163068""
","
","","","","","","148.79999995231628","<p> Some plants will make the customer VERY pleased or annoyed. </p><p> These plants will make you win or lose LOTS of points. </p><p> The customer will have less strong feelings about other plants. </p><p> These plants will make you win or lose small amounts of points. </p>","","0","instructions","","","","","","","","","","",""
"learning-instructions","185","990386","0.0-11.0-1.0-0.8","4288","2","18","Male","approach_avoid_spark_v1","""event"",""trial"",""time""
""fullscreenenter"",""1"",""163068""
","
","
","""event"",""trial"",""time""
""fullscreenenter"",""1"",""163068""
","
","","","","","","422.60000002384186","<p> If you choose to not offer the plant to the customer, you will not win or lose any points. </p><p>  However, in the center of the screen, you will see the number of points you WOULD HAVE won or lost if you had offered the plant. </p>","","0","instructions","","","","","","","","","","",""
"learning-instructions","186","1005631","0.0-11.0-1.0-0.9","4288","2","18","Male","approach_avoid_spark_v1","""event"",""trial"",""time""
""fullscreenenter"",""1"",""163068""
","
","
","""event"",""trial"",""time""
""fullscreenenter"",""1"",""163068""
","
","","","","","","4009.399999976158","<p> Here is what you might see if you did not offer the plant but the customer would have liked it: </p><p style=""color:grey; font-size:50px; display: inline-block; border-spacing: 15px; border-width:3px; border-style:solid; border-color:red"">  &nbsp; 6 &nbsp; </p><p> Remember, in this case, you would not win or lose ANY points because you did not offer the plant.  </p>","","0","instructions","","","","","","","","","","",""
"learning-instructions","187","1321182","0.0-11.0-1.0-0.10","4288","2","18","Male","approach_avoid_spark_v1","""event"",""trial"",""time""
""fullscreenenter"",""1"",""163068""
","
","
","""event"",""trial"",""time""
""fullscreenenter"",""1"",""163068""
","
","","","","","","308177.2999999523","<p> Try to make the best choice for each plant because </p><p> at the end of the game, you will earn bonus money based on how many points you earned. </p>","","0","instructions","","","","","","","","","","",""
"learning-instructions","188","1329994","0.0-11.0-1.0-0.11","4288","2","18","Male","approach_avoid_spark_v1","""event"",""trial"",""time""
""fullscreenenter"",""1"",""163068""
","
","
","""event"",""trial"",""time""
""fullscreenenter"",""1"",""163068""
","
","","","","","","595.5","<p> You will have 3 seconds to make each choice. Try to respond before time runs out! </p><p> You will lose 5 points each time you do not make a response. </p>","","0","instructions","","","","","","","","","","",""
"html-keyboard-response","189","1330600","0.0-11.0-2.0-0.0","4288","2","18","Male","approach_avoid_spark_v1","""event"",""trial"",""time""
""fullscreenenter"",""1"",""163068""
","
","
","""event"",""trial"",""time""
""fullscreenenter"",""1"",""163068""
","
","","","","","","null","<div style=""font-size:60px;"">+</div>","null","","fixation","","","","","","","","","","",""
"aa-learning-trial","190","1333608","0.0-11.0-2.0-1.0","4288","2","18","Male","approach_avoid_spark_v1","""event"",""trial"",""time""
""fullscreenenter"",""1"",""163068""
","
","
","""event"",""trial"",""time""
""fullscreenenter"",""1"",""163068""
","
","","","","","","1899.5","images/cactus1.png","","","learning","-3","0","0","0","cactus","plants","1","1","","bad","[-3]"
"html-keyboard-response","191","1334110","0.0-11.0-2.0-0.1","4288","2","18","Male","approach_avoid_spark_v1","""event"",""trial"",""time""
""fullscreenenter"",""1"",""163068""
","
","
","""event"",""trial"",""time""
""fullscreenenter"",""1"",""163068""
","
","","","","","","null","<div style=""font-size:60px;"">+</div>","null","","fixation","","","","","","","","","","",""
"aa-learning-trial","192","1337118","0.0-11.0-2.0-1.1","4288","2","18","Male","approach_avoid_spark_v1","""event"",""trial"",""time""
""fullscreenenter"",""1"",""163068""
","
","
","""event"",""trial"",""time""
""fullscreenenter"",""1"",""163068""
","
","","","","","","825.1000000238419","images/bush3.png","","","learning","-1","-1","1","1","bush","plants","1","1","","neutral","0"
"html-keyboard-response","193","1337623","0.0-11.0-2.0-0.2","4288","2","18","Male","approach_avoid_spark_v1","""event"",""trial"",""time""
""fullscreenenter"",""1"",""163068""
","
","
","""event"",""trial"",""time""
""fullscreenenter"",""1"",""163068""
","
","","","","","","null","<div style=""font-size:60px;"">+</div>","null","","fixation","","","","","","","","","","",""
"aa-learning-trial","194","1340630","0.0-11.0-2.0-1.2","4288","2","18","Male","approach_avoid_spark_v1","""event"",""trial"",""time""
""fullscreenenter"",""1"",""163068""
","
","
","""event"",""trial"",""time""
""fullscreenenter"",""1"",""163068""
","
","","","","","","657.4000000953674","images/bush5.png","","","learning","2","2","1","1","bush","plants","1","1","","neutral","0"
"html-keyboard-response","195","1341134","0.0-11.0-2.0-0.3","4288","2","18","Male","approach_avoid_spark_v1","""event"",""trial"",""time""
""fullscreenenter"",""1"",""163068""
","
","
","""event"",""trial"",""time""
""fullscreenenter"",""1"",""163068""
","
","","","","","","null","<div style=""font-size:60px;"">+</div>","null","","fixation","","","","","","","","","","",""
"aa-learning-trial","196","1344142","0.0-11.0-2.0-1.3","4288","2","18","Male","approach_avoid_spark_v1","""event"",""trial"",""time""
""fullscreenenter"",""1"",""163068""
","
","
","""event"",""trial"",""time""
""fullscreenenter"",""1"",""163068""
","
","","","","","","793","images/cactus6.png","","","learning","-2","0","0","0","cactus","plants","1","1","","bad","[-3]"
"html-keyboard-response","197","1344648","0.0-11.0-2.0-0.4","4288","2","18","Male","approach_avoid_spark_v1","""event"",""trial"",""time""
""fullscreenenter"",""1"",""163068""
","
","
","""event"",""trial"",""time""
""fullscreenenter"",""1"",""163068""
","
","","","","","","null","<div style=""font-size:60px;"">+</div>","null","","fixation","","","","","","","","","","",""
"aa-learning-trial","198","1347657","0.0-11.0-2.0-1.4","4288","2","18","Male","approach_avoid_spark_v1","""event"",""trial"",""time""
""fullscreenenter"",""1"",""163068""
","
","
","""event"",""trial"",""time""
""fullscreenenter"",""1"",""163068""
","
","","","","","","822","images/cactus8.png","","","learning","-3","-3","1","1","cactus","plants","1","1","","bad","[-3]"
"html-keyboard-response","199","1348160","0.0-11.0-2.0-0.5","4288","2","18","Male","approach_avoid_spark_v1","""event"",""trial"",""time""
""fullscreenenter"",""1"",""163068""
","
","
","""event"",""trial"",""time""
""fullscreenenter"",""1"",""163068""
","
","","","","","","null","<div style=""font-size:60px;"">+</div>","null","","fixation","","","","","","","","","","",""
"aa-learning-trial","200","1351166","0.0-11.0-2.0-1.5","4288","2","18","Male","approach_avoid_spark_v1","""event"",""trial"",""time""
""fullscreenenter"",""1"",""163068""
","
","
","""event"",""trial"",""time""
""fullscreenenter"",""1"",""163068""
","
","","","","","","639.5","images/flower2.png","","","learning","5","5","1","1","flower","plants","1","1","","good","[5]"
"html-keyboard-response","201","1351672","0.0-11.0-2.0-0.6","4288","2","18","Male","approach_avoid_spark_v1","""event"",""trial"",""time""
""fullscreenenter"",""1"",""163068""
","
","
","""event"",""trial"",""time""
""fullscreenenter"",""1"",""163068""
","
","","","","","","null","<div style=""font-size:60px;"">+</div>","null","","fixation","","","","","","","","","","",""
"aa-learning-trial","202","1354681","0.0-11.0-2.0-1.6","4288","2","18","Male","approach_avoid_spark_v1","""event"",""trial"",""time""
""fullscreenenter"",""1"",""163068""
","
","
","""event"",""trial"",""time""
""fullscreenenter"",""1"",""163068""
","
","","","","","","623.7999999523163","images/cactus8.png","","","learning","-2","0","0","0","cactus","plants","1","1","","bad","[-3]"
"html-keyboard-response","203","1355187","0.0-11.0-2.0-0.7","4288","2","18","Male","approach_avoid_spark_v1","""event"",""trial"",""time""
""fullscreenenter"",""1"",""163068""
","
","
","""event"",""trial"",""time""
""fullscreenenter"",""1"",""163068""
","
","","","","","","null","<div style=""font-size:60px;"">+</div>","null","","fixation","","","","","","","","","","",""
"aa-learning-trial","204","1358195","0.0-11.0-2.0-1.7","4288","2","18","Male","approach_avoid_spark_v1","""event"",""trial"",""time""
""fullscreenenter"",""1"",""163068""
","
","
","""event"",""trial"",""time""
""fullscreenenter"",""1"",""163068""
","
","","","","","","704.8999999761581","images/flower5.png","","","learning","5","5","1","1","flower","plants","1","1","","good","[5]"
"html-keyboard-response","205","1358697","0.0-11.0-2.0-0.8","4288","2","18","Male","approach_avoid_spark_v1","""event"",""trial"",""time""
""fullscreenenter"",""1"",""163068""
","
","
","""event"",""trial"",""time""
""fullscreenenter"",""1"",""163068""
","
","","","","","","null","<div style=""font-size:60px;"">+</div>","null","","fixation","","","","","","","","","","",""
"aa-learning-trial","206","1361703","0.0-11.0-2.0-1.8","4288","2","18","Male","approach_avoid_spark_v1","""event"",""trial"",""time""
""fullscreenenter"",""1"",""163068""
","
","
","""event"",""trial"",""time""
""fullscreenenter"",""1"",""163068""
","
","","","","","","545.8999999761581","images/flower2.png","","","learning","4","4","1","1","flower","plants","1","1","","good","[5]"
"html-keyboard-response","207","1362209","0.0-11.0-2.0-0.9","4288","2","18","Male","approach_avoid_spark_v1","""event"",""trial"",""time""
""fullscreenenter"",""1"",""163068""
","
","
","""event"",""trial"",""time""
""fullscreenenter"",""1"",""163068""
","
","","","","","","null","<div style=""font-size:60px;"">+</div>","null","","fixation","","","","","","","","","","",""
"aa-learning-trial","208","1365217","0.0-11.0-2.0-1.9","4288","2","18","Male","approach_avoid_spark_v1","""event"",""trial"",""time""
""fullscreenenter"",""1"",""163068""
","
","
","""event"",""trial"",""time""
""fullscreenenter"",""1"",""163068""
","
","","","","","","1085.2000000476837","images/bush1.png","","","learning","2","2","1","1","bush","plants","1","1","","neutral","0"
"html-keyboard-response","209","1365720","0.0-11.0-2.0-0.10","4288","2","18","Male","approach_avoid_spark_v1","""event"",""trial"",""time""
""fullscreenenter"",""1"",""163068""
","
","
","""event"",""trial"",""time""
""fullscreenenter"",""1"",""163068""
","
","","","","","","null","<div style=""font-size:60px;"">+</div>","null","","fixation","","","","","","","","","","",""
"aa-learning-trial","210","1368725","0.0-11.0-2.0-1.10","4288","2","18","Male","approach_avoid_spark_v1","""event"",""trial"",""time""
""fullscreenenter"",""1"",""163068""
","
","
","""event"",""trial"",""time""
""fullscreenenter"",""1"",""163068""
","
","","","","","","542.8999999761581","images/bush5.png","","","learning","[1]","1","1","1","bush","plants","1","1","","neutral","0"
"html-keyboard-response","211","1369233","0.0-11.0-2.0-0.11","4288","2","18","Male","approach_avoid_spark_v1","""event"",""trial"",""time""
""fullscreenenter"",""1"",""163068""
","
","
","""event"",""trial"",""time""
""fullscreenenter"",""1"",""163068""
","
","","","","","","null","<div style=""font-size:60px;"">+</div>","null","","fixation","","","","","","","","","","",""
"aa-learning-trial","212","1372240","0.0-11.0-2.0-1.11","4288","2","18","Male","approach_avoid_spark_v1","""event"",""trial"",""time""
""fullscreenenter"",""1"",""163068""
","
","
","""event"",""trial"",""time""
""fullscreenenter"",""1"",""163068""
","
","","","","","","474.8000000715256","images/bush1.png","","","learning","3","3","1","1","bush","plants","1","1","","neutral","0"
"html-keyboard-response","213","1372744","0.0-11.0-2.0-0.12","4288","2","18","Male","approach_avoid_spark_v1","""event"",""trial"",""time""
""fullscreenenter"",""1"",""163068""
","
","
","""event"",""trial"",""time""
""fullscreenenter"",""1"",""163068""
","
","","","","","","null","<div style=""font-size:60px;"">+</div>","null","","fixation","","","","","","","","","","",""
"aa-learning-trial","214","1375750","0.0-11.0-2.0-1.12","4288","2","18","Male","approach_avoid_spark_v1","""event"",""trial"",""time""
""fullscreenenter"",""1"",""163068""
","
","
","""event"",""trial"",""time""
""fullscreenenter"",""1"",""163068""
","
","","","","","","585.5","images/cactus6.png","","","learning","-1","0","0","0","cactus","plants","1","1","","bad","[-3]"
"html-keyboard-response","215","1376253","0.0-11.0-2.0-0.13","4288","2","18","Male","approach_avoid_spark_v1","""event"",""trial"",""time""
""fullscreenenter"",""1"",""163068""
","
","
","""event"",""trial"",""time""
""fullscreenenter"",""1"",""163068""
","
","","","","","","null","<div style=""font-size:60px;"">+</div>","null","","fixation","","","","","","","","","","",""
"aa-learning-trial","216","1379262","0.0-11.0-2.0-1.13","4288","2","18","Male","approach_avoid_spark_v1","""event"",""trial"",""time""
""fullscreenenter"",""1"",""163068""
","
","
","""event"",""trial"",""time""
""fullscreenenter"",""1"",""163068""
","
","","","","","","588.6999999284744","images/flower3.png","","","learning","5","5","1","1","flower","plants","1","1","","good","[5]"
"html-keyboard-response","217","1379765","0.0-11.0-2.0-0.14","4288","2","18","Male","approach_avoid_spark_v1","""event"",""trial"",""time""
""fullscreenenter"",""1"",""163068""
","
","
","""event"",""trial"",""time""
""fullscreenenter"",""1"",""163068""
","
","","","","","","null","<div style=""font-size:60px;"">+</div>","null","","fixation","","","","","","","","","","",""
"aa-learning-trial","218","1382771","0.0-11.0-2.0-1.14","4288","2","18","Male","approach_avoid_spark_v1","""event"",""trial"",""time""
""fullscreenenter"",""1"",""163068""
","
","
","""event"",""trial"",""time""
""fullscreenenter"",""1"",""163068""
","
","","","","","","432.89999997615814","images/flower5.png","","","learning","5","5","1","1","flower","plants","1","1","","good","[5]"
"html-keyboard-response","219","1383277","0.0-11.0-2.0-0.15","4288","2","18","Male","approach_avoid_spark_v1","""event"",""trial"",""time""
""fullscreenenter"",""1"",""163068""
","
","
","""event"",""trial"",""time""
""fullscreenenter"",""1"",""163068""
","
","","","","","","null","<div style=""font-size:60px;"">+</div>","null","","fixation","","","","","","","","","","",""
"aa-learning-trial","220","1386285","0.0-11.0-2.0-1.15","4288","2","18","Male","approach_avoid_spark_v1","""event"",""trial"",""time""
""fullscreenenter"",""1"",""163068""
","
","
","""event"",""trial"",""time""
""fullscreenenter"",""1"",""163068""
","
","","","","","","767.5","images/bush1.png","","","learning","1","1","1","1","bush","plants","1","1","","neutral","0"
"html-keyboard-response","221","1386787","0.0-11.0-2.0-0.16","4288","2","18","Male","approach_avoid_spark_v1","""event"",""trial"",""time""
""fullscreenenter"",""1"",""163068""
","
","
","""event"",""trial"",""time""
""fullscreenenter"",""1"",""163068""
","
","","","","","","null","<div style=""font-size:60px;"">+</div>","null","","fixation","","","","","","","","","","",""
"aa-learning-trial","222","1389795","0.0-11.0-2.0-1.16","4288","2","18","Male","approach_avoid_spark_v1","""event"",""trial"",""time""
""fullscreenenter"",""1"",""163068""
","
","
","""event"",""trial"",""time""
""fullscreenenter"",""1"",""163068""
","
","","","","","","474.3000000715256","images/bush5.png","","","learning","-1","-1","1","1","bush","plants","1","1","","neutral","0"
"html-keyboard-response","223","1390301","0.0-11.0-2.0-0.17","4288","2","18","Male","approach_avoid_spark_v1","""event"",""trial"",""time""
""fullscreenenter"",""1"",""163068""
","
","
","""event"",""trial"",""time""
""fullscreenenter"",""1"",""163068""
","
","","","","","","null","<div style=""font-size:60px;"">+</div>","null","","fixation","","","","","","","","","","",""
"aa-learning-trial","224","1393309","0.0-11.0-2.0-1.17","4288","2","18","Male","approach_avoid_spark_v1","""event"",""trial"",""time""
""fullscreenenter"",""1"",""163068""
","
","
","""event"",""trial"",""time""
""fullscreenenter"",""1"",""163068""
","
","","","","","","668.2999999523163","images/bush5.png","","","learning","-1","0","0","0","bush","plants","1","1","","neutral","0"
"html-keyboard-response","225","1393812","0.0-11.0-2.0-0.18","4288","2","18","Male","approach_avoid_spark_v1","""event"",""trial"",""time""
""fullscreenenter"",""1"",""163068""
","
","
","""event"",""trial"",""time""
""fullscreenenter"",""1"",""163068""
","
","","","","","","null","<div style=""font-size:60px;"">+</div>","null","","fixation","","","","","","","","","","",""
"aa-learning-trial","226","1396820","0.0-11.0-2.0-1.18","4288","2","18","Male","approach_avoid_spark_v1","""event"",""trial"",""time""
""fullscreenenter"",""1"",""163068""
","
","
","""event"",""trial"",""time""
""fullscreenenter"",""1"",""163068""
","
","","","","","","584.7999999523163","images/cactus1.png","","","learning","-3","0","0","0","cactus","plants","1","1","","bad","[-3]"
"html-keyboard-response","227","1397328","0.0-11.0-2.0-0.19","4288","2","18","Male","approach_avoid_spark_v1","""event"",""trial"",""time""
""fullscreenenter"",""1"",""163068""
","
","
","""event"",""trial"",""time""
""fullscreenenter"",""1"",""163068""
","
","","","","","","null","<div style=""font-size:60px;"">+</div>","null","","fixation","","","","","","","","","","",""
"aa-learning-trial","228","1400334","0.0-11.0-2.0-1.19","4288","2","18","Male","approach_avoid_spark_v1","""event"",""trial"",""time""
""fullscreenenter"",""1"",""163068""
","
","
","""event"",""trial"",""time""
""fullscreenenter"",""1"",""163068""
","
","","","","","","1043.2000000476837","images/flower8.png","","","learning","4","4","1","1","flower","plants","1","1","","good","[5]"
"html-keyboard-response","229","1400837","0.0-11.0-2.0-0.20","4288","2","18","Male","approach_avoid_spark_v1","""event"",""trial"",""time""
""fullscreenenter"",""1"",""163068""
","
","
","""event"",""trial"",""time""
""fullscreenenter"",""1"",""163068""
","
","","","","","","null","<div style=""font-size:60px;"">+</div>","null","","fixation","","","","","","","","","","",""
"aa-learning-trial","230","1403843","0.0-11.0-2.0-1.20","4288","2","18","Male","approach_avoid_spark_v1","""event"",""trial"",""time""
""fullscreenenter"",""1"",""163068""
","
","
","""event"",""trial"",""time""
""fullscreenenter"",""1"",""163068""
","
","","","","","","450.2000000476837","images/flower2.png","","","learning","5","5","1","1","flower","plants","1","1","","good","[5]"
"html-keyboard-response","231","1404349","0.0-11.0-2.0-0.21","4288","2","18","Male","approach_avoid_spark_v1","""event"",""trial"",""time""
""fullscreenenter"",""1"",""163068""
","
","
","""event"",""trial"",""time""
""fullscreenenter"",""1"",""163068""
","
","","","","","","null","<div style=""font-size:60px;"">+</div>","null","","fixation","","","","","","","","","","",""
"aa-learning-trial","232","1407359","0.0-11.0-2.0-1.21","4288","2","18","Male","approach_avoid_spark_v1","""event"",""trial"",""time""
""fullscreenenter"",""1"",""163068""
","
","
","""event"",""trial"",""time""
""fullscreenenter"",""1"",""163068""
","
","","","","","","774.8000000715256","images/cactus8.png","","","learning","-5","0","0","0","cactus","plants","1","1","","bad","[-3]"
"html-keyboard-response","233","1407863","0.0-11.0-2.0-0.22","4288","2","18","Male","approach_avoid_spark_v1","""event"",""trial"",""time""
""fullscreenenter"",""1"",""163068""
","
","
","""event"",""trial"",""time""
""fullscreenenter"",""1"",""163068""
","
","","","","","","null","<div style=""font-size:60px;"">+</div>","null","","fixation","","","","","","","","","","",""
"aa-learning-trial","234","1410871","0.0-11.0-2.0-1.22","4288","2","18","Male","approach_avoid_spark_v1","""event"",""trial"",""time""
""fullscreenenter"",""1"",""163068""
","
","
","""event"",""trial"",""time""
""fullscreenenter"",""1"",""163068""
","
","","","","","","506.7999999523163","images/flower5.png","","","learning","7","7","1","1","flower","plants","1","1","","good","[5]"
"html-keyboard-response","235","1411378","0.0-11.0-2.0-0.23","4288","2","18","Male","approach_avoid_spark_v1","""event"",""trial"",""time""
""fullscreenenter"",""1"",""163068""
","
","
","""event"",""trial"",""time""
""fullscreenenter"",""1"",""163068""
","
