"trial_type","trial_index","time_elapsed","internal_node_id","subject_id","task_condition","age","gender","task_version","interactions","blur_events","focus_events","fullscreenenter_events","fullscreenexit_events","success","timeout","failed_images","failed_audio","failed_video","rt","stimulus","response","button_pressed","task_part","approach_reward","points","key_press","option_selected","stim_cat","task_block","block_condition","block_number","correct","cat_type","mean_cat_reward"
"pavlovia","0","9","0.0-0.0","6275","2","25","Female","approach_avoid_spark_v1","""event"",""trial"",""time""
""fullscreenenter"",""1"",""19555""
","
","
","""event"",""trial"",""time""
""fullscreenenter"",""1"",""19555""
","
","","","","","","","","","","","","","","","","","","","","",""
"fullscreen","1","20527","0.0-1.0","6275","2","25","Female","approach_avoid_spark_v1","""event"",""trial"",""time""
""fullscreenenter"",""1"",""19555""
","
","
","""event"",""trial"",""time""
""fullscreenenter"",""1"",""19555""
","
","true","","","","","","","","","","","","","","","","","","","",""
"preload","2","25473","0.0-2.0","6275","2","25","Female","approach_avoid_spark_v1","""event"",""trial"",""time""
""fullscreenenter"",""1"",""19555""
","
","
","""event"",""trial"",""time""
""fullscreenenter"",""1"",""19555""
","
","true","false","[]","[]","[]","","","","","","","","","","","","","","","",""
"audio-keyboard-response","3","28634","0.0-3.0","6275","2","25","Female","approach_avoid_spark_v1","""event"",""trial"",""time""
""fullscreenenter"",""1"",""19555""
","
","
","""event"",""trial"",""time""
""fullscreenenter"",""1"",""19555""
","
","","","","","","3160","audio/beep_loop.wav"," ","","","","","","","","","","","","",""
"audio-button-response","4","31720","0.0-4.0","6275","2","25","Female","approach_avoid_spark_v1","""event"",""trial"",""time""
""fullscreenenter"",""1"",""19555""
","
","
","""event"",""trial"",""time""
""fullscreenenter"",""1"",""19555""
","
","","","","","","3080","audio/shark.wav","4","","","","","","","","","","","","",""
"audio-button-response","5","33900","0.0-5.0","6275","2","25","Female","approach_avoid_spark_v1","""event"",""trial"",""time""
""fullscreenenter"",""1"",""19555""
","
","
","""event"",""trial"",""time""
""fullscreenenter"",""1"",""19555""
","
","","","","","","1179","audio/turtle.wav","1","","","","","","","","","","","","",""
"preload","6","36837","0.0-6.0","6275","2","25","Female","approach_avoid_spark_v1","""event"",""trial"",""time""
""fullscreenenter"",""1"",""19555""
","
","
","""event"",""trial"",""time""
""fullscreenenter"",""1"",""19555""
","
","true","false","[]","[]","[]","","","","","","","","","","","","","","","",""
"html-keyboard-response","7","39131","0.0-7.0","6275","2","25","Female","approach_avoid_spark_v1","""event"",""trial"",""time""
""fullscreenenter"",""1"",""19555""
","
","
","""event"",""trial"",""time""
""fullscreenenter"",""1"",""19555""
","
","","","","","","2292.2999999523163","Welcome to the experiment. Press any key to begin and to advance the instructions."," ","","","","","","","","","","","","",""
"learning-instructions","8","47207","0.0-8.0-0.0-0.0","6275","2","25","Female","approach_avoid_spark_v1","""event"",""trial"",""time""
""fullscreenenter"",""1"",""19555""
","
","
","""event"",""trial"",""time""
""fullscreenenter"",""1"",""19555""
","
","","","","","","1118.1000000238419","<p> Welcome! Today you are going to play 6 different rounds of a decision-making game. </p><p> Use the mouse to click next to continue. </p>","","0","instructions","","","","","","","","","","",""
"learning-instructions","9","54510","0.0-8.0-0.0-0.1","6275","2","25","Female","approach_avoid_spark_v1","""event"",""trial"",""time""
""fullscreenenter"",""1"",""19555""
","
","
","""event"",""trial"",""time""
""fullscreenenter"",""1"",""19555""
","
","","","","","","4553.400000095367","<p> You will start with a practice round to learn the rules. </p>","","0","instructions","","","","","","","","","","",""
"learning-instructions","10","65221","0.0-8.0-0.0-0.2","6275","2","25","Female","approach_avoid_spark_v1","""event"",""trial"",""time""
""fullscreenenter"",""1"",""19555""
","
","
","""event"",""trial"",""time""
""fullscreenenter"",""1"",""19555""
","
","","","","","","7243.199999928474","<p> Your goal in this round is to give out sports equipment to kids. </p></div>","","0","instructions","","","","","","","","","","",""
"learning-instructions","11","84346","0.0-8.0-0.0-0.3","6275","2","25","Female","approach_avoid_spark_v1","""event"",""trial"",""time""
""fullscreenenter"",""1"",""19555""
","
","
","""event"",""trial"",""time""
""fullscreenenter"",""1"",""19555""
","
","","","","","","11568","<p> The kids only like some of the equipment.  </p><p> On each turn, you will see a piece of sports equipment.   </p><p> You need to decide whether to give it to the kids or not.  </p>","","0","instructions","","","","","","","","","","",""
"learning-instructions","12","89797","0.0-8.0-0.0-0.4","6275","2","25","Female","approach_avoid_spark_v1","""event"",""trial"",""time""
""fullscreenenter"",""1"",""19555""
","
","
","""event"",""trial"",""time""
""fullscreenenter"",""1"",""19555""
","
","","","","","","698.2999999523163","<p> You can give them the equipment by pressing 1 and choose not to give it to them by pressing 0. </p><br><div class=""choice-instructions-grid""> <div class=""choice-option""><img src=""images/approach.png"" class=""choice-option-img"" stage=""instructions"" position=""0"" ><div class=""choice-option-text""> Press ""1."" </div></div><div class=""choice-option""><img src=""images/avoid.png"" class=""choice-option-img"" stage=""instructions"" position=""1"" ><div class=""choice-option-text""> Press ""0."" </div></div>","","0","instructions","","","","","","","","","","",""
"learning-instructions","13","98342","0.0-8.0-0.0-0.5","6275","2","25","Female","approach_avoid_spark_v1","""event"",""trial"",""time""
""fullscreenenter"",""1"",""19555""
","
","
","""event"",""trial"",""time""
""fullscreenenter"",""1"",""19555""
","
","","","","","","1144.2999999523163","<p> If you give them a piece of equipment they like, they will be happy! </p><p> But if you give them a piece of equipment they do not like, they will be sad. </p>","","0","instructions","","","","","","","","","","",""
"learning-instructions","14","119385","0.0-8.0-0.0-0.6","6275","2","25","Female","approach_avoid_spark_v1","""event"",""trial"",""time""
""fullscreenenter"",""1"",""19555""
","
","
","""event"",""trial"",""time""
""fullscreenenter"",""1"",""19555""
","
","","","","","","10517.700000047684","<p> You will earn points based on how you make kids feel. </p><p> If you make them happy, you will WIN anywhere from 1 - 9 points, </p><p> but if you make them sad, you will LOSE anywhere from 1 - 9 points. </p>","","0","instructions","","","","","","","","","","",""
"learning-instructions","15","130037","0.0-8.0-0.0-0.7","6275","2","25","Female","approach_avoid_spark_v1","""event"",""trial"",""time""
""fullscreenenter"",""1"",""19555""
","
","
","""event"",""trial"",""time""
""fullscreenenter"",""1"",""19555""
","
","","","","","","1098.0999999046326","<p> You will see how many points you won or lost in the center of the screen. </p><p> Here is what you would see if you won 6 points: </p><p style=""color:green;font-size:50px;font-weight:bolder"">6</p><p style=""color:green"">The text is GREEN because you WON points.</p>","","0","instructions","","","","","","","","","","",""
"learning-instructions","16","181192","0.0-8.0-0.0-0.8","6275","2","25","Female","approach_avoid_spark_v1","""event"",""trial"",""time""
""fullscreenenter"",""1"",""19555""
","
","
","""event"",""trial"",""time""
""fullscreenenter"",""1"",""19555""
","
","","","","","","45644","<p> And here is what you would see if you lost 4 points: </p><p style=""color:red;font-size:50px;font-weight:bolder"">-4</p><p style=""color:red"">The text is RED because you LOST points. </p>","","0","instructions","","","","","","","","","","",""
"learning-instructions","17","199133","0.0-8.0-0.0-0.9","6275","2","25","Female","approach_avoid_spark_v1","""event"",""trial"",""time""
""fullscreenenter"",""1"",""19555""
","
","
","""event"",""trial"",""time""
""fullscreenenter"",""1"",""19555""
","
","","","","","","2871.399999976158","<p> Some of the equipment will make the kids VERY happy or sad. </p><p> These pieces of equipment will make you win or lose LOTS of points. </p><p> Other pieces of equipment will only make the kids a little happy or sad. </p><p> These pieces of equipment will make you win or lose small amounts of points. </p>","","0","instructions","","","","","","","","","","",""
"learning-instructions","18","216083","0.0-8.0-0.0-0.10","6275","2","25","Female","approach_avoid_spark_v1","""event"",""trial"",""time""
""fullscreenenter"",""1"",""19555""
","
","
","""event"",""trial"",""time""
""fullscreenenter"",""1"",""19555""
","
","","","","","","6312.700000047684","<p> If you choose not to give them the equipment, you will not win or lose any points. </p><p>  However, in the center of the screen, you will see the number of points you WOULD HAVE won or lost if you had given them the equipment. </p>","","0","instructions","","","","","","","","","","",""
"learning-instructions","19","239292","0.0-8.0-0.0-0.11","6275","2","25","Female","approach_avoid_spark_v1","""event"",""trial"",""time""
""fullscreenenter"",""1"",""19555""
","
","
","""event"",""trial"",""time""
""fullscreenenter"",""1"",""19555""
","
","","","","","","1680.8999999761581","<p> Here is what you might see if you did not give the equipment to the kids but it would have made them happy: </p><p style=""color:grey; font-size:50px; display: inline-block; border-spacing: 15px; border-width:3px; border-style:solid; border-color:red"">  &nbsp; 7 &nbsp; </p><p> Remember, in this case, you would not win or lose ANY points because you did not give them the equipment.  </p><p style=""color:grey"">The text is GREY because you earned ZERO points. </p><p style=""color:red"">However, choosing to give the kids the equipment would have made you win points. The box around the text is RED because you chose the worse option. </p>","","0","instructions","","","","","","","","","","",""
"learning-instructions","20","261799","0.0-8.0-0.0-0.12","6275","2","25","Female","approach_avoid_spark_v1","""event"",""trial"",""time""
""fullscreenenter"",""1"",""19555""
","
","
","""event"",""trial"",""time""
""fullscreenenter"",""1"",""19555""
","
","","","","","","1419.5","<p> Here is what you might see if you did not give the equipment to the kids but it would have made them sad: </p><p style=""color:grey;font-size:50px; display: inline-block; border-spacing: 15px; border-width:3px; border-style:solid; border-color:green"">  &nbsp; -8 &nbsp; </p><p> Remember, in this case, you would not win or lose ANY points because you did not give them the equipment.  </p><p style=""color:grey"">The text is GREY because you earned ZERO points. </p><p  style=""color:green""> Choosing to give the kids the equipment would have made you lose points. The box around the text is GREEN because you chose the better option.</p>","","0","instructions","","","","","","","","","","",""
"learning-instructions","21","295406","0.0-8.0-0.0-0.13","6275","2","25","Female","approach_avoid_spark_v1","""event"",""trial"",""time""
""fullscreenenter"",""1"",""19555""
","
","
","""event"",""trial"",""time""
""fullscreenenter"",""1"",""19555""
","
","","","","","","24506.5","<p> You will have 3 seconds to make each choice. Try to respond before time runs out! </p><p> You will lose 5 points each time you do not make a response. </p>","","0","instructions","","","","","","","","","","",""
"learning-instructions","22","301587","0.0-8.0-0.0-0.14","6275","2","25","Female","approach_avoid_spark_v1","""event"",""trial"",""time""
""fullscreenenter"",""1"",""19555""
","
","
","""event"",""trial"",""time""
""fullscreenenter"",""1"",""19555""
","
","","","","","","767.6999999284744","<p> This is just a practice round, but in the real game, your bonus payment will depend on your total number of points.","","0","instructions","","","","","","","","","","",""
"learning-instructions","23","310799","0.0-8.0-0.0-0.15","6275","2","25","Female","approach_avoid_spark_v1","""event"",""trial"",""time""
""fullscreenenter"",""1"",""19555""
","
","
","""event"",""trial"",""time""
""fullscreenenter"",""1"",""19555""
","
","","","","","","3449.100000023842","<p> Remember, you can give them the equipment by pressing 1 and choose not to give it to them by pressing 0. </p><br><div class=""choice-instructions-grid""> <div class=""choice-option""><img src=""images/approach.png"" class=""choice-option-img"" stage=""instructions"" position=""0"" ><div class=""choice-option-text""> Press ""1."" </div></div><div class=""choice-option""><img src=""images/avoid.png"" class=""choice-option-img"" stage=""instructions"" position=""1"" ><div class=""choice-option-text""> Press ""0."" </div></div>","","0","instructions","","","","","","","","","","",""
"html-button-response","24","313975","0.0-8.0-1.0","6275","2","25","Female","approach_avoid_spark_v1","""event"",""trial"",""time""
""fullscreenenter"",""1"",""19555""
","
","
","""event"",""trial"",""time""
""fullscreenenter"",""1"",""19555""
","
","","","","","","3056.100000023842","<p> Ready to practice? </p>","0","","","","","","","","","","","","",""
"html-keyboard-response","25","314604","0.0-8.0-2.0-0.0","6275","2","25","Female","approach_avoid_spark_v1","""event"",""trial"",""time""
""fullscreenenter"",""1"",""19555""
","
","
","""event"",""trial"",""time""
""fullscreenenter"",""1"",""19555""
","
","","","","","","null","<div style=""font-size:60px;"">+</div>","null","","fixation","","","","","","","","","","",""
"aa-learning-trial","26","317619","0.0-8.0-2.0-1.0","6275","2","25","Female","approach_avoid_spark_v1","""event"",""trial"",""time""
""fullscreenenter"",""1"",""19555""
","
","
","""event"",""trial"",""time""
""fullscreenenter"",""1"",""19555""
","
","","","","","","2946.2999999523163","images/racket3.png","","","learning","-7","-7","1","1","practice","practice","practice","-1","","",""
"html-keyboard-response","27","318135","0.0-8.0-2.0-0.1","6275","2","25","Female","approach_avoid_spark_v1","""event"",""trial"",""time""
""fullscreenenter"",""1"",""19555""
","
","
","""event"",""trial"",""time""
""fullscreenenter"",""1"",""19555""
","
","","","","","","null","<div style=""font-size:60px;"">+</div>","null","","fixation","","","","","","","","","","",""
"aa-learning-trial","28","321151","0.0-8.0-2.0-1.1","6275","2","25","Female","approach_avoid_spark_v1","""event"",""trial"",""time""
""fullscreenenter"",""1"",""19555""
","
","
","""event"",""trial"",""time""
""fullscreenenter"",""1"",""19555""
","
","","","","","","2276.2999999523163","images/racket2.png","","","learning","5","5","1","1","practice","practice","practice","-1","","",""
"html-keyboard-response","29","321672","0.0-8.0-2.0-0.2","6275","2","25","Female","approach_avoid_spark_v1","""event"",""trial"",""time""
""fullscreenenter"",""1"",""19555""
","
","
","""event"",""trial"",""time""
""fullscreenenter"",""1"",""19555""
","
","","","","","","null","<div style=""font-size:60px;"">+</div>","null","","fixation","","","","","","","","","","",""
"aa-learning-trial","30","324681","0.0-8.0-2.0-1.2","6275","2","25","Female","approach_avoid_spark_v1","""event"",""trial"",""time""
""fullscreenenter"",""1"",""19555""
","
","
","""event"",""trial"",""time""
""fullscreenenter"",""1"",""19555""
","
","","","","","","915.2999999523163","images/ball3.png","","","learning","3","0","0","0","practice","practice","practice","-1","","",""
"html-keyboard-response","31","325189","0.0-8.0-2.0-0.3","6275","2","25","Female","approach_avoid_spark_v1","""event"",""trial"",""time""
""fullscreenenter"",""1"",""19555""
","
","
","""event"",""trial"",""time""
""fullscreenenter"",""1"",""19555""
","
","","","","","","null","<div style=""font-size:60px;"">+</div>","null","","fixation","","","","","","","","","","",""
"aa-learning-trial","32","328206","0.0-8.0-2.0-1.3","6275","2","25","Female","approach_avoid_spark_v1","""event"",""trial"",""time""
""fullscreenenter"",""1"",""19555""
","
","
","""event"",""trial"",""time""
""fullscreenenter"",""1"",""19555""
","
","","","","","","1427.6000000238419","images/ball2.png","","","learning","-4","0","0","0","practice","practice","practice","-1","","",""
"html-keyboard-response","33","328725","0.0-8.0-2.0-0.4","6275","2","25","Female","approach_avoid_spark_v1","""event"",""trial"",""time""
""fullscreenenter"",""1"",""19555""
","
","
","""event"",""trial"",""time""
""fullscreenenter"",""1"",""19555""
","
","","","","","","null","<div style=""font-size:60px;"">+</div>","null","","fixation","","","","","","","","","","",""
"aa-learning-trial","34","331745","0.0-8.0-2.0-1.4","6275","2","25","Female","approach_avoid_spark_v1","""event"",""trial"",""time""
""fullscreenenter"",""1"",""19555""
","
","
","""event"",""trial"",""time""
""fullscreenenter"",""1"",""19555""
","
","","","","","","1958.5","images/ball4.png","","","learning","-6","0","0","0","practice","practice","practice","-1","","",""
"html-keyboard-response","35","332251","0.0-8.0-2.0-0.5","6275","2","25","Female","approach_avoid_spark_v1","""event"",""trial"",""time""
""fullscreenenter"",""1"",""19555""
","
","
","""event"",""trial"",""time""
""fullscreenenter"",""1"",""19555""
","
","","","","","","null","<div style=""font-size:60px;"">+</div>","null","","fixation","","","","","","","","","","",""
"aa-learning-trial","36","335269","0.0-8.0-2.0-1.5","6275","2","25","Female","approach_avoid_spark_v1","""event"",""trial"",""time""
""fullscreenenter"",""1"",""19555""
","
","
","""event"",""trial"",""time""
""fullscreenenter"",""1"",""19555""
","
","","","","","","696.1999999284744","images/ball2.png","","","learning","8","0","0","0","practice","practice","practice","-1","","",""
"html-keyboard-response","37","335780","0.0-8.0-2.0-0.6","6275","2","25","Female","approach_avoid_spark_v1","""event"",""trial"",""time""
""fullscreenenter"",""1"",""19555""
","
","
","""event"",""trial"",""time""
""fullscreenenter"",""1"",""19555""
","
","","","","","","null","<div style=""font-size:60px;"">+</div>","null","","fixation","","","","","","","","","","",""
"aa-learning-trial","38","338800","0.0-8.0-2.0-1.6","6275","2","25","Female","approach_avoid_spark_v1","""event"",""trial"",""time""
""fullscreenenter"",""1"",""19555""
","
","
","""event"",""trial"",""time""
""fullscreenenter"",""1"",""19555""
","
","","","","","","696.5","images/racket3.png","","","learning","-9","-9","1","1","practice","practice","practice","-1","","",""
"html-keyboard-response","39","339306","0.0-8.0-2.0-0.7","6275","2","25","Female","approach_avoid_spark_v1","""event"",""trial"",""time""
""fullscreenenter"",""1"",""19555""
","
","
","""event"",""trial"",""time""
""fullscreenenter"",""1"",""19555""
","
","","","","","","null","<div style=""font-size:60px;"">+</div>","null","","fixation","","","","","","","","","","",""
"aa-learning-trial","40","342319","0.0-8.0-2.0-1.7","6275","2","25","Female","approach_avoid_spark_v1","""event"",""trial"",""time""
""fullscreenenter"",""1"",""19555""
","
","
","""event"",""trial"",""time""
""fullscreenenter"",""1"",""19555""
","
","","","","","","1255.6000000238419","images/ball1.png","","","learning","9","9","1","1","practice","practice","practice","-1","","",""
"html-keyboard-response","41","342825","0.0-8.0-2.0-0.8","6275","2","25","Female","approach_avoid_spark_v1","""event"",""trial"",""time""
""fullscreenenter"",""1"",""19555""
","
","
","""event"",""trial"",""time""
""fullscreenenter"",""1"",""19555""
","
","","","","","","null","<div style=""font-size:60px;"">+</div>","null","","fixation","","","","","","","","","","",""
"aa-learning-trial","42","345839","0.0-8.0-2.0-1.8","6275","2","25","Female","approach_avoid_spark_v1","""event"",""trial"",""time""
""fullscreenenter"",""1"",""19555""
","
","
","""event"",""trial"",""time""
""fullscreenenter"",""1"",""19555""
","
","","","","","","778.6000000238419","images/racket1.png","","","learning","-1","-1","1","1","practice","practice","practice","-1","","",""
"html-keyboard-response","43","346347","0.0-8.0-2.0-0.9","6275","2","25","Female","approach_avoid_spark_v1","""event"",""trial"",""time""
""fullscreenenter"",""1"",""19555""
","
","
","""event"",""trial"",""time""
""fullscreenenter"",""1"",""19555""
","
","","","","","","null","<div style=""font-size:60px;"">+</div>","null","","fixation","","","","","","","","","","",""
"aa-learning-trial","44","349360","0.0-8.0-2.0-1.9","6275","2","25","Female","approach_avoid_spark_v1","""event"",""trial"",""time""
""fullscreenenter"",""1"",""19555""
","
","
","""event"",""trial"",""time""
""fullscreenenter"",""1"",""19555""
","
","","","","","","567","images/racket3.png","","","learning","-8","-8","1","1","practice","practice","practice","-1","","",""
"html-keyboard-response","45","349864","0.0-8.0-2.0-0.10","6275","2","25","Female","approach_avoid_spark_v1","""event"",""trial"",""time""
""fullscreenenter"",""1"",""19555""
","
","
","""event"",""trial"",""time""
""fullscreenenter"",""1"",""19555""
","
","","","","","","null","<div style=""font-size:60px;"">+</div>","null","","fixation","","","","","","","","","","",""
"aa-learning-trial","46","352875","0.0-8.0-2.0-1.10","6275","2","25","Female","approach_avoid_spark_v1","""event"",""trial"",""time""
""fullscreenenter"",""1"",""19555""
","
","
","""event"",""trial"",""time""
""fullscreenenter"",""1"",""19555""
","
","","","","","","995.4000000953674","images/ball1.png","","","learning","3","3","1","1","practice","practice","practice","-1","","",""
"html-keyboard-response","47","353386","0.0-8.0-2.0-0.11","6275","2","25","Female","approach_avoid_spark_v1","""event"",""trial"",""time""
""fullscreenenter"",""1"",""19555""
","
","
","""event"",""trial"",""time""
""fullscreenenter"",""1"",""19555""
","
","","","","","","null","<div style=""font-size:60px;"">+</div>","null","","fixation","","","","","","","","","","",""
"aa-learning-trial","48","356399","0.0-8.0-2.0-1.11","6275","2","25","Female","approach_avoid_spark_v1","""event"",""trial"",""time""
""fullscreenenter"",""1"",""19555""
","
","
","""event"",""trial"",""time""
""fullscreenenter"",""1"",""19555""
","
","","","","","","1343.3000000715256","images/racket1.png","","","learning","6","6","1","1","practice","practice","practice","-1","","",""
"html-button-response","49","359918","0.0-8.0-3.0","6275","2","25","Female","approach_avoid_spark_v1","""event"",""trial"",""time""
""fullscreenenter"",""1"",""19555""
","
","
","""event"",""trial"",""time""
""fullscreenenter"",""1"",""19555""
","
","","","","","","3515","<p> You earned -2 points in the practice round! </p>","0","","break","","","","","","","","","","",""
"learning-instructions","50","367696","0.0-8.0-4.0-0.0","6275","2","25","Female","approach_avoid_spark_v1","""event"",""trial"",""time""
""fullscreenenter"",""1"",""19555""
","
","
","""event"",""trial"",""time""
""fullscreenenter"",""1"",""19555""
","
","","","","","","1488.6000000238419","<p> It's almost time to start the real game. </p><p> Before you start, we're going to ask you a few questions about how the game works. </p>","","0","instructions","","","","","","","","","","",""
"preload","51","368850","0.0-8.0-5.0","6275","2","25","Female","approach_avoid_spark_v1","""event"",""trial"",""time""
""fullscreenenter"",""1"",""19555""
","
","
","""event"",""trial"",""time""
""fullscreenenter"",""1"",""19555""
","
","true","false","[]","[]","[]","","","","","","","","","","","","","","","",""
"comp-q","52","374810","0.0-8.0-6.0-0.0","6275","2","25","Female","approach_avoid_spark_v1","""event"",""trial"",""time""
""fullscreenenter"",""1"",""19555""
","
","
","""event"",""trial"",""time""
""fullscreenenter"",""1"",""19555""
","
","","","","","","962.1999999284744","<p> <b> True or False? </b> </p><p> If you see a number in GREY, that means you earned that many points. </p>","","1","comp_question","","","","","","","","","true","",""
"comp-q","53","388285","0.0-8.0-6.0-1.0","6275","2","25","Female","approach_avoid_spark_v1","""event"",""trial"",""time""
""fullscreenenter"",""1"",""19555""
","
","
","""event"",""trial"",""time""
""fullscreenenter"",""1"",""19555""
","
","","","","","","5096","<p><b> That's right! </b> If you see a grey number, it means you earned ZERO points. <br> The grey numbers show the points you WOULD HAVE earned if you had made the other choice. </p>","","0","comp_answer","","","","","","","","","","",""
"comp-q","54","393632","0.0-8.0-7.0-0.0","6275","2","25","Female","approach_avoid_spark_v1","""event"",""trial"",""time""
""fullscreenenter"",""1"",""19555""
","
","
","""event"",""trial"",""time""
""fullscreenenter"",""1"",""19555""
","
","","","","","","654.5","<p> <b> True or False? </b> </p><p> You will have as much time as you want to make each choice. </p>","","1","comp_question","","","","","","","","","true","",""
"comp-q","55","441826","0.0-8.0-7.0-1.0","6275","2","25","Female","approach_avoid_spark_v1","""event"",""trial"",""time""
""fullscreenenter"",""1"",""19555""
","
","
","""event"",""trial"",""time""
""fullscreenenter"",""1"",""19555""
","
","","","","","","44148.200000047684","<p> <b> That's right! </b> You will only have 3 seconds to make each choice. </p>","","0","comp_answer","","","","","","","","","","",""
"comp-q","56","447303","0.0-8.0-8.0-0.0","6275","2","25","Female","approach_avoid_spark_v1","""event"",""trial"",""time""
""fullscreenenter"",""1"",""19555""
","
","
","""event"",""trial"",""time""
""fullscreenenter"",""1"",""19555""
","
","","","","","","511.2999999523163","<p> <b> True or False? </b> </p><p> You should use the '1' and '0' keys to make your choices. </p>","","0","comp_question","","","","","","","","","true","",""
"comp-q","57","488416","0.0-8.0-8.0-1.0","6275","2","25","Female","approach_avoid_spark_v1","""event"",""trial"",""time""
""fullscreenenter"",""1"",""19555""
","
","
","""event"",""trial"",""time""
""fullscreenenter"",""1"",""19555""
","
","","","","","","36493.60000002384","<p> <b> That's right! </b> You should use the '1' and '0' keys to make each choice. </p>","","0","comp_answer","","","","","","","","","","",""
"learning-instructions","58","496100","0.0-8.0-9.0-0.0","6275","2","25","Female","approach_avoid_spark_v1","""event"",""trial"",""time""
""fullscreenenter"",""1"",""19555""
","
","
","""event"",""trial"",""time""
""fullscreenenter"",""1"",""19555""
","
","","","","","","1228.3000000715256","<p> It's now time to start the real game. </p>Do your best, because the points you earn in the next rounds will influence your bonus payment. </p>","","0","instructions","","","","","","","","","","",""
"preload","59","496243","0.0-9.0-0.0","6275","2","25","Female","approach_avoid_spark_v1","""event"",""trial"",""time""
""fullscreenenter"",""1"",""19555""
","
","
","""event"",""trial"",""time""
""fullscreenenter"",""1"",""19555""
","
","true","false","[]","[]","[]","","","","","","","","","","","","","","","",""
"learning-instructions","60","500952","0.0-9.0-1.0-0.0","6275","2","25","Female","approach_avoid_spark_v1","""event"",""trial"",""time""
""fullscreenenter"",""1"",""19555""
","
","
","""event"",""trial"",""time""
""fullscreenenter"",""1"",""19555""
","
","","","","","","1111.3999999761581","<p> Your goal in this round is to take care of lots of animals. </p></div>","","0","instructions","","","","","","","","","","",""
"learning-instructions","61","510937","0.0-9.0-1.0-0.1","6275","2","25","Female","approach_avoid_spark_v1","""event"",""trial"",""time""
""fullscreenenter"",""1"",""19555""
","
","
","""event"",""trial"",""time""
""fullscreenenter"",""1"",""19555""
","
","","","","","","659.4000000953674","<p> Some animals want to be pet, while other animals want to be left alone.  </p><p> On each turn, you will see an animal.   </p><p> You need to decide whether to pet it or not.  </p>","","0","instructions","","","","","","","","","","",""
"learning-instructions","62","516477","0.0-9.0-1.0-0.2","6275","2","25","Female","approach_avoid_spark_v1","""event"",""trial"",""time""
""fullscreenenter"",""1"",""19555""
","
","
","""event"",""trial"",""time""
""fullscreenenter"",""1"",""19555""
","
","","","","","","498.2000000476837","<p> You can pet the animal by pressing 1 and leave the animal alone by pressing 0. </p><br><div class=""choice-instructions-grid""> <div class=""choice-option""><img src=""images/approach.png"" class=""choice-option-img"" stage=""instructions"" position=""0"" ><div class=""choice-option-text""> Press ""1."" </div></div><div class=""choice-option""><img src=""images/avoid.png"" class=""choice-option-img"" stage=""instructions"" position=""1"" ><div class=""choice-option-text""> Press ""0."" </div></div>","","0","instructions","","","","","","","","","","",""
"learning-instructions","63","556508","0.0-9.0-1.0-0.3","6275","2","25","Female","approach_avoid_spark_v1","""event"",""trial"",""time""
""fullscreenenter"",""1"",""19555""
","
","
","""event"",""trial"",""time""
""fullscreenenter"",""1"",""19555""
","
","","","","","","31530.399999976158","<p> If you pet an animal that wants to be pet, you will make it feel happy! </p><p> But if you pet an animal that wants to be left alone, you will make it feel angry. </p>","","0","instructions","","","","","","","","","","",""
"learning-instructions","64","601009","0.0-9.0-1.0-0.4","6275","2","25","Female","approach_avoid_spark_v1","""event"",""trial"",""time""
""fullscreenenter"",""1"",""19555""
","
","
","""event"",""trial"",""time""
""fullscreenenter"",""1"",""19555""
","
","","","","","","32539.5","<p> You will earn points based on how you made the animal feel. </p><p> If you made it feel happy, you will WIN anywhere from 1 - 9 points, </p><p> but if you made it feel angry, you will LOSE anywhere from 1 - 9 points. </p>","","0","instructions","","","","","","","","","","",""
"learning-instructions","65","613176","0.0-9.0-1.0-0.5","6275","2","25","Female","approach_avoid_spark_v1","""event"",""trial"",""time""
""fullscreenenter"",""1"",""19555""
","
","
","""event"",""trial"",""time""
""fullscreenenter"",""1"",""19555""
","
","","","","","","4842.100000023842","<p> You will see how many points you won or lost in the center of the screen. </p><p> Here is what you would see if you won 5 points: </p><p style=""color:green;font-size:50px;font-weight:bolder"">5</p>","","0","instructions","","","","","","","","","","",""
"learning-instructions","66","624202","0.0-9.0-1.0-0.6","6275","2","25","Female","approach_avoid_spark_v1","""event"",""trial"",""time""
""fullscreenenter"",""1"",""19555""
","
","
","""event"",""trial"",""time""
""fullscreenenter"",""1"",""19555""
","
","","","","","","7728.399999976158","<p> And here is what you would see if you lost 3 points: </p><p style=""color:red;font-size:50px;font-weight:bolder"">-3</p>","","0","instructions","","","","","","","","","","",""
"learning-instructions","67","637883","0.0-9.0-1.0-0.7","6275","2","25","Female","approach_avoid_spark_v1","""event"",""trial"",""time""
""fullscreenenter"",""1"",""19555""
","
","
","""event"",""trial"",""time""
""fullscreenenter"",""1"",""19555""
","
","","","","","","337.10000002384186","<p> Some animals will become very happy or very angry. </p><p> These animals will make you win or lose LOTS of points. </p><p> Other animals have less strong feelings. </p><p> These animals will make you win or lose small amounts of points. </p>","","0","instructions","","","","","","","","","","",""
"learning-instructions","68","649780","0.0-9.0-1.0-0.8","6275","2","25","Female","approach_avoid_spark_v1","""event"",""trial"",""time""
""fullscreenenter"",""1"",""19555""
","
","
","""event"",""trial"",""time""
""fullscreenenter"",""1"",""19555""
","
","","","","","","687","<p> If you choose to leave the animal alone, you will not win or lose any points. </p><p>  However, in the center of the screen, you will see the number of points you WOULD HAVE won or lost if you had pet the animal. </p>","","0","instructions","","","","","","","","","","",""
"learning-instructions","69","667583","0.0-9.0-1.0-0.9","6275","2","25","Female","approach_avoid_spark_v1","""event"",""trial"",""time""
""fullscreenenter"",""1"",""19555""
","
","
","""event"",""trial"",""time""
""fullscreenenter"",""1"",""19555""
","
","","","","","","6541.799999952316","<p> Here is what you might see if you did not pet the animal but the animal wanted to be pet: </p><p style=""color:grey; font-size:50px; display: inline-block; border-spacing: 15px; border-width:3px; border-style:solid; border-color:red"">  &nbsp; 6 &nbsp; </p><p> Remember, in this case, you would not win or lose ANY points because you did not pet the animal.  </p>","","0","instructions","","","","","","","","","","",""
"learning-instructions","70","677103","0.0-9.0-1.0-0.10","6275","2","25","Female","approach_avoid_spark_v1","""event"",""trial"",""time""
""fullscreenenter"",""1"",""19555""
","
","
","""event"",""trial"",""time""
""fullscreenenter"",""1"",""19555""
","
","","","","","","2683.100000023842","<p> Try to make the best choice for each animal because </p><p> at the end of the game, you will earn bonus money based on how many points you earned. </p>","","0","instructions","","","","","","","","","","",""
"learning-instructions","71","685910","0.0-9.0-1.0-0.11","6275","2","25","Female","approach_avoid_spark_v1","""event"",""trial"",""time""
""fullscreenenter"",""1"",""19555""
","
","
","""event"",""trial"",""time""
""fullscreenenter"",""1"",""19555""
","
","","","","","","609.8999999761581","<p> You will have 3 seconds to make each choice. Try to respond before time runs out! </p><p> You will lose 5 points each time you do not make a response. </p>","","0","instructions","","","","","","","","","","",""
"html-keyboard-response","72","686539","0.0-9.0-2.0-0.0","6275","2","25","Female","approach_avoid_spark_v1","""event"",""trial"",""time""
""fullscreenenter"",""1"",""19555""
","
","
","""event"",""trial"",""time""
""fullscreenenter"",""1"",""19555""
","
","","","","","","null","<div style=""font-size:60px;"">+</div>","null","","fixation","","","","","","","","","","",""
"aa-learning-trial","73","689562","0.0-9.0-2.0-1.0","6275","2","25","Female","approach_avoid_spark_v1","""event"",""trial"",""time""
""fullscreenenter"",""1"",""19555""
","
","
","""event"",""trial"",""time""
""fullscreenenter"",""1"",""19555""
","
","","","","","","1636.6000000238419","images/rodent8.png","","","learning","-2","0","0","0","rodent","pets","2","0","","bad","[-6]"
"html-keyboard-response","74","690073","0.0-9.0-2.0-0.1","6275","2","25","Female","approach_avoid_spark_v1","""event"",""trial"",""time""
""fullscreenenter"",""1"",""19555""
","
","
","""event"",""trial"",""time""
""fullscreenenter"",""1"",""19555""
","
","","","","","","null","<div style=""font-size:60px;"">+</div>","null","","fixation","","","","","","","","","","",""
"aa-learning-trial","75","693080","0.0-9.0-2.0-1.1","6275","2","25","Female","approach_avoid_spark_v1","""event"",""trial"",""time""
""fullscreenenter"",""1"",""19555""
","
","
","""event"",""trial"",""time""
""fullscreenenter"",""1"",""19555""
","
","","","","","","774.6999999284744","images/rodent3.png","","","learning","-4","-4","1","1","rodent","pets","2","0","","bad","[-6]"
"html-keyboard-response","76","693586","0.0-9.0-2.0-0.2","6275","2","25","Female","approach_avoid_spark_v1","""event"",""trial"",""time""
""fullscreenenter"",""1"",""19555""
","
","
","""event"",""trial"",""time""
""fullscreenenter"",""1"",""19555""
","
","","","","","","null","<div style=""font-size:60px;"">+</div>","null","","fixation","","","","","","","","","","",""
"aa-learning-trial","77","696593","0.0-9.0-2.0-1.2","6275","2","25","Female","approach_avoid_spark_v1","""event"",""trial"",""time""
""fullscreenenter"",""1"",""19555""
","
","
","""event"",""trial"",""time""
""fullscreenenter"",""1"",""19555""
","
","","","","","","1181.6000000238419","images/rodent3.png","","","learning","-4","-4","1","1","rodent","pets","2","0","","bad","[-6]"
"html-keyboard-response","78","697100","0.0-9.0-2.0-0.3","6275","2","25","Female","approach_avoid_spark_v1","""event"",""trial"",""time""
""fullscreenenter"",""1"",""19555""
","
","
","""event"",""trial"",""time""
""fullscreenenter"",""1"",""19555""
","
","","","","","","null","<div style=""font-size:60px;"">+</div>","null","","fixation","","","","","","","","","","",""
"aa-learning-trial","79","700124","0.0-9.0-2.0-1.3","6275","2","25","Female","approach_avoid_spark_v1","""event"",""trial"",""time""
""fullscreenenter"",""1"",""19555""
","
","
","""event"",""trial"",""time""
""fullscreenenter"",""1"",""19555""
","
","","","","","","850.3999999761581","images/rodent7.png","","","learning","6","6","1","1","rodent","pets","2","0","","bad","[-6]"
"html-keyboard-response","80","700647","0.0-9.0-2.0-0.4","6275","2","25","Female","approach_avoid_spark_v1","""event"",""trial"",""time""
""fullscreenenter"",""1"",""19555""
","
","
","""event"",""trial"",""time""
""fullscreenenter"",""1"",""19555""
","
","","","","","","null","<div style=""font-size:60px;"">+</div>","null","","fixation","","","","","","","","","","",""
"aa-learning-trial","81","703656","0.0-9.0-2.0-1.4","6275","2","25","Female","approach_avoid_spark_v1","""event"",""trial"",""time""
""fullscreenenter"",""1"",""19555""
","
","
","""event"",""trial"",""time""
""fullscreenenter"",""1"",""19555""
","
","","","","","","897.1999999284744","images/cat2.png","","","learning","-5","0","0","0","cat","pets","2","0","","good","[5]"
"html-keyboard-response","82","704161","0.0-9.0-2.0-0.5","6275","2","25","Female","approach_avoid_spark_v1","""event"",""trial"",""time""
""fullscreenenter"",""1"",""19555""
","
","
","""event"",""trial"",""time""
""fullscreenenter"",""1"",""19555""
","
","","","","","","null","<div style=""font-size:60px;"">+</div>","null","","fixation","","","","","","","","","","",""
"aa-learning-trial","83","707176","0.0-9.0-2.0-1.5","6275","2","25","Female","approach_avoid_spark_v1","""event"",""trial"",""time""
""fullscreenenter"",""1"",""19555""
","
","
","""event"",""trial"",""time""
""fullscreenenter"",""1"",""19555""
","
","","","","","","445.60000002384186","images/rabbit8.png","","","learning","-9","-9","1","1","rabbit","pets","2","0","","neutral","0"
"html-keyboard-response","84","707695","0.0-9.0-2.0-0.6","6275","2","25","Female","approach_avoid_spark_v1","""event"",""trial"",""time""
""fullscreenenter"",""1"",""19555""
","
","
","""event"",""trial"",""time""
""fullscreenenter"",""1"",""19555""
","
","","","","","","null","<div style=""font-size:60px;"">+</div>","null","","fixation","","","","","","","","","","",""
"aa-learning-trial","85","710712","0.0-9.0-2.0-1.6","6275","2","25","Female","approach_avoid_spark_v1","""event"",""trial"",""time""
""fullscreenenter"",""1"",""19555""
","
","
","""event"",""trial"",""time""
""fullscreenenter"",""1"",""19555""
","
","","","","","","606","images/rabbit2.png","","","learning","1","1","1","1","rabbit","pets","2","0","","neutral","0"
"html-keyboard-response","86","711229","0.0-9.0-2.0-0.7","6275","2","25","Female","approach_avoid_spark_v1","""event"",""trial"",""time""
""fullscreenenter"",""1"",""19555""
","
","
","""event"",""trial"",""time""
""fullscreenenter"",""1"",""19555""
","
","","","","","","null","<div style=""font-size:60px;"">+</div>","null","","fixation","","","","","","","","","","",""
"aa-learning-trial","87","714237","0.0-9.0-2.0-1.7","6275","2","25","Female","approach_avoid_spark_v1","""event"",""trial"",""time""
""fullscreenenter"",""1"",""19555""
","
","
","""event"",""trial"",""time""
""fullscreenenter"",""1"",""19555""
","
","","","","","","727.2999999523163","images/cat5.png","","","learning","-1","0","0","0","cat","pets","2","0","","good","[5]"
"html-keyboard-response","88","714743","0.0-9.0-2.0-0.8","6275","2","25","Female","approach_avoid_spark_v1","""event"",""trial"",""time""
""fullscreenenter"",""1"",""19555""
","
","
","""event"",""trial"",""time""
""fullscreenenter"",""1"",""19555""
","
","","","","","","null","<div style=""font-size:60px;"">+</div>","null","","fixation","","","","","","","","","","",""
"aa-learning-trial","89","717759","0.0-9.0-2.0-1.8","6275","2","25","Female","approach_avoid_spark_v1","""event"",""trial"",""time""
""fullscreenenter"",""1"",""19555""
","
","
","""event"",""trial"",""time""
""fullscreenenter"",""1"",""19555""
","
","","","","","","415.60000002384186","images/rabbit5.png","","","learning","-3","-3","1","1","rabbit","pets","2","0","","neutral","0"
"html-keyboard-response","90","718268","0.0-9.0-2.0-0.9","6275","2","25","Female","approach_avoid_spark_v1","""event"",""trial"",""time""
""fullscreenenter"",""1"",""19555""
","
","
","""event"",""trial"",""time""
""fullscreenenter"",""1"",""19555""
","
","","","","","","null","<div style=""font-size:60px;"">+</div>","null","","fixation","","","","","","","","","","",""
"aa-learning-trial","91","721281","0.0-9.0-2.0-1.9","6275","2","25","Female","approach_avoid_spark_v1","""event"",""trial"",""time""
""fullscreenenter"",""1"",""19555""
","
","
","""event"",""trial"",""time""
""fullscreenenter"",""1"",""19555""
","
","","","","","","956.8999999761581","images/cat6.png","","","learning","3","3","1","1","cat","pets","2","0","","good","[5]"
"html-keyboard-response","92","721795","0.0-9.0-2.0-0.10","6275","2","25","Female","approach_avoid_spark_v1","""event"",""trial"",""time""
""fullscreenenter"",""1"",""19555""
","
","
","""event"",""trial"",""time""
""fullscreenenter"",""1"",""19555""
","
","","","","","","null","<div style=""font-size:60px;"">+</div>","null","","fixation","","","","","","","","","","",""
"aa-learning-trial","93","724809","0.0-9.0-2.0-1.10","6275","2","25","Female","approach_avoid_spark_v1","""event"",""trial"",""time""
""fullscreenenter"",""1"",""19555""
","
","
","""event"",""trial"",""time""
""fullscreenenter"",""1"",""19555""
","
","","","","","","621.8000000715256","images/rabbit5.png","","","learning","-3","0","0","0","rabbit","pets","2","0","","neutral","0"
"html-keyboard-response","94","725320","0.0-9.0-2.0-0.11","6275","2","25","Female","approach_avoid_spark_v1","""event"",""trial"",""time""
""fullscreenenter"",""1"",""19555""
","
","
","""event"",""trial"",""time""
""fullscreenenter"",""1"",""19555""
","
","","","","","","null","<div style=""font-size:60px;"">+</div>","null","","fixation","","","","","","","","","","",""
"aa-learning-trial","95","728331","0.0-9.0-2.0-1.11","6275","2","25","Female","approach_avoid_spark_v1","""event"",""trial"",""time""
""fullscreenenter"",""1"",""19555""
","
","
","""event"",""trial"",""time""
""fullscreenenter"",""1"",""19555""
","
","","","","","","703.7000000476837","images/cat2.png","","","learning","-5","-5","1","1","cat","pets","2","0","","good","[5]"
"html-keyboard-response","96","728836","0.0-9.0-2.0-0.12","6275","2","25","Female","approach_avoid_spark_v1","""event"",""trial"",""time""
""fullscreenenter"",""1"",""19555""
","
","
","""event"",""trial"",""time""
""fullscreenenter"",""1"",""19555""
","
","","","","","","null","<div style=""font-size:60px;"">+</div>","null","","fixation","","","","","","","","","","",""
"aa-learning-trial","97","731851","0.0-9.0-2.0-1.12","6275","2","25","Female","approach_avoid_spark_v1","""event"",""trial"",""time""
""fullscreenenter"",""1"",""19555""
","
","
","""event"",""trial"",""time""
""fullscreenenter"",""1"",""19555""
","
","","","","","","901","images/rodent7.png","","","learning","6","6","1","1","rodent","pets","2","0","","bad","[-6]"
"html-keyboard-response","98","732368","0.0-9.0-2.0-0.13","6275","2","25","Female","approach_avoid_spark_v1","""event"",""trial"",""time""
""fullscreenenter"",""1"",""19555""
","
","
","""event"",""trial"",""time""
""fullscreenenter"",""1"",""19555""
","
","","","","","","null","<div style=""font-size:60px;"">+</div>","null","","fixation","","","","","","","","","","",""
"aa-learning-trial","99","735379","0.0-9.0-2.0-1.13","6275","2","25","Female","approach_avoid_spark_v1","""event"",""trial"",""time""
""fullscreenenter"",""1"",""19555""
","
","
","""event"",""trial"",""time""
""fullscreenenter"",""1"",""19555""
","
","","","","","","703.2999999523163","images/cat6.png","","","learning","3","0","0","0","cat","pets","2","0","","good","[5]"
"html-keyboard-response","100","735895","0.0-9.0-2.0-0.14","6275","2","25","Female","approach_avoid_spark_v1","""event"",""trial"",""time""
""fullscreenenter"",""1"",""19555""
","
","
","""event"",""trial"",""time""
""fullscreenenter"",""1"",""19555""
","
","","","","","","null","<div style=""font-size:60px;"">+</div>","null","","fixation","","","","","","","","","","",""
"aa-learning-trial","101","738911","0.0-9.0-2.0-1.14","6275","2","25","Female","approach_avoid_spark_v1","""event"",""trial"",""time""
""fullscreenenter"",""1"",""19555""
","
","
","""event"",""trial"",""time""
""fullscreenenter"",""1"",""19555""
","
","","","","","","465.40000009536743","images/rabbit2.png","","","learning","1","0","0","0","rabbit","pets","2","0","","neutral","0"
"html-keyboard-response","102","739422","0.0-9.0-2.0-0.15","6275","2","25","Female","approach_avoid_spark_v1","""event"",""trial"",""time""
""fullscreenenter"",""1"",""19555""
","
","
","""event"",""trial"",""time""
""fullscreenenter"",""1"",""19555""
","
","","","","","","null","<div style=""font-size:60px;"">+</div>","null","","fixation","","","","","","","","","","",""
"aa-learning-trial","103","742436","0.0-9.0-2.0-1.15","6275","2","25","Female","approach_avoid_spark_v1","""event"",""trial"",""time""
""fullscreenenter"",""1"",""19555""
","
","
","""event"",""trial"",""time""
""fullscreenenter"",""1"",""19555""
","
","","","","","","486.90000009536743","images/rodent8.png","","","learning","-2","0","0","0","rodent","pets","2","0","","bad","[-6]"
"html-keyboard-response","104","742959","0.0-9.0-2.0-0.16","6275","2","25","Female","approach_avoid_spark_v1","""event"",""trial"",""time""
""fullscreenenter"",""1"",""19555""
","
","
","""event"",""trial"",""time""
""fullscreenenter"",""1"",""19555""
","
","","","","","","null","<div style=""font-size:60px;"">+</div>","null","","fixation","","","","","","","","","","",""
"aa-learning-trial","105","745975","0.0-9.0-2.0-1.16","6275","2","25","Female","approach_avoid_spark_v1","""event"",""trial"",""time""
""fullscreenenter"",""1"",""19555""
","
","
","""event"",""trial"",""time""
""fullscreenenter"",""1"",""19555""
","
","","","","","","366.7999999523163","images/rabbit2.png","","","learning","1","1","1","1","rabbit","pets","2","0","","neutral","0"
"html-keyboard-response","106","746499","0.0-9.0-2.0-0.17","6275","2","25","Female","approach_avoid_spark_v1","""event"",""trial"",""time""
""fullscreenenter"",""1"",""19555""
","
","
","""event"",""trial"",""time""
""fullscreenenter"",""1"",""19555""
","
","","","","","","null","<div style=""font-size:60px;"">+</div>","null","","fixation","","","","","","","","","","",""
"aa-learning-trial","107","749503","0.0-9.0-2.0-1.17","6275","2","25","Female","approach_avoid_spark_v1","""event"",""trial"",""time""
""fullscreenenter"",""1"",""19555""
","
","
","""event"",""trial"",""time""
""fullscreenenter"",""1"",""19555""
","
","","","","","","344.39999997615814","images/rabbit5.png","","","learning","-3","-3","1","1","rabbit","pets","2","0","","neutral","0"
"html-keyboard-response","108","750011","0.0-9.0-2.0-0.18","6275","2","25","Female","approach_avoid_spark_v1","""event"",""trial"",""time""
""fullscreenenter"",""1"",""19555""
","
","
","""event"",""trial"",""time""
""fullscreenenter"",""1"",""19555""
","
","","","","","","null","<div style=""font-size:60px;"">+</div>","null","","fixation","","","","","","","","","","",""
"aa-learning-trial","109","753024","0.0-9.0-2.0-1.18","6275","2","25","Female","approach_avoid_spark_v1","""event"",""trial"",""time""
""fullscreenenter"",""1"",""19555""
","
","
","""event"",""trial"",""time""
""fullscreenenter"",""1"",""19555""
","
","","","","","","200.10000002384186","images/rabbit4.png","","","learning","9","9","1","1","rabbit","pets","2","0","","neutral","0"
"html-keyboard-response","110","753532","0.0-9.0-2.0-0.19","6275","2","25","Female","approach_avoid_spark_v1","""event"",""trial"",""time""
""fullscreenenter"",""1"",""19555""
","
","
","""event"",""trial"",""time""
""fullscreenenter"",""1"",""19555""
","
","","","","","","null","<div style=""font-size:60px;"">+</div>","null","","fixation","","","","","","","","","","",""
"aa-learning-trial","111","756546","0.0-9.0-2.0-1.19","6275","2","25","Female","approach_avoid_spark_v1","""event"",""trial"",""time""
""fullscreenenter"",""1"",""19555""
","
","
","""event"",""trial"",""time""
""fullscreenenter"",""1"",""19555""
","
","","","","","","342.5","images/cat2.png","","","learning","-5","0","0","0","cat","pets","2","0","","good","[5]"
"html-keyboard-response","112","757052","0.0-9.0-2.0-0.20","6275","2","25","Female","approach_avoid_spark_v1","""event"",""trial"",""time""
""fullscreenenter"",""1"",""19555""
","
","
","""event"",""trial"",""time""
""fullscreenenter"",""1"",""19555""
","
","","","","","","null","<div style=""font-size:60px;"">+</div>","null","","fixation","","","","","","","","","","",""
"aa-learning-trial","113","760063","0.0-9.0-2.0-1.20","6275","2","25","Female","approach_avoid_spark_v1","""event"",""trial"",""time""
""fullscreenenter"",""1"",""19555""
","
","
","""event"",""trial"",""time""
""fullscreenenter"",""1"",""19555""
","
","","","","","","441.7000000476837","images/cat6.png","","","learning","3","3","1","1","cat","pets","2","0","","good","[5]"
"html-keyboard-response","114","760573","0.0-9.0-2.0-0.21","6275","2","25","Female","approach_avoid_spark_v1","""event"",""trial"",""time""
""fullscreenenter"",""1"",""19555""
","
","
","""event"",""trial"",""time""
""fullscreenenter"",""1"",""19555""
","
","","","","","","null","<div style=""font-size:60px;"">+</div>","null","","fixation","","","","","","","","","","",""
"aa-learning-trial","115","763582","0.0-9.0-2.0-1.21","6275","2","25","Female","approach_avoid_spark_v1","""event"",""trial"",""time""
""fullscreenenter"",""1"",""19555""
","
","
","""event"",""trial"",""time""
""fullscreenenter"",""1"",""19555""
","
","","","","","","363.89999997615814","images/rabbit5.png","","","learning","-3","0","0","0","rabbit","pets","2","0","","neutral","0"
"html-keyboard-response","116","764092","0.0-9.0-2.0-0.22","6275","2","25","Female","approach_avoid_spark_v1","""event"",""trial"",""time""
""fullscreenenter"",""1"",""19555""
","
","
","""event"",""trial"",""time""
""fullscreenenter"",""1"",""19555""
","
","","","","","","null","<div style=""font-size:60px;"">+</div>","null","","fixation","","","","","","","","","","",""
"aa-learning-trial","117","767112","0.0-9.0-2.0-1.22","6275","2","25","Female","approach_avoid_spark_v1","""event"",""trial"",""time""
""fullscreenenter"",""1"",""19555""
","
","
","""event"",""trial"",""time""
""fullscreenenter"",""1"",""19555""
","
","","","","","","411.6999999284744","images/rabbit8.png","","","learning","-9","0","0","0","rabbit","pets","2","0","","neutral","0"
"html-keyboard-response","118","767624","0.0-9.0-2.0-0.23","6275","2","25","Female","approach_avoid_spark_v1","""event"",""trial"",""time""
""fullscreenenter"",""1"",""19555""
","
","
","""event"",""trial"",""time""
""fullscreenenter"",""1"",""19555""
","
","","","","","","null","<div style=""font-size:60px;"">+</div>","null","","fixation","","","","","","","","","","",""
"aa-learning-trial","119","770638","0.0-9.0-2.0-1.23","6275","2","25","Female","approach_avoid_spark_v1","""event"",""trial"",""time""
""fullscreenenter"",""1"",""19555""
","
","
","""event"",""trial"",""time""
""fullscreenenter"",""1"",""19555""
","
","","","","","","319","images/rodent3.png","","","learning","-4","-4","1","1","rodent","pets","2","0","","bad","[-6]"
"html-keyboard-response","120","771150","0.0-9.0-2.0-0.24","6275","2","25","Female","approach_avoid_spark_v1","""event"",""trial"",""time""
""fullscreenenter"",""1"",""19555""
","
","
","""event"",""trial"",""time""
""fullscreenenter"",""1"",""19555""
","
","","","","","","null","<div style=""font-size:60px;"">+</div>","null","","fixation","","","","","","","","","","",""
"aa-learning-trial","121","774168","0.0-9.0-2.0-1.24","6275","2","25","Female","approach_avoid_spark_v1","""event"",""trial"",""time""
""fullscreenenter"",""1"",""19555""
","
","
","""event"",""trial"",""time""
""fullscreenenter"",""1"",""19555""
","
","","","","","","214.89999997615814","images/rodent7.png","","","learning","6","6","1","1","rodent","pets","2","0","","bad","[-6]"
"html-keyboard-response","122","774677","0.0-9.0-2.0-0.25","6275","2","25","Female","approach_avoid_spark_v1","""event"",""trial"",""time""
""fullscreenenter"",""1"",""19555""
","
","
","""event"",""trial"",""time""
""fullscreenenter"",""1"",""19555""
","
","","","","","","null","<div style=""font-size:60px;"">+</div>","null","","fixation","","","","","","","","","","",""
"aa-learning-trial","123","777690","0.0-9.0-2.0-1.25","6275","2","25","Female","approach_avoid_spark_v1","""event"",""trial"",""time""
""fullscreenenter"",""1"",""19555""
","
","
","""event"",""trial"",""time""
""fullscreenenter"",""1"",""19555""
","
","","","","","","468.1999999284744","images/rabbit5.png","","","learning","-3","0","0","0","rabbit","pets","2","0","","neutral","0"
"html-keyboard-response","124","778198","0.0-9.0-2.0-0.26","6275","2","25","Female","approach_avoid_spark_v1","""event"",""trial"",""time""
""fullscreenenter"",""1"",""19555""
","
","
","""event"",""trial"",""time""
""fullscreenenter"",""1"",""19555""
","
","","","","","","null","<div style=""font-size:60px;"">+</div>","null","","fixation","","","","","","","","","","",""
"aa-learning-trial","125","781212","0.0-9.0-2.0-1.26","6275","2","25","Female","approach_avoid_spark_v1","""event"",""trial"",""time""
""fullscreenenter"",""1"",""19555""
","
","
","""event"",""trial"",""time""
""fullscreenenter"",""1"",""19555""
","
","","","","","","517.3999999761581","images/cat6.png","","","learning","3","0","0","0","cat","pets","2","0","","good","[5]"
"html-keyboard-response","126","781728","0.0-9.0-2.0-0.27","6275","2","25","Female","approach_avoid_spark_v1","""event"",""trial"",""time""
""fullscreenenter"",""1"",""19555""
","
","
","""event"",""trial"",""time""
""fullscreenenter"",""1"",""19555""
","
","","","","","","null","<div style=""font-size:60px;"">+</div>","null","","fixation","","","","","","","","","","",""
"aa-learning-trial","127","784743","0.0-9.0-2.0-1.27","6275","2","25","Female","approach_avoid_spark_v1","""event"",""trial"",""time""
""fullscreenenter"",""1"",""19555""
","
","
","""event"",""trial"",""time""
""fullscreenenter"",""1"",""19555""
","
","","","","","","336.89999997615814","images/rabbit8.png","","","learning","-9","0","0","0","rabbit","pets","2","0","","neutral","0"
"html-keyboard-response","128","785256","0.0-9.0-2.0-0.28","6275","2","25","Female","approach_avoid_spark_v1","""event"",""trial"",""time""
""fullscreenenter"",""1"",""19555""
","
","
","""event"",""trial"",""time""
""fullscreenenter"",""1"",""19555""
","
","","","","","","null","<div style=""font-size:60px;"">+</div>","null","","fixation","","","","","","","","","","",""
"aa-learning-trial","129","788272","0.0-9.0-2.0-1.28","6275","2","25","Female","approach_avoid_spark_v1","""event"",""trial"",""time""
""fullscreenenter"",""1"",""19555""
","
","
","""event"",""trial"",""time""
""fullscreenenter"",""1"",""19555""
","
","","","","","","246.39999997615814","images/rodent3.png","","","learning","-4","-4","1","1","rodent","pets","2","0","","bad","[-6]"
"html-keyboard-response","130","788780","0.0-9.0-2.0-0.29","6275","2","25","Female","approach_avoid_spark_v1","""event"",""trial"",""time""
""fullscreenenter"",""1"",""19555""
","
","
","""event"",""trial"",""time""
""fullscreenenter"",""1"",""19555""
","
","","","","","","null","<div style=""font-size:60px;"">+</div>","null","","fixation","","","","","","","","","","",""
"aa-learning-trial","131","791794","0.0-9.0-2.0-1.29","6275","2","25","Female","approach_avoid_spark_v1","""event"",""trial"",""time""
""fullscreenenter"",""1"",""19555""
","
","
","""event"",""trial"",""time""
""fullscreenenter"",""1"",""19555""
","
","","","","","","276.7000000476837","images/rabbit5.png","","","learning","-3","-3","1","1","rabbit","pets","2","0","","neutral","0"
"html-keyboard-response","132","792305","0.0-9.0-2.0-0.30","6275","2","25","Female","approach_avoid_spark_v1","""event"",""trial"",""time""
""fullscreenenter"",""1"",""19555""
","
","
","""event"",""trial"",""time""
""fullscreenenter"",""1"",""19555""
","
","","","","","","null","<div style=""font-size:60px;"">+</div>","null","","fixation","","","","","","","","","","",""
"aa-learning-trial","133","795320","0.0-9.0-2.0-1.30","6275","2","25","Female","approach_avoid_spark_v1","""event"",""trial"",""time""
""fullscreenenter"",""1"",""19555""
","
","
","""event"",""trial"",""time""
""fullscreenenter"",""1"",""19555""
","
","","","","","","271.39999997615814","images/rabbit2.png","","","learning","1","0","0","0","rabbit","pets","2","0","","neutral","0"
"html-keyboard-response","134","795835","0.0-9.0-2.0-0.31","6275","2","25","Female","approach_avoid_spark_v1","""event"",""trial"",""time""
""fullscreenenter"",""1"",""19555""
","
","
","""event"",""trial"",""time""
""fullscreenenter"",""1"",""19555""
","
","","","","","","null","<div style=""font-size:60px;"">+</div>","null","","fixation","","","","","","","","","","",""
"aa-learning-trial","135","798845","0.0-9.0-2.0-1.31","6275","2","25","Female","approach_avoid_spark_v1","""event"",""trial"",""time""
""fullscreenenter"",""1"",""19555""
","
","
","""event"",""trial"",""time""
""fullscreenenter"",""1"",""19555""
","
","","","","","","344.60000002384186","images/rodent3.png","","","learning","-4","-4","1","1","rodent","pets","2","0","","bad","[-6]"
"html-keyboard-response","136","799349","0.0-9.0-2.0-0.32","6275","2","25","Female","approach_avoid_spark_v1","""event"",""trial"",""time""
""fullscreenenter"",""1"",""19555""
","
","
","""event"",""trial"",""time""
""fullscreenenter"",""1"",""19555""
","
","","","","","","null","<div style=""font-size:60px;"">+</div>","null","","fixation","","","","","","","","","","",""
"aa-learning-trial","137","802361","0.0-9.0-2.0-1.32","6275","2","25","Female","approach_avoid_spark_v1","""event"",""trial"",""time""
""fullscreenenter"",""1"",""19555""
","
","
","""event"",""trial"",""time""
""fullscreenenter"",""1"",""19555""
","
","","","","","","560.4000000953674","images/rodent8.png","","","learning","-2","-2","1","1","rodent","pets","2","0","","bad","[-6]"
"html-keyboard-response","138","802868","0.0-9.0-2.0-0.33","6275","2","25","Female","approach_avoid_spark_v1","""event"",""trial"",""time""
""fullscreenenter"",""1"",""19555""
","
","
","""event"",""trial"",""time""
""fullscreenenter"",""1"",""19555""
","
","","","","","","null","<div style=""font-size:60px;"">+</div>","null","","fixation","","","","","","","","","","",""
"aa-learning-trial","139","805878","0.0-9.0-2.0-1.33","6275","2","25","Female","approach_avoid_spark_v1","""event"",""trial"",""time""
""fullscreenenter"",""1"",""19555""
","
","
","""event"",""trial"",""time""
""fullscreenenter"",""1"",""19555""
","
","","","","","","257.89999997615814","images/cat6.png","","","learning","3","0","0","0","cat","pets","2","0","","good","[5]"
"html-keyboard-response","140","806395","0.0-9.0-2.0-0.34","6275","2","25","Female","approach_avoid_spark_v1","""event"",""trial"",""time""
""fullscreenenter"",""1"",""19555""
","
","
","""event"",""trial"",""time""
""fullscreenenter"",""1"",""19555""
","
","","","","","","null","<div style=""font-size:60px;"">+</div>","null","","fixation","","","","","","","","","","",""
"aa-learning-trial","141","809404","0.0-9.0-2.0-1.34","6275","2","25","Female","approach_avoid_spark_v1","""event"",""trial"",""time""
""fullscreenenter"",""1"",""19555""
","
","
","""event"",""trial"",""time""
""fullscreenenter"",""1"",""19555""
","
","","","","","","463.60000002384186","images/cat6.png","","","learning","3","3","1","1","cat","pets","2","0","","good","[5]"
"html-keyboard-response","142","809912","0.0-9.0-2.0-0.35","6275","2","25","Female","approach_avoid_spark_v1","""event"",""trial"",""time""
""fullscreenenter"",""1"",""19555""
","
","
","""event"",""trial"",""time""
""fullscreenenter"",""1"",""19555""
","
","","","","","","null","<div style=""font-size:60px;"">+</div>","null","","fixation","","","","","","","","","","",""
"aa-learning-trial","143","812925","0.0-9.0-2.0-1.35","6275","2","25","Female","approach_avoid_spark_v1","""event"",""trial"",""time""
""fullscreenenter"",""1"",""19555""
","
","
","""event"",""trial"",""time""
""fullscreenenter"",""1"",""19555""
","
","","","","","","969.3000000715256","images/rodent7.png","","","learning","6","6","1","1","rodent","pets","2","0","","bad","[-6]"
"html-keyboard-response","144","813450","0.0-9.0-2.0-0.36","6275","2","25","Female","approach_avoid_spark_v1","""event"",""trial"",""time""
""fullscreenenter"",""1"",""19555""
","
","
","""event"",""trial"",""time""
""fullscreenenter"",""1"",""19555""
","
","","","","","","null","<div style=""font-size:60px;"">+</div>","null","","fixation","","","","","","","","","","",""
"aa-learning-trial","145","816462","0.0-9.0-2.0-1.36","6275","2","25","Female","approach_avoid_spark_v1","""event"",""trial"",""time""
""fullscreenenter"",""1"",""19555""
","
","
","""event"",""trial"",""time""
""fullscreenenter"",""1"",""19555""
","
","","","","","","872.8999999761581","images/cat5.png","","","learning","-1","-1","1","1","cat","pets","2","0","","good","[5]"
"html-keyboard-response","146","816978","0.0-9.0-2.0-0.37","6275","2","25","Female","approach_avoid_spark_v1","""event"",""trial"",""time""
""fullscreenenter"",""1"",""19555""
","
","
","""event"",""trial"",""time""
""fullscreenenter"",""1"",""19555""
","
","","","","","","null","<div style=""font-size:60px;"">+</div>","null","","fixation","","","","","","","","","","",""
"aa-learning-trial","147","819987","0.0-9.0-2.0-1.37","6275","2","25","Female","approach_avoid_spark_v1","""event"",""trial"",""time""
""fullscreenenter"",""1"",""19555""
","
","
","""event"",""trial"",""time""
""fullscreenenter"",""1"",""19555""
","
","","","","","","2183.2999999523163","images/rodent2.png","","","learning","-7","-7","1","1","rodent","pets","2","0","","bad","[-6]"
"html-keyboard-response","148","820496","0.0-9.0-2.0-0.38","6275","2","25","Female","approach_avoid_spark_v1","""event"",""trial"",""time""
""fullscreenenter"",""1"",""19555""
","
","
","""event"",""trial"",""time""
""fullscreenenter"",""1"",""19555""
","
","","","","","","null","<div style=""font-size:60px;"">+</div>","null","","fixation","","","","","","","","","","",""
"aa-learning-trial","149","823523","0.0-9.0-2.0-1.38","6275","2","25","Female","approach_avoid_spark_v1","""event"",""trial"",""time""
""fullscreenenter"",""1"",""19555""
","
","
","""event"",""trial"",""time""
""fullscreenenter"",""1"",""19555""
","
","","","","","","570.6000000238419","images/rodent7.png","","","learning","6","6","1","1","rodent","pets","2","0","","bad","[-6]"
"html-keyboard-response","150","824033","0.0-9.0-2.0-0.39","6275","2","25","Female","approach_avoid_spark_v1","""event"",""trial"",""time""
""fullscreenenter"",""1"",""19555""
","
","
","""event"",""trial"",""time""
""fullscreenenter"",""1"",""19555""
","
","","","","","","null","<div style=""font-size:60px;"">+</div>","null","","fixation","","","","","","","","","","",""
"aa-learning-trial","151","827043","0.0-9.0-2.0-1.39","6275","2","25","Female","approach_avoid_spark_v1","""event"",""trial"",""time""
""fullscreenenter"",""1"",""19555""
","
","
","""event"",""trial"",""time""
""fullscreenenter"",""1"",""19555""
","
","","","","","","1155.1999999284744","images/cat5.png","","","learning","-1","0","0","0","cat","pets","2","0","","good","[5]"
"html-keyboard-response","152","827549","0.0-9.0-2.0-0.40","6275","2","25","Female","approach_avoid_spark_v1","""event"",""trial"",""time""
""fullscreenenter"",""1"",""19555""
","
","
","""event"",""trial"",""time""
""fullscreenenter"",""1"",""19555""
","
","","","","","","null","<div style=""font-size:60px;"">+</div>","null","","fixation","","","","","","","","","","",""
"aa-learning-trial","153","830569","0.0-9.0-2.0-1.40","6275","2","25","Female","approach_avoid_spark_v1","""event"",""trial"",""time""
""fullscreenenter"",""1"",""19555""
","
","
","""event"",""trial"",""time""
""fullscreenenter"",""1"",""19555""
","
","","","","","","551","images/rodent7.png","","","learning","6","6","1","1","rodent","pets","2","0","","bad","[-6]"
"html-keyboard-response","154","831077","0.0-9.0-2.0-0.41","6275","2","25","Female","approach_avoid_spark_v1","""event"",""trial"",""time""
""fullscreenenter"",""1"",""19555""
","
","
","""event"",""trial"",""time""
""fullscreenenter"",""1"",""19555""
","
","","","","","","null","<div style=""font-size:60px;"">+</div>","null","","fixation","","","","","","","","","","",""
"aa-learning-trial","155","834092","0.0-9.0-2.0-1.41","6275","2","25","Female","approach_avoid_spark_v1","""event"",""trial"",""time""
""fullscreenenter"",""1"",""19555""
","
","
","""event"",""trial"",""time""
""fullscreenenter"",""1"",""19555""
","
","","","","","","680.7000000476837","images/cat1.png","","","learning","-8","0","0","0","cat","pets","2","0","","good","[5]"
"html-keyboard-response","156","834607","0.0-9.0-2.0-0.42","6275","2","25","Female","approach_avoid_spark_v1","""event"",""trial"",""time""
""fullscreenenter"",""1"",""19555""
","
","
","""event"",""trial"",""time""
""fullscreenenter"",""1"",""19555""
","
","","","","","","null","<div style=""font-size:60px;"">+</div>","null","","fixation","","","","","","","","","","",""
"aa-learning-trial","157","837621","0.0-9.0-2.0-1.42","6275","2","25","Female","approach_avoid_spark_v1","""event"",""trial"",""time""
""fullscreenenter"",""1"",""19555""
","
","
","""event"",""trial"",""time""
""fullscreenenter"",""1"",""19555""
","
","","","","","","948","images/rodent1.png","","","learning","5","0","0","0","rodent","pets","2","0","","bad","[-6]"
"html-keyboard-response","158","838130","0.0-9.0-2.0-0.43","6275","2","25","Female","approach_avoid_spark_v1","""event"",""trial"",""time""
""fullscreenenter"",""1"",""19555""
","
","
","""event"",""trial"",""time""
""fullscreenenter"",""1"",""19555""
","
","","","","","","null","<div style=""font-size:60px;"">+</div>","null","","fixation","","","","","","","","","","",""
"aa-learning-trial","159","841143","0.0-9.0-2.0-1.43","6275","2","25","Female","approach_avoid_spark_v1","""event"",""trial"",""time""
""fullscreenenter"",""1"",""19555""
","
","
","""event"",""trial"",""time""
""fullscreenenter"",""1"",""19555""
","
","","","","","","1177.7999999523163","images/cat2.png","","","learning","-5","0","0","0","cat","pets","2","0","","good","[5]"
"html-keyboard-response","160","841654","0.0-9.0-2.0-0.44","6275","2","25","Female","approach_avoid_spark_v1","""event"",""trial"",""time""
""fullscreenenter"",""1"",""19555""
","
","
","""event"",""trial"",""time""
""fullscreenenter"",""1"",""19555""
","
","","","","","","null","<div style=""font-size:60px;"">+</div>","null","","fixation","","","","","","","","","","",""
"aa-learning-trial","161","844664","0.0-9.0-2.0-1.44","6275","2","25","Female","approach_avoid_spark_v1","""event"",""trial"",""time""
""fullscreenenter"",""1"",""19555""
","
","
","""event"",""trial"",""time""
""fullscreenenter"",""1"",""19555""
","
","","","","","","712.7000000476837","images/rabbit2.png","","","learning","1","1","1","1","rabbit","pets","2","0","","neutral","0"
"html-keyboard-response","162","845175","0.0-9.0-2.0-0.45","6275","2","25","Female","approach_avoid_spark_v1","""event"",""trial"",""time""
""fullscreenenter"",""1"",""19555""
","
","
","""event"",""trial"",""time""
""fullscreenenter"",""1"",""19555""
","
","","","","","","null","<div style=""font-size:60px;"">+</div>","null","","fixation","","","","","","","","","","",""
"aa-learning-trial","163","848191","0.0-9.0-2.0-1.45","6275","2","25","Female","approach_avoid_spark_v1","""event"",""trial"",""time""
""fullscreenenter"",""1"",""19555""
","
","
","""event"",""trial"",""time""
""fullscreenenter"",""1"",""19555""
","
","","","","","","918.5999999046326","images/rabbit6.png","","","learning","4","0","0","0","rabbit","pets","2","0","","neutral","0"
"html-keyboard-response","164","848708","0.0-9.0-2.0-0.46","6275","2","25","Female","approach_avoid_spark_v1","""event"",""trial"",""time""
""fullscreenenter"",""1"",""19555""
","
","
","""event"",""trial"",""time""
""fullscreenenter"",""1"",""19555""
","
","","","","","","null","<div style=""font-size:60px;"">+</div>","null","","fixation","","","","","","","","","","",""
"aa-learning-trial","165","851723","0.0-9.0-2.0-1.46","6275","2","25","Female","approach_avoid_spark_v1","""event"",""trial"",""time""
""fullscreenenter"",""1"",""19555""
","
","
","""event"",""trial"",""time""
""fullscreenenter"",""1"",""19555""
","
","","","","","","845.7000000476837","images/rabbit2.png","","","learning","1","1","1","1","rabbit","pets","2","0","","neutral","0"
"html-keyboard-response","166","852228","0.0-9.0-2.0-0.47","6275","2","25","Female","approach_avoid_spark_v1","""event"",""trial"",""time""
""fullscreenenter"",""1"",""19555""
","
","
","""event"",""trial"",""time""
""fullscreenenter"",""1"",""19555""
","
","","","","","","null","<div style=""font-size:60px;"">+</div>","null","","fixation","","","","","","","","","","",""
"aa-learning-trial","167","855239","0.0-9.0-2.0-1.47","6275","2","25","Female","approach_avoid_spark_v1","""event"",""trial"",""time""
""fullscreenenter"",""1"",""19555""
","
","
","""event"",""trial"",""time""
""fullscreenenter"",""1"",""19555""
","
","","","","","","775.5","images/rodent3.png","","","learning","-4","0","0","0","rodent","pets","2","0","","bad","[-6]"
"html-keyboard-response","168","855754","0.0-9.0-2.0-0.48","6275","2","25","Female","approach_avoid_spark_v1","""event"",""trial"",""time""
""fullscreenenter"",""1"",""19555""
","
","
","""event"",""trial"",""time""
""fullscreenenter"",""1"",""19555""
","
","","","","","","null","<div style=""font-size:60px;"">+</div>","null","","fixation","","","","","","","","","","",""
"aa-learning-trial","169","858769","0.0-9.0-2.0-1.48","6275","2","25","Female","approach_avoid_spark_v1","""event"",""trial"",""time""
""fullscreenenter"",""1"",""19555""
","
","
","""event"",""trial"",""time""
""fullscreenenter"",""1"",""19555""
","
","","","","","","1138.5","images/cat4.png","","","learning","7","0","0","0","cat","pets","2","0","","good","[5]"
"html-keyboard-response","170","859279","0.0-9.0-2.0-0.49","6275","2","25","Female","approach_avoid_spark_v1","""event"",""trial"",""time""
""fullscreenenter"",""1"",""19555""
","
","
","""event"",""trial"",""time""
""fullscreenenter"",""1"",""19555""
","
","","","","","","null","<div style=""font-size:60px;"">+</div>","null","","fixation","","","","","","","","","","",""
"aa-learning-trial","171","862291","0.0-9.0-2.0-1.49","6275","2","25","Female","approach_avoid_spark_v1","""event"",""trial"",""time""
""fullscreenenter"",""1"",""19555""
","
","
","""event"",""trial"",""time""
""fullscreenenter"",""1"",""19555""
","
","","","","","","694.8999999761581","images/cat2.png","","","learning","-5","0","0","0","cat","pets","2","0","","good","[5]"
"html-keyboard-response","172","862797","0.0-9.0-2.0-0.50","6275","2","25","Female","approach_avoid_spark_v1","""event"",""trial"",""time""
""fullscreenenter"",""1"",""19555""
","
","
","""event"",""trial"",""time""
""fullscreenenter"",""1"",""19555""
","
","","","","","","null","<div style=""font-size:60px;"">+</div>","null","","fixation","","","","","","","","","","",""
"aa-learning-trial","173","865809","0.0-9.0-2.0-1.50","6275","2","25","Female","approach_avoid_spark_v1","""event"",""trial"",""time""
""fullscreenenter"",""1"",""19555""
","
","
","""event"",""trial"",""time""
""fullscreenenter"",""1"",""19555""
","
","","","","","","569.0999999046326","images/cat2.png","","","learning","-5","0","0","0","cat","pets","2","0","","good","[5]"
"html-button-response","174","869441","0.0-9.0-3.0","6275","2","25","Female","approach_avoid_spark_v1","""event"",""trial"",""time""
""fullscreenenter"",""1"",""19555""
","
","
","""event"",""trial"",""time""
""fullscreenenter"",""1"",""19555""
","
","","","","","","3627.5","<p> You have completed the round! <p> In this round, you earned 5 points! </p>","0","","break","","","","","","","","","","",""
"html-button-response","175","870577","0.0-10.0","6275","2","25","Female","approach_avoid_spark_v1","""event"",""trial"",""time""
""fullscreenenter"",""1"",""19555""
","
","
","""event"",""trial"",""time""
""fullscreenenter"",""1"",""19555""
","
","","","","","","1133.3999999761581","<p> Now it's time to play another round. </p>","0","","transition_screen","","","","","","","","","","",""
"preload","176","870720","0.0-11.0-0.0","6275","2","25","Female","approach_avoid_spark_v1","""event"",""trial"",""time""
""fullscreenenter"",""1"",""19555""
","
","
","""event"",""trial"",""time""
""fullscreenenter"",""1"",""19555""
","
","true","false","[]","[]","[]","","","","","","","","","","","","","","","",""
"learning-instructions","177","1119100","0.0-11.0-1.0-0.0","6275","2","25","Female","approach_avoid_spark_v1","""event"",""trial"",""time""
""fullscreenenter"",""1"",""19555""
","
","
","""event"",""trial"",""time""
""fullscreenenter"",""1"",""19555""
","
","","","","","","243181.19999992847","<p> Your goal in this round is to decorate your friend's new house with furniture. </p></div>","","0","instructions","","","","","","","","","","",""
"learning-instructions","178","1130338","0.0-11.0-1.0-0.1","6275","2","25","Female","approach_avoid_spark_v1","""event"",""trial"",""time""
""fullscreenenter"",""1"",""19555""
","
","
","""event"",""trial"",""time""
""fullscreenenter"",""1"",""19555""
","
","","","","","","1195.5","<p> Your friend likes some pieces of furniture but not others.  </p><p> On each turn, you will see a piece of furniture.   </p><p> You need to decide whether to put it in your friend's house or not.  </p>","","0","instructions","","","","","","","","","","",""
"learning-instructions","179","1152363","0.0-11.0-1.0-0.2","6275","2","25","Female","approach_avoid_spark_v1","""event"",""trial"",""time""
""fullscreenenter"",""1"",""19555""
","
","
","""event"",""trial"",""time""
""fullscreenenter"",""1"",""19555""
","
","","","","","","16510.200000047684","<p> You can put the furniture in her house by pressing 1 and deliver it elsewhere by pressing 0. </p><br><div class=""choice-instructions-grid""> <div class=""choice-option""><img src=""images/approach.png"" class=""choice-option-img"" stage=""instructions"" position=""0"" ><div class=""choice-option-text""> Press ""1."" </div></div><div class=""choice-option""><img src=""images/avoid.png"" class=""choice-option-img"" stage=""instructions"" position=""1"" ><div class=""choice-option-text""> Press ""0."" </div></div>","","0","instructions","","","","","","","","","","",""
"learning-instructions","180","1162055","0.0-11.0-1.0-0.3","6275","2","25","Female","approach_avoid_spark_v1","""event"",""trial"",""time""
""fullscreenenter"",""1"",""19555""
","
","
","""event"",""trial"",""time""
""fullscreenenter"",""1"",""19555""
","
","","","","","","1193.1000000238419","<p> If you decorate your friend's house with furniture she likes, she will be happy! </p><p> But if you give her furniture that she does not like, she will be annoyed. </p>","","0","instructions","","","","","","","","","","",""
"learning-instructions","181","1180500","0.0-11.0-1.0-0.4","6275","2","25","Female","approach_avoid_spark_v1","""event"",""trial"",""time""
""fullscreenenter"",""1"",""19555""
","
","
","""event"",""trial"",""time""
""fullscreenenter"",""1"",""19555""
","
","","","","","","6558.100000023842","<p> You will earn points based on how you made your friend feel. </p><p> If you made her happy, you will WIN anywhere from 1 - 9 points, </p><p> but if you made her annoyed you will LOSE anywhere from 1 - 9 points. </p>","","0","instructions","","","","","","","","","","",""
"learning-instructions","182","1191023","0.0-11.0-1.0-0.5","6275","2","25","Female","approach_avoid_spark_v1","""event"",""trial"",""time""
""fullscreenenter"",""1"",""19555""
","
","
","""event"",""trial"",""time""
""fullscreenenter"",""1"",""19555""
","
","","","","","","3860.899999976158","<p> You will see how many points you won or lost in the center of the screen. </p><p> Here is what you would see if you won 5 points: </p><p style=""color:green;font-size:50px;font-weight:bolder"">5</p>","","0","instructions","","","","","","","","","","",""
"learning-instructions","183","1194251","0.0-11.0-1.0-0.6","6275","2","25","Female","approach_avoid_spark_v1","""event"",""trial"",""time""
""fullscreenenter"",""1"",""19555""
","
","
","""event"",""trial"",""time""
""fullscreenenter"",""1"",""19555""
","
","","","","","","388.60000002384186","<p> And here is what you would see if you lost 3 points: </p><p style=""color:red;font-size:50px;font-weight:bolder"">-3</p>","","0","instructions","","","","","","","","","","",""
"learning-instructions","184","1227697","0.0-11.0-1.0-0.7","6275","2","25","Female","approach_avoid_spark_v1","""event"",""trial"",""time""
""fullscreenenter"",""1"",""19555""
","
","
","""event"",""trial"",""time""
""fullscreenenter"",""1"",""19555""
","
","","","","","","12854.799999952316","<p> Some pieces of furniture will make her feel very happy or very annoyed. </p><p> These pieces of furniture will make you win or lose LOTS of points. </p><p> Other pieces of furniture will only make her feel a little happy or a little annoyed. </p><p> These pieces of furniture will make you win or lose small amounts of points. </p>","","0","instructions","","","","","","","","","","",""
"learning-instructions","185","1254386","0.0-11.0-1.0-0.8","6275","2","25","Female","approach_avoid_spark_v1","""event"",""trial"",""time""
""fullscreenenter"",""1"",""19555""
","
","
","""event"",""trial"",""time""
""fullscreenenter"",""1"",""19555""
","
","","","","","","14254.600000023842","<p> If you choose to deliver a piece of furniture elsewhere, you will not win or lose any points. </p><p>  However, in the center of the screen, you will see the number of points you WOULD HAVE won or lost if you had given the furniture to your friend. </p>","","0","instructions","","","","","","","","","","",""
"learning-instructions","186","1275064","0.0-11.0-1.0-0.9","6275","2","25","Female","approach_avoid_spark_v1","""event"",""trial"",""time""
""fullscreenenter"",""1"",""19555""
","
","
","""event"",""trial"",""time""
""fullscreenenter"",""1"",""19555""
","
","","","","","","9541.600000023842","<p> Here is what you might see if you did not give a piece of furniture to your friend that would have made her happy: </p><p style=""color:grey; font-size:50px; display: inline-block; border-spacing: 15px; border-width:3px; border-style:solid; border-color:red"">  &nbsp; 6 &nbsp; </p><p> Remember, in this case, you would not win or lose ANY points because you did not give her the furniture.  </p>","","0","instructions","","","","","","","","","","",""
"learning-instructions","187","1286181","0.0-11.0-1.0-0.10","6275","2","25","Female","approach_avoid_spark_v1","""event"",""trial"",""time""
""fullscreenenter"",""1"",""19555""
","
","
","""event"",""trial"",""time""
""fullscreenenter"",""1"",""19555""
","
","","","","","","3778.7999999523163","<p> Try to make the best choice for each piece of furniture because </p><p> at the end of the game, you will earn bonus money based on how many points you earned. </p>","","0","instructions","","","","","","","","","","",""
"learning-instructions","188","1295547","0.0-11.0-1.0-0.11","6275","2","25","Female","approach_avoid_spark_v1","""event"",""trial"",""time""
""fullscreenenter"",""1"",""19555""
","
","
","""event"",""trial"",""time""
""fullscreenenter"",""1"",""19555""
","
","","","","","","1155.2999999523163","<p> You will have 3 seconds to make each choice. Try to respond before time runs out! </p><p> You will lose 5 points each time you do not make a response. </p>","","0","instructions","","","","","","","","","","",""
"html-keyboard-response","189","1296179","0.0-11.0-2.0-0.0","6275","2","25","Female","approach_avoid_spark_v1","""event"",""trial"",""time""
""fullscreenenter"",""1"",""19555""
","
","
","""event"",""trial"",""time""
""fullscreenenter"",""1"",""19555""
","
","","","","","","null","<div style=""font-size:60px;"">+</div>","null","","fixation","","","","","","","","","","",""
"aa-learning-trial","190","1299188","0.0-11.0-2.0-1.0","6275","2","25","Female","approach_avoid_spark_v1","""event"",""trial"",""time""
""fullscreenenter"",""1"",""19555""
","
","
","""event"",""trial"",""time""
""fullscreenenter"",""1"",""19555""
","
","","","","","","1446","images/table8.png","","","learning","5","5","1","1","table","furniture","1","1","","good","[3]"
"html-keyboard-response","191","1299694","0.0-11.0-2.0-0.1","6275","2","25","Female","approach_avoid_spark_v1","""event"",""trial"",""time""
""fullscreenenter"",""1"",""19555""
","
","
","""event"",""trial"",""time""
""fullscreenenter"",""1"",""19555""
","
","","","","","","null","<div style=""font-size:60px;"">+</div>","null","","fixation","","","","","","","","","","",""
"aa-learning-trial","192","1302716","0.0-11.0-2.0-1.1","6275","2","25","Female","approach_avoid_spark_v1","""event"",""trial"",""time""
""fullscreenenter"",""1"",""19555""
","
","
","""event"",""trial"",""time""
""fullscreenenter"",""1"",""19555""
","
","","","","","","656.4000000953674","images/sofa8.png","","","learning","-4","-4","1","1","sofa","furniture","1","1","","bad","[-4]"
"html-keyboard-response","193","1303232","0.0-11.0-2.0-0.2","6275","2","25","Female","approach_avoid_spark_v1","""event"",""trial"",""time""
""fullscreenenter"",""1"",""19555""
","
","
","""event"",""trial"",""time""
""fullscreenenter"",""1"",""19555""
","
","","","","","","null","<div style=""font-size:60px;"">+</div>","null","","fixation","","","","","","","","","","",""
"aa-learning-trial","194","1306243","0.0-11.0-2.0-1.2","6275","2","25","Female","approach_avoid_spark_v1","""event"",""trial"",""time""
""fullscreenenter"",""1"",""19555""
","
","
","""event"",""trial"",""time""
""fullscreenenter"",""1"",""19555""
","
","","","","","","835.3999999761581","images/chair6.png","","","learning","2","2","1","1","chair","furniture","1","1","","neutral","0"
"html-keyboard-response","195","1306752","0.0-11.0-2.0-0.3","6275","2","25","Female","approach_avoid_spark_v1","""event"",""trial"",""time""
""fullscreenenter"",""1"",""19555""
","
","
","""event"",""trial"",""time""
""fullscreenenter"",""1"",""19555""
","
","","","","","","null","<div style=""font-size:60px;"">+</div>","null","","fixation","","","","","","","","","","",""
"aa-learning-trial","196","1309775","0.0-11.0-2.0-1.3","6275","2","25","Female","approach_avoid_spark_v1","""event"",""trial"",""time""
""fullscreenenter"",""1"",""19555""
","
","
","""event"",""trial"",""time""
""fullscreenenter"",""1"",""19555""
","
","","","","","","1180.1999999284744","images/chair5.png","","","learning","-1","-1","1","1","chair","furniture","1","1","","neutral","0"
"html-keyboard-response","197","1310284","0.0-11.0-2.0-0.4","6275","2","25","Female","approach_avoid_spark_v1","""event"",""trial"",""time""
""fullscreenenter"",""1"",""19555""
","
","
","""event"",""trial"",""time""
""fullscreenenter"",""1"",""19555""
","
","","","","","","null","<div style=""font-size:60px;"">+</div>","null","","fixation","","","","","","","","","","",""
"aa-learning-trial","198","1313307","0.0-11.0-2.0-1.4","6275","2","25","Female","approach_avoid_spark_v1","""event"",""trial"",""time""
""fullscreenenter"",""1"",""19555""
","
","
","""event"",""trial"",""time""
""fullscreenenter"",""1"",""19555""
","
","","","","","","740.3999999761581","images/chair6.png","","","learning","2","2","1","1","chair","furniture","1","1","","neutral","0"
"html-keyboard-response","199","1313824","0.0-11.0-2.0-0.5","6275","2","25","Female","approach_avoid_spark_v1","""event"",""trial"",""time""
""fullscreenenter"",""1"",""19555""
","
","
","""event"",""trial"",""time""
""fullscreenenter"",""1"",""19555""
","
","","","","","","null","<div style=""font-size:60px;"">+</div>","null","","fixation","","","","","","","","","","",""
"aa-learning-trial","200","1316838","0.0-11.0-2.0-1.5","6275","2","25","Female","approach_avoid_spark_v1","""event"",""trial"",""time""
""fullscreenenter"",""1"",""19555""
","
","
","""event"",""trial"",""time""
""fullscreenenter"",""1"",""19555""
","
","","","","","","1262.3999999761581","images/table4.png","","","learning","4","0","0","0","table","furniture","1","1","","good","[3]"
"html-keyboard-response","201","1317359","0.0-11.0-2.0-0.6","6275","2","25","Female","approach_avoid_spark_v1","""event"",""trial"",""time""
""fullscreenenter"",""1"",""19555""
","
","
","""event"",""trial"",""time""
""fullscreenenter"",""1"",""19555""
","
","","","","","","null","<div style=""font-size:60px;"">+</div>","null","","fixation","","","","","","","","","","",""
"aa-learning-trial","202","1320375","0.0-11.0-2.0-1.6","6275","2","25","Female","approach_avoid_spark_v1","""event"",""trial"",""time""
""fullscreenenter"",""1"",""19555""
","
","
","""event"",""trial"",""time""
""fullscreenenter"",""1"",""19555""
","
","","","","","","863.1999999284744","images/chair1.png","","","learning","1","1","1","1","chair","furniture","1","1","","neutral","0"
"html-keyboard-response","203","1320889","0.0-11.0-2.0-0.7","6275","2","25","Female","approach_avoid_spark_v1","""event"",""trial"",""time""
""fullscreenenter"",""1"",""19555""
","
","
","""event"",""trial"",""time""
""fullscreenenter"",""1"",""19555""
","
","","","","","","null","<div style=""font-size:60px;"">+</div>","null","","fixation","","","","","","","","","","",""
"aa-learning-trial","204","1323909","0.0-11.0-2.0-1.7","6275","2","25","Female","approach_avoid_spark_v1","""event"",""trial"",""time""
""fullscreenenter"",""1"",""19555""
","
","
","""event"",""trial"",""time""
""fullscreenenter"",""1"",""19555""
","
","","","","","","449.7999999523163","images/sofa8.png","","","learning","-6","-6","1","1","sofa","furniture","1","1","","bad","[-4]"
"html-keyboard-response","205","1324421","0.0-11.0-2.0-0.8","6275","2","25","Female","approach_avoid_spark_v1","""event"",""trial"",""time""
""fullscreenenter"",""1"",""19555""
","
","
","""event"",""trial"",""time""
""fullscreenenter"",""1"",""19555""
","
","","","","","","null","<div style=""font-size:60px;"">+</div>","null","","fixation","","","","","","","","","","",""
"aa-learning-trial","206","1327429","0.0-11.0-2.0-1.8","6275","2","25","Female","approach_avoid_spark_v1","""event"",""trial"",""time""
""fullscreenenter"",""1"",""19555""
","
","
","""event"",""trial"",""time""
""fullscreenenter"",""1"",""19555""
","
","","","","","","1127.1000000238419","images/sofa7.png","","","learning","-6","-6","1","1","sofa","furniture","1","1","","bad","[-4]"
"html-keyboard-response","207","1327945","0.0-11.0-2.0-0.9","6275","2","25","Female","approach_avoid_spark_v1","""event"",""trial"",""time""
""fullscreenenter"",""1"",""19555""
","
","
","""event"",""trial"",""time""
""fullscreenenter"",""1"",""19555""
","
","","","","","","null","<div style=""font-size:60px;"">+</div>","null","","fixation","","","","","","","","","","",""
"aa-learning-trial","208","1330964","0.0-11.0-2.0-1.9","6275","2","25","Female","approach_avoid_spark_v1","""event"",""trial"",""time""
""fullscreenenter"",""1"",""19555""
","
","
","""event"",""trial"",""time""
""fullscreenenter"",""1"",""19555""
","
","","","","","","707.2000000476837","images/chair5.png","","","learning","1","1","1","1","chair","furniture","1","1","","neutral","0"
"html-keyboard-response","209","1331470","0.0-11.0-2.0-0.10","6275","2","25","Female","approach_avoid_spark_v1","""event"",""trial"",""time""
""fullscreenenter"",""1"",""19555""
","
","
","""event"",""trial"",""time""
""fullscreenenter"",""1"",""19555""
","
","","","","","","null","<div style=""font-size:60px;"">+</div>","null","","fixation","","","","","","","","","","",""
"aa-learning-trial","210","1334487","0.0-11.0-2.0-1.10","6275","2","25","Female","approach_avoid_spark_v1","""event"",""trial"",""time""
""fullscreenenter"",""1"",""19555""
","
","
","""event"",""trial"",""time""
""fullscreenenter"",""1"",""19555""
","
","","","","","","1068.3999999761581","images/table4.png","","","learning","1","0","0","0","table","furniture","1","1","","good","[3]"
"html-keyboard-response","211","1334995","0.0-11.0-2.0-0.11","6275","2","25","Female","approach_avoid_spark_v1","""event"",""trial"",""time""
""fullscreenenter"",""1"",""19555""
","
","
","""event"",""trial"",""time""
""fullscreenenter"",""1"",""19555""
","
","","","","","","null","<div style=""font-size:60px;"">+</div>","null","","fixation","","","","","","","","","","",""
"aa-learning-trial","212","1338008","0.0-11.0-2.0-1.11","6275","2","25","Female","approach_avoid_spark_v1","""event"",""trial"",""time""
""fullscreenenter"",""1"",""19555""
","
","
","""event"",""trial"",""time""
""fullscreenenter"",""1"",""19555""
","
","","","","","","1008.8999999761581","images/sofa3.png","","","learning","-3","-3","1","1","sofa","furniture","1","1","","bad","[-4]"
"html-keyboard-response","213","1338520","0.0-11.0-2.0-0.12","6275","2","25","Female","approach_avoid_spark_v1","""event"",""trial"",""time""
""fullscreenenter"",""1"",""19555""
","
","
","""event"",""trial"",""time""
""fullscreenenter"",""1"",""19555""
","
","","","","","","null","<div style=""font-size:60px;"">+</div>","null","","fixation","","","","","","","","","","",""
"aa-learning-trial","214","1341532","0.0-11.0-2.0-1.12","6275","2","25","Female","approach_avoid_spark_v1","""event"",""trial"",""time""
""fullscreenenter"",""1"",""19555""
","
","
","""event"",""trial"",""time""
""fullscreenenter"",""1"",""19555""
","
","","","","","","902.6000000238419","images/sofa7.png","","","learning","-4","0","0","0","sofa","furniture","1","1","","bad","[-4]"
"html-keyboard-response","215","1342041","0.0-11.0-2.0-0.13","6275","2","25","Female","approach_avoid_spark_v1","""event"",""trial"",""time""
""fullscreenenter"",""1"",""19555""
","
","
","""event"",""trial"",""time""
""fullscreenenter"",""1"",""19555""
","
","","","","","","null","<div style=""font-size:60px;"">+</div>","null","","fixation","","","","","","","","","","",""
"aa-learning-trial","216","1345053","0.0-11.0-2.0-1.13","6275","2","25","Female","approach_avoid_spark_v1","""event"",""trial"",""time""
""fullscreenenter"",""1"",""19555""
","
","
","""event"",""trial"",""time""
""fullscreenenter"",""1"",""19555""
","
","","","","","","788.8999999761581","images/table5.png","","","learning","3","3","1","1","table","furniture","1","1","","good","[3]"
"html-keyboard-response","217","1345566","0.0-11.0-2.0-0.14","6275","2","25","Female","approach_avoid_spark_v1","""event"",""trial"",""time""
""fullscreenenter"",""1"",""19555""
","
","
","""event"",""trial"",""time""
""fullscreenenter"",""1"",""19555""
","
","","","","","","null","<div style=""font-size:60px;"">+</div>","null","","fixation","","","","","","","","","","",""
"aa-learning-trial","218","1348578","0.0-11.0-2.0-1.14","6275","2","25","Female","approach_avoid_spark_v1","""event"",""trial"",""time""
""fullscreenenter"",""1"",""19555""
","
","
","""event"",""trial"",""time""
""fullscreenenter"",""1"",""19555""
","
","","","","","","1504.2000000476837","images/table8.png","","","learning","1","1","1","1","table","furniture","1","1","","good","[3]"
"html-keyboard-response","219","1349086","0.0-11.0-2.0-0.15","6275","2","25","Female","approach_avoid_spark_v1","""event"",""trial"",""time""
""fullscreenenter"",""1"",""19555""
","
","
","""event"",""trial"",""time""
""fullscreenenter"",""1"",""19555""
","
","","","","","","null","<div style=""font-size:60px;"">+</div>","null","","fixation","","","","","","","","","","",""
"aa-learning-trial","220","1352104","0.0-11.0-2.0-1.15","6275","2","25","Female","approach_avoid_spark_v1","""event"",""trial"",""time""
""fullscreenenter"",""1"",""19555""
","
","
","""event"",""trial"",""time""
""fullscreenenter"",""1"",""19555""
","
","","","","","","1411.1000000238419","images/sofa5.png","","","learning","-2","0","0","0","sofa","furniture","1","1","","bad","[-4]"
"html-keyboard-response","221","1352614","0.0-11.0-2.0-0.16","6275","2","25","Female","approach_avoid_spark_v1","""event"",""trial"",""time""
""fullscreenenter"",""1"",""19555""
","
","
","""event"",""trial"",""time""
""fullscreenenter"",""1"",""19555""
","
","","","","","","null","<div style=""font-size:60px;"">+</div>","null","","fixation","","","","","","","","","","",""
"aa-learning-trial","222","1355621","0.0-11.0-2.0-1.16","6275","2","25","Female","approach_avoid_spark_v1","""event"",""trial"",""time""
""fullscreenenter"",""1"",""19555""
","
","
","""event"",""trial"",""time""
""fullscreenenter"",""1"",""19555""
","
","","","","","","904.6999999284744","images/table6.png","","","learning","2","2","1","1","table","furniture","1","1","","good","[3]"
"html-keyboard-response","223","1356136","0.0-11.0-2.0-0.17","6275","2","25","Female","approach_avoid_spark_v1","""event"",""trial"",""time""
""fullscreenenter"",""1"",""19555""
","
","
","""event"",""trial"",""time""
""fullscreenenter"",""1"",""19555""
","
","","","","","","null","<div style=""font-size:60px;"">+</div>","null","","fixation","","","","","","","","","","",""
"aa-learning-trial","224","1359149","0.0-11.0-2.0-1.17","6275","2","25","Female","approach_avoid_spark_v1","""event"",""trial"",""time""
""fullscreenenter"",""1"",""19555""
","
","
","""event"",""trial"",""time""
""fullscreenenter"",""1"",""19555""
","
","","","","","","735.1999999284744","images/table5.png","","","learning","4","4","1","1","table","furniture","1","1","","good","[3]"
"html-keyboard-response","225","1359663","0.0-11.0-2.0-0.18","6275","2","25","Female","approach_avoid_spark_v1","""event"",""trial"",""time""
""fullscreenenter"",""1"",""19555""
","
","
","""event"",""trial"",""time""
""fullscreenenter"",""1"",""19555""
","
","","","","","","null","<div style=""font-size:60px;"">+</div>","null","","fixation","","","","","","","","","","",""
"aa-learning-trial","226","1362684","0.0-11.0-2.0-1.18","6275","2","25","Female","approach_avoid_spark_v1","""event"",""trial"",""time""
""fullscreenenter"",""1"",""19555""
","
","
","""event"",""trial"",""time""
""fullscreenenter"",""1"",""19555""
","
","","","","","","607.7999999523163","images/sofa8.png","","","learning","-3","0","0","0","sofa","furniture","1","1","","bad","[-4]"
"html-keyboard-response","227","1363194","0.0-11.0-2.0-0.19","6275","2","25","Female","approach_avoid_spark_v1","""event"",""trial"",""time""
""fullscreenenter"",""1"",""19555""
","
","
","""event"",""trial"",""time""
""fullscreenenter"",""1"",""19555""
","
","","","","","","null","<div style=""font-size:60px;"">+</div>","null","","fixation","","","","","","","","","","",""
"aa-learning-trial","228","1366209","0.0-11.0-2.0-1.19","6275","2","25","Female","approach_avoid_spark_v1","""event"",""trial"",""time""
""fullscreenenter"",""1"",""19555""
","
","
","""event"",""trial"",""time""
""fullscreenenter"",""1"",""19555""
","
","","","","","","594.5","images/table8.png","","","learning","4","4","1","1","table","furniture","1","1","","good","[3]"
"html-keyboard-response","229","1366729","0.0-11.0-2.0-0.20","6275","2","25","Female","approach_avoid_spark_v1","""event"",""trial"",""time""
""fullscreenenter"",""1"",""19555""
","
","
","""event"",""trial"",""time""
""fullscreenenter"",""1"",""19555""
","
","","","","","","null","<div style=""font-size:60px;"">+</div>","null","","fixation","","","","","","","","","","",""
"aa-learning-trial","230","1369748","0.0-11.0-2.0-1.20","6275","2","25","Female","approach_avoid_spark_v1","""event"",""trial"",""time""
""fullscreenenter"",""1"",""19555""
","
","
","""event"",""trial"",""time""
""fullscreenenter"",""1"",""19555""
","
","","","","","","1676.2999999523163","images/chair4.png","","","learning","-2","0","0","0","chair","furniture","1","1","","neutral","0"
"html-keyboard-response","231","1370251","0.0-11.0-2.0-0.21","6275","2","25","Female","approach_avoid_spark_v1","""event"",""trial"",""time""
""fullscreenenter"",""1"",""19555""
","
","
","""event"",""trial"",""time""
""fullscreenenter"",""1"",""19555""
","
","","","","","","null","<div style=""font-size:60px;"">+</div>","null","","fixation","","","","","","","","","","",""
"aa-learning-trial","232","1373260","0.0-11.0-2.0-1.21","6275","2","25","Female","approach_avoid_spark_v1","""event"",""trial"",""time""
""fullscreenenter"",""1"",""19555""
","
","
","""event"",""trial"",""time""
""fullscreenenter"",""1"",""19555""
","
","","","","","","721.3000000715256","images/sofa8.png","","","learning","-4","0","0","0","sofa","furniture","1","1","","bad","[-4]"
"html-keyboard-response","233","1373773","0.0-11.0-2.0-0.22","6275","2","25","Female","approach_avoid_spark_v1","""event"",""trial"",""time""
""fullscreenenter"",""1"",""19555""
","
","
","""event"",""trial"",""time""
""fullscreenenter"",""1"",""19555""
","
","","","","","","null","<div style=""font-size:60px;"">+</div>","null","","fixation","","","","","","","","","","",""
"aa-learning-trial","234","1376784","0.0-11.0-2.0-1.22","6275","2","25","Female","approach_avoid_spark_v1","""event"",""trial"",""time""
""fullscreenenter"",""1"",""19555""
","
","
","""event"",""trial"",""time""
""fullscreenenter"",""1"",""19555""
","
