"trial_type","trial_index","time_elapsed","internal_node_id","subject_id","task_condition","age","gender","task_version","interactions","blur_events","focus_events","fullscreenenter_events","fullscreenexit_events","success","timeout","failed_images","failed_audio","failed_video","rt","stimulus","response","button_pressed","task_part","approach_reward","points","key_press","option_selected","stim_cat","task_block","block_condition","block_number","correct","cat_type","mean_cat_reward"
"pavlovia","0","6","0.0-0.0","7077","1","22","Male","approach_avoid_spark_v1","""event"",""trial"",""time""
""fullscreenenter"",""1"",""3419""
","
","
","""event"",""trial"",""time""
""fullscreenenter"",""1"",""3419""
","
","","","","","","","","","","","","","","","","","","","","",""
"fullscreen","1","4299","0.0-1.0","7077","1","22","Male","approach_avoid_spark_v1","""event"",""trial"",""time""
""fullscreenenter"",""1"",""3419""
","
","
","""event"",""trial"",""time""
""fullscreenenter"",""1"",""3419""
","
","true","","","","","","","","","","","","","","","","","","","",""
"preload","2","5109","0.0-2.0","7077","1","22","Male","approach_avoid_spark_v1","""event"",""trial"",""time""
""fullscreenenter"",""1"",""3419""
","
","
","""event"",""trial"",""time""
""fullscreenenter"",""1"",""3419""
","
","true","false","[]","[]","[]","","","","","","","","","","","","","","","",""
"audio-keyboard-response","3","8054","0.0-3.0","7077","1","22","Male","approach_avoid_spark_v1","""event"",""trial"",""time""
""fullscreenenter"",""1"",""3419""
","
","
","""event"",""trial"",""time""
""fullscreenenter"",""1"",""3419""
","
","","","","","","2789.3333333333335","audio/beep_loop.wav"," ","","","","","","","","","","","","",""
"audio-button-response","4","10332","0.0-4.0","7077","1","22","Male","approach_avoid_spark_v1","""event"",""trial"",""time""
""fullscreenenter"",""1"",""3419""
","
","
","""event"",""trial"",""time""
""fullscreenenter"",""1"",""3419""
","
","","","","","","2272","audio/shark.wav","4","","","","","","","","","","","","",""
"audio-button-response","5","12628","0.0-5.0","7077","1","22","Male","approach_avoid_spark_v1","""event"",""trial"",""time""
""fullscreenenter"",""1"",""3419""
","
","
","""event"",""trial"",""time""
""fullscreenenter"",""1"",""3419""
","
","","","","","","1291","audio/turtle.wav","1","","","","","","","","","","","","",""
"preload","6","14021","0.0-6.0","7077","1","22","Male","approach_avoid_spark_v1","""event"",""trial"",""time""
""fullscreenenter"",""1"",""3419""
","
","
","""event"",""trial"",""time""
""fullscreenenter"",""1"",""3419""
","
","true","false","[]","[]","[]","","","","","","","","","","","","","","","",""
"html-keyboard-response","7","19340","0.0-7.0","7077","1","22","Male","approach_avoid_spark_v1","""event"",""trial"",""time""
""fullscreenenter"",""1"",""3419""
","
","
","""event"",""trial"",""time""
""fullscreenenter"",""1"",""3419""
","
","","","","","","5317.5","Welcome to the experiment. Press any key to begin and to advance the instructions."," ","","","","","","","","","","","","",""
"learning-instructions","8","31749","0.0-8.0-0.0-0.0","7077","1","22","Male","approach_avoid_spark_v1","""event"",""trial"",""time""
""fullscreenenter"",""1"",""3419""
","
","
","""event"",""trial"",""time""
""fullscreenenter"",""1"",""3419""
","
","","","","","","5441.29999999702","<p> Welcome! Today you are going to play 6 different rounds of a decision-making game. </p><p> Use the mouse to click next to continue. </p>","","0","instructions","","","","","","","","","","",""
"learning-instructions","9","38003","0.0-8.0-0.0-0.1","7077","1","22","Male","approach_avoid_spark_v1","""event"",""trial"",""time""
""fullscreenenter"",""1"",""3419""
","
","
","""event"",""trial"",""time""
""fullscreenenter"",""1"",""3419""
","
","","","","","","3505.10000000149","<p> You will start with a practice round to learn the rules. </p>","","0","instructions","","","","","","","","","","",""
"learning-instructions","10","43825","0.0-8.0-0.0-0.2","7077","1","22","Male","approach_avoid_spark_v1","""event"",""trial"",""time""
""fullscreenenter"",""1"",""3419""
","
","
","""event"",""trial"",""time""
""fullscreenenter"",""1"",""3419""
","
","","","","","","2368.5","<p> Your goal in this round is to give out sports equipment to kids. </p></div>","","0","instructions","","","","","","","","","","",""
"learning-instructions","11","57054","0.0-8.0-0.0-0.3","7077","1","22","Male","approach_avoid_spark_v1","""event"",""trial"",""time""
""fullscreenenter"",""1"",""3419""
","
","
","""event"",""trial"",""time""
""fullscreenenter"",""1"",""3419""
","
","","","","","","5676.5","<p> The kids only like some of the equipment.  </p><p> On each turn, you will see a piece of sports equipment.   </p><p> You need to decide whether to give it to the kids or not.  </p>","","0","instructions","","","","","","","","","","",""
"learning-instructions","12","62517","0.0-8.0-0.0-0.4","7077","1","22","Male","approach_avoid_spark_v1","""event"",""trial"",""time""
""fullscreenenter"",""1"",""3419""
","
","
","""event"",""trial"",""time""
""fullscreenenter"",""1"",""3419""
","
","","","","","","707.8999999985099","<p> You can give them the equipment by pressing 1 and choose not to give it to them by pressing 0. </p><br><div class=""choice-instructions-grid""> <div class=""choice-option""><img src=""images/approach.png"" class=""choice-option-img"" stage=""instructions"" position=""0"" ><div class=""choice-option-text""> Press ""1."" </div></div><div class=""choice-option""><img src=""images/avoid.png"" class=""choice-option-img"" stage=""instructions"" position=""1"" ><div class=""choice-option-text""> Press ""0."" </div></div>","","0","instructions","","","","","","","","","","",""
"learning-instructions","13","71863","0.0-8.0-0.0-0.5","7077","1","22","Male","approach_avoid_spark_v1","""event"",""trial"",""time""
""fullscreenenter"",""1"",""3419""
","
","
","""event"",""trial"",""time""
""fullscreenenter"",""1"",""3419""
","
","","","","","","1955.7999999970198","<p> If you give them a piece of equipment they like, they will be happy! </p><p> But if you give them a piece of equipment they do not like, they will be sad. </p>","","0","instructions","","","","","","","","","","",""
"learning-instructions","14","84028","0.0-8.0-0.0-0.6","7077","1","22","Male","approach_avoid_spark_v1","""event"",""trial"",""time""
""fullscreenenter"",""1"",""3419""
","
","
","""event"",""trial"",""time""
""fullscreenenter"",""1"",""3419""
","
","","","","","","1650.2000000029802","<p> You will earn points based on how you make kids feel. </p><p> If you make them happy, you will WIN anywhere from 1 - 9 points, </p><p> but if you make them sad, you will LOSE anywhere from 1 - 9 points. </p>","","0","instructions","","","","","","","","","","",""
"learning-instructions","15","95149","0.0-8.0-0.0-0.7","7077","1","22","Male","approach_avoid_spark_v1","""event"",""trial"",""time""
""fullscreenenter"",""1"",""3419""
","
","
","""event"",""trial"",""time""
""fullscreenenter"",""1"",""3419""
","
","","","","","","1564.1000000014901","<p> You will see how many points you won or lost in the center of the screen. </p><p> Here is what you would see if you won 6 points: </p><p style=""color:green;font-size:50px;font-weight:bolder"">6</p><p style=""color:green"">The text is GREEN because you WON points.</p>","","0","instructions","","","","","","","","","","",""
"learning-instructions","16","101919","0.0-8.0-0.0-0.8","7077","1","22","Male","approach_avoid_spark_v1","""event"",""trial"",""time""
""fullscreenenter"",""1"",""3419""
","
","
","""event"",""trial"",""time""
""fullscreenenter"",""1"",""3419""
","
","","","","","","1255.1999999955297","<p> And here is what you would see if you lost 4 points: </p><p style=""color:red;font-size:50px;font-weight:bolder"">-4</p><p style=""color:red"">The text is RED because you LOST points. </p>","","0","instructions","","","","","","","","","","",""
"learning-instructions","17","117337","0.0-8.0-0.0-0.9","7077","1","22","Male","approach_avoid_spark_v1","""event"",""trial"",""time""
""fullscreenenter"",""1"",""3419""
","
","
","""event"",""trial"",""time""
""fullscreenenter"",""1"",""3419""
","
","","","","","","703.6000000014901","<p> Some of the equipment will make the kids VERY happy or sad. </p><p> These pieces of equipment will make you win or lose LOTS of points. </p><p> Other pieces of equipment will only make the kids a little happy or sad. </p><p> These pieces of equipment will make you win or lose small amounts of points. </p>","","0","instructions","","","","","","","","","","",""
"learning-instructions","18","128177","0.0-8.0-0.0-0.10","7077","1","22","Male","approach_avoid_spark_v1","""event"",""trial"",""time""
""fullscreenenter"",""1"",""3419""
","
","
","""event"",""trial"",""time""
""fullscreenenter"",""1"",""3419""
","
","","","","","","215.20000000298023","<p> If you choose not to give them the equipment, you will not win or lose any points. </p><p>  However, in the center of the screen, you will see the number of points you WOULD HAVE won or lost if you had given them the equipment. </p>","","0","instructions","","","","","","","","","","",""
"learning-instructions","19","150264","0.0-8.0-0.0-0.11","7077","1","22","Male","approach_avoid_spark_v1","""event"",""trial"",""time""
""fullscreenenter"",""1"",""3419""
","
","
","""event"",""trial"",""time""
""fullscreenenter"",""1"",""3419""
","
","","","","","","548.8999999985099","<p> Here is what you might see if you did not give the equipment to the kids but it would have made them happy: </p><p style=""color:grey; font-size:50px; display: inline-block; border-spacing: 15px; border-width:3px; border-style:solid; border-color:red"">  &nbsp; 7 &nbsp; </p><p> Remember, in this case, you would not win or lose ANY points because you did not give them the equipment.  </p><p style=""color:grey"">The text is GREY because you earned ZERO points. </p><p style=""color:red"">However, choosing to give the kids the equipment would have made you win points. The box around the text is RED because you chose the worse option. </p>","","0","instructions","","","","","","","","","","",""
"learning-instructions","20","173342","0.0-8.0-0.0-0.12","7077","1","22","Male","approach_avoid_spark_v1","""event"",""trial"",""time""
""fullscreenenter"",""1"",""3419""
","
","
","""event"",""trial"",""time""
""fullscreenenter"",""1"",""3419""
","
","","","","","","1998.1000000014901","<p> Here is what you might see if you did not give the equipment to the kids but it would have made them sad: </p><p style=""color:grey;font-size:50px; display: inline-block; border-spacing: 15px; border-width:3px; border-style:solid; border-color:green"">  &nbsp; -8 &nbsp; </p><p> Remember, in this case, you would not win or lose ANY points because you did not give them the equipment.  </p><p style=""color:grey"">The text is GREY because you earned ZERO points. </p><p  style=""color:green""> Choosing to give the kids the equipment would have made you lose points. The box around the text is GREEN because you chose the better option.</p>","","0","instructions","","","","","","","","","","",""
"learning-instructions","21","182589","0.0-8.0-0.0-0.13","7077","1","22","Male","approach_avoid_spark_v1","""event"",""trial"",""time""
""fullscreenenter"",""1"",""3419""
","
","
","""event"",""trial"",""time""
""fullscreenenter"",""1"",""3419""
","
","","","","","","1004.6999999955297","<p> You will have 3 seconds to make each choice. Try to respond before time runs out! </p><p> You will lose 5 points each time you do not make a response. </p>","","0","instructions","","","","","","","","","","",""
"learning-instructions","22","188590","0.0-8.0-0.0-0.14","7077","1","22","Male","approach_avoid_spark_v1","""event"",""trial"",""time""
""fullscreenenter"",""1"",""3419""
","
","
","""event"",""trial"",""time""
""fullscreenenter"",""1"",""3419""
","
","","","","","","585.3999999985099","<p> This is just a practice round, but in the real game, your bonus payment will depend on your total number of points.","","0","instructions","","","","","","","","","","",""
"learning-instructions","23","196762","0.0-8.0-0.0-0.15","7077","1","22","Male","approach_avoid_spark_v1","""event"",""trial"",""time""
""fullscreenenter"",""1"",""3419""
","
","
","""event"",""trial"",""time""
""fullscreenenter"",""1"",""3419""
","
","","","","","","2407.2000000029802","<p> Remember, you can give them the equipment by pressing 1 and choose not to give it to them by pressing 0. </p><br><div class=""choice-instructions-grid""> <div class=""choice-option""><img src=""images/approach.png"" class=""choice-option-img"" stage=""instructions"" position=""0"" ><div class=""choice-option-text""> Press ""1."" </div></div><div class=""choice-option""><img src=""images/avoid.png"" class=""choice-option-img"" stage=""instructions"" position=""1"" ><div class=""choice-option-text""> Press ""0."" </div></div>","","0","instructions","","","","","","","","","","",""
"html-button-response","24","199166","0.0-8.0-1.0","7077","1","22","Male","approach_avoid_spark_v1","""event"",""trial"",""time""
""fullscreenenter"",""1"",""3419""
","
","
","""event"",""trial"",""time""
""fullscreenenter"",""1"",""3419""
","
","","","","","","2297.0999999940395","<p> Ready to practice? </p>","0","","","","","","","","","","","","",""
"html-keyboard-response","25","199785","0.0-8.0-2.0-0.0","7077","1","22","Male","approach_avoid_spark_v1","""event"",""trial"",""time""
""fullscreenenter"",""1"",""3419""
","
","
","""event"",""trial"",""time""
""fullscreenenter"",""1"",""3419""
","
","","","","","","null","<div style=""font-size:60px;"">+</div>","null","","fixation","","","","","","","","","","",""
"aa-learning-trial","26","202802","0.0-8.0-2.0-1.0","7077","1","22","Male","approach_avoid_spark_v1","""event"",""trial"",""time""
""fullscreenenter"",""1"",""3419""
","
","
","""event"",""trial"",""time""
""fullscreenenter"",""1"",""3419""
","
","","","","","","1061.1000000014901","images/ball3.png","","","learning","-4","-4","1","1","practice","practice","practice","-1","","",""
"html-keyboard-response","27","203303","0.0-8.0-2.0-0.1","7077","1","22","Male","approach_avoid_spark_v1","""event"",""trial"",""time""
""fullscreenenter"",""1"",""3419""
","
","
","""event"",""trial"",""time""
""fullscreenenter"",""1"",""3419""
","
","","","","","","null","<div style=""font-size:60px;"">+</div>","null","","fixation","","","","","","","","","","",""
"aa-learning-trial","28","206310","0.0-8.0-2.0-1.1","7077","1","22","Male","approach_avoid_spark_v1","""event"",""trial"",""time""
""fullscreenenter"",""1"",""3419""
","
","
","""event"",""trial"",""time""
""fullscreenenter"",""1"",""3419""
","
","","","","","","1220.8000000044703","images/racket3.png","","","learning","9","9","1","1","practice","practice","practice","-1","","",""
"html-keyboard-response","29","206822","0.0-8.0-2.0-0.2","7077","1","22","Male","approach_avoid_spark_v1","""event"",""trial"",""time""
""fullscreenenter"",""1"",""3419""
","
","
","""event"",""trial"",""time""
""fullscreenenter"",""1"",""3419""
","
","","","","","","null","<div style=""font-size:60px;"">+</div>","null","","fixation","","","","","","","","","","",""
"aa-learning-trial","30","209837","0.0-8.0-2.0-1.2","7077","1","22","Male","approach_avoid_spark_v1","""event"",""trial"",""time""
""fullscreenenter"",""1"",""3419""
","
","
","""event"",""trial"",""time""
""fullscreenenter"",""1"",""3419""
","
","","","","","","904.7999999970198","images/ball4.png","","","learning","-6","-6","1","1","practice","practice","practice","-1","","",""
"html-keyboard-response","31","210348","0.0-8.0-2.0-0.3","7077","1","22","Male","approach_avoid_spark_v1","""event"",""trial"",""time""
""fullscreenenter"",""1"",""3419""
","
","
","""event"",""trial"",""time""
""fullscreenenter"",""1"",""3419""
","
","","","","","","null","<div style=""font-size:60px;"">+</div>","null","","fixation","","","","","","","","","","",""
"aa-learning-trial","32","213368","0.0-8.0-2.0-1.3","7077","1","22","Male","approach_avoid_spark_v1","""event"",""trial"",""time""
""fullscreenenter"",""1"",""3419""
","
","
","""event"",""trial"",""time""
""fullscreenenter"",""1"",""3419""
","
","","","","","","1266.8999999985099","images/racket1.png","","","learning","-8","-8","1","1","practice","practice","practice","-1","","",""
"html-keyboard-response","33","213876","0.0-8.0-2.0-0.4","7077","1","22","Male","approach_avoid_spark_v1","""event"",""trial"",""time""
""fullscreenenter"",""1"",""3419""
","
","
","""event"",""trial"",""time""
""fullscreenenter"",""1"",""3419""
","
","","","","","","null","<div style=""font-size:60px;"">+</div>","null","","fixation","","","","","","","","","","",""
"aa-learning-trial","34","216885","0.0-8.0-2.0-1.4","7077","1","22","Male","approach_avoid_spark_v1","""event"",""trial"",""time""
""fullscreenenter"",""1"",""3419""
","
","
","""event"",""trial"",""time""
""fullscreenenter"",""1"",""3419""
","
","","","","","","1100.8000000044703","images/ball2.png","","","learning","-1","-1","1","1","practice","practice","practice","-1","","",""
"html-keyboard-response","35","217388","0.0-8.0-2.0-0.5","7077","1","22","Male","approach_avoid_spark_v1","""event"",""trial"",""time""
""fullscreenenter"",""1"",""3419""
","
","
","""event"",""trial"",""time""
""fullscreenenter"",""1"",""3419""
","
","","","","","","null","<div style=""font-size:60px;"">+</div>","null","","fixation","","","","","","","","","","",""
"aa-learning-trial","36","220396","0.0-8.0-2.0-1.5","7077","1","22","Male","approach_avoid_spark_v1","""event"",""trial"",""time""
""fullscreenenter"",""1"",""3419""
","
","
","""event"",""trial"",""time""
""fullscreenenter"",""1"",""3419""
","
","","","","","","984.8999999985099","images/ball4.png","","","learning","2","0","0","0","practice","practice","practice","-1","","",""
"html-keyboard-response","37","220912","0.0-8.0-2.0-0.6","7077","1","22","Male","approach_avoid_spark_v1","""event"",""trial"",""time""
""fullscreenenter"",""1"",""3419""
","
","
","""event"",""trial"",""time""
""fullscreenenter"",""1"",""3419""
","
","","","","","","null","<div style=""font-size:60px;"">+</div>","null","","fixation","","","","","","","","","","",""
"aa-learning-trial","38","223932","0.0-8.0-2.0-1.6","7077","1","22","Male","approach_avoid_spark_v1","""event"",""trial"",""time""
""fullscreenenter"",""1"",""3419""
","
","
","""event"",""trial"",""time""
""fullscreenenter"",""1"",""3419""
","
","","","","","","323.20000000298023","images/racket3.png","","","learning","-8","-8","1","1","practice","practice","practice","-1","","",""
"html-keyboard-response","39","224441","0.0-8.0-2.0-0.7","7077","1","22","Male","approach_avoid_spark_v1","""event"",""trial"",""time""
""fullscreenenter"",""1"",""3419""
","
","
","""event"",""trial"",""time""
""fullscreenenter"",""1"",""3419""
","
","","","","","","null","<div style=""font-size:60px;"">+</div>","null","","fixation","","","","","","","","","","",""
"aa-learning-trial","40","227454","0.0-8.0-2.0-1.7","7077","1","22","Male","approach_avoid_spark_v1","""event"",""trial"",""time""
""fullscreenenter"",""1"",""3419""
","
","
","""event"",""trial"",""time""
""fullscreenenter"",""1"",""3419""
","
","","","","","","359.69999999552965","images/racket3.png","","","learning","-8","0","0","0","practice","practice","practice","-1","","",""
"html-keyboard-response","41","227970","0.0-8.0-2.0-0.8","7077","1","22","Male","approach_avoid_spark_v1","""event"",""trial"",""time""
""fullscreenenter"",""1"",""3419""
","
","
","""event"",""trial"",""time""
""fullscreenenter"",""1"",""3419""
","
","","","","","","null","<div style=""font-size:60px;"">+</div>","null","","fixation","","","","","","","","","","",""
"aa-learning-trial","42","230980","0.0-8.0-2.0-1.8","7077","1","22","Male","approach_avoid_spark_v1","""event"",""trial"",""time""
""fullscreenenter"",""1"",""3419""
","
","
","""event"",""trial"",""time""
""fullscreenenter"",""1"",""3419""
","
","","","","","","703.7999999970198","images/racket2.png","","","learning","5","0","0","0","practice","practice","practice","-1","","",""
"html-keyboard-response","43","231502","0.0-8.0-2.0-0.9","7077","1","22","Male","approach_avoid_spark_v1","""event"",""trial"",""time""
""fullscreenenter"",""1"",""3419""
","
","
","""event"",""trial"",""time""
""fullscreenenter"",""1"",""3419""
","
","","","","","","null","<div style=""font-size:60px;"">+</div>","null","","fixation","","","","","","","","","","",""
"aa-learning-trial","44","234507","0.0-8.0-2.0-1.9","7077","1","22","Male","approach_avoid_spark_v1","""event"",""trial"",""time""
""fullscreenenter"",""1"",""3419""
","
","
","""event"",""trial"",""time""
""fullscreenenter"",""1"",""3419""
","
","","","","","","1682.5","images/ball3.png","","","learning","1","1","1","1","practice","practice","practice","-1","","",""
"html-keyboard-response","45","235015","0.0-8.0-2.0-0.10","7077","1","22","Male","approach_avoid_spark_v1","""event"",""trial"",""time""
""fullscreenenter"",""1"",""3419""
","
","
","""event"",""trial"",""time""
""fullscreenenter"",""1"",""3419""
","
","","","","","","null","<div style=""font-size:60px;"">+</div>","null","","fixation","","","","","","","","","","",""
"aa-learning-trial","46","238025","0.0-8.0-2.0-1.10","7077","1","22","Male","approach_avoid_spark_v1","""event"",""trial"",""time""
""fullscreenenter"",""1"",""3419""
","
","
","""event"",""trial"",""time""
""fullscreenenter"",""1"",""3419""
","
","","","","","","643","images/ball2.png","","","learning","-4","-4","1","1","practice","practice","practice","-1","","",""
"html-keyboard-response","47","238532","0.0-8.0-2.0-0.11","7077","1","22","Male","approach_avoid_spark_v1","""event"",""trial"",""time""
""fullscreenenter"",""1"",""3419""
","
","
","""event"",""trial"",""time""
""fullscreenenter"",""1"",""3419""
","
","","","","","","null","<div style=""font-size:60px;"">+</div>","null","","fixation","","","","","","","","","","",""
"aa-learning-trial","48","241544","0.0-8.0-2.0-1.11","7077","1","22","Male","approach_avoid_spark_v1","""event"",""trial"",""time""
""fullscreenenter"",""1"",""3419""
","
","
","""event"",""trial"",""time""
""fullscreenenter"",""1"",""3419""
","
","","","","","","1113.5","images/ball1.png","","","learning","-1","0","0","0","practice","practice","practice","-1","","",""
"html-button-response","49","243440","0.0-8.0-3.0","7077","1","22","Male","approach_avoid_spark_v1","""event"",""trial"",""time""
""fullscreenenter"",""1"",""3419""
","
","
","""event"",""trial"",""time""
""fullscreenenter"",""1"",""3419""
","
","","","","","","1891.1000000014901","<p> You earned -21 points in the practice round! </p>","0","","break","","","","","","","","","","",""
"learning-instructions","50","252686","0.0-8.0-4.0-0.0","7077","1","22","Male","approach_avoid_spark_v1","""event"",""trial"",""time""
""fullscreenenter"",""1"",""3419""
","
","
","""event"",""trial"",""time""
""fullscreenenter"",""1"",""3419""
","
","","","","","","2937.39999999851","<p> It's almost time to start the real game. </p><p> Before you start, we're going to ask you a few questions about how the game works. </p>","","0","instructions","","","","","","","","","","",""
"preload","51","253092","0.0-8.0-5.0","7077","1","22","Male","approach_avoid_spark_v1","""event"",""trial"",""time""
""fullscreenenter"",""1"",""3419""
","
","
","""event"",""trial"",""time""
""fullscreenenter"",""1"",""3419""
","
","true","false","[]","[]","[]","","","","","","","","","","","","","","","",""
"comp-q","52","259242","0.0-8.0-6.0-0.0","7077","1","22","Male","approach_avoid_spark_v1","""event"",""trial"",""time""
""fullscreenenter"",""1"",""3419""
","
","
","""event"",""trial"",""time""
""fullscreenenter"",""1"",""3419""
","
","","","","","","1152.5","<p> <b> True or False? </b> </p><p> If you see a number in GREY, that means you earned that many points. </p>","","1","comp_question","","","","","","","","","true","",""
"comp-q","53","268887","0.0-8.0-6.0-1.0","7077","1","22","Male","approach_avoid_spark_v1","""event"",""trial"",""time""
""fullscreenenter"",""1"",""3419""
","
","
","""event"",""trial"",""time""
""fullscreenenter"",""1"",""3419""
","
","","","","","","1277.6000000014901","<p><b> That's right! </b> If you see a grey number, it means you earned ZERO points. <br> The grey numbers show the points you WOULD HAVE earned if you had made the other choice. </p>","","0","comp_answer","","","","","","","","","","",""
"comp-q","54","275314","0.0-8.0-7.0-0.0","7077","1","22","Male","approach_avoid_spark_v1","""event"",""trial"",""time""
""fullscreenenter"",""1"",""3419""
","
","
","""event"",""trial"",""time""
""fullscreenenter"",""1"",""3419""
","
","","","","","","1725.5","<p> <b> True or False? </b> </p><p> You will have as much time as you want to make each choice. </p>","","1","comp_question","","","","","","","","","true","",""
"comp-q","55","280428","0.0-8.0-7.0-1.0","7077","1","22","Male","approach_avoid_spark_v1","""event"",""trial"",""time""
""fullscreenenter"",""1"",""3419""
","
","
","""event"",""trial"",""time""
""fullscreenenter"",""1"",""3419""
","
","","","","","","1068.8000000044703","<p> <b> That's right! </b> You will only have 3 seconds to make each choice. </p>","","0","comp_answer","","","","","","","","","","",""
"comp-q","56","285849","0.0-8.0-8.0-0.0","7077","1","22","Male","approach_avoid_spark_v1","""event"",""trial"",""time""
""fullscreenenter"",""1"",""3419""
","
","
","""event"",""trial"",""time""
""fullscreenenter"",""1"",""3419""
","
","","","","","","770.7999999970198","<p> <b> True or False? </b> </p><p> You should use the '1' and '0' keys to make your choices. </p>","","0","comp_question","","","","","","","","","true","",""
"comp-q","57","291909","0.0-8.0-8.0-1.0","7077","1","22","Male","approach_avoid_spark_v1","""event"",""trial"",""time""
""fullscreenenter"",""1"",""3419""
","
","
","""event"",""trial"",""time""
""fullscreenenter"",""1"",""3419""
","
","","","","","","1430.8000000044703","<p> <b> That's right! </b> You should use the '1' and '0' keys to make each choice. </p>","","0","comp_answer","","","","","","","","","","",""
"learning-instructions","58","304873","0.0-8.0-9.0-0.0","7077","1","22","Male","approach_avoid_spark_v1","""event"",""trial"",""time""
""fullscreenenter"",""1"",""3419""
","
","
","""event"",""trial"",""time""
""fullscreenenter"",""1"",""3419""
","
","","","","","","6674.39999999851","<p> It's now time to start the real game. </p>Do your best, because the points you earn in the next rounds will influence your bonus payment. </p>","","0","instructions","","","","","","","","","","",""
"preload","59","305048","0.0-9.0-0.0","7077","1","22","Male","approach_avoid_spark_v1","""event"",""trial"",""time""
""fullscreenenter"",""1"",""3419""
","
","
","""event"",""trial"",""time""
""fullscreenenter"",""1"",""3419""
","
","true","false","[]","[]","[]","","","","","","","","","","","","","","","",""
"learning-instructions","60","311667","0.0-9.0-1.0-0.0","7077","1","22","Male","approach_avoid_spark_v1","""event"",""trial"",""time""
""fullscreenenter"",""1"",""3419""
","
","
","""event"",""trial"",""time""
""fullscreenenter"",""1"",""3419""
","
","","","","","","2507.10000000149","<p> Your goal in this round is to take care of lots of animals. </p></div>","","0","instructions","","","","","","","","","","",""
"learning-instructions","61","323379","0.0-9.0-1.0-0.1","7077","1","22","Male","approach_avoid_spark_v1","""event"",""trial"",""time""
""fullscreenenter"",""1"",""3419""
","
","
","""event"",""trial"",""time""
""fullscreenenter"",""1"",""3419""
","
","","","","","","1720.2999999970198","<p> Some animals want to be pet, while other animals want to be left alone.  </p><p> On each turn, you will see an animal.   </p><p> You need to decide whether to pet it or not.  </p>","","0","instructions","","","","","","","","","","",""
"learning-instructions","62","330703","0.0-9.0-1.0-0.2","7077","1","22","Male","approach_avoid_spark_v1","""event"",""trial"",""time""
""fullscreenenter"",""1"",""3419""
","
","
","""event"",""trial"",""time""
""fullscreenenter"",""1"",""3419""
","
","","","","","","1842.6999999955297","<p> You can pet the animal by pressing 1 and leave the animal alone by pressing 0. </p><br><div class=""choice-instructions-grid""> <div class=""choice-option""><img src=""images/approach.png"" class=""choice-option-img"" stage=""instructions"" position=""0"" ><div class=""choice-option-text""> Press ""1."" </div></div><div class=""choice-option""><img src=""images/avoid.png"" class=""choice-option-img"" stage=""instructions"" position=""1"" ><div class=""choice-option-text""> Press ""0."" </div></div>","","0","instructions","","","","","","","","","","",""
"learning-instructions","63","341087","0.0-9.0-1.0-0.3","7077","1","22","Male","approach_avoid_spark_v1","""event"",""trial"",""time""
""fullscreenenter"",""1"",""3419""
","
","
","""event"",""trial"",""time""
""fullscreenenter"",""1"",""3419""
","
","","","","","","1018.5999999940395","<p> If you pet an animal that wants to be pet, you will make it feel happy! </p><p> But if you pet an animal that wants to be left alone, you will make it feel angry. </p>","","0","instructions","","","","","","","","","","",""
"learning-instructions","64","354735","0.0-9.0-1.0-0.4","7077","1","22","Male","approach_avoid_spark_v1","""event"",""trial"",""time""
""fullscreenenter"",""1"",""3419""
","
","
","""event"",""trial"",""time""
""fullscreenenter"",""1"",""3419""
","
","","","","","","599.8999999985099","<p> You will earn points based on how you made the animal feel. </p><p> If you made it feel happy, you will WIN anywhere from 1 - 9 points, </p><p> but if you made it feel angry, you will LOSE anywhere from 1 - 9 points. </p>","","0","instructions","","","","","","","","","","",""
"learning-instructions","65","362731","0.0-9.0-1.0-0.5","7077","1","22","Male","approach_avoid_spark_v1","""event"",""trial"",""time""
""fullscreenenter"",""1"",""3419""
","
","
","""event"",""trial"",""time""
""fullscreenenter"",""1"",""3419""
","
","","","","","","1254.3000000044703","<p> You will see how many points you won or lost in the center of the screen. </p><p> Here is what you would see if you won 5 points: </p><p style=""color:green;font-size:50px;font-weight:bolder"">5</p>","","0","instructions","","","","","","","","","","",""
"learning-instructions","66","366467","0.0-9.0-1.0-0.6","7077","1","22","Male","approach_avoid_spark_v1","""event"",""trial"",""time""
""fullscreenenter"",""1"",""3419""
","
","
","""event"",""trial"",""time""
""fullscreenenter"",""1"",""3419""
","
","","","","","","850.4000000059605","<p> And here is what you would see if you lost 3 points: </p><p style=""color:red;font-size:50px;font-weight:bolder"">-3</p>","","0","instructions","","","","","","","","","","",""
"learning-instructions","67","381920","0.0-9.0-1.0-0.7","7077","1","22","Male","approach_avoid_spark_v1","""event"",""trial"",""time""
""fullscreenenter"",""1"",""3419""
","
","
","""event"",""trial"",""time""
""fullscreenenter"",""1"",""3419""
","
","","","","","","733.8999999985099","<p> Some animals will become very happy or very angry. </p><p> These animals will make you win or lose LOTS of points. </p><p> Other animals have less strong feelings. </p><p> These animals will make you win or lose small amounts of points. </p>","","0","instructions","","","","","","","","","","",""
"learning-instructions","68","396284","0.0-9.0-1.0-0.8","7077","1","22","Male","approach_avoid_spark_v1","""event"",""trial"",""time""
""fullscreenenter"",""1"",""3419""
","
","
","""event"",""trial"",""time""
""fullscreenenter"",""1"",""3419""
","
","","","","","","2467.9000000059605","<p> If you choose to leave the animal alone, you will not win or lose any points. </p><p>  However, in the center of the screen, you will see the number of points you WOULD HAVE won or lost if you had pet the animal. </p>","","0","instructions","","","","","","","","","","",""
"learning-instructions","69","410191","0.0-9.0-1.0-0.9","7077","1","22","Male","approach_avoid_spark_v1","""event"",""trial"",""time""
""fullscreenenter"",""1"",""3419""
","
","
","""event"",""trial"",""time""
""fullscreenenter"",""1"",""3419""
","
","","","","","","1503.8999999985099","<p> Here is what you might see if you did not pet the animal but the animal wanted to be pet: </p><p style=""color:grey; font-size:50px; display: inline-block; border-spacing: 15px; border-width:3px; border-style:solid; border-color:red"">  &nbsp; 6 &nbsp; </p><p> Remember, in this case, you would not win or lose ANY points because you did not pet the animal.  </p>","","0","instructions","","","","","","","","","","",""
"learning-instructions","70","419089","0.0-9.0-1.0-0.10","7077","1","22","Male","approach_avoid_spark_v1","""event"",""trial"",""time""
""fullscreenenter"",""1"",""3419""
","
","
","""event"",""trial"",""time""
""fullscreenenter"",""1"",""3419""
","
","","","","","","1341.2000000029802","<p> Try to make the best choice for each animal because </p><p> at the end of the game, you will earn bonus money based on how many points you earned. </p>","","0","instructions","","","","","","","","","","",""
"learning-instructions","71","428412","0.0-9.0-1.0-0.11","7077","1","22","Male","approach_avoid_spark_v1","""event"",""trial"",""time""
""fullscreenenter"",""1"",""3419""
","
","
","""event"",""trial"",""time""
""fullscreenenter"",""1"",""3419""
","
","","","","","","1125.0999999940395","<p> You will have 3 seconds to make each choice. Try to respond before time runs out! </p><p> You will lose 5 points each time you do not make a response. </p>","","0","instructions","","","","","","","","","","",""
"html-keyboard-response","72","429023","0.0-9.0-2.0-0.0","7077","1","22","Male","approach_avoid_spark_v1","""event"",""trial"",""time""
""fullscreenenter"",""1"",""3419""
","
","
","""event"",""trial"",""time""
""fullscreenenter"",""1"",""3419""
","
","","","","","","null","<div style=""font-size:60px;"">+</div>","null","","fixation","","","","","","","","","","",""
"aa-learning-trial","73","432037","0.0-9.0-2.0-1.0","7077","1","22","Male","approach_avoid_spark_v1","""event"",""trial"",""time""
""fullscreenenter"",""1"",""3419""
","
","
","""event"",""trial"",""time""
""fullscreenenter"",""1"",""3419""
","
","","","","","","1133.0999999940395","images/dog3.png","","","learning","1","1","1","1","dog","pets","1","0","","neutral","0"
"html-keyboard-response","74","432540","0.0-9.0-2.0-0.1","7077","1","22","Male","approach_avoid_spark_v1","""event"",""trial"",""time""
""fullscreenenter"",""1"",""3419""
","
","
","""event"",""trial"",""time""
""fullscreenenter"",""1"",""3419""
","
","","","","","","null","<div style=""font-size:60px;"">+</div>","null","","fixation","","","","","","","","","","",""
"aa-learning-trial","75","435549","0.0-9.0-2.0-1.1","7077","1","22","Male","approach_avoid_spark_v1","""event"",""trial"",""time""
""fullscreenenter"",""1"",""3419""
","
","
","""event"",""trial"",""time""
""fullscreenenter"",""1"",""3419""
","
","","","","","","1548.1000000014901","images/dog5.png","","","learning","[-1]","0","0","0","dog","pets","1","0","","neutral","0"
"html-keyboard-response","76","436060","0.0-9.0-2.0-0.2","7077","1","22","Male","approach_avoid_spark_v1","""event"",""trial"",""time""
""fullscreenenter"",""1"",""3419""
","
","
","""event"",""trial"",""time""
""fullscreenenter"",""1"",""3419""
","
","","","","","","null","<div style=""font-size:60px;"">+</div>","null","","fixation","","","","","","","","","","",""
"aa-learning-trial","77","439080","0.0-9.0-2.0-1.2","7077","1","22","Male","approach_avoid_spark_v1","""event"",""trial"",""time""
""fullscreenenter"",""1"",""3419""
","
","
","""event"",""trial"",""time""
""fullscreenenter"",""1"",""3419""
","
","","","","","","793.9000000059605","images/cat2.png","","","learning","7","7","1","1","cat","pets","1","0","","good","[6]"
"html-keyboard-response","78","439590","0.0-9.0-2.0-0.3","7077","1","22","Male","approach_avoid_spark_v1","""event"",""trial"",""time""
""fullscreenenter"",""1"",""3419""
","
","
","""event"",""trial"",""time""
""fullscreenenter"",""1"",""3419""
","
","","","","","","null","<div style=""font-size:60px;"">+</div>","null","","fixation","","","","","","","","","","",""
"aa-learning-trial","79","442599","0.0-9.0-2.0-1.3","7077","1","22","Male","approach_avoid_spark_v1","""event"",""trial"",""time""
""fullscreenenter"",""1"",""3419""
","
","
","""event"",""trial"",""time""
""fullscreenenter"",""1"",""3419""
","
","","","","","","1422","images/rodent6.png","","","learning","-2","-2","1","1","rodent","pets","1","0","","bad","[-4]"
"html-keyboard-response","80","443108","0.0-9.0-2.0-0.4","7077","1","22","Male","approach_avoid_spark_v1","""event"",""trial"",""time""
""fullscreenenter"",""1"",""3419""
","
","
","""event"",""trial"",""time""
""fullscreenenter"",""1"",""3419""
","
","","","","","","null","<div style=""font-size:60px;"">+</div>","null","","fixation","","","","","","","","","","",""
"aa-learning-trial","81","446114","0.0-9.0-2.0-1.4","7077","1","22","Male","approach_avoid_spark_v1","""event"",""trial"",""time""
""fullscreenenter"",""1"",""3419""
","
","
","""event"",""trial"",""time""
""fullscreenenter"",""1"",""3419""
","
","","","","","","1062.4000000059605","images/dog7.png","","","learning","[1]","0","0","0","dog","pets","1","0","","neutral","0"
"html-keyboard-response","82","446618","0.0-9.0-2.0-0.5","7077","1","22","Male","approach_avoid_spark_v1","""event"",""trial"",""time""
""fullscreenenter"",""1"",""3419""
","
","
","""event"",""trial"",""time""
""fullscreenenter"",""1"",""3419""
","
","","","","","","null","<div style=""font-size:60px;"">+</div>","null","","fixation","","","","","","","","","","",""
"aa-learning-trial","83","449622","0.0-9.0-2.0-1.5","7077","1","22","Male","approach_avoid_spark_v1","""event"",""trial"",""time""
""fullscreenenter"",""1"",""3419""
","
","
","""event"",""trial"",""time""
""fullscreenenter"",""1"",""3419""
","
","","","","","","639.7999999970198","images/dog3.png","","","learning","1","1","1","1","dog","pets","1","0","","neutral","0"
"html-keyboard-response","84","450138","0.0-9.0-2.0-0.6","7077","1","22","Male","approach_avoid_spark_v1","""event"",""trial"",""time""
""fullscreenenter"",""1"",""3419""
","
","
","""event"",""trial"",""time""
""fullscreenenter"",""1"",""3419""
","
","","","","","","null","<div style=""font-size:60px;"">+</div>","null","","fixation","","","","","","","","","","",""
"aa-learning-trial","85","453152","0.0-9.0-2.0-1.6","7077","1","22","Male","approach_avoid_spark_v1","""event"",""trial"",""time""
""fullscreenenter"",""1"",""3419""
","
","
","""event"",""trial"",""time""
""fullscreenenter"",""1"",""3419""
","
","","","","","","1716.8000000044703","images/cat8.png","","","learning","9","9","1","1","cat","pets","1","0","","good","[6]"
"html-keyboard-response","86","453661","0.0-9.0-2.0-0.7","7077","1","22","Male","approach_avoid_spark_v1","""event"",""trial"",""time""
""fullscreenenter"",""1"",""3419""
","
","
","""event"",""trial"",""time""
""fullscreenenter"",""1"",""3419""
","
","","","","","","null","<div style=""font-size:60px;"">+</div>","null","","fixation","","","","","","","","","","",""
"aa-learning-trial","87","456666","0.0-9.0-2.0-1.7","7077","1","22","Male","approach_avoid_spark_v1","""event"",""trial"",""time""
""fullscreenenter"",""1"",""3419""
","
","
","""event"",""trial"",""time""
""fullscreenenter"",""1"",""3419""
","
","","","","","","1142.8000000044703","images/rodent7.png","","","learning","-4","0","0","0","rodent","pets","1","0","","bad","[-4]"
"html-keyboard-response","88","457171","0.0-9.0-2.0-0.8","7077","1","22","Male","approach_avoid_spark_v1","""event"",""trial"",""time""
""fullscreenenter"",""1"",""3419""
","
","
","""event"",""trial"",""time""
""fullscreenenter"",""1"",""3419""
","
","","","","","","null","<div style=""font-size:60px;"">+</div>","null","","fixation","","","","","","","","","","",""
"aa-learning-trial","89","460180","0.0-9.0-2.0-1.8","7077","1","22","Male","approach_avoid_spark_v1","""event"",""trial"",""time""
""fullscreenenter"",""1"",""3419""
","
","
","""event"",""trial"",""time""
""fullscreenenter"",""1"",""3419""
","
","","","","","","1066.2000000029802","images/rodent6.png","","","learning","-3","-3","1","1","rodent","pets","1","0","","bad","[-4]"
"html-keyboard-response","90","460692","0.0-9.0-2.0-0.9","7077","1","22","Male","approach_avoid_spark_v1","""event"",""trial"",""time""
""fullscreenenter"",""1"",""3419""
","
","
","""event"",""trial"",""time""
""fullscreenenter"",""1"",""3419""
","
","","","","","","null","<div style=""font-size:60px;"">+</div>","null","","fixation","","","","","","","","","","",""
"aa-learning-trial","91","463702","0.0-9.0-2.0-1.9","7077","1","22","Male","approach_avoid_spark_v1","""event"",""trial"",""time""
""fullscreenenter"",""1"",""3419""
","
","
","""event"",""trial"",""time""
""fullscreenenter"",""1"",""3419""
","
","","","","","","746.2999999970198","images/cat8.png","","","learning","4","4","1","1","cat","pets","1","0","","good","[6]"
"html-keyboard-response","92","464208","0.0-9.0-2.0-0.10","7077","1","22","Male","approach_avoid_spark_v1","""event"",""trial"",""time""
""fullscreenenter"",""1"",""3419""
","
","
","""event"",""trial"",""time""
""fullscreenenter"",""1"",""3419""
","
","","","","","","null","<div style=""font-size:60px;"">+</div>","null","","fixation","","","","","","","","","","",""
"aa-learning-trial","93","467220","0.0-9.0-2.0-1.10","7077","1","22","Male","approach_avoid_spark_v1","""event"",""trial"",""time""
""fullscreenenter"",""1"",""3419""
","
","
","""event"",""trial"",""time""
""fullscreenenter"",""1"",""3419""
","
","","","","","","870.6000000014901","images/cat2.png","","","learning","6","6","1","1","cat","pets","1","0","","good","[6]"
"html-keyboard-response","94","467738","0.0-9.0-2.0-0.11","7077","1","22","Male","approach_avoid_spark_v1","""event"",""trial"",""time""
""fullscreenenter"",""1"",""3419""
","
","
","""event"",""trial"",""time""
""fullscreenenter"",""1"",""3419""
","
","","","","","","null","<div style=""font-size:60px;"">+</div>","null","","fixation","","","","","","","","","","",""
"aa-learning-trial","95","470748","0.0-9.0-2.0-1.11","7077","1","22","Male","approach_avoid_spark_v1","""event"",""trial"",""time""
""fullscreenenter"",""1"",""3419""
","
","
","""event"",""trial"",""time""
""fullscreenenter"",""1"",""3419""
","
","","","","","","1379","images/dog7.png","","","learning","-3","0","0","0","dog","pets","1","0","","neutral","0"
"html-keyboard-response","96","471258","0.0-9.0-2.0-0.12","7077","1","22","Male","approach_avoid_spark_v1","""event"",""trial"",""time""
""fullscreenenter"",""1"",""3419""
","
","
","""event"",""trial"",""time""
""fullscreenenter"",""1"",""3419""
","
","","","","","","null","<div style=""font-size:60px;"">+</div>","null","","fixation","","","","","","","","","","",""
"aa-learning-trial","97","474266","0.0-9.0-2.0-1.12","7077","1","22","Male","approach_avoid_spark_v1","""event"",""trial"",""time""
""fullscreenenter"",""1"",""3419""
","
","
","""event"",""trial"",""time""
""fullscreenenter"",""1"",""3419""
","
","","","","","","1008.8999999985099","images/rodent4.png","","","learning","-5","0","0","0","rodent","pets","1","0","","bad","[-4]"
"html-keyboard-response","98","474775","0.0-9.0-2.0-0.13","7077","1","22","Male","approach_avoid_spark_v1","""event"",""trial"",""time""
""fullscreenenter"",""1"",""3419""
","
","
","""event"",""trial"",""time""
""fullscreenenter"",""1"",""3419""
","
","","","","","","null","<div style=""font-size:60px;"">+</div>","null","","fixation","","","","","","","","","","",""
"aa-learning-trial","99","477783","0.0-9.0-2.0-1.13","7077","1","22","Male","approach_avoid_spark_v1","""event"",""trial"",""time""
""fullscreenenter"",""1"",""3419""
","
","
","""event"",""trial"",""time""
""fullscreenenter"",""1"",""3419""
","
","","","","","","473.8999999985099","images/rodent4.png","","","learning","-4","-4","1","1","rodent","pets","1","0","","bad","[-4]"
"html-keyboard-response","100","478301","0.0-9.0-2.0-0.14","7077","1","22","Male","approach_avoid_spark_v1","""event"",""trial"",""time""
""fullscreenenter"",""1"",""3419""
","
","
","""event"",""trial"",""time""
""fullscreenenter"",""1"",""3419""
","
","","","","","","null","<div style=""font-size:60px;"">+</div>","null","","fixation","","","","","","","","","","",""
"aa-learning-trial","101","481307","0.0-9.0-2.0-1.14","7077","1","22","Male","approach_avoid_spark_v1","""event"",""trial"",""time""
""fullscreenenter"",""1"",""3419""
","
","
","""event"",""trial"",""time""
""fullscreenenter"",""1"",""3419""
","
","","","","","","951.5999999940395","images/cat1.png","","","learning","5","5","1","1","cat","pets","1","0","","good","[6]"
"html-keyboard-response","102","481813","0.0-9.0-2.0-0.15","7077","1","22","Male","approach_avoid_spark_v1","""event"",""trial"",""time""
""fullscreenenter"",""1"",""3419""
","
","
","""event"",""trial"",""time""
""fullscreenenter"",""1"",""3419""
","
","","","","","","null","<div style=""font-size:60px;"">+</div>","null","","fixation","","","","","","","","","","",""
"aa-learning-trial","103","484823","0.0-9.0-2.0-1.15","7077","1","22","Male","approach_avoid_spark_v1","""event"",""trial"",""time""
""fullscreenenter"",""1"",""3419""
","
","
","""event"",""trial"",""time""
""fullscreenenter"",""1"",""3419""
","
","","","","","","1449.3999999985099","images/cat1.png","","","learning","5","0","0","0","cat","pets","1","0","","good","[6]"
"html-keyboard-response","104","485326","0.0-9.0-2.0-0.16","7077","1","22","Male","approach_avoid_spark_v1","""event"",""trial"",""time""
""fullscreenenter"",""1"",""3419""
","
","
","""event"",""trial"",""time""
""fullscreenenter"",""1"",""3419""
","
","","","","","","null","<div style=""font-size:60px;"">+</div>","null","","fixation","","","","","","","","","","",""
"aa-learning-trial","105","488334","0.0-9.0-2.0-1.16","7077","1","22","Male","approach_avoid_spark_v1","""event"",""trial"",""time""
""fullscreenenter"",""1"",""3419""
","
","
","""event"",""trial"",""time""
""fullscreenenter"",""1"",""3419""
","
","","","","","","770.3000000044703","images/cat8.png","","","learning","5","5","1","1","cat","pets","1","0","","good","[6]"
"html-keyboard-response","106","488842","0.0-9.0-2.0-0.17","7077","1","22","Male","approach_avoid_spark_v1","""event"",""trial"",""time""
""fullscreenenter"",""1"",""3419""
","
","
","""event"",""trial"",""time""
""fullscreenenter"",""1"",""3419""
","
","","","","","","null","<div style=""font-size:60px;"">+</div>","null","","fixation","","","","","","","","","","",""
"aa-learning-trial","107","491851","0.0-9.0-2.0-1.17","7077","1","22","Male","approach_avoid_spark_v1","""event"",""trial"",""time""
""fullscreenenter"",""1"",""3419""
","
","
","""event"",""trial"",""time""
""fullscreenenter"",""1"",""3419""
","
","","","","","","1224.6000000014901","images/rodent4.png","","","learning","-6","0","0","0","rodent","pets","1","0","","bad","[-4]"
"html-keyboard-response","108","492355","0.0-9.0-2.0-0.18","7077","1","22","Male","approach_avoid_spark_v1","""event"",""trial"",""time""
""fullscreenenter"",""1"",""3419""
","
","
","""event"",""trial"",""time""
""fullscreenenter"",""1"",""3419""
","
","","","","","","null","<div style=""font-size:60px;"">+</div>","null","","fixation","","","","","","","","","","",""
"aa-learning-trial","109","495364","0.0-9.0-2.0-1.18","7077","1","22","Male","approach_avoid_spark_v1","""event"",""trial"",""time""
""fullscreenenter"",""1"",""3419""
","
","
","""event"",""trial"",""time""
""fullscreenenter"",""1"",""3419""
","
","","","","","","818.7000000029802","images/rodent7.png","","","learning","-4","0","0","0","rodent","pets","1","0","","bad","[-4]"
"html-keyboard-response","110","495871","0.0-9.0-2.0-0.19","7077","1","22","Male","approach_avoid_spark_v1","""event"",""trial"",""time""
""fullscreenenter"",""1"",""3419""
","
","
","""event"",""trial"",""time""
""fullscreenenter"",""1"",""3419""
","
","","","","","","null","<div style=""font-size:60px;"">+</div>","null","","fixation","","","","","","","","","","",""
"aa-learning-trial","111","498882","0.0-9.0-2.0-1.19","7077","1","22","Male","approach_avoid_spark_v1","""event"",""trial"",""time""
""fullscreenenter"",""1"",""3419""
","
","
","""event"",""trial"",""time""
""fullscreenenter"",""1"",""3419""
","
","","","","","","541.1999999955297","images/dog7.png","","","learning","1","1","1","1","dog","pets","1","0","","neutral","0"
"html-keyboard-response","112","499387","0.0-9.0-2.0-0.20","7077","1","22","Male","approach_avoid_spark_v1","""event"",""trial"",""time""
""fullscreenenter"",""1"",""3419""
","
","
","""event"",""trial"",""time""
""fullscreenenter"",""1"",""3419""
","
","","","","","","null","<div style=""font-size:60px;"">+</div>","null","","fixation","","","","","","","","","","",""
"aa-learning-trial","113","502396","0.0-9.0-2.0-1.20","7077","1","22","Male","approach_avoid_spark_v1","""event"",""trial"",""time""
""fullscreenenter"",""1"",""3419""
","
","
","""event"",""trial"",""time""
""fullscreenenter"",""1"",""3419""
","
","","","","","","470.70000000298023","images/dog7.png","","","learning","-1","-1","1","1","dog","pets","1","0","","neutral","0"
"html-keyboard-response","114","502904","0.0-9.0-2.0-0.21","7077","1","22","Male","approach_avoid_spark_v1","""event"",""trial"",""time""
""fullscreenenter"",""1"",""3419""
","
","
","""event"",""trial"",""time""
""fullscreenenter"",""1"",""3419""
","
","","","","","","null","<div style=""font-size:60px;"">+</div>","null","","fixation","","","","","","","","","","",""
"aa-learning-trial","115","505911","0.0-9.0-2.0-1.21","7077","1","22","Male","approach_avoid_spark_v1","""event"",""trial"",""time""
""fullscreenenter"",""1"",""3419""
","
","
","""event"",""trial"",""time""
""fullscreenenter"",""1"",""3419""
","
","","","","","","1411","images/rodent6.png","","","learning","-5","0","0","0","rodent","pets","1","0","","bad","[-4]"
"html-keyboard-response","116","506417","0.0-9.0-2.0-0.22","7077","1","22","Male","approach_avoid_spark_v1","""event"",""trial"",""time""
""fullscreenenter"",""1"",""3419""
","
","
","""event"",""trial"",""time""
""fullscreenenter"",""1"",""3419""
","
","","","","","","null","<div style=""font-size:60px;"">+</div>","null","","fixation","","","","","","","","","","",""
"aa-learning-trial","117","509423","0.0-9.0-2.0-1.22","7077","1","22","Male","approach_avoid_spark_v1","""event"",""trial"",""time""
""fullscreenenter"",""1"",""3419""
","
","
","""event"",""trial"",""time""
""fullscreenenter"",""1"",""3419""
","
","","","","","","439.69999999552965","images/cat8.png","","","learning","8","8","1","1","cat","pets","1","0","","good","[6]"
"html-keyboard-response","118","509928","0.0-9.0-2.0-0.23","7077","1","22","Male","approach_avoid_spark_v1","""event"",""trial"",""time""
""fullscreenenter"",""1"",""3419""
","
","
","""event"",""trial"",""time""
""fullscreenenter"",""1"",""3419""
","
","","","","","","null","<div style=""font-size:60px;"">+</div>","null","","fixation","","","","","","","","","","",""
"aa-learning-trial","119","512936","0.0-9.0-2.0-1.23","7077","1","22","Male","approach_avoid_spark_v1","""event"",""trial"",""time""
""fullscreenenter"",""1"",""3419""
","
","
","""event"",""trial"",""time""
""fullscreenenter"",""1"",""3419""
","
","","","","","","682","images/dog4.png","","","learning","[-1]","-1","1","1","dog","pets","1","0","","neutral","0"
"html-keyboard-response","120","513446","0.0-9.0-2.0-0.24","7077","1","22","Male","approach_avoid_spark_v1","""event"",""trial"",""time""
""fullscreenenter"",""1"",""3419""
","
","
","""event"",""trial"",""time""
""fullscreenenter"",""1"",""3419""
","
","","","","","","null","<div style=""font-size:60px;"">+</div>","null","","fixation","","","","","","","","","","",""
"aa-learning-trial","121","516455","0.0-9.0-2.0-1.24","7077","1","22","Male","approach_avoid_spark_v1","""event"",""trial"",""time""
""fullscreenenter"",""1"",""3419""
","
","
","""event"",""trial"",""time""
""fullscreenenter"",""1"",""3419""
","
","","","","","","847.6999999955297","images/cat6.png","","","learning","5","5","1","1","cat","pets","1","0","","good","[6]"
"html-keyboard-response","122","516959","0.0-9.0-2.0-0.25","7077","1","22","Male","approach_avoid_spark_v1","""event"",""trial"",""time""
""fullscreenenter"",""1"",""3419""
","
","
","""event"",""trial"",""time""
""fullscreenenter"",""1"",""3419""
","
","","","","","","null","<div style=""font-size:60px;"">+</div>","null","","fixation","","","","","","","","","","",""
"aa-learning-trial","123","519965","0.0-9.0-2.0-1.25","7077","1","22","Male","approach_avoid_spark_v1","""event"",""trial"",""time""
""fullscreenenter"",""1"",""3419""
","
","
","""event"",""trial"",""time""
""fullscreenenter"",""1"",""3419""
","
","","","","","","497.20000000298023","images/cat1.png","","","learning","6","6","1","1","cat","pets","1","0","","good","[6]"
"html-keyboard-response","124","520476","0.0-9.0-2.0-0.26","7077","1","22","Male","approach_avoid_spark_v1","""event"",""trial"",""time""
""fullscreenenter"",""1"",""3419""
","
","
","""event"",""trial"",""time""
""fullscreenenter"",""1"",""3419""
","
","","","","","","null","<div style=""font-size:60px;"">+</div>","null","","fixation","","","","","","","","","","",""
"aa-learning-trial","125","523485","0.0-9.0-2.0-1.26","7077","1","22","Male","approach_avoid_spark_v1","""event"",""trial"",""time""
""fullscreenenter"",""1"",""3419""
","
","
","""event"",""trial"",""time""
""fullscreenenter"",""1"",""3419""
","
","","","","","","504.80000000447035","images/dog5.png","","","learning","2","2","1","1","dog","pets","1","0","","neutral","0"
"html-keyboard-response","126","524000","0.0-9.0-2.0-0.27","7077","1","22","Male","approach_avoid_spark_v1","""event"",""trial"",""time""
""fullscreenenter"",""1"",""3419""
","
","
","""event"",""trial"",""time""
""fullscreenenter"",""1"",""3419""
","
","","","","","","null","<div style=""font-size:60px;"">+</div>","null","","fixation","","","","","","","","","","",""
"aa-learning-trial","127","527010","0.0-9.0-2.0-1.27","7077","1","22","Male","approach_avoid_spark_v1","""event"",""trial"",""time""
""fullscreenenter"",""1"",""3419""
","
","
","""event"",""trial"",""time""
""fullscreenenter"",""1"",""3419""
","
","","","","","","671.1999999955297","images/dog8.png","","","learning","-2","-2","1","1","dog","pets","1","0","","neutral","0"
"html-keyboard-response","128","527517","0.0-9.0-2.0-0.28","7077","1","22","Male","approach_avoid_spark_v1","""event"",""trial"",""time""
""fullscreenenter"",""1"",""3419""
","
","
","""event"",""trial"",""time""
""fullscreenenter"",""1"",""3419""
","
","","","","","","null","<div style=""font-size:60px;"">+</div>","null","","fixation","","","","","","","","","","",""
"aa-learning-trial","129","530527","0.0-9.0-2.0-1.28","7077","1","22","Male","approach_avoid_spark_v1","""event"",""trial"",""time""
""fullscreenenter"",""1"",""3419""
","
","
","""event"",""trial"",""time""
""fullscreenenter"",""1"",""3419""
","
","","","","","","1085.7999999970198","images/rodent4.png","","","learning","-3","-3","1","1","rodent","pets","1","0","","bad","[-4]"
"html-keyboard-response","130","531029","0.0-9.0-2.0-0.29","7077","1","22","Male","approach_avoid_spark_v1","""event"",""trial"",""time""
""fullscreenenter"",""1"",""3419""
","
","
","""event"",""trial"",""time""
""fullscreenenter"",""1"",""3419""
","
","","","","","","null","<div style=""font-size:60px;"">+</div>","null","","fixation","","","","","","","","","","",""
"aa-learning-trial","131","534037","0.0-9.0-2.0-1.29","7077","1","22","Male","approach_avoid_spark_v1","""event"",""trial"",""time""
""fullscreenenter"",""1"",""3419""
","
","
","""event"",""trial"",""time""
""fullscreenenter"",""1"",""3419""
","
","","","","","","972.6000000014901","images/rodent4.png","","","learning","-7","0","0","0","rodent","pets","1","0","","bad","[-4]"
"html-keyboard-response","132","534541","0.0-9.0-2.0-0.30","7077","1","22","Male","approach_avoid_spark_v1","""event"",""trial"",""time""
""fullscreenenter"",""1"",""3419""
","
","
","""event"",""trial"",""time""
""fullscreenenter"",""1"",""3419""
","
","","","","","","null","<div style=""font-size:60px;"">+</div>","null","","fixation","","","","","","","","","","",""
"aa-learning-trial","133","537548","0.0-9.0-2.0-1.30","7077","1","22","Male","approach_avoid_spark_v1","""event"",""trial"",""time""
""fullscreenenter"",""1"",""3419""
","
","
","""event"",""trial"",""time""
""fullscreenenter"",""1"",""3419""
","
","","","","","","756.8999999985099","images/dog3.png","","","learning","[1]","1","1","1","dog","pets","1","0","","neutral","0"
"html-keyboard-response","134","538052","0.0-9.0-2.0-0.31","7077","1","22","Male","approach_avoid_spark_v1","""event"",""trial"",""time""
""fullscreenenter"",""1"",""3419""
","
","
","""event"",""trial"",""time""
""fullscreenenter"",""1"",""3419""
","
","","","","","","null","<div style=""font-size:60px;"">+</div>","null","","fixation","","","","","","","","","","",""
"aa-learning-trial","135","541061","0.0-9.0-2.0-1.31","7077","1","22","Male","approach_avoid_spark_v1","""event"",""trial"",""time""
""fullscreenenter"",""1"",""3419""
","
","
","""event"",""trial"",""time""
""fullscreenenter"",""1"",""3419""
","
","","","","","","1783.8999999985099","images/rodent4.png","","","learning","-4","-4","1","1","rodent","pets","1","0","","bad","[-4]"
"html-keyboard-response","136","541568","0.0-9.0-2.0-0.32","7077","1","22","Male","approach_avoid_spark_v1","""event"",""trial"",""time""
""fullscreenenter"",""1"",""3419""
","
","
","""event"",""trial"",""time""
""fullscreenenter"",""1"",""3419""
","
","","","","","","null","<div style=""font-size:60px;"">+</div>","null","","fixation","","","","","","","","","","",""
"aa-learning-trial","137","544579","0.0-9.0-2.0-1.32","7077","1","22","Male","approach_avoid_spark_v1","""event"",""trial"",""time""
""fullscreenenter"",""1"",""3419""
","
","
","""event"",""trial"",""time""
""fullscreenenter"",""1"",""3419""
","
","","","","","","535.1000000014901","images/cat8.png","","","learning","7","7","1","1","cat","pets","1","0","","good","[6]"
"html-keyboard-response","138","545088","0.0-9.0-2.0-0.33","7077","1","22","Male","approach_avoid_spark_v1","""event"",""trial"",""time""
""fullscreenenter"",""1"",""3419""
","
","
","""event"",""trial"",""time""
""fullscreenenter"",""1"",""3419""
","
","","","","","","null","<div style=""font-size:60px;"">+</div>","null","","fixation","","","","","","","","","","",""
"aa-learning-trial","139","548097","0.0-9.0-2.0-1.33","7077","1","22","Male","approach_avoid_spark_v1","""event"",""trial"",""time""
""fullscreenenter"",""1"",""3419""
","
","
","""event"",""trial"",""time""
""fullscreenenter"",""1"",""3419""
","
","","","","","","1054.8999999985099","images/rodent6.png","","","learning","-3","-3","1","1","rodent","pets","1","0","","bad","[-4]"
"html-keyboard-response","140","548606","0.0-9.0-2.0-0.34","7077","1","22","Male","approach_avoid_spark_v1","""event"",""trial"",""time""
""fullscreenenter"",""1"",""3419""
","
","
","""event"",""trial"",""time""
""fullscreenenter"",""1"",""3419""
","
","","","","","","null","<div style=""font-size:60px;"">+</div>","null","","fixation","","","","","","","","","","",""
"aa-learning-trial","141","551620","0.0-9.0-2.0-1.34","7077","1","22","Male","approach_avoid_spark_v1","""event"",""trial"",""time""
""fullscreenenter"",""1"",""3419""
","
","
","""event"",""trial"",""time""
""fullscreenenter"",""1"",""3419""
","
","","","","","","338.69999999552965","images/rodent6.png","","","learning","-3","-3","1","1","rodent","pets","1","0","","bad","[-4]"
"html-keyboard-response","142","552130","0.0-9.0-2.0-0.35","7077","1","22","Male","approach_avoid_spark_v1","""event"",""trial"",""time""
""fullscreenenter"",""1"",""3419""
","
","
","""event"",""trial"",""time""
""fullscreenenter"",""1"",""3419""
","
","","","","","","null","<div style=""font-size:60px;"">+</div>","null","","fixation","","","","","","","","","","",""
"aa-learning-trial","143","555136","0.0-9.0-2.0-1.35","7077","1","22","Male","approach_avoid_spark_v1","""event"",""trial"",""time""
""fullscreenenter"",""1"",""3419""
","
","
","""event"",""trial"",""time""
""fullscreenenter"",""1"",""3419""
","
","","","","","","572.3999999985099","images/cat2.png","","","learning","8","8","1","1","cat","pets","1","0","","good","[6]"
"html-keyboard-response","144","555640","0.0-9.0-2.0-0.36","7077","1","22","Male","approach_avoid_spark_v1","""event"",""trial"",""time""
""fullscreenenter"",""1"",""3419""
","
","
","""event"",""trial"",""time""
""fullscreenenter"",""1"",""3419""
","
","","","","","","null","<div style=""font-size:60px;"">+</div>","null","","fixation","","","","","","","","","","",""
"aa-learning-trial","145","558655","0.0-9.0-2.0-1.36","7077","1","22","Male","approach_avoid_spark_v1","""event"",""trial"",""time""
""fullscreenenter"",""1"",""3419""
","
","
","""event"",""trial"",""time""
""fullscreenenter"",""1"",""3419""
","
","","","","","","1134.1999999955297","images/cat4.png","","","learning","6","0","0","0","cat","pets","1","0","","good","[6]"
"html-keyboard-response","146","559164","0.0-9.0-2.0-0.37","7077","1","22","Male","approach_avoid_spark_v1","""event"",""trial"",""time""
""fullscreenenter"",""1"",""3419""
","
","
","""event"",""trial"",""time""
""fullscreenenter"",""1"",""3419""
","
","","","","","","null","<div style=""font-size:60px;"">+</div>","null","","fixation","","","","","","","","","","",""
"aa-learning-trial","147","562170","0.0-9.0-2.0-1.37","7077","1","22","Male","approach_avoid_spark_v1","""event"",""trial"",""time""
""fullscreenenter"",""1"",""3419""
","
","
","""event"",""trial"",""time""
""fullscreenenter"",""1"",""3419""
","
","","","","","","421","images/cat2.png","","","learning","8","8","1","1","cat","pets","1","0","","good","[6]"
"html-keyboard-response","148","562679","0.0-9.0-2.0-0.38","7077","1","22","Male","approach_avoid_spark_v1","""event"",""trial"",""time""
""fullscreenenter"",""1"",""3419""
","
","
","""event"",""trial"",""time""
""fullscreenenter"",""1"",""3419""
","
","","","","","","null","<div style=""font-size:60px;"">+</div>","null","","fixation","","","","","","","","","","",""
"aa-learning-trial","149","565686","0.0-9.0-2.0-1.38","7077","1","22","Male","approach_avoid_spark_v1","""event"",""trial"",""time""
""fullscreenenter"",""1"",""3419""
","
","
","""event"",""trial"",""time""
""fullscreenenter"",""1"",""3419""
","
","","","","","","907.9000000059605","images/rodent7.png","","","learning","-5","-5","1","1","rodent","pets","1","0","","bad","[-4]"
"html-keyboard-response","150","566189","0.0-9.0-2.0-0.39","7077","1","22","Male","approach_avoid_spark_v1","""event"",""trial"",""time""
""fullscreenenter"",""1"",""3419""
","
","
","""event"",""trial"",""time""
""fullscreenenter"",""1"",""3419""
","
","","","","","","null","<div style=""font-size:60px;"">+</div>","null","","fixation","","","","","","","","","","",""
"aa-learning-trial","151","569206","0.0-9.0-2.0-1.39","7077","1","22","Male","approach_avoid_spark_v1","""event"",""trial"",""time""
""fullscreenenter"",""1"",""3419""
","
","
","""event"",""trial"",""time""
""fullscreenenter"",""1"",""3419""
","
","","","","","","982.7000000029802","images/rodent2.png","","","learning","-5","-5","1","1","rodent","pets","1","0","","bad","[-4]"
"html-keyboard-response","152","569715","0.0-9.0-2.0-0.40","7077","1","22","Male","approach_avoid_spark_v1","""event"",""trial"",""time""
""fullscreenenter"",""1"",""3419""
","
","
","""event"",""trial"",""time""
""fullscreenenter"",""1"",""3419""
","
","","","","","","null","<div style=""font-size:60px;"">+</div>","null","","fixation","","","","","","","","","","",""
"aa-learning-trial","153","572724","0.0-9.0-2.0-1.40","7077","1","22","Male","approach_avoid_spark_v1","""event"",""trial"",""time""
""fullscreenenter"",""1"",""3419""
","
","
","""event"",""trial"",""time""
""fullscreenenter"",""1"",""3419""
","
","","","","","","1196.4000000059605","images/rodent8.png","","","learning","-5","0","0","0","rodent","pets","1","0","","bad","[-4]"
"html-keyboard-response","154","573232","0.0-9.0-2.0-0.41","7077","1","22","Male","approach_avoid_spark_v1","""event"",""trial"",""time""
""fullscreenenter"",""1"",""3419""
","
","
","""event"",""trial"",""time""
""fullscreenenter"",""1"",""3419""
","
","","","","","","null","<div style=""font-size:60px;"">+</div>","null","","fixation","","","","","","","","","","",""
"aa-learning-trial","155","576236","0.0-9.0-2.0-1.41","7077","1","22","Male","approach_avoid_spark_v1","""event"",""trial"",""time""
""fullscreenenter"",""1"",""3419""
","
","
","""event"",""trial"",""time""
""fullscreenenter"",""1"",""3419""
","
","","","","","","626","images/dog3.png","","","learning","-1","-1","1","1","dog","pets","1","0","","neutral","0"
"html-keyboard-response","156","576744","0.0-9.0-2.0-0.42","7077","1","22","Male","approach_avoid_spark_v1","""event"",""trial"",""time""
""fullscreenenter"",""1"",""3419""
","
","
","""event"",""trial"",""time""
""fullscreenenter"",""1"",""3419""
","
","","","","","","null","<div style=""font-size:60px;"">+</div>","null","","fixation","","","","","","","","","","",""
"aa-learning-trial","157","579753","0.0-9.0-2.0-1.42","7077","1","22","Male","approach_avoid_spark_v1","""event"",""trial"",""time""
""fullscreenenter"",""1"",""3419""
","
","
","""event"",""trial"",""time""
""fullscreenenter"",""1"",""3419""
","
","","","","","","1222.7000000029802","images/cat8.png","","","learning","5","5","1","1","cat","pets","1","0","","good","[6]"
"html-keyboard-response","158","580260","0.0-9.0-2.0-0.43","7077","1","22","Male","approach_avoid_spark_v1","""event"",""trial"",""time""
""fullscreenenter"",""1"",""3419""
","
","
","""event"",""trial"",""time""
""fullscreenenter"",""1"",""3419""
","
","","","","","","null","<div style=""font-size:60px;"">+</div>","null","","fixation","","","","","","","","","","",""
"aa-learning-trial","159","583269","0.0-9.0-2.0-1.43","7077","1","22","Male","approach_avoid_spark_v1","""event"",""trial"",""time""
""fullscreenenter"",""1"",""3419""
","
","
","""event"",""trial"",""time""
""fullscreenenter"",""1"",""3419""
","
","","","","","","1225.6999999955297","images/dog3.png","","","learning","1","0","0","0","dog","pets","1","0","","neutral","0"
"html-keyboard-response","160","583778","0.0-9.0-2.0-0.44","7077","1","22","Male","approach_avoid_spark_v1","""event"",""trial"",""time""
""fullscreenenter"",""1"",""3419""
","
","
","""event"",""trial"",""time""
""fullscreenenter"",""1"",""3419""
","
","","","","","","null","<div style=""font-size:60px;"">+</div>","null","","fixation","","","","","","","","","","",""
"aa-learning-trial","161","586786","0.0-9.0-2.0-1.44","7077","1","22","Male","approach_avoid_spark_v1","""event"",""trial"",""time""
""fullscreenenter"",""1"",""3419""
","
","
","""event"",""trial"",""time""
""fullscreenenter"",""1"",""3419""
","
","","","","","","334.30000000447035","images/rodent6.png","","","learning","-5","-5","1","1","rodent","pets","1","0","","bad","[-4]"
"html-keyboard-response","162","587294","0.0-9.0-2.0-0.45","7077","1","22","Male","approach_avoid_spark_v1","""event"",""trial"",""time""
""fullscreenenter"",""1"",""3419""
","
","
","""event"",""trial"",""time""
""fullscreenenter"",""1"",""3419""
","
","","","","","","null","<div style=""font-size:60px;"">+</div>","null","","fixation","","","","","","","","","","",""
"aa-learning-trial","163","590303","0.0-9.0-2.0-1.45","7077","1","22","Male","approach_avoid_spark_v1","""event"",""trial"",""time""
""fullscreenenter"",""1"",""3419""
","
","
","""event"",""trial"",""time""
""fullscreenenter"",""1"",""3419""
","
","","","","","","448.20000000298023","images/dog5.png","","","learning","[-1]","-1","1","1","dog","pets","1","0","","neutral","0"
"html-keyboard-response","164","590812","0.0-9.0-2.0-0.46","7077","1","22","Male","approach_avoid_spark_v1","""event"",""trial"",""time""
""fullscreenenter"",""1"",""3419""
","
","
","""event"",""trial"",""time""
""fullscreenenter"",""1"",""3419""
","
","","","","","","null","<div style=""font-size:60px;"">+</div>","null","","fixation","","","","","","","","","","",""
"aa-learning-trial","165","593819","0.0-9.0-2.0-1.46","7077","1","22","Male","approach_avoid_spark_v1","""event"",""trial"",""time""
""fullscreenenter"",""1"",""3419""
","
","
","""event"",""trial"",""time""
""fullscreenenter"",""1"",""3419""
","
","","","","","","592","images/dog3.png","","","learning","1","1","1","1","dog","pets","1","0","","neutral","0"
"html-keyboard-response","166","594325","0.0-9.0-2.0-0.47","7077","1","22","Male","approach_avoid_spark_v1","""event"",""trial"",""time""
""fullscreenenter"",""1"",""3419""
","
","
","""event"",""trial"",""time""
""fullscreenenter"",""1"",""3419""
","
","","","","","","null","<div style=""font-size:60px;"">+</div>","null","","fixation","","","","","","","","","","",""
"aa-learning-trial","167","597331","0.0-9.0-2.0-1.47","7077","1","22","Male","approach_avoid_spark_v1","""event"",""trial"",""time""
""fullscreenenter"",""1"",""3419""
","
","
","""event"",""trial"",""time""
""fullscreenenter"",""1"",""3419""
","
","","","","","","535.1000000014901","images/dog7.png","","","learning","1","1","1","1","dog","pets","1","0","","neutral","0"
"html-keyboard-response","168","597837","0.0-9.0-2.0-0.48","7077","1","22","Male","approach_avoid_spark_v1","""event"",""trial"",""time""
""fullscreenenter"",""1"",""3419""
","
","
","""event"",""trial"",""time""
""fullscreenenter"",""1"",""3419""
","
","","","","","","null","<div style=""font-size:60px;"">+</div>","null","","fixation","","","","","","","","","","",""
"aa-learning-trial","169","600846","0.0-9.0-2.0-1.48","7077","1","22","Male","approach_avoid_spark_v1","""event"",""trial"",""time""
""fullscreenenter"",""1"",""3419""
","
","
","""event"",""trial"",""time""
""fullscreenenter"",""1"",""3419""
","
","","","","","","467.8999999985099","images/dog7.png","","","learning","1","1","1","1","dog","pets","1","0","","neutral","0"
"html-keyboard-response","170","601365","0.0-9.0-2.0-0.49","7077","1","22","Male","approach_avoid_spark_v1","""event"",""trial"",""time""
""fullscreenenter"",""1"",""3419""
","
","
","""event"",""trial"",""time""
""fullscreenenter"",""1"",""3419""
","
","","","","","","null","<div style=""font-size:60px;"">+</div>","null","","fixation","","","","","","","","","","",""
"aa-learning-trial","171","604378","0.0-9.0-2.0-1.49","7077","1","22","Male","approach_avoid_spark_v1","""event"",""trial"",""time""
""fullscreenenter"",""1"",""3419""
","
","
","""event"",""trial"",""time""
""fullscreenenter"",""1"",""3419""
","
","","","","","","412.6000000014901","images/cat2.png","","","learning","5","5","1","1","cat","pets","1","0","","good","[6]"
"html-keyboard-response","172","604882","0.0-9.0-2.0-0.50","7077","1","22","Male","approach_avoid_spark_v1","""event"",""trial"",""time""
""fullscreenenter"",""1"",""3419""
","
","
","""event"",""trial"",""time""
""fullscreenenter"",""1"",""3419""
","
","","","","","","null","<div style=""font-size:60px;"">+</div>","null","","fixation","","","","","","","","","","",""
"aa-learning-trial","173","607894","0.0-9.0-2.0-1.50","7077","1","22","Male","approach_avoid_spark_v1","""event"",""trial"",""time""
""fullscreenenter"",""1"",""3419""
","
","
","""event"",""trial"",""time""
""fullscreenenter"",""1"",""3419""
","
","","","","","","1519.8000000044703","images/cat2.png","","","learning","4","0","0","0","cat","pets","1","0","","good","[6]"
"html-button-response","174","611167","0.0-9.0-3.0","7077","1","22","Male","approach_avoid_spark_v1","""event"",""trial"",""time""
""fullscreenenter"",""1"",""3419""
","
","
","""event"",""trial"",""time""
""fullscreenenter"",""1"",""3419""
","
","","","","","","3268.39999999851","<p> You have completed the round! <p> In this round, you earned 54 points! </p>","0","","break","","","","","","","","","","",""
"html-button-response","175","612639","0.0-10.0","7077","1","22","Male","approach_avoid_spark_v1","""event"",""trial"",""time""
""fullscreenenter"",""1"",""3419""
","
","
","""event"",""trial"",""time""
""fullscreenenter"",""1"",""3419""
","
","","","","","","1467.1000000014901","<p> Now it's time to play another round. </p>","0","","transition_screen","","","","","","","","","","",""
"preload","176","612821","0.0-11.0-0.0","7077","1","22","Male","approach_avoid_spark_v1","""event"",""trial"",""time""
""fullscreenenter"",""1"",""3419""
","
","
","""event"",""trial"",""time""
""fullscreenenter"",""1"",""3419""
","
","true","false","[]","[]","[]","","","","","","","","","","","","","","","",""
"learning-instructions","177","619303","0.0-11.0-1.0-0.0","7077","1","22","Male","approach_avoid_spark_v1","""event"",""trial"",""time""
""fullscreenenter"",""1"",""3419""
","
","
","""event"",""trial"",""time""
""fullscreenenter"",""1"",""3419""
","
","","","","","","2087.6999999955297","<p> Your goal in this round is to eat tasty fruit. </p></div>","","0","instructions","","","","","","","","","","",""
"learning-instructions","178","629583","0.0-11.0-1.0-0.1","7077","1","22","Male","approach_avoid_spark_v1","""event"",""trial"",""time""
""fullscreenenter"",""1"",""3419""
","
","
","""event"",""trial"",""time""
""fullscreenenter"",""1"",""3419""
","
","","","","","","548","<p> Some of the fruits you will see are tasty. Others are rotten on the inside.  </p><p> On each turn, you will see a fruit.   </p><p> You need to decide whether to eat it or not.  </p>","","0","instructions","","","","","","","","","","",""
"learning-instructions","179","640878","0.0-11.0-1.0-0.2","7077","1","22","Male","approach_avoid_spark_v1","""event"",""trial"",""time""
""fullscreenenter"",""1"",""3419""
","
","
","""event"",""trial"",""time""
""fullscreenenter"",""1"",""3419""
","
","","","","","","882","<p> You can eat the fruit by pressing 1 and choose not to eat it by pressing 0. </p><br><div class=""choice-instructions-grid""> <div class=""choice-option""><img src=""images/approach.png"" class=""choice-option-img"" stage=""instructions"" position=""0"" ><div class=""choice-option-text""> Press ""1."" </div></div><div class=""choice-option""><img src=""images/avoid.png"" class=""choice-option-img"" stage=""instructions"" position=""1"" ><div class=""choice-option-text""> Press ""0."" </div></div>","","0","instructions","","","","","","","","","","",""
"learning-instructions","180","652253","0.0-11.0-1.0-0.3","7077","1","22","Male","approach_avoid_spark_v1","""event"",""trial"",""time""
""fullscreenenter"",""1"",""3419""
","
","
","""event"",""trial"",""time""
""fullscreenenter"",""1"",""3419""
","
","","","","","","660.2000000029802","<p> If you eat the fruit and it was tasty, you will win points! </p><p> But if you eat the fruit and it was rotten, you will lose points. </p>","","0","instructions","","","","","","","","","","",""
"learning-instructions","181","669008","0.0-11.0-1.0-0.4","7077","1","22","Male","approach_avoid_spark_v1","""event"",""trial"",""time""
""fullscreenenter"",""1"",""3419""
","
","
","""event"",""trial"",""time""
""fullscreenenter"",""1"",""3419""
","
","","","","","","1405.6000000014901","<p> You will earn points based on how tasty or rotten the fruit was. </p><p> If it was tasty, you will WIN anywhere from 1 - 9 points, </p><p> but if it was rotten, you will LOSE anywhere from 1 - 9 points. </p>","","0","instructions","","","","","","","","","","",""
"learning-instructions","182","676782","0.0-11.0-1.0-0.5","7077","1","22","Male","approach_avoid_spark_v1","""event"",""trial"",""time""
""fullscreenenter"",""1"",""3419""
","
","
","""event"",""trial"",""time""
""fullscreenenter"",""1"",""3419""
","
","","","","","","1109.6000000014901","<p> You will see how many points you won or lost in the center of the screen. </p><p> Here is what you would see if you earned 5 points: </p><p style=""color:green;font-size:50px;font-weight:bolder"">5</p>","","0","instructions","","","","","","","","","","",""
"learning-instructions","183","680367","0.0-11.0-1.0-0.6","7077","1","22","Male","approach_avoid_spark_v1","""event"",""trial"",""time""
""fullscreenenter"",""1"",""3419""
","
","
","""event"",""trial"",""time""
""fullscreenenter"",""1"",""3419""
","
","","","","","","743.1000000014901","<p> And here is what you would see if you lost 3 points: </p><p style=""color:red;font-size:50px;font-weight:bolder"">-3</p>","","0","instructions","","","","","","","","","","",""
"learning-instructions","184","697874","0.0-11.0-1.0-0.7","7077","1","22","Male","approach_avoid_spark_v1","""event"",""trial"",""time""
""fullscreenenter"",""1"",""3419""
","
","
","""event"",""trial"",""time""
""fullscreenenter"",""1"",""3419""
","
","","","","","","1401.6000000014901","<p> Some fruit is very tasty or very rotten. </p><p> These fruits will make you win or lose LOTS of points. </p><p> Other fruits are only kind of tasty or kind of rotten. </p><p> These fruits will make you win or lose small amounts of points. </p>","","0","instructions","","","","","","","","","","",""
"learning-instructions","185","711442","0.0-11.0-1.0-0.8","7077","1","22","Male","approach_avoid_spark_v1","""event"",""trial"",""time""
""fullscreenenter"",""1"",""3419""
","
","
","""event"",""trial"",""time""
""fullscreenenter"",""1"",""3419""
","
","","","","","","1868.8999999985099","<p> If you choose to not eat the fruit, you will not win or lose any points. </p><p>  However, in the center of the screen, you will see the number of points you WOULD HAVE earned if you had eaten the fruit. </p>","","0","instructions","","","","","","","","","","",""
"learning-instructions","186","723718","0.0-11.0-1.0-0.9","7077","1","22","Male","approach_avoid_spark_v1","""event"",""trial"",""time""
""fullscreenenter"",""1"",""3419""
","
","
","""event"",""trial"",""time""
""fullscreenenter"",""1"",""3419""
","
","","","","","","554.2000000029802","<p> Here is what you might see if you did not eat the fruit but the fruit was tasty: </p><p style=""color:grey; font-size:50px; display: inline-block; border-spacing: 15px; border-width:3px; border-style:solid; border-color:red"">  &nbsp; 6 &nbsp; </p><p> Remember, in this case, you would not win or lose ANY points because you did not eat the fruit.  </p>","","0","instructions","","","","","","","","","","",""
"learning-instructions","187","733765","0.0-11.0-1.0-0.10","7077","1","22","Male","approach_avoid_spark_v1","""event"",""trial"",""time""
""fullscreenenter"",""1"",""3419""
","
","
","""event"",""trial"",""time""
""fullscreenenter"",""1"",""3419""
","
","","","","","","539.5","<p> Try to make the best choice for each fruit because </p><p> at the end of the game, you will earn bonus money based on how many points you earned. </p>","","0","instructions","","","","","","","","","","",""
"learning-instructions","188","743405","0.0-11.0-1.0-0.11","7077","1","22","Male","approach_avoid_spark_v1","""event"",""trial"",""time""
""fullscreenenter"",""1"",""3419""
","
","
","""event"",""trial"",""time""
""fullscreenenter"",""1"",""3419""
","
","","","","","","1439.8000000044703","<p> You will have 3 seconds to make each choice. Try to respond before time runs out! </p><p> You will lose 5 points each time you do not make a response. </p>","","0","instructions","","","","","","","","","","",""
"html-keyboard-response","189","744012","0.0-11.0-2.0-0.0","7077","1","22","Male","approach_avoid_spark_v1","""event"",""trial"",""time""
""fullscreenenter"",""1"",""3419""
","
","
","""event"",""trial"",""time""
""fullscreenenter"",""1"",""3419""
","
","","","","","","null","<div style=""font-size:60px;"">+</div>","null","","fixation","","","","","","","","","","",""
"aa-learning-trial","190","747024","0.0-11.0-2.0-1.0","7077","1","22","Male","approach_avoid_spark_v1","""event"",""trial"",""time""
""fullscreenenter"",""1"",""3419""
","
","
","""event"",""trial"",""time""
""fullscreenenter"",""1"",""3419""
","
","","","","","","1848.8000000044703","images/apple1.png","","","learning","1","1","1","1","apple","fruit","2","1","","neutral","0"
"html-keyboard-response","191","747542","0.0-11.0-2.0-0.1","7077","1","22","Male","approach_avoid_spark_v1","""event"",""trial"",""time""
""fullscreenenter"",""1"",""3419""
","
","
","""event"",""trial"",""time""
""fullscreenenter"",""1"",""3419""
","
","","","","","","null","<div style=""font-size:60px;"">+</div>","null","","fixation","","","","","","","","","","",""
"aa-learning-trial","192","750550","0.0-11.0-2.0-1.1","7077","1","22","Male","approach_avoid_spark_v1","""event"",""trial"",""time""
""fullscreenenter"",""1"",""3419""
","
","
","""event"",""trial"",""time""
""fullscreenenter"",""1"",""3419""
","
","","","","","","638.2999999970198","images/straw3.png","","","learning","-1","-1","1","1","straw","fruit","2","1","","good","[5]"
"html-keyboard-response","193","751054","0.0-11.0-2.0-0.2","7077","1","22","Male","approach_avoid_spark_v1","""event"",""trial"",""time""
""fullscreenenter"",""1"",""3419""
","
","
","""event"",""trial"",""time""
""fullscreenenter"",""1"",""3419""
","
","","","","","","null","<div style=""font-size:60px;"">+</div>","null","","fixation","","","","","","","","","","",""
"aa-learning-trial","194","754061","0.0-11.0-2.0-1.2","7077","1","22","Male","approach_avoid_spark_v1","""event"",""trial"",""time""
""fullscreenenter"",""1"",""3419""
","
","
","""event"",""trial"",""time""
""fullscreenenter"",""1"",""3419""
","
","","","","","","586.8000000044703","images/apple2.png","","","learning","6","6","1","1","apple","fruit","2","1","","neutral","0"
"html-keyboard-response","195","754565","0.0-11.0-2.0-0.3","7077","1","22","Male","approach_avoid_spark_v1","""event"",""trial"",""time""
""fullscreenenter"",""1"",""3419""
","
","
","""event"",""trial"",""time""
""fullscreenenter"",""1"",""3419""
","
","","","","","","null","<div style=""font-size:60px;"">+</div>","null","","fixation","","","","","","","","","","",""
"aa-learning-trial","196","757579","0.0-11.0-2.0-1.3","7077","1","22","Male","approach_avoid_spark_v1","""event"",""trial"",""time""
""fullscreenenter"",""1"",""3419""
","
","
","""event"",""trial"",""time""
""fullscreenenter"",""1"",""3419""
","
","","","","","","527.6999999955297","images/apple2.png","","","learning","6","6","1","1","apple","fruit","2","1","","neutral","0"
"html-keyboard-response","197","758082","0.0-11.0-2.0-0.4","7077","1","22","Male","approach_avoid_spark_v1","""event"",""trial"",""time""
""fullscreenenter"",""1"",""3419""
","
","
","""event"",""trial"",""time""
""fullscreenenter"",""1"",""3419""
","
","","","","","","null","<div style=""font-size:60px;"">+</div>","null","","fixation","","","","","","","","","","",""
"aa-learning-trial","198","761088","0.0-11.0-2.0-1.4","7077","1","22","Male","approach_avoid_spark_v1","""event"",""trial"",""time""
""fullscreenenter"",""1"",""3419""
","
","
","""event"",""trial"",""time""
""fullscreenenter"",""1"",""3419""
","
","","","","","","942.7999999970198","images/banana7.png","","","learning","-6","-6","1","1","banana","fruit","2","1","","bad","[-6]"
"html-keyboard-response","199","761594","0.0-11.0-2.0-0.5","7077","1","22","Male","approach_avoid_spark_v1","""event"",""trial"",""time""
""fullscreenenter"",""1"",""3419""
","
","
","""event"",""trial"",""time""
""fullscreenenter"",""1"",""3419""
","
","","","","","","null","<div style=""font-size:60px;"">+</div>","null","","fixation","","","","","","","","","","",""
"aa-learning-trial","200","764608","0.0-11.0-2.0-1.5","7077","1","22","Male","approach_avoid_spark_v1","""event"",""trial"",""time""
""fullscreenenter"",""1"",""3419""
","
","
","""event"",""trial"",""time""
""fullscreenenter"",""1"",""3419""
","
","","","","","","947.3999999985099","images/straw1.png","","","learning","5","0","0","0","straw","fruit","2","1","","good","[5]"
"html-keyboard-response","201","765117","0.0-11.0-2.0-0.6","7077","1","22","Male","approach_avoid_spark_v1","""event"",""trial"",""time""
""fullscreenenter"",""1"",""3419""
","
","
","""event"",""trial"",""time""
""fullscreenenter"",""1"",""3419""
","
","","","","","","null","<div style=""font-size:60px;"">+</div>","null","","fixation","","","","","","","","","","",""
"aa-learning-trial","202","768128","0.0-11.0-2.0-1.6","7077","1","22","Male","approach_avoid_spark_v1","""event"",""trial"",""time""
""fullscreenenter"",""1"",""3419""
","
","
","""event"",""trial"",""time""
""fullscreenenter"",""1"",""3419""
","
","","","","","","896.7999999970198","images/straw1.png","","","learning","5","0","0","0","straw","fruit","2","1","","good","[5]"
"html-keyboard-response","203","768645","0.0-11.0-2.0-0.7","7077","1","22","Male","approach_avoid_spark_v1","""event"",""trial"",""time""
""fullscreenenter"",""1"",""3419""
","
","
","""event"",""trial"",""time""
""fullscreenenter"",""1"",""3419""
","
","","","","","","null","<div style=""font-size:60px;"">+</div>","null","","fixation","","","","","","","","","","",""
"aa-learning-trial","204","771657","0.0-11.0-2.0-1.7","7077","1","22","Male","approach_avoid_spark_v1","""event"",""trial"",""time""
""fullscreenenter"",""1"",""3419""
","
","
","""event"",""trial"",""time""
""fullscreenenter"",""1"",""3419""
","
","","","","","","826.3000000044703","images/banana7.png","","","learning","-6","0","0","0","banana","fruit","2","1","","bad","[-6]"
"html-keyboard-response","205","772161","0.0-11.0-2.0-0.8","7077","1","22","Male","approach_avoid_spark_v1","""event"",""trial"",""time""
""fullscreenenter"",""1"",""3419""
","
","
","""event"",""trial"",""time""
""fullscreenenter"",""1"",""3419""
","
","","","","","","null","<div style=""font-size:60px;"">+</div>","null","","fixation","","","","","","","","","","",""
"aa-learning-trial","206","775167","0.0-11.0-2.0-1.8","7077","1","22","Male","approach_avoid_spark_v1","""event"",""trial"",""time""
""fullscreenenter"",""1"",""3419""
","
","
","""event"",""trial"",""time""
""fullscreenenter"",""1"",""3419""
","
","","","","","","904.2999999970198","images/banana3.png","","","learning","3","0","0","0","banana","fruit","2","1","","bad","[-6]"
"html-keyboard-response","207","775670","0.0-11.0-2.0-0.9","7077","1","22","Male","approach_avoid_spark_v1","""event"",""trial"",""time""
""fullscreenenter"",""1"",""3419""
","
","
","""event"",""trial"",""time""
""fullscreenenter"",""1"",""3419""
","
","","","","","","null","<div style=""font-size:60px;"">+</div>","null","","fixation","","","","","","","","","","",""
"aa-learning-trial","208","778684","0.0-11.0-2.0-1.9","7077","1","22","Male","approach_avoid_spark_v1","""event"",""trial"",""time""
""fullscreenenter"",""1"",""3419""
","
","
","""event"",""trial"",""time""
""fullscreenenter"",""1"",""3419""
","
","","","","","","802.8999999985099","images/banana3.png","","","learning","3","0","0","0","banana","fruit","2","1","","bad","[-6]"
"html-keyboard-response","209","779187","0.0-11.0-2.0-0.10","7077","1","22","Male","approach_avoid_spark_v1","""event"",""trial"",""time""
""fullscreenenter"",""1"",""3419""
","
","
","""event"",""trial"",""time""
""fullscreenenter"",""1"",""3419""
","
","","","","","","null","<div style=""font-size:60px;"">+</div>","null","","fixation","","","","","","","","","","",""
"aa-learning-trial","210","782195","0.0-11.0-2.0-1.10","7077","1","22","Male","approach_avoid_spark_v1","""event"",""trial"",""time""
""fullscreenenter"",""1"",""3419""
","
","
","""event"",""trial"",""time""
""fullscreenenter"",""1"",""3419""
","
","","","","","","1252.2000000029802","images/banana8.png","","","learning","-2","-2","1","1","banana","fruit","2","1","","bad","[-6]"
"html-keyboard-response","211","782703","0.0-11.0-2.0-0.11","7077","1","22","Male","approach_avoid_spark_v1","""event"",""trial"",""time""
""fullscreenenter"",""1"",""3419""
","
","
","""event"",""trial"",""time""
""fullscreenenter"",""1"",""3419""
","
","","","","","","null","<div style=""font-size:60px;"">+</div>","null","","fixation","","","","","","","","","","",""
"aa-learning-trial","212","785714","0.0-11.0-2.0-1.11","7077","1","22","Male","approach_avoid_spark_v1","""event"",""trial"",""time""
""fullscreenenter"",""1"",""3419""
","
","
","""event"",""trial"",""time""
""fullscreenenter"",""1"",""3419""
","
","","","","","","1446.5","images/apple7.png","","","learning","-7","0","0","0","apple","fruit","2","1","","neutral","0"
"html-keyboard-response","213","786217","0.0-11.0-2.0-0.12","7077","1","22","Male","approach_avoid_spark_v1","""event"",""trial"",""time""
""fullscreenenter"",""1"",""3419""
","
","
","""event"",""trial"",""time""
""fullscreenenter"",""1"",""3419""
","
","","","","","","null","<div style=""font-size:60px;"">+</div>","null","","fixation","","","","","","","","","","",""
"aa-learning-trial","214","789237","0.0-11.0-2.0-1.12","7077","1","22","Male","approach_avoid_spark_v1","""event"",""trial"",""time""
""fullscreenenter"",""1"",""3419""
","
","
","""event"",""trial"",""time""
""fullscreenenter"",""1"",""3419""
","
","","","","","","894.8999999985099","images/apple7.png","","","learning","-7","0","0","0","apple","fruit","2","1","","neutral","0"
"html-keyboard-response","215","789754","0.0-11.0-2.0-0.13","7077","1","22","Male","approach_avoid_spark_v1","""event"",""trial"",""time""
""fullscreenenter"",""1"",""3419""
","
","
","""event"",""trial"",""time""
""fullscreenenter"",""1"",""3419""
","
","","","","","","null","<div style=""font-size:60px;"">+</div>","null","","fixation","","","","","","","","","","",""
"aa-learning-trial","216","792766","0.0-11.0-2.0-1.13","7077","1","22","Male","approach_avoid_spark_v1","""event"",""trial"",""time""
""fullscreenenter"",""1"",""3419""
","
","
","""event"",""trial"",""time""
""fullscreenenter"",""1"",""3419""
","
","","","","","","1353.5","images/straw7.png","","","learning","9","0","0","0","straw","fruit","2","1","","good","[5]"
"html-keyboard-response","217","793271","0.0-11.0-2.0-0.14","7077","1","22","Male","approach_avoid_spark_v1","""event"",""trial"",""time""
""fullscreenenter"",""1"",""3419""
","
","
","""event"",""trial"",""time""
""fullscreenenter"",""1"",""3419""
","
","","","","","","null","<div style=""font-size:60px;"">+</div>","null","","fixation","","","","","","","","","","",""
"aa-learning-trial","218","796281","0.0-11.0-2.0-1.14","7077","1","22","Male","approach_avoid_spark_v1","""event"",""trial"",""time""
""fullscreenenter"",""1"",""3419""
","
","
","""event"",""trial"",""time""
""fullscreenenter"",""1"",""3419""
","
","","","","","","927.5","images/straw7.png","","","learning","9","0","0","0","straw","fruit","2","1","","good","[5]"
"html-keyboard-response","219","796790","0.0-11.0-2.0-0.15","7077","1","22","Male","approach_avoid_spark_v1","""event"",""trial"",""time""
""fullscreenenter"",""1"",""3419""
","
","
","""event"",""trial"",""time""
""fullscreenenter"",""1"",""3419""
","
","","","","","","null","<div style=""font-size:60px;"">+</div>","null","","fixation","","","","","","","","","","",""
"aa-learning-trial","220","799811","0.0-11.0-2.0-1.15","7077","1","22","Male","approach_avoid_spark_v1","""event"",""trial"",""time""
""fullscreenenter"",""1"",""3419""
","
","
","""event"",""trial"",""time""
""fullscreenenter"",""1"",""3419""
","
","","","","","","1091","images/straw3.png","","","learning","-1","0","0","0","straw","fruit","2","1","","good","[5]"
"html-keyboard-response","221","800313","0.0-11.0-2.0-0.16","7077","1","22","Male","approach_avoid_spark_v1","""event"",""trial"",""time""
""fullscreenenter"",""1"",""3419""
","
","
","""event"",""trial"",""time""
""fullscreenenter"",""1"",""3419""
","
","","","","","","null","<div style=""font-size:60px;"">+</div>","null","","fixation","","","","","","","","","","",""
"aa-learning-trial","222","803328","0.0-11.0-2.0-1.16","7077","1","22","Male","approach_avoid_spark_v1","""event"",""trial"",""time""
""fullscreenenter"",""1"",""3419""
","
","
","""event"",""trial"",""time""
""fullscreenenter"",""1"",""3419""
","
","","","","","","985.1000000014901","images/apple7.png","","","learning","-7","0","0","0","apple","fruit","2","1","","neutral","0"
"html-keyboard-response","223","803832","0.0-11.0-2.0-0.17","7077","1","22","Male","approach_avoid_spark_v1","""event"",""trial"",""time""
""fullscreenenter"",""1"",""3419""
","
","
","""event"",""trial"",""time""
""fullscreenenter"",""1"",""3419""
","
","","","","","","null","<div style=""font-size:60px;"">+</div>","null","","fixation","","","","","","","","","","",""
"aa-learning-trial","224","806836","0.0-11.0-2.0-1.17","7077","1","22","Male","approach_avoid_spark_v1","""event"",""trial"",""time""
""fullscreenenter"",""1"",""3419""
","
","
","""event"",""trial"",""time""
""fullscreenenter"",""1"",""3419""
","
","","","","","","898.3999999985099","images/straw6.png","","","learning","-3","-3","1","1","straw","fruit","2","1","","good","[5]"
"html-keyboard-response","225","807341","0.0-11.0-2.0-0.18","7077","1","22","Male","approach_avoid_spark_v1","""event"",""trial"",""time""
""fullscreenenter"",""1"",""3419""
","
","
","""event"",""trial"",""time""
""fullscreenenter"",""1"",""3419""
","
","","","","","","null","<div style=""font-size:60px;"">+</div>","null","","fixation","","","","","","","","","","",""
"aa-learning-trial","226","810348","0.0-11.0-2.0-1.18","7077","1","22","Male","approach_avoid_spark_v1","""event"",""trial"",""time""
""fullscreenenter"",""1"",""3419""
","
","
","""event"",""trial"",""time""
""fullscreenenter"",""1"",""3419""
","
","","","","","","633.7000000029802","images/apple2.png","","","learning","6","6","1","1","apple","fruit","2","1","","neutral","0"
"html-keyboard-response","227","810857","0.0-11.0-2.0-0.19","7077","1","22","Male","approach_avoid_spark_v1","""event"",""trial"",""time""
""fullscreenenter"",""1"",""3419""
","
","
","""event"",""trial"",""time""
""fullscreenenter"",""1"",""3419""
","
","","","","","","null","<div style=""font-size:60px;"">+</div>","null","","fixation","","","","","","","","","","",""
"aa-learning-trial","228","813868","0.0-11.0-2.0-1.19","7077","1","22","Male","approach_avoid_spark_v1","""event"",""trial"",""time""
""fullscreenenter"",""1"",""3419""
","
","
","""event"",""trial"",""time""
""fullscreenenter"",""1"",""3419""
","
","","","","","","622.7000000029802","images/straw1.png","","","learning","5","0","0","0","straw","fruit","2","1","","good","[5]"
"html-keyboard-response","229","814373","0.0-11.0-2.0-0.20","7077","1","22","Male","approach_avoid_spark_v1","""event"",""trial"",""time""
""fullscreenenter"",""1"",""3419""
","
","
","""event"",""trial"",""time""
""fullscreenenter"",""1"",""3419""
","
","","","","","","null","<div style=""font-size:60px;"">+</div>","null","","fixation","","","","","","","","","","",""
"aa-learning-trial","230","817379","0.0-11.0-2.0-1.20","7077","1","22","Male","approach_avoid_spark_v1","""event"",""trial"",""time""
""fullscreenenter"",""1"",""3419""
","
","
","""event"",""trial"",""time""
""fullscreenenter"",""1"",""3419""
","
","","","","","","982.6999999955297","images/apple5.png","","","learning","4","0","0","0","apple","fruit","2","1","","neutral","0"
"html-keyboard-response","231","817883","0.0-11.0-2.0-0.21","7077","1","22","Male","approach_avoid_spark_v1","""event"",""trial"",""time""
""fullscreenenter"",""1"",""3419""
","
","
","""event"",""trial"",""time""
""fullscreenenter"",""1"",""3419""
","
","","","","","","null","<div style=""font-size:60px;"">+</div>","null","","fixation","","","","","","","","","","",""
"aa-learning-trial","232","820890","0.0-11.0-2.0-1.21","7077","1","22","Male","approach_avoid_spark_v1","""event"",""trial"",""time""
""fullscreenenter"",""1"",""3419""
","
","
","""event"",""trial"",""time""
""fullscreenenter"",""1"",""3419""
","
","","","","","","849.7999999970198","images/banana3.png","","","learning","3","0","0","0","banana","fruit","2","1","","bad","[-6]"
"html-keyboard-response","233","821397","0.0-11.0-2.0-0.22","7077","1","22","Male","approach_avoid_spark_v1","""event"",""trial"",""time""
""fullscreenenter"",""1"",""3419""
","
","
","""event"",""trial"",""time""
""fullscreenenter"",""1"",""3419""
","
","","","","","","null","<div style=""font-size:60px;"">+</div>","null","","fixation","","","","","","","","","","",""
"aa-learning-trial","234","824405","0.0-11.0-2.0-1.22","7077","1","22","Male","approach_avoid_spark_v1","""event"",""trial"",""time""
""fullscreenenter"",""1"",""3419""
","
","
","""event"",""trial"",""time""
""fullscreenenter"",""1"",""3419""
","
","","","","","","800.8000000044703","images/banana7.png","","","learning","-6","0","0","0","banana","fruit","2","1","","bad","[-6]"
"html-keyboard-response","235","824909","0.0-11.0-2.0-0.23","7077","1","22","Male","approach_avoid_spark_v1","""event"",""trial"",""time""
""fullscreenenter"",""1"",""3419""
","
","
","""event"",""trial"",""time""
""fullscreenenter"",""1"",""3419""
","
","","","","","","null","<div style=""font-size:60px;"">+</div>","null","","fixation","","","","","","","","","","",""
"aa-learning-trial","236","827922","0.0-11.0-2.0-1.23","7077","1","22","Male","approach_avoid_spark_v1","""event"",""trial"",""time""
""fullscreenenter"",""1"",""3419""
","
","
","""event"",""trial"",""time""
""fullscreenenter"",""1"",""3419""
","
","","","","","","816.1000000014901","images/straw7.png","","","learning","9","9","1","1","straw","fruit","2","1","","good","[5]"
"html-keyboard-response","237","828424","0.0-11.0-2.0-0.24","7077","1","22","Male","approach_avoid_spark_v1","""event"",""trial"",""time""
""fullscreenenter"",""1"",""3419""
","
","
","""event"",""trial"",""time""
""fullscreenenter"",""1"",""3419""
","
","","","","","","null","<div style=""font-size:60px;"">+</div>","null","","fixation","","","","","","","","","","",""
"aa-learning-trial","238","831431","0.0-11.0-2.0-1.24","7077","1","22","Male","approach_avoid_spark_v1","""event"",""trial"",""time""
""fullscreenenter"",""1"",""3419""
","
","
","""event"",""trial"",""time""
""fullscreenenter"",""1"",""3419""
","
