"trial_type","trial_index","time_elapsed","internal_node_id","subject_id","task_condition","age","gender","task_version","interactions","blur_events","focus_events","fullscreenenter_events","fullscreenexit_events","success","timeout","failed_images","failed_audio","failed_video","rt","stimulus","response","button_pressed","task_part","approach_reward","points","key_press","option_selected","stim_cat","task_block","block_condition","block_number","correct","cat_type","mean_cat_reward"
"pavlovia","0","14","0.0-0.0","6279","2","22","Female","approach_avoid_spark_v1","""event"",""trial"",""time""
""blur"",""1"",""7998""
""focus"",""1"",""36517""
""fullscreenenter"",""1"",""38407""
","""event"",""trial"",""time""
""blur"",""1"",""7998""
","""event"",""trial"",""time""
""focus"",""1"",""36517""
","""event"",""trial"",""time""
""fullscreenenter"",""1"",""38407""
","
","","","","","","","","","","","","","","","","","","","","",""
"fullscreen","1","39348","0.0-1.0","6279","2","22","Female","approach_avoid_spark_v1","""event"",""trial"",""time""
""blur"",""1"",""7998""
""focus"",""1"",""36517""
""fullscreenenter"",""1"",""38407""
","""event"",""trial"",""time""
""blur"",""1"",""7998""
","""event"",""trial"",""time""
""focus"",""1"",""36517""
","""event"",""trial"",""time""
""fullscreenenter"",""1"",""38407""
","
","true","","","","","","","","","","","","","","","","","","","",""
"preload","2","91262","0.0-2.0","6279","2","22","Female","approach_avoid_spark_v1","""event"",""trial"",""time""
""blur"",""1"",""7998""
""focus"",""1"",""36517""
""fullscreenenter"",""1"",""38407""
","""event"",""trial"",""time""
""blur"",""1"",""7998""
","""event"",""trial"",""time""
""focus"",""1"",""36517""
","""event"",""trial"",""time""
""fullscreenenter"",""1"",""38407""
","
","true","false","[]","[]","[]","","","","","","","","","","","","","","","",""
"audio-keyboard-response","3","95822","0.0-3.0","6279","2","22","Female","approach_avoid_spark_v1","""event"",""trial"",""time""
""blur"",""1"",""7998""
""focus"",""1"",""36517""
""fullscreenenter"",""1"",""38407""
","""event"",""trial"",""time""
""blur"",""1"",""7998""
","""event"",""trial"",""time""
""focus"",""1"",""36517""
","""event"",""trial"",""time""
""fullscreenenter"",""1"",""38407""
","
","","","","","","4039.999999999999","audio/beep_loop.wav"," ","","","","","","","","","","","","",""
"audio-button-response","4","101588","0.0-4.0","6279","2","22","Female","approach_avoid_spark_v1","""event"",""trial"",""time""
""blur"",""1"",""7998""
""focus"",""1"",""36517""
""fullscreenenter"",""1"",""38407""
","""event"",""trial"",""time""
""blur"",""1"",""7998""
","""event"",""trial"",""time""
""focus"",""1"",""36517""
","""event"",""trial"",""time""
""fullscreenenter"",""1"",""38407""
","
","","","","","","5760","audio/shark.wav","1","","","","","","","","","","","","",""
"audio-button-response","5","103837","0.0-5.0","6279","2","22","Female","approach_avoid_spark_v1","""event"",""trial"",""time""
""blur"",""1"",""7998""
""focus"",""1"",""36517""
""fullscreenenter"",""1"",""38407""
","""event"",""trial"",""time""
""blur"",""1"",""7998""
","""event"",""trial"",""time""
""focus"",""1"",""36517""
","""event"",""trial"",""time""
""fullscreenenter"",""1"",""38407""
","
","","","","","","1229","audio/turtle.wav","1","","","","","","","","","","","","",""
"preload","6","115177","0.0-6.0","6279","2","22","Female","approach_avoid_spark_v1","""event"",""trial"",""time""
""blur"",""1"",""7998""
""focus"",""1"",""36517""
""fullscreenenter"",""1"",""38407""
","""event"",""trial"",""time""
""blur"",""1"",""7998""
","""event"",""trial"",""time""
""focus"",""1"",""36517""
","""event"",""trial"",""time""
""fullscreenenter"",""1"",""38407""
","
","true","false","[]","[]","[]","","","","","","","","","","","","","","","",""
"html-keyboard-response","7","118592","0.0-7.0","6279","2","22","Female","approach_avoid_spark_v1","""event"",""trial"",""time""
""blur"",""1"",""7998""
""focus"",""1"",""36517""
""fullscreenenter"",""1"",""38407""
","""event"",""trial"",""time""
""blur"",""1"",""7998""
","""event"",""trial"",""time""
""focus"",""1"",""36517""
","""event"",""trial"",""time""
""fullscreenenter"",""1"",""38407""
","
","","","","","","3410.2000000476837","Welcome to the experiment. Press any key to begin and to advance the instructions."," ","","","","","","","","","","","","",""
"learning-instructions","8","126671","0.0-8.0-0.0-0.0","6279","2","22","Female","approach_avoid_spark_v1","""event"",""trial"",""time""
""blur"",""1"",""7998""
""focus"",""1"",""36517""
""fullscreenenter"",""1"",""38407""
","""event"",""trial"",""time""
""blur"",""1"",""7998""
","""event"",""trial"",""time""
""focus"",""1"",""36517""
","""event"",""trial"",""time""
""fullscreenenter"",""1"",""38407""
","
","","","","","","1083.7000000476837","<p> Welcome! Today you are going to play 6 different rounds of a decision-making game. </p><p> Use the mouse to click next to continue. </p>","","0","instructions","","","","","","","","","","",""
"learning-instructions","9","130451","0.0-8.0-0.0-0.1","6279","2","22","Female","approach_avoid_spark_v1","""event"",""trial"",""time""
""blur"",""1"",""7998""
""focus"",""1"",""36517""
""fullscreenenter"",""1"",""38407""
","""event"",""trial"",""time""
""blur"",""1"",""7998""
","""event"",""trial"",""time""
""focus"",""1"",""36517""
","""event"",""trial"",""time""
""fullscreenenter"",""1"",""38407""
","
","","","","","","1034.7999999523163","<p> You will start with a practice round to learn the rules. </p>","","0","instructions","","","","","","","","","","",""
"learning-instructions","10","135100","0.0-8.0-0.0-0.2","6279","2","22","Female","approach_avoid_spark_v1","""event"",""trial"",""time""
""blur"",""1"",""7998""
""focus"",""1"",""36517""
""fullscreenenter"",""1"",""38407""
","""event"",""trial"",""time""
""blur"",""1"",""7998""
","""event"",""trial"",""time""
""focus"",""1"",""36517""
","""event"",""trial"",""time""
""fullscreenenter"",""1"",""38407""
","
","","","","","","1193.3999999761581","<p> Your goal in this round is to give out sports equipment to kids. </p></div>","","0","instructions","","","","","","","","","","",""
"learning-instructions","11","143419","0.0-8.0-0.0-0.3","6279","2","22","Female","approach_avoid_spark_v1","""event"",""trial"",""time""
""blur"",""1"",""7998""
""focus"",""1"",""36517""
""fullscreenenter"",""1"",""38407""
","""event"",""trial"",""time""
""blur"",""1"",""7998""
","""event"",""trial"",""time""
""focus"",""1"",""36517""
","""event"",""trial"",""time""
""fullscreenenter"",""1"",""38407""
","
","","","","","","751.5","<p> The kids only like some of the equipment.  </p><p> On each turn, you will see a piece of sports equipment.   </p><p> You need to decide whether to give it to the kids or not.  </p>","","0","instructions","","","","","","","","","","",""
"learning-instructions","12","148961","0.0-8.0-0.0-0.4","6279","2","22","Female","approach_avoid_spark_v1","""event"",""trial"",""time""
""blur"",""1"",""7998""
""focus"",""1"",""36517""
""fullscreenenter"",""1"",""38407""
","""event"",""trial"",""time""
""blur"",""1"",""7998""
","""event"",""trial"",""time""
""focus"",""1"",""36517""
","""event"",""trial"",""time""
""fullscreenenter"",""1"",""38407""
","
","","","","","","780.8999999761581","<p> You can give them the equipment by pressing 1 and choose not to give it to them by pressing 0. </p><br><div class=""choice-instructions-grid""> <div class=""choice-option""><img src=""images/approach.png"" class=""choice-option-img"" stage=""instructions"" position=""0"" ><div class=""choice-option-text""> Press ""1."" </div></div><div class=""choice-option""><img src=""images/avoid.png"" class=""choice-option-img"" stage=""instructions"" position=""1"" ><div class=""choice-option-text""> Press ""0."" </div></div>","","0","instructions","","","","","","","","","","",""
"learning-instructions","13","157116","0.0-8.0-0.0-0.5","6279","2","22","Female","approach_avoid_spark_v1","""event"",""trial"",""time""
""blur"",""1"",""7998""
""focus"",""1"",""36517""
""fullscreenenter"",""1"",""38407""
","""event"",""trial"",""time""
""blur"",""1"",""7998""
","""event"",""trial"",""time""
""focus"",""1"",""36517""
","""event"",""trial"",""time""
""fullscreenenter"",""1"",""38407""
","
","","","","","","759","<p> If you give them a piece of equipment they like, they will be happy! </p><p> But if you give them a piece of equipment they do not like, they will be sad. </p>","","0","instructions","","","","","","","","","","",""
"learning-instructions","14","169506","0.0-8.0-0.0-0.6","6279","2","22","Female","approach_avoid_spark_v1","""event"",""trial"",""time""
""blur"",""1"",""7998""
""focus"",""1"",""36517""
""fullscreenenter"",""1"",""38407""
","""event"",""trial"",""time""
""blur"",""1"",""7998""
","""event"",""trial"",""time""
""focus"",""1"",""36517""
","""event"",""trial"",""time""
""fullscreenenter"",""1"",""38407""
","
","","","","","","1880.2000000476837","<p> You will earn points based on how you make kids feel. </p><p> If you make them happy, you will WIN anywhere from 1 - 9 points, </p><p> but if you make them sad, you will LOSE anywhere from 1 - 9 points. </p>","","0","instructions","","","","","","","","","","",""
"learning-instructions","15","180050","0.0-8.0-0.0-0.7","6279","2","22","Female","approach_avoid_spark_v1","""event"",""trial"",""time""
""blur"",""1"",""7998""
""focus"",""1"",""36517""
""fullscreenenter"",""1"",""38407""
","""event"",""trial"",""time""
""blur"",""1"",""7998""
","""event"",""trial"",""time""
""focus"",""1"",""36517""
","""event"",""trial"",""time""
""fullscreenenter"",""1"",""38407""
","
","","","","","","979.7000000476837","<p> You will see how many points you won or lost in the center of the screen. </p><p> Here is what you would see if you won 6 points: </p><p style=""color:green;font-size:50px;font-weight:bolder"">6</p><p style=""color:green"">The text is GREEN because you WON points.</p>","","0","instructions","","","","","","","","","","",""
"learning-instructions","16","186547","0.0-8.0-0.0-0.8","6279","2","22","Female","approach_avoid_spark_v1","""event"",""trial"",""time""
""blur"",""1"",""7998""
""focus"",""1"",""36517""
""fullscreenenter"",""1"",""38407""
","""event"",""trial"",""time""
""blur"",""1"",""7998""
","""event"",""trial"",""time""
""focus"",""1"",""36517""
","""event"",""trial"",""time""
""fullscreenenter"",""1"",""38407""
","
","","","","","","987.0999999046326","<p> And here is what you would see if you lost 4 points: </p><p style=""color:red;font-size:50px;font-weight:bolder"">-4</p><p style=""color:red"">The text is RED because you LOST points. </p>","","0","instructions","","","","","","","","","","",""
"learning-instructions","17","202641","0.0-8.0-0.0-0.9","6279","2","22","Female","approach_avoid_spark_v1","""event"",""trial"",""time""
""blur"",""1"",""7998""
""focus"",""1"",""36517""
""fullscreenenter"",""1"",""38407""
","""event"",""trial"",""time""
""blur"",""1"",""7998""
","""event"",""trial"",""time""
""focus"",""1"",""36517""
","""event"",""trial"",""time""
""fullscreenenter"",""1"",""38407""
","
","","","","","","1371.2000000476837","<p> Some of the equipment will make the kids VERY happy or sad. </p><p> These pieces of equipment will make you win or lose LOTS of points. </p><p> Other pieces of equipment will only make the kids a little happy or sad. </p><p> These pieces of equipment will make you win or lose small amounts of points. </p>","","0","instructions","","","","","","","","","","",""
"learning-instructions","18","215092","0.0-8.0-0.0-0.10","6279","2","22","Female","approach_avoid_spark_v1","""event"",""trial"",""time""
""blur"",""1"",""7998""
""focus"",""1"",""36517""
""fullscreenenter"",""1"",""38407""
","""event"",""trial"",""time""
""blur"",""1"",""7998""
","""event"",""trial"",""time""
""focus"",""1"",""36517""
","""event"",""trial"",""time""
""fullscreenenter"",""1"",""38407""
","
","","","","","","1831.6000000238419","<p> If you choose not to give them the equipment, you will not win or lose any points. </p><p>  However, in the center of the screen, you will see the number of points you WOULD HAVE won or lost if you had given them the equipment. </p>","","0","instructions","","","","","","","","","","",""
"learning-instructions","19","239099","0.0-8.0-0.0-0.11","6279","2","22","Female","approach_avoid_spark_v1","""event"",""trial"",""time""
""blur"",""1"",""7998""
""focus"",""1"",""36517""
""fullscreenenter"",""1"",""38407""
","""event"",""trial"",""time""
""blur"",""1"",""7998""
","""event"",""trial"",""time""
""focus"",""1"",""36517""
","""event"",""trial"",""time""
""fullscreenenter"",""1"",""38407""
","
","","","","","","2479.899999976158","<p> Here is what you might see if you did not give the equipment to the kids but it would have made them happy: </p><p style=""color:grey; font-size:50px; display: inline-block; border-spacing: 15px; border-width:3px; border-style:solid; border-color:red"">  &nbsp; 7 &nbsp; </p><p> Remember, in this case, you would not win or lose ANY points because you did not give them the equipment.  </p><p style=""color:grey"">The text is GREY because you earned ZERO points. </p><p style=""color:red"">However, choosing to give the kids the equipment would have made you win points. The box around the text is RED because you chose the worse option. </p>","","0","instructions","","","","","","","","","","",""
"learning-instructions","20","275747","0.0-8.0-0.0-0.12","6279","2","22","Female","approach_avoid_spark_v1","""event"",""trial"",""time""
""blur"",""1"",""7998""
""focus"",""1"",""36517""
""fullscreenenter"",""1"",""38407""
","""event"",""trial"",""time""
""blur"",""1"",""7998""
","""event"",""trial"",""time""
""focus"",""1"",""36517""
","""event"",""trial"",""time""
""fullscreenenter"",""1"",""38407""
","
","","","","","","15577","<p> Here is what you might see if you did not give the equipment to the kids but it would have made them sad: </p><p style=""color:grey;font-size:50px; display: inline-block; border-spacing: 15px; border-width:3px; border-style:solid; border-color:green"">  &nbsp; -8 &nbsp; </p><p> Remember, in this case, you would not win or lose ANY points because you did not give them the equipment.  </p><p style=""color:grey"">The text is GREY because you earned ZERO points. </p><p  style=""color:green""> Choosing to give the kids the equipment would have made you lose points. The box around the text is GREEN because you chose the better option.</p>","","0","instructions","","","","","","","","","","",""
"learning-instructions","21","285182","0.0-8.0-0.0-0.13","6279","2","22","Female","approach_avoid_spark_v1","""event"",""trial"",""time""
""blur"",""1"",""7998""
""focus"",""1"",""36517""
""fullscreenenter"",""1"",""38407""
","""event"",""trial"",""time""
""blur"",""1"",""7998""
","""event"",""trial"",""time""
""focus"",""1"",""36517""
","""event"",""trial"",""time""
""fullscreenenter"",""1"",""38407""
","
","","","","","","962.9000000953674","<p> You will have 3 seconds to make each choice. Try to respond before time runs out! </p><p> You will lose 5 points each time you do not make a response. </p>","","0","instructions","","","","","","","","","","",""
"learning-instructions","22","291816","0.0-8.0-0.0-0.14","6279","2","22","Female","approach_avoid_spark_v1","""event"",""trial"",""time""
""blur"",""1"",""7998""
""focus"",""1"",""36517""
""fullscreenenter"",""1"",""38407""
","""event"",""trial"",""time""
""blur"",""1"",""7998""
","""event"",""trial"",""time""
""focus"",""1"",""36517""
","""event"",""trial"",""time""
""fullscreenenter"",""1"",""38407""
","
","","","","","","1206.6000000238419","<p> This is just a practice round, but in the real game, your bonus payment will depend on your total number of points.","","0","instructions","","","","","","","","","","",""
"learning-instructions","23","298813","0.0-8.0-0.0-0.15","6279","2","22","Female","approach_avoid_spark_v1","""event"",""trial"",""time""
""blur"",""1"",""7998""
""focus"",""1"",""36517""
""fullscreenenter"",""1"",""38407""
","""event"",""trial"",""time""
""blur"",""1"",""7998""
","""event"",""trial"",""time""
""focus"",""1"",""36517""
","""event"",""trial"",""time""
""fullscreenenter"",""1"",""38407""
","
","","","","","","1223.6000000238419","<p> Remember, you can give them the equipment by pressing 1 and choose not to give it to them by pressing 0. </p><br><div class=""choice-instructions-grid""> <div class=""choice-option""><img src=""images/approach.png"" class=""choice-option-img"" stage=""instructions"" position=""0"" ><div class=""choice-option-text""> Press ""1."" </div></div><div class=""choice-option""><img src=""images/avoid.png"" class=""choice-option-img"" stage=""instructions"" position=""1"" ><div class=""choice-option-text""> Press ""0."" </div></div>","","0","instructions","","","","","","","","","","",""
"html-button-response","24","300875","0.0-8.0-1.0","6279","2","22","Female","approach_avoid_spark_v1","""event"",""trial"",""time""
""blur"",""1"",""7998""
""focus"",""1"",""36517""
""fullscreenenter"",""1"",""38407""
","""event"",""trial"",""time""
""blur"",""1"",""7998""
","""event"",""trial"",""time""
""focus"",""1"",""36517""
","""event"",""trial"",""time""
""fullscreenenter"",""1"",""38407""
","
","","","","","","1954.3000000715256","<p> Ready to practice? </p>","0","","","","","","","","","","","","",""
"html-keyboard-response","25","301496","0.0-8.0-2.0-0.0","6279","2","22","Female","approach_avoid_spark_v1","""event"",""trial"",""time""
""blur"",""1"",""7998""
""focus"",""1"",""36517""
""fullscreenenter"",""1"",""38407""
","""event"",""trial"",""time""
""blur"",""1"",""7998""
","""event"",""trial"",""time""
""focus"",""1"",""36517""
","""event"",""trial"",""time""
""fullscreenenter"",""1"",""38407""
","
","","","","","","null","<div style=""font-size:60px;"">+</div>","null","","fixation","","","","","","","","","","",""
"aa-learning-trial","26","304502","0.0-8.0-2.0-1.0","6279","2","22","Female","approach_avoid_spark_v1","""event"",""trial"",""time""
""blur"",""1"",""7998""
""focus"",""1"",""36517""
""fullscreenenter"",""1"",""38407""
","""event"",""trial"",""time""
""blur"",""1"",""7998""
","""event"",""trial"",""time""
""focus"",""1"",""36517""
","""event"",""trial"",""time""
""fullscreenenter"",""1"",""38407""
","
","","","","","","1992.7000000476837","images/ball3.png","","","learning","4","4","1","1","practice","practice","practice","-1","","",""
"html-keyboard-response","27","305004","0.0-8.0-2.0-0.1","6279","2","22","Female","approach_avoid_spark_v1","""event"",""trial"",""time""
""blur"",""1"",""7998""
""focus"",""1"",""36517""
""fullscreenenter"",""1"",""38407""
","""event"",""trial"",""time""
""blur"",""1"",""7998""
","""event"",""trial"",""time""
""focus"",""1"",""36517""
","""event"",""trial"",""time""
""fullscreenenter"",""1"",""38407""
","
","","","","","","null","<div style=""font-size:60px;"">+</div>","null","","fixation","","","","","","","","","","",""
"aa-learning-trial","28","308016","0.0-8.0-2.0-1.1","6279","2","22","Female","approach_avoid_spark_v1","""event"",""trial"",""time""
""blur"",""1"",""7998""
""focus"",""1"",""36517""
""fullscreenenter"",""1"",""38407""
","""event"",""trial"",""time""
""blur"",""1"",""7998""
","""event"",""trial"",""time""
""focus"",""1"",""36517""
","""event"",""trial"",""time""
""fullscreenenter"",""1"",""38407""
","
","","","","","","1772.3000000715256","images/ball1.png","","","learning","-4","0","0","0","practice","practice","practice","-1","","",""
"html-keyboard-response","29","308570","0.0-8.0-2.0-0.2","6279","2","22","Female","approach_avoid_spark_v1","""event"",""trial"",""time""
""blur"",""1"",""7998""
""focus"",""1"",""36517""
""fullscreenenter"",""1"",""38407""
","""event"",""trial"",""time""
""blur"",""1"",""7998""
","""event"",""trial"",""time""
""focus"",""1"",""36517""
","""event"",""trial"",""time""
""fullscreenenter"",""1"",""38407""
","
","","","","","","null","<div style=""font-size:60px;"">+</div>","null","","fixation","","","","","","","","","","",""
"aa-learning-trial","30","311581","0.0-8.0-2.0-1.2","6279","2","22","Female","approach_avoid_spark_v1","""event"",""trial"",""time""
""blur"",""1"",""7998""
""focus"",""1"",""36517""
""fullscreenenter"",""1"",""38407""
","""event"",""trial"",""time""
""blur"",""1"",""7998""
","""event"",""trial"",""time""
""focus"",""1"",""36517""
","""event"",""trial"",""time""
""fullscreenenter"",""1"",""38407""
","
","","","","","","946.5999999046326","images/ball4.png","","","learning","-4","-4","1","1","practice","practice","practice","-1","","",""
"html-keyboard-response","31","312096","0.0-8.0-2.0-0.3","6279","2","22","Female","approach_avoid_spark_v1","""event"",""trial"",""time""
""blur"",""1"",""7998""
""focus"",""1"",""36517""
""fullscreenenter"",""1"",""38407""
","""event"",""trial"",""time""
""blur"",""1"",""7998""
","""event"",""trial"",""time""
""focus"",""1"",""36517""
","""event"",""trial"",""time""
""fullscreenenter"",""1"",""38407""
","
","","","","","","null","<div style=""font-size:60px;"">+</div>","null","","fixation","","","","","","","","","","",""
"aa-learning-trial","32","315108","0.0-8.0-2.0-1.3","6279","2","22","Female","approach_avoid_spark_v1","""event"",""trial"",""time""
""blur"",""1"",""7998""
""focus"",""1"",""36517""
""fullscreenenter"",""1"",""38407""
","""event"",""trial"",""time""
""blur"",""1"",""7998""
","""event"",""trial"",""time""
""focus"",""1"",""36517""
","""event"",""trial"",""time""
""fullscreenenter"",""1"",""38407""
","
","","","","","","1103.8000000715256","images/racket3.png","","","learning","7","7","1","1","practice","practice","practice","-1","","",""
"html-keyboard-response","33","315616","0.0-8.0-2.0-0.4","6279","2","22","Female","approach_avoid_spark_v1","""event"",""trial"",""time""
""blur"",""1"",""7998""
""focus"",""1"",""36517""
""fullscreenenter"",""1"",""38407""
","""event"",""trial"",""time""
""blur"",""1"",""7998""
","""event"",""trial"",""time""
""focus"",""1"",""36517""
","""event"",""trial"",""time""
""fullscreenenter"",""1"",""38407""
","
","","","","","","null","<div style=""font-size:60px;"">+</div>","null","","fixation","","","","","","","","","","",""
"aa-learning-trial","34","318632","0.0-8.0-2.0-1.4","6279","2","22","Female","approach_avoid_spark_v1","""event"",""trial"",""time""
""blur"",""1"",""7998""
""focus"",""1"",""36517""
""fullscreenenter"",""1"",""38407""
","""event"",""trial"",""time""
""blur"",""1"",""7998""
","""event"",""trial"",""time""
""focus"",""1"",""36517""
","""event"",""trial"",""time""
""fullscreenenter"",""1"",""38407""
","
","","","","","","985.7999999523163","images/ball1.png","","","learning","1","0","0","0","practice","practice","practice","-1","","",""
"html-keyboard-response","35","319151","0.0-8.0-2.0-0.5","6279","2","22","Female","approach_avoid_spark_v1","""event"",""trial"",""time""
""blur"",""1"",""7998""
""focus"",""1"",""36517""
""fullscreenenter"",""1"",""38407""
","""event"",""trial"",""time""
""blur"",""1"",""7998""
","""event"",""trial"",""time""
""focus"",""1"",""36517""
","""event"",""trial"",""time""
""fullscreenenter"",""1"",""38407""
","
","","","","","","null","<div style=""font-size:60px;"">+</div>","null","","fixation","","","","","","","","","","",""
"aa-learning-trial","36","322166","0.0-8.0-2.0-1.5","6279","2","22","Female","approach_avoid_spark_v1","""event"",""trial"",""time""
""blur"",""1"",""7998""
""focus"",""1"",""36517""
""fullscreenenter"",""1"",""38407""
","""event"",""trial"",""time""
""blur"",""1"",""7998""
","""event"",""trial"",""time""
""focus"",""1"",""36517""
","""event"",""trial"",""time""
""fullscreenenter"",""1"",""38407""
","
","","","","","","1150.1000000238419","images/ball2.png","","","learning","-9","0","0","0","practice","practice","practice","-1","","",""
"html-keyboard-response","37","322683","0.0-8.0-2.0-0.6","6279","2","22","Female","approach_avoid_spark_v1","""event"",""trial"",""time""
""blur"",""1"",""7998""
""focus"",""1"",""36517""
""fullscreenenter"",""1"",""38407""
","""event"",""trial"",""time""
""blur"",""1"",""7998""
","""event"",""trial"",""time""
""focus"",""1"",""36517""
","""event"",""trial"",""time""
""fullscreenenter"",""1"",""38407""
","
","","","","","","null","<div style=""font-size:60px;"">+</div>","null","","fixation","","","","","","","","","","",""
"aa-learning-trial","38","325702","0.0-8.0-2.0-1.6","6279","2","22","Female","approach_avoid_spark_v1","""event"",""trial"",""time""
""blur"",""1"",""7998""
""focus"",""1"",""36517""
""fullscreenenter"",""1"",""38407""
","""event"",""trial"",""time""
""blur"",""1"",""7998""
","""event"",""trial"",""time""
""focus"",""1"",""36517""
","""event"",""trial"",""time""
""fullscreenenter"",""1"",""38407""
","
","","","","","","2058.1999999284744","images/racket1.png","","","learning","-6","-6","1","1","practice","practice","practice","-1","","",""
"html-keyboard-response","39","326233","0.0-8.0-2.0-0.7","6279","2","22","Female","approach_avoid_spark_v1","""event"",""trial"",""time""
""blur"",""1"",""7998""
""focus"",""1"",""36517""
""fullscreenenter"",""1"",""38407""
","""event"",""trial"",""time""
""blur"",""1"",""7998""
","""event"",""trial"",""time""
""focus"",""1"",""36517""
","""event"",""trial"",""time""
""fullscreenenter"",""1"",""38407""
","
","","","","","","null","<div style=""font-size:60px;"">+</div>","null","","fixation","","","","","","","","","","",""
"aa-learning-trial","40","329241","0.0-8.0-2.0-1.7","6279","2","22","Female","approach_avoid_spark_v1","""event"",""trial"",""time""
""blur"",""1"",""7998""
""focus"",""1"",""36517""
""fullscreenenter"",""1"",""38407""
","""event"",""trial"",""time""
""blur"",""1"",""7998""
","""event"",""trial"",""time""
""focus"",""1"",""36517""
","""event"",""trial"",""time""
""fullscreenenter"",""1"",""38407""
","
","","","","","","1908.3999999761581","images/racket1.png","","","learning","8","0","0","0","practice","practice","practice","-1","","",""
"html-keyboard-response","41","329744","0.0-8.0-2.0-0.8","6279","2","22","Female","approach_avoid_spark_v1","""event"",""trial"",""time""
""blur"",""1"",""7998""
""focus"",""1"",""36517""
""fullscreenenter"",""1"",""38407""
","""event"",""trial"",""time""
""blur"",""1"",""7998""
","""event"",""trial"",""time""
""focus"",""1"",""36517""
","""event"",""trial"",""time""
""fullscreenenter"",""1"",""38407""
","
","","","","","","null","<div style=""font-size:60px;"">+</div>","null","","fixation","","","","","","","","","","",""
"aa-learning-trial","42","332749","0.0-8.0-2.0-1.8","6279","2","22","Female","approach_avoid_spark_v1","""event"",""trial"",""time""
""blur"",""1"",""7998""
""focus"",""1"",""36517""
""fullscreenenter"",""1"",""38407""
","""event"",""trial"",""time""
""blur"",""1"",""7998""
","""event"",""trial"",""time""
""focus"",""1"",""36517""
","""event"",""trial"",""time""
""fullscreenenter"",""1"",""38407""
","
","","","","","","1945.3999999761581","images/ball1.png","","","learning","-3","-3","1","1","practice","practice","practice","-1","","",""
"html-keyboard-response","43","333251","0.0-8.0-2.0-0.9","6279","2","22","Female","approach_avoid_spark_v1","""event"",""trial"",""time""
""blur"",""1"",""7998""
""focus"",""1"",""36517""
""fullscreenenter"",""1"",""38407""
","""event"",""trial"",""time""
""blur"",""1"",""7998""
","""event"",""trial"",""time""
""focus"",""1"",""36517""
","""event"",""trial"",""time""
""fullscreenenter"",""1"",""38407""
","
","","","","","","null","<div style=""font-size:60px;"">+</div>","null","","fixation","","","","","","","","","","",""
"aa-learning-trial","44","336255","0.0-8.0-2.0-1.9","6279","2","22","Female","approach_avoid_spark_v1","""event"",""trial"",""time""
""blur"",""1"",""7998""
""focus"",""1"",""36517""
""fullscreenenter"",""1"",""38407""
","""event"",""trial"",""time""
""blur"",""1"",""7998""
","""event"",""trial"",""time""
""focus"",""1"",""36517""
","""event"",""trial"",""time""
""fullscreenenter"",""1"",""38407""
","
","","","","","","1666.7000000476837","images/ball1.png","","","learning","1","0","0","0","practice","practice","practice","-1","","",""
"html-keyboard-response","45","336766","0.0-8.0-2.0-0.10","6279","2","22","Female","approach_avoid_spark_v1","""event"",""trial"",""time""
""blur"",""1"",""7998""
""focus"",""1"",""36517""
""fullscreenenter"",""1"",""38407""
","""event"",""trial"",""time""
""blur"",""1"",""7998""
","""event"",""trial"",""time""
""focus"",""1"",""36517""
","""event"",""trial"",""time""
""fullscreenenter"",""1"",""38407""
","
","","","","","","null","<div style=""font-size:60px;"">+</div>","null","","fixation","","","","","","","","","","",""
"aa-learning-trial","46","339771","0.0-8.0-2.0-1.10","6279","2","22","Female","approach_avoid_spark_v1","""event"",""trial"",""time""
""blur"",""1"",""7998""
""focus"",""1"",""36517""
""fullscreenenter"",""1"",""38407""
","""event"",""trial"",""time""
""blur"",""1"",""7998""
","""event"",""trial"",""time""
""focus"",""1"",""36517""
","""event"",""trial"",""time""
""fullscreenenter"",""1"",""38407""
","
","","","","","","759.6999999284744","images/racket3.png","","","learning","-5","-5","1","1","practice","practice","practice","-1","","",""
"html-keyboard-response","47","340273","0.0-8.0-2.0-0.11","6279","2","22","Female","approach_avoid_spark_v1","""event"",""trial"",""time""
""blur"",""1"",""7998""
""focus"",""1"",""36517""
""fullscreenenter"",""1"",""38407""
","""event"",""trial"",""time""
""blur"",""1"",""7998""
","""event"",""trial"",""time""
""focus"",""1"",""36517""
","""event"",""trial"",""time""
""fullscreenenter"",""1"",""38407""
","
","","","","","","null","<div style=""font-size:60px;"">+</div>","null","","fixation","","","","","","","","","","",""
"aa-learning-trial","48","343280","0.0-8.0-2.0-1.11","6279","2","22","Female","approach_avoid_spark_v1","""event"",""trial"",""time""
""blur"",""1"",""7998""
""focus"",""1"",""36517""
""fullscreenenter"",""1"",""38407""
","""event"",""trial"",""time""
""blur"",""1"",""7998""
","""event"",""trial"",""time""
""focus"",""1"",""36517""
","""event"",""trial"",""time""
""fullscreenenter"",""1"",""38407""
","
","","","","","","1070","images/ball2.png","","","learning","2","0","0","0","practice","practice","practice","-1","","",""
"html-button-response","49","347255","0.0-8.0-3.0","6279","2","22","Female","approach_avoid_spark_v1","""event"",""trial"",""time""
""blur"",""1"",""7998""
""focus"",""1"",""36517""
""fullscreenenter"",""1"",""38407""
","""event"",""trial"",""time""
""blur"",""1"",""7998""
","""event"",""trial"",""time""
""focus"",""1"",""36517""
","""event"",""trial"",""time""
""fullscreenenter"",""1"",""38407""
","
","","","","","","3969.2000000476837","<p> You earned -7 points in the practice round! </p>","0","","break","","","","","","","","","","",""
"learning-instructions","50","356463","0.0-8.0-4.0-0.0","6279","2","22","Female","approach_avoid_spark_v1","""event"",""trial"",""time""
""blur"",""1"",""7998""
""focus"",""1"",""36517""
""fullscreenenter"",""1"",""38407""
","""event"",""trial"",""time""
""blur"",""1"",""7998""
","""event"",""trial"",""time""
""focus"",""1"",""36517""
","""event"",""trial"",""time""
""fullscreenenter"",""1"",""38407""
","
","","","","","","2826.100000023842","<p> It's almost time to start the real game. </p><p> Before you start, we're going to ask you a few questions about how the game works. </p>","","0","instructions","","","","","","","","","","",""
"preload","51","357490","0.0-8.0-5.0","6279","2","22","Female","approach_avoid_spark_v1","""event"",""trial"",""time""
""blur"",""1"",""7998""
""focus"",""1"",""36517""
""fullscreenenter"",""1"",""38407""
","""event"",""trial"",""time""
""blur"",""1"",""7998""
","""event"",""trial"",""time""
""focus"",""1"",""36517""
","""event"",""trial"",""time""
""fullscreenenter"",""1"",""38407""
","
","true","false","[]","[]","[]","","","","","","","","","","","","","","","",""
"comp-q","52","363913","0.0-8.0-6.0-0.0","6279","2","22","Female","approach_avoid_spark_v1","""event"",""trial"",""time""
""blur"",""1"",""7998""
""focus"",""1"",""36517""
""fullscreenenter"",""1"",""38407""
","""event"",""trial"",""time""
""blur"",""1"",""7998""
","""event"",""trial"",""time""
""focus"",""1"",""36517""
","""event"",""trial"",""time""
""fullscreenenter"",""1"",""38407""
","
","","","","","","1425.6000000238419","<p> <b> True or False? </b> </p><p> If you see a number in GREY, that means you earned that many points. </p>","","1","comp_question","","","","","","","","","true","",""
"comp-q","53","375129","0.0-8.0-6.0-1.0","6279","2","22","Female","approach_avoid_spark_v1","""event"",""trial"",""time""
""blur"",""1"",""7998""
""focus"",""1"",""36517""
""fullscreenenter"",""1"",""38407""
","""event"",""trial"",""time""
""blur"",""1"",""7998""
","""event"",""trial"",""time""
""focus"",""1"",""36517""
","""event"",""trial"",""time""
""fullscreenenter"",""1"",""38407""
","
","","","","","","2842.2000000476837","<p><b> That's right! </b> If you see a grey number, it means you earned ZERO points. <br> The grey numbers show the points you WOULD HAVE earned if you had made the other choice. </p>","","0","comp_answer","","","","","","","","","","",""
"comp-q","54","381021","0.0-8.0-7.0-0.0","6279","2","22","Female","approach_avoid_spark_v1","""event"",""trial"",""time""
""blur"",""1"",""7998""
""focus"",""1"",""36517""
""fullscreenenter"",""1"",""38407""
","""event"",""trial"",""time""
""blur"",""1"",""7998""
","""event"",""trial"",""time""
""focus"",""1"",""36517""
","""event"",""trial"",""time""
""fullscreenenter"",""1"",""38407""
","
","","","","","","1203.7999999523163","<p> <b> True or False? </b> </p><p> You will have as much time as you want to make each choice. </p>","","1","comp_question","","","","","","","","","true","",""
"comp-q","55","386938","0.0-8.0-7.0-1.0","6279","2","22","Female","approach_avoid_spark_v1","""event"",""trial"",""time""
""blur"",""1"",""7998""
""focus"",""1"",""36517""
""fullscreenenter"",""1"",""38407""
","""event"",""trial"",""time""
""blur"",""1"",""7998""
","""event"",""trial"",""time""
""focus"",""1"",""36517""
","""event"",""trial"",""time""
""fullscreenenter"",""1"",""38407""
","
","","","","","","1881","<p> <b> That's right! </b> You will only have 3 seconds to make each choice. </p>","","0","comp_answer","","","","","","","","","","",""
"comp-q","56","393118","0.0-8.0-8.0-0.0","6279","2","22","Female","approach_avoid_spark_v1","""event"",""trial"",""time""
""blur"",""1"",""7998""
""focus"",""1"",""36517""
""fullscreenenter"",""1"",""38407""
","""event"",""trial"",""time""
""blur"",""1"",""7998""
","""event"",""trial"",""time""
""focus"",""1"",""36517""
","""event"",""trial"",""time""
""fullscreenenter"",""1"",""38407""
","
","","","","","","1510.8999999761581","<p> <b> True or False? </b> </p><p> You should use the '1' and '0' keys to make your choices. </p>","","0","comp_question","","","","","","","","","true","",""
"comp-q","57","399537","0.0-8.0-8.0-1.0","6279","2","22","Female","approach_avoid_spark_v1","""event"",""trial"",""time""
""blur"",""1"",""7998""
""focus"",""1"",""36517""
""fullscreenenter"",""1"",""38407""
","""event"",""trial"",""time""
""blur"",""1"",""7998""
","""event"",""trial"",""time""
""focus"",""1"",""36517""
","""event"",""trial"",""time""
""fullscreenenter"",""1"",""38407""
","
","","","","","","1800.1000000238419","<p> <b> That's right! </b> You should use the '1' and '0' keys to make each choice. </p>","","0","comp_answer","","","","","","","","","","",""
"learning-instructions","58","408066","0.0-8.0-9.0-0.0","6279","2","22","Female","approach_avoid_spark_v1","""event"",""trial"",""time""
""blur"",""1"",""7998""
""focus"",""1"",""36517""
""fullscreenenter"",""1"",""38407""
","""event"",""trial"",""time""
""blur"",""1"",""7998""
","""event"",""trial"",""time""
""focus"",""1"",""36517""
","""event"",""trial"",""time""
""fullscreenenter"",""1"",""38407""
","
","","","","","","2249.600000023842","<p> It's now time to start the real game. </p>Do your best, because the points you earn in the next rounds will influence your bonus payment. </p>","","0","instructions","","","","","","","","","","",""
"preload","59","408243","0.0-9.0-0.0","6279","2","22","Female","approach_avoid_spark_v1","""event"",""trial"",""time""
""blur"",""1"",""7998""
""focus"",""1"",""36517""
""fullscreenenter"",""1"",""38407""
","""event"",""trial"",""time""
""blur"",""1"",""7998""
","""event"",""trial"",""time""
""focus"",""1"",""36517""
","""event"",""trial"",""time""
""fullscreenenter"",""1"",""38407""
","
","true","false","[]","[]","[]","","","","","","","","","","","","","","","",""
"learning-instructions","60","419209","0.0-9.0-1.0-0.0","6279","2","22","Female","approach_avoid_spark_v1","""event"",""trial"",""time""
""blur"",""1"",""7998""
""focus"",""1"",""36517""
""fullscreenenter"",""1"",""38407""
","""event"",""trial"",""time""
""blur"",""1"",""7998""
","""event"",""trial"",""time""
""focus"",""1"",""36517""
","""event"",""trial"",""time""
""fullscreenenter"",""1"",""38407""
","
","","","","","","2063.2000000476837","<p> Your goal in this round is to sell different plants to a picky customer. </p></div>","","0","instructions","","","","","","","","","","",""
"learning-instructions","61","434434","0.0-9.0-1.0-0.1","6279","2","22","Female","approach_avoid_spark_v1","""event"",""trial"",""time""
""blur"",""1"",""7998""
""focus"",""1"",""36517""
""fullscreenenter"",""1"",""38407""
","""event"",""trial"",""time""
""blur"",""1"",""7998""
","""event"",""trial"",""time""
""focus"",""1"",""36517""
","""event"",""trial"",""time""
""fullscreenenter"",""1"",""38407""
","
","","","","","","1167.2000000476837","<p> The customer likes some plants and dislikes others.  </p><p> On each turn, you will see a plant.   </p><p> You need to decide whether to offer it to the customer or not.  </p>","","0","instructions","","","","","","","","","","",""
"learning-instructions","62","444209","0.0-9.0-1.0-0.2","6279","2","22","Female","approach_avoid_spark_v1","""event"",""trial"",""time""
""blur"",""1"",""7998""
""focus"",""1"",""36517""
""fullscreenenter"",""1"",""38407""
","""event"",""trial"",""time""
""blur"",""1"",""7998""
","""event"",""trial"",""time""
""focus"",""1"",""36517""
","""event"",""trial"",""time""
""fullscreenenter"",""1"",""38407""
","
","","","","","","901","<p> You can offer the plant by pressing 1 and decide to not offer it by pressing 0. </p><br><div class=""choice-instructions-grid""> <div class=""choice-option""><img src=""images/approach.png"" class=""choice-option-img"" stage=""instructions"" position=""0"" ><div class=""choice-option-text""> Press ""1."" </div></div><div class=""choice-option""><img src=""images/avoid.png"" class=""choice-option-img"" stage=""instructions"" position=""1"" ><div class=""choice-option-text""> Press ""0."" </div></div>","","0","instructions","","","","","","","","","","",""
"learning-instructions","63","458467","0.0-9.0-1.0-0.3","6279","2","22","Female","approach_avoid_spark_v1","""event"",""trial"",""time""
""blur"",""1"",""7998""
""focus"",""1"",""36517""
""fullscreenenter"",""1"",""38407""
","""event"",""trial"",""time""
""blur"",""1"",""7998""
","""event"",""trial"",""time""
""focus"",""1"",""36517""
","""event"",""trial"",""time""
""fullscreenenter"",""1"",""38407""
","
","","","","","","1087.1000000238419","<p> If you offer a plant to the customer that she likes, she will be very pleased! </p><p> But if you offer a plant that she does NOT like, she will be annoyed. </p>","","0","instructions","","","","","","","","","","",""
"learning-instructions","64","477977","0.0-9.0-1.0-0.4","6279","2","22","Female","approach_avoid_spark_v1","""event"",""trial"",""time""
""blur"",""1"",""7998""
""focus"",""1"",""36517""
""fullscreenenter"",""1"",""38407""
","""event"",""trial"",""time""
""blur"",""1"",""7998""
","""event"",""trial"",""time""
""focus"",""1"",""36517""
","""event"",""trial"",""time""
""fullscreenenter"",""1"",""38407""
","
","","","","","","1428.0999999046326","<p> You will earn points based on how you made the customer feel. </p><p> If you made her pleased, you will WIN anywhere from 1 - 9 points, </p><p> but if you made her annoyed, you will LOSE anywhere from 1 - 9 points. </p>","","0","instructions","","","","","","","","","","",""
"learning-instructions","65","487676","0.0-9.0-1.0-0.5","6279","2","22","Female","approach_avoid_spark_v1","""event"",""trial"",""time""
""blur"",""1"",""7998""
""focus"",""1"",""36517""
""fullscreenenter"",""1"",""38407""
","""event"",""trial"",""time""
""blur"",""1"",""7998""
","""event"",""trial"",""time""
""focus"",""1"",""36517""
","""event"",""trial"",""time""
""fullscreenenter"",""1"",""38407""
","
","","","","","","1128.2999999523163","<p> You will see how many points you won or lost in the center of the screen. </p><p> Here is what you would see if you won 5 points: </p><p style=""color:green;font-size:50px;font-weight:bolder"">5</p>","","0","instructions","","","","","","","","","","",""
"learning-instructions","66","491368","0.0-9.0-1.0-0.6","6279","2","22","Female","approach_avoid_spark_v1","""event"",""trial"",""time""
""blur"",""1"",""7998""
""focus"",""1"",""36517""
""fullscreenenter"",""1"",""38407""
","""event"",""trial"",""time""
""blur"",""1"",""7998""
","""event"",""trial"",""time""
""focus"",""1"",""36517""
","""event"",""trial"",""time""
""fullscreenenter"",""1"",""38407""
","
","","","","","","721.5","<p> And here is what you would see if you lost 3 points: </p><p style=""color:red;font-size:50px;font-weight:bolder"">-3</p>","","0","instructions","","","","","","","","","","",""
"learning-instructions","67","513542","0.0-9.0-1.0-0.7","6279","2","22","Female","approach_avoid_spark_v1","""event"",""trial"",""time""
""blur"",""1"",""7998""
""focus"",""1"",""36517""
""fullscreenenter"",""1"",""38407""
","""event"",""trial"",""time""
""blur"",""1"",""7998""
","""event"",""trial"",""time""
""focus"",""1"",""36517""
","""event"",""trial"",""time""
""fullscreenenter"",""1"",""38407""
","
","","","","","","955.2999999523163","<p> Some plants will make the customer VERY pleased or annoyed. </p><p> These plants will make you win or lose LOTS of points. </p><p> The customer will have less strong feelings about other plants. </p><p> These plants will make you win or lose small amounts of points. </p>","","0","instructions","","","","","","","","","","",""
"learning-instructions","68","532551","0.0-9.0-1.0-0.8","6279","2","22","Female","approach_avoid_spark_v1","""event"",""trial"",""time""
""blur"",""1"",""7998""
""focus"",""1"",""36517""
""fullscreenenter"",""1"",""38407""
","""event"",""trial"",""time""
""blur"",""1"",""7998""
","""event"",""trial"",""time""
""focus"",""1"",""36517""
","""event"",""trial"",""time""
""fullscreenenter"",""1"",""38407""
","
","","","","","","1942","<p> If you choose to not offer the plant to the customer, you will not win or lose any points. </p><p>  However, in the center of the screen, you will see the number of points you WOULD HAVE won or lost if you had offered the plant. </p>","","0","instructions","","","","","","","","","","",""
"learning-instructions","69","554760","0.0-9.0-1.0-0.9","6279","2","22","Female","approach_avoid_spark_v1","""event"",""trial"",""time""
""blur"",""1"",""7998""
""focus"",""1"",""36517""
""fullscreenenter"",""1"",""38407""
","""event"",""trial"",""time""
""blur"",""1"",""7998""
","""event"",""trial"",""time""
""focus"",""1"",""36517""
","""event"",""trial"",""time""
""fullscreenenter"",""1"",""38407""
","
","","","","","","1234.2000000476837","<p> Here is what you might see if you did not offer the plant but the customer would have liked it: </p><p style=""color:grey; font-size:50px; display: inline-block; border-spacing: 15px; border-width:3px; border-style:solid; border-color:red"">  &nbsp; 6 &nbsp; </p><p> Remember, in this case, you would not win or lose ANY points because you did not offer the plant.  </p>","","0","instructions","","","","","","","","","","",""
"learning-instructions","70","567950","0.0-9.0-1.0-0.10","6279","2","22","Female","approach_avoid_spark_v1","""event"",""trial"",""time""
""blur"",""1"",""7998""
""focus"",""1"",""36517""
""fullscreenenter"",""1"",""38407""
","""event"",""trial"",""time""
""blur"",""1"",""7998""
","""event"",""trial"",""time""
""focus"",""1"",""36517""
","""event"",""trial"",""time""
""fullscreenenter"",""1"",""38407""
","
","","","","","","1122.5","<p> Try to make the best choice for each plant because </p><p> at the end of the game, you will earn bonus money based on how many points you earned. </p>","","0","instructions","","","","","","","","","","",""
"learning-instructions","71","577008","0.0-9.0-1.0-0.11","6279","2","22","Female","approach_avoid_spark_v1","""event"",""trial"",""time""
""blur"",""1"",""7998""
""focus"",""1"",""36517""
""fullscreenenter"",""1"",""38407""
","""event"",""trial"",""time""
""blur"",""1"",""7998""
","""event"",""trial"",""time""
""focus"",""1"",""36517""
","""event"",""trial"",""time""
""fullscreenenter"",""1"",""38407""
","
","","","","","","851.7999999523163","<p> You will have 3 seconds to make each choice. Try to respond before time runs out! </p><p> You will lose 5 points each time you do not make a response. </p>","","0","instructions","","","","","","","","","","",""
"html-keyboard-response","72","577618","0.0-9.0-2.0-0.0","6279","2","22","Female","approach_avoid_spark_v1","""event"",""trial"",""time""
""blur"",""1"",""7998""
""focus"",""1"",""36517""
""fullscreenenter"",""1"",""38407""
","""event"",""trial"",""time""
""blur"",""1"",""7998""
","""event"",""trial"",""time""
""focus"",""1"",""36517""
","""event"",""trial"",""time""
""fullscreenenter"",""1"",""38407""
","
","","","","","","null","<div style=""font-size:60px;"">+</div>","null","","fixation","","","","","","","","","","",""
"aa-learning-trial","73","580634","0.0-9.0-2.0-1.0","6279","2","22","Female","approach_avoid_spark_v1","""event"",""trial"",""time""
""blur"",""1"",""7998""
""focus"",""1"",""36517""
""fullscreenenter"",""1"",""38407""
","""event"",""trial"",""time""
""blur"",""1"",""7998""
","""event"",""trial"",""time""
""focus"",""1"",""36517""
","""event"",""trial"",""time""
""fullscreenenter"",""1"",""38407""
","
","","","","","","2846","images/flower1.png","","","learning","1","1","1","1","flower","plants","2","0","","neutral","0"
"html-keyboard-response","74","581153","0.0-9.0-2.0-0.1","6279","2","22","Female","approach_avoid_spark_v1","""event"",""trial"",""time""
""blur"",""1"",""7998""
""focus"",""1"",""36517""
""fullscreenenter"",""1"",""38407""
","""event"",""trial"",""time""
""blur"",""1"",""7998""
","""event"",""trial"",""time""
""focus"",""1"",""36517""
","""event"",""trial"",""time""
""fullscreenenter"",""1"",""38407""
","
","","","","","","null","<div style=""font-size:60px;"">+</div>","null","","fixation","","","","","","","","","","",""
"aa-learning-trial","75","584175","0.0-9.0-2.0-1.1","6279","2","22","Female","approach_avoid_spark_v1","""event"",""trial"",""time""
""blur"",""1"",""7998""
""focus"",""1"",""36517""
""fullscreenenter"",""1"",""38407""
","""event"",""trial"",""time""
""blur"",""1"",""7998""
","""event"",""trial"",""time""
""focus"",""1"",""36517""
","""event"",""trial"",""time""
""fullscreenenter"",""1"",""38407""
","
","","","","","","null","images/bush7.png","","","learning","3","-5","","null","bush","plants","2","0","","good","[6]"
"html-keyboard-response","76","584679","0.0-9.0-2.0-0.2","6279","2","22","Female","approach_avoid_spark_v1","""event"",""trial"",""time""
""blur"",""1"",""7998""
""focus"",""1"",""36517""
""fullscreenenter"",""1"",""38407""
","""event"",""trial"",""time""
""blur"",""1"",""7998""
","""event"",""trial"",""time""
""focus"",""1"",""36517""
","""event"",""trial"",""time""
""fullscreenenter"",""1"",""38407""
","
","","","","","","null","<div style=""font-size:60px;"">+</div>","null","","fixation","","","","","","","","","","",""
"aa-learning-trial","77","587703","0.0-9.0-2.0-1.2","6279","2","22","Female","approach_avoid_spark_v1","""event"",""trial"",""time""
""blur"",""1"",""7998""
""focus"",""1"",""36517""
""fullscreenenter"",""1"",""38407""
","""event"",""trial"",""time""
""blur"",""1"",""7998""
","""event"",""trial"",""time""
""focus"",""1"",""36517""
","""event"",""trial"",""time""
""fullscreenenter"",""1"",""38407""
","
","","","","","","1547.5","images/cactus2.png","","","learning","-6","-6","1","1","cactus","plants","2","0","","bad","[-3]"
"html-keyboard-response","78","588210","0.0-9.0-2.0-0.3","6279","2","22","Female","approach_avoid_spark_v1","""event"",""trial"",""time""
""blur"",""1"",""7998""
""focus"",""1"",""36517""
""fullscreenenter"",""1"",""38407""
","""event"",""trial"",""time""
""blur"",""1"",""7998""
","""event"",""trial"",""time""
""focus"",""1"",""36517""
","""event"",""trial"",""time""
""fullscreenenter"",""1"",""38407""
","
","","","","","","null","<div style=""font-size:60px;"">+</div>","null","","fixation","","","","","","","","","","",""
"aa-learning-trial","79","591223","0.0-9.0-2.0-1.3","6279","2","22","Female","approach_avoid_spark_v1","""event"",""trial"",""time""
""blur"",""1"",""7998""
""focus"",""1"",""36517""
""fullscreenenter"",""1"",""38407""
","""event"",""trial"",""time""
""blur"",""1"",""7998""
","""event"",""trial"",""time""
""focus"",""1"",""36517""
","""event"",""trial"",""time""
""fullscreenenter"",""1"",""38407""
","
","","","","","","1325","images/cactus5.png","","","learning","-2","-2","1","1","cactus","plants","2","0","","bad","[-3]"
"html-keyboard-response","80","591743","0.0-9.0-2.0-0.4","6279","2","22","Female","approach_avoid_spark_v1","""event"",""trial"",""time""
""blur"",""1"",""7998""
""focus"",""1"",""36517""
""fullscreenenter"",""1"",""38407""
","""event"",""trial"",""time""
""blur"",""1"",""7998""
","""event"",""trial"",""time""
""focus"",""1"",""36517""
","""event"",""trial"",""time""
""fullscreenenter"",""1"",""38407""
","
","","","","","","null","<div style=""font-size:60px;"">+</div>","null","","fixation","","","","","","","","","","",""
"aa-learning-trial","81","594749","0.0-9.0-2.0-1.4","6279","2","22","Female","approach_avoid_spark_v1","""event"",""trial"",""time""
""blur"",""1"",""7998""
""focus"",""1"",""36517""
""fullscreenenter"",""1"",""38407""
","""event"",""trial"",""time""
""blur"",""1"",""7998""
","""event"",""trial"",""time""
""focus"",""1"",""36517""
","""event"",""trial"",""time""
""fullscreenenter"",""1"",""38407""
","
","","","","","","1921.3000000715256","images/flower1.png","","","learning","1","1","1","1","flower","plants","2","0","","neutral","0"
"html-keyboard-response","82","595253","0.0-9.0-2.0-0.5","6279","2","22","Female","approach_avoid_spark_v1","""event"",""trial"",""time""
""blur"",""1"",""7998""
""focus"",""1"",""36517""
""fullscreenenter"",""1"",""38407""
","""event"",""trial"",""time""
""blur"",""1"",""7998""
","""event"",""trial"",""time""
""focus"",""1"",""36517""
","""event"",""trial"",""time""
""fullscreenenter"",""1"",""38407""
","
","","","","","","null","<div style=""font-size:60px;"">+</div>","null","","fixation","","","","","","","","","","",""
"aa-learning-trial","83","598264","0.0-9.0-2.0-1.5","6279","2","22","Female","approach_avoid_spark_v1","""event"",""trial"",""time""
""blur"",""1"",""7998""
""focus"",""1"",""36517""
""fullscreenenter"",""1"",""38407""
","""event"",""trial"",""time""
""blur"",""1"",""7998""
","""event"",""trial"",""time""
""focus"",""1"",""36517""
","""event"",""trial"",""time""
""fullscreenenter"",""1"",""38407""
","
","","","","","","1309.1999999284744","images/cactus4.png","","","learning","-3","0","0","0","cactus","plants","2","0","","bad","[-3]"
"html-keyboard-response","84","598774","0.0-9.0-2.0-0.6","6279","2","22","Female","approach_avoid_spark_v1","""event"",""trial"",""time""
""blur"",""1"",""7998""
""focus"",""1"",""36517""
""fullscreenenter"",""1"",""38407""
","""event"",""trial"",""time""
""blur"",""1"",""7998""
","""event"",""trial"",""time""
""focus"",""1"",""36517""
","""event"",""trial"",""time""
""fullscreenenter"",""1"",""38407""
","
","","","","","","null","<div style=""font-size:60px;"">+</div>","null","","fixation","","","","","","","","","","",""
"aa-learning-trial","85","601793","0.0-9.0-2.0-1.6","6279","2","22","Female","approach_avoid_spark_v1","""event"",""trial"",""time""
""blur"",""1"",""7998""
""focus"",""1"",""36517""
""fullscreenenter"",""1"",""38407""
","""event"",""trial"",""time""
""blur"",""1"",""7998""
","""event"",""trial"",""time""
""focus"",""1"",""36517""
","""event"",""trial"",""time""
""fullscreenenter"",""1"",""38407""
","
","","","","","","1752.3000000715256","images/flower3.png","","","learning","8","0","0","0","flower","plants","2","0","","neutral","0"
"html-keyboard-response","86","602308","0.0-9.0-2.0-0.7","6279","2","22","Female","approach_avoid_spark_v1","""event"",""trial"",""time""
""blur"",""1"",""7998""
""focus"",""1"",""36517""
""fullscreenenter"",""1"",""38407""
","""event"",""trial"",""time""
""blur"",""1"",""7998""
","""event"",""trial"",""time""
""focus"",""1"",""36517""
","""event"",""trial"",""time""
""fullscreenenter"",""1"",""38407""
","
","","","","","","null","<div style=""font-size:60px;"">+</div>","null","","fixation","","","","","","","","","","",""
"aa-learning-trial","87","605323","0.0-9.0-2.0-1.7","6279","2","22","Female","approach_avoid_spark_v1","""event"",""trial"",""time""
""blur"",""1"",""7998""
""focus"",""1"",""36517""
""fullscreenenter"",""1"",""38407""
","""event"",""trial"",""time""
""blur"",""1"",""7998""
","""event"",""trial"",""time""
""focus"",""1"",""36517""
","""event"",""trial"",""time""
""fullscreenenter"",""1"",""38407""
","
","","","","","","1730.5999999046326","images/bush1.png","","","learning","2","0","0","0","bush","plants","2","0","","good","[6]"
"html-keyboard-response","88","605838","0.0-9.0-2.0-0.8","6279","2","22","Female","approach_avoid_spark_v1","""event"",""trial"",""time""
""blur"",""1"",""7998""
""focus"",""1"",""36517""
""fullscreenenter"",""1"",""38407""
","""event"",""trial"",""time""
""blur"",""1"",""7998""
","""event"",""trial"",""time""
""focus"",""1"",""36517""
","""event"",""trial"",""time""
""fullscreenenter"",""1"",""38407""
","
","","","","","","null","<div style=""font-size:60px;"">+</div>","null","","fixation","","","","","","","","","","",""
"aa-learning-trial","89","608843","0.0-9.0-2.0-1.8","6279","2","22","Female","approach_avoid_spark_v1","""event"",""trial"",""time""
""blur"",""1"",""7998""
""focus"",""1"",""36517""
""fullscreenenter"",""1"",""38407""
","""event"",""trial"",""time""
""blur"",""1"",""7998""
","""event"",""trial"",""time""
""focus"",""1"",""36517""
","""event"",""trial"",""time""
""fullscreenenter"",""1"",""38407""
","
","","","","","","1113","images/bush7.png","","","learning","3","3","1","1","bush","plants","2","0","","good","[6]"
"html-keyboard-response","90","609345","0.0-9.0-2.0-0.9","6279","2","22","Female","approach_avoid_spark_v1","""event"",""trial"",""time""
""blur"",""1"",""7998""
""focus"",""1"",""36517""
""fullscreenenter"",""1"",""38407""
","""event"",""trial"",""time""
""blur"",""1"",""7998""
","""event"",""trial"",""time""
""focus"",""1"",""36517""
","""event"",""trial"",""time""
""fullscreenenter"",""1"",""38407""
","
","","","","","","null","<div style=""font-size:60px;"">+</div>","null","","fixation","","","","","","","","","","",""
"aa-learning-trial","91","612350","0.0-9.0-2.0-1.9","6279","2","22","Female","approach_avoid_spark_v1","""event"",""trial"",""time""
""blur"",""1"",""7998""
""focus"",""1"",""36517""
""fullscreenenter"",""1"",""38407""
","""event"",""trial"",""time""
""blur"",""1"",""7998""
","""event"",""trial"",""time""
""focus"",""1"",""36517""
","""event"",""trial"",""time""
""fullscreenenter"",""1"",""38407""
","
","","","","","","1006.7000000476837","images/bush3.png","","","learning","-8","0","0","0","bush","plants","2","0","","good","[6]"
"html-keyboard-response","92","612853","0.0-9.0-2.0-0.10","6279","2","22","Female","approach_avoid_spark_v1","""event"",""trial"",""time""
""blur"",""1"",""7998""
""focus"",""1"",""36517""
""fullscreenenter"",""1"",""38407""
","""event"",""trial"",""time""
""blur"",""1"",""7998""
","""event"",""trial"",""time""
""focus"",""1"",""36517""
","""event"",""trial"",""time""
""fullscreenenter"",""1"",""38407""
","
","","","","","","null","<div style=""font-size:60px;"">+</div>","null","","fixation","","","","","","","","","","",""
"aa-learning-trial","93","615858","0.0-9.0-2.0-1.10","6279","2","22","Female","approach_avoid_spark_v1","""event"",""trial"",""time""
""blur"",""1"",""7998""
""focus"",""1"",""36517""
""fullscreenenter"",""1"",""38407""
","""event"",""trial"",""time""
""blur"",""1"",""7998""
","""event"",""trial"",""time""
""focus"",""1"",""36517""
","""event"",""trial"",""time""
""fullscreenenter"",""1"",""38407""
","
","","","","","","1573.3999999761581","images/cactus2.png","","","learning","-6","0","0","0","cactus","plants","2","0","","bad","[-3]"
"html-keyboard-response","94","616362","0.0-9.0-2.0-0.11","6279","2","22","Female","approach_avoid_spark_v1","""event"",""trial"",""time""
""blur"",""1"",""7998""
""focus"",""1"",""36517""
""fullscreenenter"",""1"",""38407""
","""event"",""trial"",""time""
""blur"",""1"",""7998""
","""event"",""trial"",""time""
""focus"",""1"",""36517""
","""event"",""trial"",""time""
""fullscreenenter"",""1"",""38407""
","
","","","","","","null","<div style=""font-size:60px;"">+</div>","null","","fixation","","","","","","","","","","",""
"aa-learning-trial","95","619367","0.0-9.0-2.0-1.11","6279","2","22","Female","approach_avoid_spark_v1","""event"",""trial"",""time""
""blur"",""1"",""7998""
""focus"",""1"",""36517""
""fullscreenenter"",""1"",""38407""
","""event"",""trial"",""time""
""blur"",""1"",""7998""
","""event"",""trial"",""time""
""focus"",""1"",""36517""
","""event"",""trial"",""time""
""fullscreenenter"",""1"",""38407""
","
","","","","","","1478.3999999761581","images/bush1.png","","","learning","2","2","1","1","bush","plants","2","0","","good","[6]"
"html-keyboard-response","96","619871","0.0-9.0-2.0-0.12","6279","2","22","Female","approach_avoid_spark_v1","""event"",""trial"",""time""
""blur"",""1"",""7998""
""focus"",""1"",""36517""
""fullscreenenter"",""1"",""38407""
","""event"",""trial"",""time""
""blur"",""1"",""7998""
","""event"",""trial"",""time""
""focus"",""1"",""36517""
","""event"",""trial"",""time""
""fullscreenenter"",""1"",""38407""
","
","","","","","","null","<div style=""font-size:60px;"">+</div>","null","","fixation","","","","","","","","","","",""
"aa-learning-trial","97","622878","0.0-9.0-2.0-1.12","6279","2","22","Female","approach_avoid_spark_v1","""event"",""trial"",""time""
""blur"",""1"",""7998""
""focus"",""1"",""36517""
""fullscreenenter"",""1"",""38407""
","""event"",""trial"",""time""
""blur"",""1"",""7998""
","""event"",""trial"",""time""
""focus"",""1"",""36517""
","""event"",""trial"",""time""
""fullscreenenter"",""1"",""38407""
","
","","","","","","1217.1000000238419","images/flower6.png","","","learning","-5","-5","1","1","flower","plants","2","0","","neutral","0"
"html-keyboard-response","98","623381","0.0-9.0-2.0-0.13","6279","2","22","Female","approach_avoid_spark_v1","""event"",""trial"",""time""
""blur"",""1"",""7998""
""focus"",""1"",""36517""
""fullscreenenter"",""1"",""38407""
","""event"",""trial"",""time""
""blur"",""1"",""7998""
","""event"",""trial"",""time""
""focus"",""1"",""36517""
","""event"",""trial"",""time""
""fullscreenenter"",""1"",""38407""
","
","","","","","","null","<div style=""font-size:60px;"">+</div>","null","","fixation","","","","","","","","","","",""
"aa-learning-trial","99","626386","0.0-9.0-2.0-1.13","6279","2","22","Female","approach_avoid_spark_v1","""event"",""trial"",""time""
""blur"",""1"",""7998""
""focus"",""1"",""36517""
""fullscreenenter"",""1"",""38407""
","""event"",""trial"",""time""
""blur"",""1"",""7998""
","""event"",""trial"",""time""
""focus"",""1"",""36517""
","""event"",""trial"",""time""
""fullscreenenter"",""1"",""38407""
","
","","","","","","899.3999999761581","images/flower6.png","","","learning","-5","0","0","0","flower","plants","2","0","","neutral","0"
"html-keyboard-response","100","626888","0.0-9.0-2.0-0.14","6279","2","22","Female","approach_avoid_spark_v1","""event"",""trial"",""time""
""blur"",""1"",""7998""
""focus"",""1"",""36517""
""fullscreenenter"",""1"",""38407""
","""event"",""trial"",""time""
""blur"",""1"",""7998""
","""event"",""trial"",""time""
""focus"",""1"",""36517""
","""event"",""trial"",""time""
""fullscreenenter"",""1"",""38407""
","
","","","","","","null","<div style=""font-size:60px;"">+</div>","null","","fixation","","","","","","","","","","",""
"aa-learning-trial","101","629893","0.0-9.0-2.0-1.14","6279","2","22","Female","approach_avoid_spark_v1","""event"",""trial"",""time""
""blur"",""1"",""7998""
""focus"",""1"",""36517""
""fullscreenenter"",""1"",""38407""
","""event"",""trial"",""time""
""blur"",""1"",""7998""
","""event"",""trial"",""time""
""focus"",""1"",""36517""
","""event"",""trial"",""time""
""fullscreenenter"",""1"",""38407""
","
","","","","","","1166.3000000715256","images/cactus5.png","","","learning","-2","0","0","0","cactus","plants","2","0","","bad","[-3]"
"html-keyboard-response","102","630395","0.0-9.0-2.0-0.15","6279","2","22","Female","approach_avoid_spark_v1","""event"",""trial"",""time""
""blur"",""1"",""7998""
""focus"",""1"",""36517""
""fullscreenenter"",""1"",""38407""
","""event"",""trial"",""time""
""blur"",""1"",""7998""
","""event"",""trial"",""time""
""focus"",""1"",""36517""
","""event"",""trial"",""time""
""fullscreenenter"",""1"",""38407""
","
","","","","","","null","<div style=""font-size:60px;"">+</div>","null","","fixation","","","","","","","","","","",""
"aa-learning-trial","103","633399","0.0-9.0-2.0-1.15","6279","2","22","Female","approach_avoid_spark_v1","""event"",""trial"",""time""
""blur"",""1"",""7998""
""focus"",""1"",""36517""
""fullscreenenter"",""1"",""38407""
","""event"",""trial"",""time""
""blur"",""1"",""7998""
","""event"",""trial"",""time""
""focus"",""1"",""36517""
","""event"",""trial"",""time""
""fullscreenenter"",""1"",""38407""
","
","","","","","","2407.399999976158","images/cactus4.png","","","learning","-3","0","0","0","cactus","plants","2","0","","bad","[-3]"
"html-keyboard-response","104","633901","0.0-9.0-2.0-0.16","6279","2","22","Female","approach_avoid_spark_v1","""event"",""trial"",""time""
""blur"",""1"",""7998""
""focus"",""1"",""36517""
""fullscreenenter"",""1"",""38407""
","""event"",""trial"",""time""
""blur"",""1"",""7998""
","""event"",""trial"",""time""
""focus"",""1"",""36517""
","""event"",""trial"",""time""
""fullscreenenter"",""1"",""38407""
","
","","","","","","null","<div style=""font-size:60px;"">+</div>","null","","fixation","","","","","","","","","","",""
"aa-learning-trial","105","636904","0.0-9.0-2.0-1.16","6279","2","22","Female","approach_avoid_spark_v1","""event"",""trial"",""time""
""blur"",""1"",""7998""
""focus"",""1"",""36517""
""fullscreenenter"",""1"",""38407""
","""event"",""trial"",""time""
""blur"",""1"",""7998""
","""event"",""trial"",""time""
""focus"",""1"",""36517""
","""event"",""trial"",""time""
""fullscreenenter"",""1"",""38407""
","
","","","","","","965.7999999523163","images/flower6.png","","","learning","-5","0","0","0","flower","plants","2","0","","neutral","0"
"html-keyboard-response","106","637407","0.0-9.0-2.0-0.17","6279","2","22","Female","approach_avoid_spark_v1","""event"",""trial"",""time""
""blur"",""1"",""7998""
""focus"",""1"",""36517""
""fullscreenenter"",""1"",""38407""
","""event"",""trial"",""time""
""blur"",""1"",""7998""
","""event"",""trial"",""time""
""focus"",""1"",""36517""
","""event"",""trial"",""time""
""fullscreenenter"",""1"",""38407""
","
","","","","","","null","<div style=""font-size:60px;"">+</div>","null","","fixation","","","","","","","","","","",""
"aa-learning-trial","107","640411","0.0-9.0-2.0-1.17","6279","2","22","Female","approach_avoid_spark_v1","""event"",""trial"",""time""
""blur"",""1"",""7998""
""focus"",""1"",""36517""
""fullscreenenter"",""1"",""38407""
","""event"",""trial"",""time""
""blur"",""1"",""7998""
","""event"",""trial"",""time""
""focus"",""1"",""36517""
","""event"",""trial"",""time""
""fullscreenenter"",""1"",""38407""
","
","","","","","","897.1999999284744","images/cactus2.png","","","learning","-6","0","0","0","cactus","plants","2","0","","bad","[-3]"
"html-keyboard-response","108","640913","0.0-9.0-2.0-0.18","6279","2","22","Female","approach_avoid_spark_v1","""event"",""trial"",""time""
""blur"",""1"",""7998""
""focus"",""1"",""36517""
""fullscreenenter"",""1"",""38407""
","""event"",""trial"",""time""
""blur"",""1"",""7998""
","""event"",""trial"",""time""
""focus"",""1"",""36517""
","""event"",""trial"",""time""
""fullscreenenter"",""1"",""38407""
","
","","","","","","null","<div style=""font-size:60px;"">+</div>","null","","fixation","","","","","","","","","","",""
"aa-learning-trial","109","643917","0.0-9.0-2.0-1.18","6279","2","22","Female","approach_avoid_spark_v1","""event"",""trial"",""time""
""blur"",""1"",""7998""
""focus"",""1"",""36517""
""fullscreenenter"",""1"",""38407""
","""event"",""trial"",""time""
""blur"",""1"",""7998""
","""event"",""trial"",""time""
""focus"",""1"",""36517""
","""event"",""trial"",""time""
""fullscreenenter"",""1"",""38407""
","
","","","","","","1672.8999999761581","images/cactus1.png","","","learning","4","0","0","0","cactus","plants","2","0","","bad","[-3]"
"html-keyboard-response","110","644420","0.0-9.0-2.0-0.19","6279","2","22","Female","approach_avoid_spark_v1","""event"",""trial"",""time""
""blur"",""1"",""7998""
""focus"",""1"",""36517""
""fullscreenenter"",""1"",""38407""
","""event"",""trial"",""time""
""blur"",""1"",""7998""
","""event"",""trial"",""time""
""focus"",""1"",""36517""
","""event"",""trial"",""time""
""fullscreenenter"",""1"",""38407""
","
","","","","","","null","<div style=""font-size:60px;"">+</div>","null","","fixation","","","","","","","","","","",""
"aa-learning-trial","111","647427","0.0-9.0-2.0-1.19","6279","2","22","Female","approach_avoid_spark_v1","""event"",""trial"",""time""
""blur"",""1"",""7998""
""focus"",""1"",""36517""
""fullscreenenter"",""1"",""38407""
","""event"",""trial"",""time""
""blur"",""1"",""7998""
","""event"",""trial"",""time""
""focus"",""1"",""36517""
","""event"",""trial"",""time""
""fullscreenenter"",""1"",""38407""
","
","","","","","","1406.5","images/cactus5.png","","","learning","-2","0","0","0","cactus","plants","2","0","","bad","[-3]"
"html-keyboard-response","112","647930","0.0-9.0-2.0-0.20","6279","2","22","Female","approach_avoid_spark_v1","""event"",""trial"",""time""
""blur"",""1"",""7998""
""focus"",""1"",""36517""
""fullscreenenter"",""1"",""38407""
","""event"",""trial"",""time""
""blur"",""1"",""7998""
","""event"",""trial"",""time""
""focus"",""1"",""36517""
","""event"",""trial"",""time""
""fullscreenenter"",""1"",""38407""
","
","","","","","","null","<div style=""font-size:60px;"">+</div>","null","","fixation","","","","","","","","","","",""
"aa-learning-trial","113","650934","0.0-9.0-2.0-1.20","6279","2","22","Female","approach_avoid_spark_v1","""event"",""trial"",""time""
""blur"",""1"",""7998""
""focus"",""1"",""36517""
""fullscreenenter"",""1"",""38407""
","""event"",""trial"",""time""
""blur"",""1"",""7998""
","""event"",""trial"",""time""
""focus"",""1"",""36517""
","""event"",""trial"",""time""
""fullscreenenter"",""1"",""38407""
","
","","","","","","819.2000000476837","images/flower3.png","","","learning","8","0","0","0","flower","plants","2","0","","neutral","0"
"html-keyboard-response","114","651436","0.0-9.0-2.0-0.21","6279","2","22","Female","approach_avoid_spark_v1","""event"",""trial"",""time""
""blur"",""1"",""7998""
""focus"",""1"",""36517""
""fullscreenenter"",""1"",""38407""
","""event"",""trial"",""time""
""blur"",""1"",""7998""
","""event"",""trial"",""time""
""focus"",""1"",""36517""
","""event"",""trial"",""time""
""fullscreenenter"",""1"",""38407""
","
","","","","","","null","<div style=""font-size:60px;"">+</div>","null","","fixation","","","","","","","","","","",""
"aa-learning-trial","115","654441","0.0-9.0-2.0-1.21","6279","2","22","Female","approach_avoid_spark_v1","""event"",""trial"",""time""
""blur"",""1"",""7998""
""focus"",""1"",""36517""
""fullscreenenter"",""1"",""38407""
","""event"",""trial"",""time""
""blur"",""1"",""7998""
","""event"",""trial"",""time""
""focus"",""1"",""36517""
","""event"",""trial"",""time""
""fullscreenenter"",""1"",""38407""
","
","","","","","","935.2999999523163","images/flower1.png","","","learning","1","1","1","1","flower","plants","2","0","","neutral","0"
"html-keyboard-response","116","654943","0.0-9.0-2.0-0.22","6279","2","22","Female","approach_avoid_spark_v1","""event"",""trial"",""time""
""blur"",""1"",""7998""
""focus"",""1"",""36517""
""fullscreenenter"",""1"",""38407""
","""event"",""trial"",""time""
""blur"",""1"",""7998""
","""event"",""trial"",""time""
""focus"",""1"",""36517""
","""event"",""trial"",""time""
""fullscreenenter"",""1"",""38407""
","
","","","","","","null","<div style=""font-size:60px;"">+</div>","null","","fixation","","","","","","","","","","",""
"aa-learning-trial","117","657948","0.0-9.0-2.0-1.22","6279","2","22","Female","approach_avoid_spark_v1","""event"",""trial"",""time""
""blur"",""1"",""7998""
""focus"",""1"",""36517""
""fullscreenenter"",""1"",""38407""
","""event"",""trial"",""time""
""blur"",""1"",""7998""
","""event"",""trial"",""time""
""focus"",""1"",""36517""
","""event"",""trial"",""time""
""fullscreenenter"",""1"",""38407""
","
","","","","","","855.2999999523163","images/cactus2.png","","","learning","-6","0","0","0","cactus","plants","2","0","","bad","[-3]"
"html-keyboard-response","118","658451","0.0-9.0-2.0-0.23","6279","2","22","Female","approach_avoid_spark_v1","""event"",""trial"",""time""
""blur"",""1"",""7998""
""focus"",""1"",""36517""
""fullscreenenter"",""1"",""38407""
","""event"",""trial"",""time""
""blur"",""1"",""7998""
","""event"",""trial"",""time""
""focus"",""1"",""36517""
","""event"",""trial"",""time""
""fullscreenenter"",""1"",""38407""
","
","","","","","","null","<div style=""font-size:60px;"">+</div>","null","","fixation","","","","","","","","","","",""
"aa-learning-trial","119","661455","0.0-9.0-2.0-1.23","6279","2","22","Female","approach_avoid_spark_v1","""event"",""trial"",""time""
""blur"",""1"",""7998""
""focus"",""1"",""36517""
""fullscreenenter"",""1"",""38407""
","""event"",""trial"",""time""
""blur"",""1"",""7998""
","""event"",""trial"",""time""
""focus"",""1"",""36517""
","""event"",""trial"",""time""
""fullscreenenter"",""1"",""38407""
","
","","","","","","1075.7000000476837","images/bush1.png","","","learning","2","2","1","1","bush","plants","2","0","","good","[6]"
"html-keyboard-response","120","661957","0.0-9.0-2.0-0.24","6279","2","22","Female","approach_avoid_spark_v1","""event"",""trial"",""time""
""blur"",""1"",""7998""
""focus"",""1"",""36517""
""fullscreenenter"",""1"",""38407""
","""event"",""trial"",""time""
""blur"",""1"",""7998""
","""event"",""trial"",""time""
""focus"",""1"",""36517""
","""event"",""trial"",""time""
""fullscreenenter"",""1"",""38407""
","
","","","","","","null","<div style=""font-size:60px;"">+</div>","null","","fixation","","","","","","","","","","",""
"aa-learning-trial","121","664961","0.0-9.0-2.0-1.24","6279","2","22","Female","approach_avoid_spark_v1","""event"",""trial"",""time""
""blur"",""1"",""7998""
""focus"",""1"",""36517""
""fullscreenenter"",""1"",""38407""
","""event"",""trial"",""time""
""blur"",""1"",""7998""
","""event"",""trial"",""time""
""focus"",""1"",""36517""
","""event"",""trial"",""time""
""fullscreenenter"",""1"",""38407""
","
","","","","","","661.2000000476837","images/bush7.png","","","learning","3","3","1","1","bush","plants","2","0","","good","[6]"
"html-keyboard-response","122","665464","0.0-9.0-2.0-0.25","6279","2","22","Female","approach_avoid_spark_v1","""event"",""trial"",""time""
""blur"",""1"",""7998""
""focus"",""1"",""36517""
""fullscreenenter"",""1"",""38407""
","""event"",""trial"",""time""
""blur"",""1"",""7998""
","""event"",""trial"",""time""
""focus"",""1"",""36517""
","""event"",""trial"",""time""
""fullscreenenter"",""1"",""38407""
","
","","","","","","null","<div style=""font-size:60px;"">+</div>","null","","fixation","","","","","","","","","","",""
"aa-learning-trial","123","668468","0.0-9.0-2.0-1.25","6279","2","22","Female","approach_avoid_spark_v1","""event"",""trial"",""time""
""blur"",""1"",""7998""
""focus"",""1"",""36517""
""fullscreenenter"",""1"",""38407""
","""event"",""trial"",""time""
""blur"",""1"",""7998""
","""event"",""trial"",""time""
""focus"",""1"",""36517""
","""event"",""trial"",""time""
""fullscreenenter"",""1"",""38407""
","
","","","","","","932.1000000238419","images/flower1.png","","","learning","1","1","1","1","flower","plants","2","0","","neutral","0"
"html-keyboard-response","124","668970","0.0-9.0-2.0-0.26","6279","2","22","Female","approach_avoid_spark_v1","""event"",""trial"",""time""
""blur"",""1"",""7998""
""focus"",""1"",""36517""
""fullscreenenter"",""1"",""38407""
","""event"",""trial"",""time""
""blur"",""1"",""7998""
","""event"",""trial"",""time""
""focus"",""1"",""36517""
","""event"",""trial"",""time""
""fullscreenenter"",""1"",""38407""
","
","","","","","","null","<div style=""font-size:60px;"">+</div>","null","","fixation","","","","","","","","","","",""
"aa-learning-trial","125","671984","0.0-9.0-2.0-1.26","6279","2","22","Female","approach_avoid_spark_v1","""event"",""trial"",""time""
""blur"",""1"",""7998""
""focus"",""1"",""36517""
""fullscreenenter"",""1"",""38407""
","""event"",""trial"",""time""
""blur"",""1"",""7998""
","""event"",""trial"",""time""
""focus"",""1"",""36517""
","""event"",""trial"",""time""
""fullscreenenter"",""1"",""38407""
","
","","","","","","694.1999999284744","images/bush1.png","","","learning","2","2","1","1","bush","plants","2","0","","good","[6]"
"html-keyboard-response","126","672487","0.0-9.0-2.0-0.27","6279","2","22","Female","approach_avoid_spark_v1","""event"",""trial"",""time""
""blur"",""1"",""7998""
""focus"",""1"",""36517""
""fullscreenenter"",""1"",""38407""
","""event"",""trial"",""time""
""blur"",""1"",""7998""
","""event"",""trial"",""time""
""focus"",""1"",""36517""
","""event"",""trial"",""time""
""fullscreenenter"",""1"",""38407""
","
","","","","","","null","<div style=""font-size:60px;"">+</div>","null","","fixation","","","","","","","","","","",""
"aa-learning-trial","127","675491","0.0-9.0-2.0-1.27","6279","2","22","Female","approach_avoid_spark_v1","""event"",""trial"",""time""
""blur"",""1"",""7998""
""focus"",""1"",""36517""
""fullscreenenter"",""1"",""38407""
","""event"",""trial"",""time""
""blur"",""1"",""7998""
","""event"",""trial"",""time""
""focus"",""1"",""36517""
","""event"",""trial"",""time""
""fullscreenenter"",""1"",""38407""
","
","","","","","","647.3000000715256","images/bush1.png","","","learning","2","2","1","1","bush","plants","2","0","","good","[6]"
"html-keyboard-response","128","675992","0.0-9.0-2.0-0.28","6279","2","22","Female","approach_avoid_spark_v1","""event"",""trial"",""time""
""blur"",""1"",""7998""
""focus"",""1"",""36517""
""fullscreenenter"",""1"",""38407""
","""event"",""trial"",""time""
""blur"",""1"",""7998""
","""event"",""trial"",""time""
""focus"",""1"",""36517""
","""event"",""trial"",""time""
""fullscreenenter"",""1"",""38407""
","
","","","","","","null","<div style=""font-size:60px;"">+</div>","null","","fixation","","","","","","","","","","",""
"aa-learning-trial","129","678997","0.0-9.0-2.0-1.28","6279","2","22","Female","approach_avoid_spark_v1","""event"",""trial"",""time""
""blur"",""1"",""7998""
""focus"",""1"",""36517""
""fullscreenenter"",""1"",""38407""
","""event"",""trial"",""time""
""blur"",""1"",""7998""
","""event"",""trial"",""time""
""focus"",""1"",""36517""
","""event"",""trial"",""time""
""fullscreenenter"",""1"",""38407""
","
","","","","","","715.3999999761581","images/bush1.png","","","learning","2","2","1","1","bush","plants","2","0","","good","[6]"
"html-keyboard-response","130","679499","0.0-9.0-2.0-0.29","6279","2","22","Female","approach_avoid_spark_v1","""event"",""trial"",""time""
""blur"",""1"",""7998""
""focus"",""1"",""36517""
""fullscreenenter"",""1"",""38407""
","""event"",""trial"",""time""
""blur"",""1"",""7998""
","""event"",""trial"",""time""
""focus"",""1"",""36517""
","""event"",""trial"",""time""
""fullscreenenter"",""1"",""38407""
","
","","","","","","null","<div style=""font-size:60px;"">+</div>","null","","fixation","","","","","","","","","","",""
"aa-learning-trial","131","682504","0.0-9.0-2.0-1.29","6279","2","22","Female","approach_avoid_spark_v1","""event"",""trial"",""time""
""blur"",""1"",""7998""
""focus"",""1"",""36517""
""fullscreenenter"",""1"",""38407""
","""event"",""trial"",""time""
""blur"",""1"",""7998""
","""event"",""trial"",""time""
""focus"",""1"",""36517""
","""event"",""trial"",""time""
""fullscreenenter"",""1"",""38407""
","
","","","","","","1123.8000000715256","images/flower5.png","","","learning","-7","0","0","0","flower","plants","2","0","","neutral","0"
"html-keyboard-response","132","683008","0.0-9.0-2.0-0.30","6279","2","22","Female","approach_avoid_spark_v1","""event"",""trial"",""time""
""blur"",""1"",""7998""
""focus"",""1"",""36517""
""fullscreenenter"",""1"",""38407""
","""event"",""trial"",""time""
""blur"",""1"",""7998""
","""event"",""trial"",""time""
""focus"",""1"",""36517""
","""event"",""trial"",""time""
""fullscreenenter"",""1"",""38407""
","
","","","","","","null","<div style=""font-size:60px;"">+</div>","null","","fixation","","","","","","","","","","",""
"aa-learning-trial","133","686017","0.0-9.0-2.0-1.30","6279","2","22","Female","approach_avoid_spark_v1","""event"",""trial"",""time""
""blur"",""1"",""7998""
""focus"",""1"",""36517""
""fullscreenenter"",""1"",""38407""
","""event"",""trial"",""time""
""blur"",""1"",""7998""
","""event"",""trial"",""time""
""focus"",""1"",""36517""
","""event"",""trial"",""time""
""fullscreenenter"",""1"",""38407""
","
","","","","","","1390.9000000953674","images/bush2.png","","","learning","9","9","1","1","bush","plants","2","0","","good","[6]"
"html-keyboard-response","134","686521","0.0-9.0-2.0-0.31","6279","2","22","Female","approach_avoid_spark_v1","""event"",""trial"",""time""
""blur"",""1"",""7998""
""focus"",""1"",""36517""
""fullscreenenter"",""1"",""38407""
","""event"",""trial"",""time""
""blur"",""1"",""7998""
","""event"",""trial"",""time""
""focus"",""1"",""36517""
","""event"",""trial"",""time""
""fullscreenenter"",""1"",""38407""
","
","","","","","","null","<div style=""font-size:60px;"">+</div>","null","","fixation","","","","","","","","","","",""
"aa-learning-trial","135","689526","0.0-9.0-2.0-1.31","6279","2","22","Female","approach_avoid_spark_v1","""event"",""trial"",""time""
""blur"",""1"",""7998""
""focus"",""1"",""36517""
""fullscreenenter"",""1"",""38407""
","""event"",""trial"",""time""
""blur"",""1"",""7998""
","""event"",""trial"",""time""
""focus"",""1"",""36517""
","""event"",""trial"",""time""
""fullscreenenter"",""1"",""38407""
","
","","","","","","744.8999999761581","images/bush7.png","","","learning","3","3","1","1","bush","plants","2","0","","good","[6]"
"html-keyboard-response","136","690028","0.0-9.0-2.0-0.32","6279","2","22","Female","approach_avoid_spark_v1","""event"",""trial"",""time""
""blur"",""1"",""7998""
""focus"",""1"",""36517""
""fullscreenenter"",""1"",""38407""
","""event"",""trial"",""time""
""blur"",""1"",""7998""
","""event"",""trial"",""time""
""focus"",""1"",""36517""
","""event"",""trial"",""time""
""fullscreenenter"",""1"",""38407""
","
","","","","","","null","<div style=""font-size:60px;"">+</div>","null","","fixation","","","","","","","","","","",""
"aa-learning-trial","137","693032","0.0-9.0-2.0-1.32","6279","2","22","Female","approach_avoid_spark_v1","""event"",""trial"",""time""
""blur"",""1"",""7998""
""focus"",""1"",""36517""
""fullscreenenter"",""1"",""38407""
","""event"",""trial"",""time""
""blur"",""1"",""7998""
","""event"",""trial"",""time""
""focus"",""1"",""36517""
","""event"",""trial"",""time""
""fullscreenenter"",""1"",""38407""
","
","","","","","","805.7000000476837","images/cactus5.png","","","learning","-2","0","0","0","cactus","plants","2","0","","bad","[-3]"
"html-keyboard-response","138","693534","0.0-9.0-2.0-0.33","6279","2","22","Female","approach_avoid_spark_v1","""event"",""trial"",""time""
""blur"",""1"",""7998""
""focus"",""1"",""36517""
""fullscreenenter"",""1"",""38407""
","""event"",""trial"",""time""
""blur"",""1"",""7998""
","""event"",""trial"",""time""
""focus"",""1"",""36517""
","""event"",""trial"",""time""
""fullscreenenter"",""1"",""38407""
","
","","","","","","null","<div style=""font-size:60px;"">+</div>","null","","fixation","","","","","","","","","","",""
"aa-learning-trial","139","696539","0.0-9.0-2.0-1.33","6279","2","22","Female","approach_avoid_spark_v1","""event"",""trial"",""time""
""blur"",""1"",""7998""
""focus"",""1"",""36517""
""fullscreenenter"",""1"",""38407""
","""event"",""trial"",""time""
""blur"",""1"",""7998""
","""event"",""trial"",""time""
""focus"",""1"",""36517""
","""event"",""trial"",""time""
""fullscreenenter"",""1"",""38407""
","
","","","","","","1041.4000000953674","images/cactus2.png","","","learning","-6","0","0","0","cactus","plants","2","0","","bad","[-3]"
"html-keyboard-response","140","697041","0.0-9.0-2.0-0.34","6279","2","22","Female","approach_avoid_spark_v1","""event"",""trial"",""time""
""blur"",""1"",""7998""
""focus"",""1"",""36517""
""fullscreenenter"",""1"",""38407""
","""event"",""trial"",""time""
""blur"",""1"",""7998""
","""event"",""trial"",""time""
""focus"",""1"",""36517""
","""event"",""trial"",""time""
""fullscreenenter"",""1"",""38407""
","
","","","","","","null","<div style=""font-size:60px;"">+</div>","null","","fixation","","","","","","","","","","",""
"aa-learning-trial","141","700050","0.0-9.0-2.0-1.34","6279","2","22","Female","approach_avoid_spark_v1","""event"",""trial"",""time""
""blur"",""1"",""7998""
""focus"",""1"",""36517""
""fullscreenenter"",""1"",""38407""
","""event"",""trial"",""time""
""blur"",""1"",""7998""
","""event"",""trial"",""time""
""focus"",""1"",""36517""
","""event"",""trial"",""time""
""fullscreenenter"",""1"",""38407""
","
","","","","","","965.1999999284744","images/cactus6.png","","","learning","7","7","1","1","cactus","plants","2","0","","bad","[-3]"
"html-keyboard-response","142","700553","0.0-9.0-2.0-0.35","6279","2","22","Female","approach_avoid_spark_v1","""event"",""trial"",""time""
""blur"",""1"",""7998""
""focus"",""1"",""36517""
""fullscreenenter"",""1"",""38407""
","""event"",""trial"",""time""
""blur"",""1"",""7998""
","""event"",""trial"",""time""
""focus"",""1"",""36517""
","""event"",""trial"",""time""
""fullscreenenter"",""1"",""38407""
","
","","","","","","null","<div style=""font-size:60px;"">+</div>","null","","fixation","","","","","","","","","","",""
"aa-learning-trial","143","703562","0.0-9.0-2.0-1.35","6279","2","22","Female","approach_avoid_spark_v1","""event"",""trial"",""time""
""blur"",""1"",""7998""
""focus"",""1"",""36517""
""fullscreenenter"",""1"",""38407""
","""event"",""trial"",""time""
""blur"",""1"",""7998""
","""event"",""trial"",""time""
""focus"",""1"",""36517""
","""event"",""trial"",""time""
""fullscreenenter"",""1"",""38407""
","
","","","","","","622.5","images/bush7.png","","","learning","3","3","1","1","bush","plants","2","0","","good","[6]"
"html-keyboard-response","144","704065","0.0-9.0-2.0-0.36","6279","2","22","Female","approach_avoid_spark_v1","""event"",""trial"",""time""
""blur"",""1"",""7998""
""focus"",""1"",""36517""
""fullscreenenter"",""1"",""38407""
","""event"",""trial"",""time""
""blur"",""1"",""7998""
","""event"",""trial"",""time""
""focus"",""1"",""36517""
","""event"",""trial"",""time""
""fullscreenenter"",""1"",""38407""
","
","","","","","","null","<div style=""font-size:60px;"">+</div>","null","","fixation","","","","","","","","","","",""
"aa-learning-trial","145","707069","0.0-9.0-2.0-1.36","6279","2","22","Female","approach_avoid_spark_v1","""event"",""trial"",""time""
""blur"",""1"",""7998""
""focus"",""1"",""36517""
""fullscreenenter"",""1"",""38407""
","""event"",""trial"",""time""
""blur"",""1"",""7998""
","""event"",""trial"",""time""
""focus"",""1"",""36517""
","""event"",""trial"",""time""
""fullscreenenter"",""1"",""38407""
","
","","","","","","816","images/bush5.png","","","learning","-4","-4","1","1","bush","plants","2","0","","good","[6]"
"html-keyboard-response","146","707571","0.0-9.0-2.0-0.37","6279","2","22","Female","approach_avoid_spark_v1","""event"",""trial"",""time""
""blur"",""1"",""7998""
""focus"",""1"",""36517""
""fullscreenenter"",""1"",""38407""
","""event"",""trial"",""time""
""blur"",""1"",""7998""
","""event"",""trial"",""time""
""focus"",""1"",""36517""
","""event"",""trial"",""time""
""fullscreenenter"",""1"",""38407""
","
","","","","","","null","<div style=""font-size:60px;"">+</div>","null","","fixation","","","","","","","","","","",""
"aa-learning-trial","147","710575","0.0-9.0-2.0-1.37","6279","2","22","Female","approach_avoid_spark_v1","""event"",""trial"",""time""
""blur"",""1"",""7998""
""focus"",""1"",""36517""
""fullscreenenter"",""1"",""38407""
","""event"",""trial"",""time""
""blur"",""1"",""7998""
","""event"",""trial"",""time""
""focus"",""1"",""36517""
","""event"",""trial"",""time""
""fullscreenenter"",""1"",""38407""
","
","","","","","","1289.6000000238419","images/flower6.png","","","learning","-5","0","0","0","flower","plants","2","0","","neutral","0"
"html-keyboard-response","148","711079","0.0-9.0-2.0-0.38","6279","2","22","Female","approach_avoid_spark_v1","""event"",""trial"",""time""
""blur"",""1"",""7998""
""focus"",""1"",""36517""
""fullscreenenter"",""1"",""38407""
","""event"",""trial"",""time""
""blur"",""1"",""7998""
","""event"",""trial"",""time""
""focus"",""1"",""36517""
","""event"",""trial"",""time""
""fullscreenenter"",""1"",""38407""
","
","","","","","","null","<div style=""font-size:60px;"">+</div>","null","","fixation","","","","","","","","","","",""
"aa-learning-trial","149","714090","0.0-9.0-2.0-1.38","6279","2","22","Female","approach_avoid_spark_v1","""event"",""trial"",""time""
""blur"",""1"",""7998""
""focus"",""1"",""36517""
""fullscreenenter"",""1"",""38407""
","""event"",""trial"",""time""
""blur"",""1"",""7998""
","""event"",""trial"",""time""
""focus"",""1"",""36517""
","""event"",""trial"",""time""
""fullscreenenter"",""1"",""38407""
","
","","","","","","1418.3999999761581","images/flower1.png","","","learning","1","1","1","1","flower","plants","2","0","","neutral","0"
"html-keyboard-response","150","714593","0.0-9.0-2.0-0.39","6279","2","22","Female","approach_avoid_spark_v1","""event"",""trial"",""time""
""blur"",""1"",""7998""
""focus"",""1"",""36517""
""fullscreenenter"",""1"",""38407""
","""event"",""trial"",""time""
""blur"",""1"",""7998""
","""event"",""trial"",""time""
""focus"",""1"",""36517""
","""event"",""trial"",""time""
""fullscreenenter"",""1"",""38407""
","
","","","","","","null","<div style=""font-size:60px;"">+</div>","null","","fixation","","","","","","","","","","",""
"aa-learning-trial","151","717597","0.0-9.0-2.0-1.39","6279","2","22","Female","approach_avoid_spark_v1","""event"",""trial"",""time""
""blur"",""1"",""7998""
""focus"",""1"",""36517""
""fullscreenenter"",""1"",""38407""
","""event"",""trial"",""time""
""blur"",""1"",""7998""
","""event"",""trial"",""time""
""focus"",""1"",""36517""
","""event"",""trial"",""time""
""fullscreenenter"",""1"",""38407""
","
","","","","","","832.2999999523163","images/cactus5.png","","","learning","-2","0","0","0","cactus","plants","2","0","","bad","[-3]"
"html-keyboard-response","152","718099","0.0-9.0-2.0-0.40","6279","2","22","Female","approach_avoid_spark_v1","""event"",""trial"",""time""
""blur"",""1"",""7998""
""focus"",""1"",""36517""
""fullscreenenter"",""1"",""38407""
","""event"",""trial"",""time""
""blur"",""1"",""7998""
","""event"",""trial"",""time""
""focus"",""1"",""36517""
","""event"",""trial"",""time""
""fullscreenenter"",""1"",""38407""
","
","","","","","","null","<div style=""font-size:60px;"">+</div>","null","","fixation","","","","","","","","","","",""
"aa-learning-trial","153","721103","0.0-9.0-2.0-1.40","6279","2","22","Female","approach_avoid_spark_v1","""event"",""trial"",""time""
""blur"",""1"",""7998""
""focus"",""1"",""36517""
""fullscreenenter"",""1"",""38407""
","""event"",""trial"",""time""
""blur"",""1"",""7998""
","""event"",""trial"",""time""
""focus"",""1"",""36517""
","""event"",""trial"",""time""
""fullscreenenter"",""1"",""38407""
","
","","","","","","728.5","images/flower6.png","","","learning","-5","0","0","0","flower","plants","2","0","","neutral","0"
"html-keyboard-response","154","721606","0.0-9.0-2.0-0.41","6279","2","22","Female","approach_avoid_spark_v1","""event"",""trial"",""time""
""blur"",""1"",""7998""
""focus"",""1"",""36517""
""fullscreenenter"",""1"",""38407""
","""event"",""trial"",""time""
""blur"",""1"",""7998""
","""event"",""trial"",""time""
""focus"",""1"",""36517""
","""event"",""trial"",""time""
""fullscreenenter"",""1"",""38407""
","
","","","","","","null","<div style=""font-size:60px;"">+</div>","null","","fixation","","","","","","","","","","",""
"aa-learning-trial","155","724611","0.0-9.0-2.0-1.41","6279","2","22","Female","approach_avoid_spark_v1","""event"",""trial"",""time""
""blur"",""1"",""7998""
""focus"",""1"",""36517""
""fullscreenenter"",""1"",""38407""
","""event"",""trial"",""time""
""blur"",""1"",""7998""
","""event"",""trial"",""time""
""focus"",""1"",""36517""
","""event"",""trial"",""time""
""fullscreenenter"",""1"",""38407""
","
","","","","","","1033.6000000238419","images/cactus4.png","","","learning","-3","-3","1","1","cactus","plants","2","0","","bad","[-3]"
"html-keyboard-response","156","725113","0.0-9.0-2.0-0.42","6279","2","22","Female","approach_avoid_spark_v1","""event"",""trial"",""time""
""blur"",""1"",""7998""
""focus"",""1"",""36517""
""fullscreenenter"",""1"",""38407""
","""event"",""trial"",""time""
""blur"",""1"",""7998""
","""event"",""trial"",""time""
""focus"",""1"",""36517""
","""event"",""trial"",""time""
""fullscreenenter"",""1"",""38407""
","
","","","","","","null","<div style=""font-size:60px;"">+</div>","null","","fixation","","","","","","","","","","",""
"aa-learning-trial","157","728124","0.0-9.0-2.0-1.42","6279","2","22","Female","approach_avoid_spark_v1","""event"",""trial"",""time""
""blur"",""1"",""7998""
""focus"",""1"",""36517""
""fullscreenenter"",""1"",""38407""
","""event"",""trial"",""time""
""blur"",""1"",""7998""
","""event"",""trial"",""time""
""focus"",""1"",""36517""
","""event"",""trial"",""time""
""fullscreenenter"",""1"",""38407""
","
","","","","","","750.5","images/cactus2.png","","","learning","-6","0","0","0","cactus","plants","2","0","","bad","[-3]"
"html-keyboard-response","158","728627","0.0-9.0-2.0-0.43","6279","2","22","Female","approach_avoid_spark_v1","""event"",""trial"",""time""
""blur"",""1"",""7998""
""focus"",""1"",""36517""
""fullscreenenter"",""1"",""38407""
","""event"",""trial"",""time""
""blur"",""1"",""7998""
","""event"",""trial"",""time""
""focus"",""1"",""36517""
","""event"",""trial"",""time""
""fullscreenenter"",""1"",""38407""
","
","","","","","","null","<div style=""font-size:60px;"">+</div>","null","","fixation","","","","","","","","","","",""
"aa-learning-trial","159","731634","0.0-9.0-2.0-1.43","6279","2","22","Female","approach_avoid_spark_v1","""event"",""trial"",""time""
""blur"",""1"",""7998""
""focus"",""1"",""36517""
""fullscreenenter"",""1"",""38407""
","""event"",""trial"",""time""
""blur"",""1"",""7998""
","""event"",""trial"",""time""
""focus"",""1"",""36517""
","""event"",""trial"",""time""
""fullscreenenter"",""1"",""38407""
","
","","","","","","823","images/flower1.png","","","learning","1","1","1","1","flower","plants","2","0","","neutral","0"
"html-keyboard-response","160","732137","0.0-9.0-2.0-0.44","6279","2","22","Female","approach_avoid_spark_v1","""event"",""trial"",""time""
""blur"",""1"",""7998""
""focus"",""1"",""36517""
""fullscreenenter"",""1"",""38407""
","""event"",""trial"",""time""
""blur"",""1"",""7998""
","""event"",""trial"",""time""
""focus"",""1"",""36517""
","""event"",""trial"",""time""
""fullscreenenter"",""1"",""38407""
","
","","","","","","null","<div style=""font-size:60px;"">+</div>","null","","fixation","","","","","","","","","","",""
"aa-learning-trial","161","735144","0.0-9.0-2.0-1.44","6279","2","22","Female","approach_avoid_spark_v1","""event"",""trial"",""time""
""blur"",""1"",""7998""
""focus"",""1"",""36517""
""fullscreenenter"",""1"",""38407""
","""event"",""trial"",""time""
""blur"",""1"",""7998""
","""event"",""trial"",""time""
""focus"",""1"",""36517""
","""event"",""trial"",""time""
""fullscreenenter"",""1"",""38407""
","
","","","","","","676.8999999761581","images/bush3.png","","","learning","-8","-8","1","1","bush","plants","2","0","","good","[6]"
"html-keyboard-response","162","735646","0.0-9.0-2.0-0.45","6279","2","22","Female","approach_avoid_spark_v1","""event"",""trial"",""time""
""blur"",""1"",""7998""
""focus"",""1"",""36517""
""fullscreenenter"",""1"",""38407""
","""event"",""trial"",""time""
""blur"",""1"",""7998""
","""event"",""trial"",""time""
""focus"",""1"",""36517""
","""event"",""trial"",""time""
""fullscreenenter"",""1"",""38407""
","
","","","","","","null","<div style=""font-size:60px;"">+</div>","null","","fixation","","","","","","","","","","",""
"aa-learning-trial","163","738650","0.0-9.0-2.0-1.45","6279","2","22","Female","approach_avoid_spark_v1","""event"",""trial"",""time""
""blur"",""1"",""7998""
""focus"",""1"",""36517""
""fullscreenenter"",""1"",""38407""
","""event"",""trial"",""time""
""blur"",""1"",""7998""
","""event"",""trial"",""time""
""focus"",""1"",""36517""
","""event"",""trial"",""time""
""fullscreenenter"",""1"",""38407""
","
","","","","","","1312.1999999284744","images/flower3.png","","","learning","8","8","1","1","flower","plants","2","0","","neutral","0"
"html-keyboard-response","164","739152","0.0-9.0-2.0-0.46","6279","2","22","Female","approach_avoid_spark_v1","""event"",""trial"",""time""
""blur"",""1"",""7998""
""focus"",""1"",""36517""
""fullscreenenter"",""1"",""38407""
","""event"",""trial"",""time""
""blur"",""1"",""7998""
","""event"",""trial"",""time""
""focus"",""1"",""36517""
","""event"",""trial"",""time""
""fullscreenenter"",""1"",""38407""
","
","","","","","","null","<div style=""font-size:60px;"">+</div>","null","","fixation","","","","","","","","","","",""
"aa-learning-trial","165","742157","0.0-9.0-2.0-1.46","6279","2","22","Female","approach_avoid_spark_v1","""event"",""trial"",""time""
""blur"",""1"",""7998""
""focus"",""1"",""36517""
""fullscreenenter"",""1"",""38407""
","""event"",""trial"",""time""
""blur"",""1"",""7998""
","""event"",""trial"",""time""
""focus"",""1"",""36517""
","""event"",""trial"",""time""
""fullscreenenter"",""1"",""38407""
","
","","","","","","933.3999999761581","images/flower6.png","","","learning","-5","0","0","0","flower","plants","2","0","","neutral","0"
"html-keyboard-response","166","742660","0.0-9.0-2.0-0.47","6279","2","22","Female","approach_avoid_spark_v1","""event"",""trial"",""time""
""blur"",""1"",""7998""
""focus"",""1"",""36517""
""fullscreenenter"",""1"",""38407""
","""event"",""trial"",""time""
""blur"",""1"",""7998""
","""event"",""trial"",""time""
""focus"",""1"",""36517""
","""event"",""trial"",""time""
""fullscreenenter"",""1"",""38407""
","
","","","","","","null","<div style=""font-size:60px;"">+</div>","null","","fixation","","","","","","","","","","",""
"aa-learning-trial","167","745664","0.0-9.0-2.0-1.47","6279","2","22","Female","approach_avoid_spark_v1","""event"",""trial"",""time""
""blur"",""1"",""7998""
""focus"",""1"",""36517""
""fullscreenenter"",""1"",""38407""
","""event"",""trial"",""time""
""blur"",""1"",""7998""
","""event"",""trial"",""time""
""focus"",""1"",""36517""
","""event"",""trial"",""time""
""fullscreenenter"",""1"",""38407""
","
","","","","","","656.1000000238419","images/bush7.png","","","learning","3","3","1","1","bush","plants","2","0","","good","[6]"
"html-keyboard-response","168","746167","0.0-9.0-2.0-0.48","6279","2","22","Female","approach_avoid_spark_v1","""event"",""trial"",""time""
""blur"",""1"",""7998""
""focus"",""1"",""36517""
""fullscreenenter"",""1"",""38407""
","""event"",""trial"",""time""
""blur"",""1"",""7998""
","""event"",""trial"",""time""
""focus"",""1"",""36517""
","""event"",""trial"",""time""
""fullscreenenter"",""1"",""38407""
","
","","","","","","null","<div style=""font-size:60px;"">+</div>","null","","fixation","","","","","","","","","","",""
"aa-learning-trial","169","749173","0.0-9.0-2.0-1.48","6279","2","22","Female","approach_avoid_spark_v1","""event"",""trial"",""time""
""blur"",""1"",""7998""
""focus"",""1"",""36517""
""fullscreenenter"",""1"",""38407""
","""event"",""trial"",""time""
""blur"",""1"",""7998""
","""event"",""trial"",""time""
""focus"",""1"",""36517""
","""event"",""trial"",""time""
""fullscreenenter"",""1"",""38407""
","
","","","","","","709.5999999046326","images/bush3.png","","","learning","-8","0","0","0","bush","plants","2","0","","good","[6]"
"html-keyboard-response","170","749677","0.0-9.0-2.0-0.49","6279","2","22","Female","approach_avoid_spark_v1","""event"",""trial"",""time""
""blur"",""1"",""7998""
""focus"",""1"",""36517""
""fullscreenenter"",""1"",""38407""
","""event"",""trial"",""time""
""blur"",""1"",""7998""
","""event"",""trial"",""time""
