"trial_type","trial_index","time_elapsed","internal_node_id","subject_id","task_condition","age","gender","task_version","interactions","blur_events","focus_events","fullscreenenter_events","fullscreenexit_events","success","timeout","failed_images","failed_audio","failed_video","rt","stimulus","response","button_pressed","task_part","approach_reward","points","key_press","option_selected","stim_cat","task_block","block_condition","block_number","correct","cat_type","mean_cat_reward"
"pavlovia","0","4","0.0-0.0","6490","2","24","Male","approach_avoid_spark_v1","""event"",""trial"",""time""
""fullscreenenter"",""1"",""2303""
","
","
","""event"",""trial"",""time""
""fullscreenenter"",""1"",""2303""
","
","","","","","","","","","","","","","","","","","","","","",""
"fullscreen","1","3278","0.0-1.0","6490","2","24","Male","approach_avoid_spark_v1","""event"",""trial"",""time""
""fullscreenenter"",""1"",""2303""
","
","
","""event"",""trial"",""time""
""fullscreenenter"",""1"",""2303""
","
","true","","","","","","","","","","","","","","","","","","","",""
"preload","2","16726","0.0-2.0","6490","2","24","Male","approach_avoid_spark_v1","""event"",""trial"",""time""
""fullscreenenter"",""1"",""2303""
","
","
","""event"",""trial"",""time""
""fullscreenenter"",""1"",""2303""
","
","true","false","[]","[]","[]","","","","","","","","","","","","","","","",""
"audio-keyboard-response","3","20032","0.0-3.0","6490","2","24","Male","approach_avoid_spark_v1","""event"",""trial"",""time""
""fullscreenenter"",""1"",""2303""
","
","
","""event"",""trial"",""time""
""fullscreenenter"",""1"",""2303""
","
","","","","","","3309.333333333335","audio/beep_loop.wav","audiovolumedown","","","","","","","","","","","","",""
"audio-button-response","4","22377","0.0-4.0","6490","2","24","Male","approach_avoid_spark_v1","""event"",""trial"",""time""
""fullscreenenter"",""1"",""2303""
","
","
","""event"",""trial"",""time""
""fullscreenenter"",""1"",""2303""
","
","","","","","","2341","audio/shark.wav","4","","","","","","","","","","","","",""
"audio-button-response","5","24530","0.0-5.0","6490","2","24","Male","approach_avoid_spark_v1","""event"",""trial"",""time""
""fullscreenenter"",""1"",""2303""
","
","
","""event"",""trial"",""time""
""fullscreenenter"",""1"",""2303""
","
","","","","","","1160","audio/turtle.wav","1","","","","","","","","","","","","",""
"preload","6","29607","0.0-6.0","6490","2","24","Male","approach_avoid_spark_v1","""event"",""trial"",""time""
""fullscreenenter"",""1"",""2303""
","
","
","""event"",""trial"",""time""
""fullscreenenter"",""1"",""2303""
","
","true","false","[]","[]","[]","","","","","","","","","","","","","","","",""
"html-keyboard-response","7","32297","0.0-7.0","6490","2","24","Male","approach_avoid_spark_v1","""event"",""trial"",""time""
""fullscreenenter"",""1"",""2303""
","
","
","""event"",""trial"",""time""
""fullscreenenter"",""1"",""2303""
","
","","","","","","2688.5999999046326","Welcome to the experiment. Press any key to begin and to advance the instructions.","arrowup","","","","","","","","","","","","",""
"learning-instructions","8","41002","0.0-8.0-0.0-0.0","6490","2","24","Male","approach_avoid_spark_v1","""event"",""trial"",""time""
""fullscreenenter"",""1"",""2303""
","
","
","""event"",""trial"",""time""
""fullscreenenter"",""1"",""2303""
","
","","","","","","1751.6000001430511","<p> Welcome! Today you are going to play 6 different rounds of a decision-making game. </p><p> Use the mouse to click next to continue. </p>","","0","instructions","","","","","","","","","","",""
"learning-instructions","9","44672","0.0-8.0-0.0-0.1","6490","2","24","Male","approach_avoid_spark_v1","""event"",""trial"",""time""
""fullscreenenter"",""1"",""2303""
","
","
","""event"",""trial"",""time""
""fullscreenenter"",""1"",""2303""
","
","","","","","","943.7000000476837","<p> You will start with a practice round to learn the rules. </p>","","0","instructions","","","","","","","","","","",""
"learning-instructions","10","48944","0.0-8.0-0.0-0.2","6490","2","24","Male","approach_avoid_spark_v1","""event"",""trial"",""time""
""fullscreenenter"",""1"",""2303""
","
","
","""event"",""trial"",""time""
""fullscreenenter"",""1"",""2303""
","
","","","","","","814","<p> Your goal in this round is to give out sports equipment to kids. </p></div>","","0","instructions","","","","","","","","","","",""
"learning-instructions","11","56944","0.0-8.0-0.0-0.3","6490","2","24","Male","approach_avoid_spark_v1","""event"",""trial"",""time""
""fullscreenenter"",""1"",""2303""
","
","
","""event"",""trial"",""time""
""fullscreenenter"",""1"",""2303""
","
","","","","","","444.90000009536743","<p> The kids only like some of the equipment.  </p><p> On each turn, you will see a piece of sports equipment.   </p><p> You need to decide whether to give it to the kids or not.  </p>","","0","instructions","","","","","","","","","","",""
"learning-instructions","12","62646","0.0-8.0-0.0-0.4","6490","2","24","Male","approach_avoid_spark_v1","""event"",""trial"",""time""
""fullscreenenter"",""1"",""2303""
","
","
","""event"",""trial"",""time""
""fullscreenenter"",""1"",""2303""
","
","","","","","","953.2999999523163","<p> You can give them the equipment by pressing 1 and choose not to give it to them by pressing 0. </p><br><div class=""choice-instructions-grid""> <div class=""choice-option""><img src=""images/approach.png"" class=""choice-option-img"" stage=""instructions"" position=""0"" ><div class=""choice-option-text""> Press ""1."" </div></div><div class=""choice-option""><img src=""images/avoid.png"" class=""choice-option-img"" stage=""instructions"" position=""1"" ><div class=""choice-option-text""> Press ""0."" </div></div>","","0","instructions","","","","","","","","","","",""
"learning-instructions","13","70601","0.0-8.0-0.0-0.5","6490","2","24","Male","approach_avoid_spark_v1","""event"",""trial"",""time""
""fullscreenenter"",""1"",""2303""
","
","
","""event"",""trial"",""time""
""fullscreenenter"",""1"",""2303""
","
","","","","","","581.5","<p> If you give them a piece of equipment they like, they will be happy! </p><p> But if you give them a piece of equipment they do not like, they will be sad. </p>","","0","instructions","","","","","","","","","","",""
"learning-instructions","14","81770","0.0-8.0-0.0-0.6","6490","2","24","Male","approach_avoid_spark_v1","""event"",""trial"",""time""
""fullscreenenter"",""1"",""2303""
","
","
","""event"",""trial"",""time""
""fullscreenenter"",""1"",""2303""
","
","","","","","","649.6999998092651","<p> You will earn points based on how you make kids feel. </p><p> If you make them happy, you will WIN anywhere from 1 - 9 points, </p><p> but if you make them sad, you will LOSE anywhere from 1 - 9 points. </p>","","0","instructions","","","","","","","","","","",""
"learning-instructions","15","91801","0.0-8.0-0.0-0.7","6490","2","24","Male","approach_avoid_spark_v1","""event"",""trial"",""time""
""fullscreenenter"",""1"",""2303""
","
","
","""event"",""trial"",""time""
""fullscreenenter"",""1"",""2303""
","
","","","","","","479.59999990463257","<p> You will see how many points you won or lost in the center of the screen. </p><p> Here is what you would see if you won 6 points: </p><p style=""color:green;font-size:50px;font-weight:bolder"">6</p><p style=""color:green"">The text is GREEN because you WON points.</p>","","0","instructions","","","","","","","","","","",""
"learning-instructions","16","97796","0.0-8.0-0.0-0.8","6490","2","24","Male","approach_avoid_spark_v1","""event"",""trial"",""time""
""fullscreenenter"",""1"",""2303""
","
","
","""event"",""trial"",""time""
""fullscreenenter"",""1"",""2303""
","
","","","","","","495.2000000476837","<p> And here is what you would see if you lost 4 points: </p><p style=""color:red;font-size:50px;font-weight:bolder"">-4</p><p style=""color:red"">The text is RED because you LOST points. </p>","","0","instructions","","","","","","","","","","",""
"learning-instructions","17","114793","0.0-8.0-0.0-0.9","6490","2","24","Male","approach_avoid_spark_v1","""event"",""trial"",""time""
""fullscreenenter"",""1"",""2303""
","
","
","""event"",""trial"",""time""
""fullscreenenter"",""1"",""2303""
","
","","","","","","2293.2000000476837","<p> Some of the equipment will make the kids VERY happy or sad. </p><p> These pieces of equipment will make you win or lose LOTS of points. </p><p> Other pieces of equipment will only make the kids a little happy or sad. </p><p> These pieces of equipment will make you win or lose small amounts of points. </p>","","0","instructions","","","","","","","","","","",""
"learning-instructions","18","126067","0.0-8.0-0.0-0.10","6490","2","24","Male","approach_avoid_spark_v1","""event"",""trial"",""time""
""fullscreenenter"",""1"",""2303""
","
","
","""event"",""trial"",""time""
""fullscreenenter"",""1"",""2303""
","
","","","","","","654.6000001430511","<p> If you choose not to give them the equipment, you will not win or lose any points. </p><p>  However, in the center of the screen, you will see the number of points you WOULD HAVE won or lost if you had given them the equipment. </p>","","0","instructions","","","","","","","","","","",""
"learning-instructions","19","148051","0.0-8.0-0.0-0.11","6490","2","24","Male","approach_avoid_spark_v1","""event"",""trial"",""time""
""fullscreenenter"",""1"",""2303""
","
","
","""event"",""trial"",""time""
""fullscreenenter"",""1"",""2303""
","
","","","","","","449.2000000476837","<p> Here is what you might see if you did not give the equipment to the kids but it would have made them happy: </p><p style=""color:grey; font-size:50px; display: inline-block; border-spacing: 15px; border-width:3px; border-style:solid; border-color:red"">  &nbsp; 7 &nbsp; </p><p> Remember, in this case, you would not win or lose ANY points because you did not give them the equipment.  </p><p style=""color:grey"">The text is GREY because you earned ZERO points. </p><p style=""color:red"">However, choosing to give the kids the equipment would have made you win points. The box around the text is RED because you chose the worse option. </p>","","0","instructions","","","","","","","","","","",""
"learning-instructions","20","169827","0.0-8.0-0.0-0.12","6490","2","24","Male","approach_avoid_spark_v1","""event"",""trial"",""time""
""fullscreenenter"",""1"",""2303""
","
","
","""event"",""trial"",""time""
""fullscreenenter"",""1"",""2303""
","
","","","","","","705.7999999523163","<p> Here is what you might see if you did not give the equipment to the kids but it would have made them sad: </p><p style=""color:grey;font-size:50px; display: inline-block; border-spacing: 15px; border-width:3px; border-style:solid; border-color:green"">  &nbsp; -8 &nbsp; </p><p> Remember, in this case, you would not win or lose ANY points because you did not give them the equipment.  </p><p style=""color:grey"">The text is GREY because you earned ZERO points. </p><p  style=""color:green""> Choosing to give the kids the equipment would have made you lose points. The box around the text is GREEN because you chose the better option.</p>","","0","instructions","","","","","","","","","","",""
"learning-instructions","21","180554","0.0-8.0-0.0-0.13","6490","2","24","Male","approach_avoid_spark_v1","""event"",""trial"",""time""
""fullscreenenter"",""1"",""2303""
","
","
","""event"",""trial"",""time""
""fullscreenenter"",""1"",""2303""
","
","","","","","","1502.5999999046326","<p> You will have 3 seconds to make each choice. Try to respond before time runs out! </p><p> You will lose 5 points each time you do not make a response. </p>","","0","instructions","","","","","","","","","","",""
"learning-instructions","22","186371","0.0-8.0-0.0-0.14","6490","2","24","Male","approach_avoid_spark_v1","""event"",""trial"",""time""
""fullscreenenter"",""1"",""2303""
","
","
","""event"",""trial"",""time""
""fullscreenenter"",""1"",""2303""
","
","","","","","","408.60000014305115","<p> This is just a practice round, but in the real game, your bonus payment will depend on your total number of points.","","0","instructions","","","","","","","","","","",""
"learning-instructions","23","192587","0.0-8.0-0.0-0.15","6490","2","24","Male","approach_avoid_spark_v1","""event"",""trial"",""time""
""fullscreenenter"",""1"",""2303""
","
","
","""event"",""trial"",""time""
""fullscreenenter"",""1"",""2303""
","
","","","","","","454","<p> Remember, you can give them the equipment by pressing 1 and choose not to give it to them by pressing 0. </p><br><div class=""choice-instructions-grid""> <div class=""choice-option""><img src=""images/approach.png"" class=""choice-option-img"" stage=""instructions"" position=""0"" ><div class=""choice-option-text""> Press ""1."" </div></div><div class=""choice-option""><img src=""images/avoid.png"" class=""choice-option-img"" stage=""instructions"" position=""1"" ><div class=""choice-option-text""> Press ""0."" </div></div>","","0","instructions","","","","","","","","","","",""
"html-button-response","24","193756","0.0-8.0-1.0","6490","2","24","Male","approach_avoid_spark_v1","""event"",""trial"",""time""
""fullscreenenter"",""1"",""2303""
","
","
","""event"",""trial"",""time""
""fullscreenenter"",""1"",""2303""
","
","","","","","","1067.4000000953674","<p> Ready to practice? </p>","0","","","","","","","","","","","","",""
"html-keyboard-response","25","194365","0.0-8.0-2.0-0.0","6490","2","24","Male","approach_avoid_spark_v1","""event"",""trial"",""time""
""fullscreenenter"",""1"",""2303""
","
","
","""event"",""trial"",""time""
""fullscreenenter"",""1"",""2303""
","
","","","","","","null","<div style=""font-size:60px;"">+</div>","null","","fixation","","","","","","","","","","",""
"aa-learning-trial","26","197369","0.0-8.0-2.0-1.0","6490","2","24","Male","approach_avoid_spark_v1","""event"",""trial"",""time""
""fullscreenenter"",""1"",""2303""
","
","
","""event"",""trial"",""time""
""fullscreenenter"",""1"",""2303""
","
","","","","","","2204","images/racket1.png","","","learning","9","9","1","1","practice","practice","practice","-1","","",""
"html-keyboard-response","27","197871","0.0-8.0-2.0-0.1","6490","2","24","Male","approach_avoid_spark_v1","""event"",""trial"",""time""
""fullscreenenter"",""1"",""2303""
","
","
","""event"",""trial"",""time""
""fullscreenenter"",""1"",""2303""
","
","","","","","","null","<div style=""font-size:60px;"">+</div>","null","","fixation","","","","","","","","","","",""
"aa-learning-trial","28","200887","0.0-8.0-2.0-1.1","6490","2","24","Male","approach_avoid_spark_v1","""event"",""trial"",""time""
""fullscreenenter"",""1"",""2303""
","
","
","""event"",""trial"",""time""
""fullscreenenter"",""1"",""2303""
","
","","","","","","1770.1000001430511","images/ball2.png","","","learning","3","3","1","1","practice","practice","practice","-1","","",""
"html-keyboard-response","29","201389","0.0-8.0-2.0-0.2","6490","2","24","Male","approach_avoid_spark_v1","""event"",""trial"",""time""
""fullscreenenter"",""1"",""2303""
","
","
","""event"",""trial"",""time""
""fullscreenenter"",""1"",""2303""
","
","","","","","","null","<div style=""font-size:60px;"">+</div>","null","","fixation","","","","","","","","","","",""
"aa-learning-trial","30","204390","0.0-8.0-2.0-1.2","6490","2","24","Male","approach_avoid_spark_v1","""event"",""trial"",""time""
""fullscreenenter"",""1"",""2303""
","
","
","""event"",""trial"",""time""
""fullscreenenter"",""1"",""2303""
","
","","","","","","1437.1000001430511","images/racket2.png","","","learning","1","1","1","1","practice","practice","practice","-1","","",""
"html-keyboard-response","31","204901","0.0-8.0-2.0-0.3","6490","2","24","Male","approach_avoid_spark_v1","""event"",""trial"",""time""
""fullscreenenter"",""1"",""2303""
","
","
","""event"",""trial"",""time""
""fullscreenenter"",""1"",""2303""
","
","","","","","","null","<div style=""font-size:60px;"">+</div>","null","","fixation","","","","","","","","","","",""
"aa-learning-trial","32","207910","0.0-8.0-2.0-1.3","6490","2","24","Male","approach_avoid_spark_v1","""event"",""trial"",""time""
""fullscreenenter"",""1"",""2303""
","
","
","""event"",""trial"",""time""
""fullscreenenter"",""1"",""2303""
","
","","","","","","645.7000000476837","images/racket2.png","","","learning","-7","-7","1","1","practice","practice","practice","-1","","",""
"html-keyboard-response","33","208423","0.0-8.0-2.0-0.4","6490","2","24","Male","approach_avoid_spark_v1","""event"",""trial"",""time""
""fullscreenenter"",""1"",""2303""
","
","
","""event"",""trial"",""time""
""fullscreenenter"",""1"",""2303""
","
","","","","","","null","<div style=""font-size:60px;"">+</div>","null","","fixation","","","","","","","","","","",""
"aa-learning-trial","34","211426","0.0-8.0-2.0-1.4","6490","2","24","Male","approach_avoid_spark_v1","""event"",""trial"",""time""
""fullscreenenter"",""1"",""2303""
","
","
","""event"",""trial"",""time""
""fullscreenenter"",""1"",""2303""
","
","","","","","","914.7999999523163","images/racket1.png","","","learning","2","2","1","1","practice","practice","practice","-1","","",""
"html-keyboard-response","35","211940","0.0-8.0-2.0-0.5","6490","2","24","Male","approach_avoid_spark_v1","""event"",""trial"",""time""
""fullscreenenter"",""1"",""2303""
","
","
","""event"",""trial"",""time""
""fullscreenenter"",""1"",""2303""
","
","","","","","","null","<div style=""font-size:60px;"">+</div>","null","","fixation","","","","","","","","","","",""
"aa-learning-trial","36","214951","0.0-8.0-2.0-1.5","6490","2","24","Male","approach_avoid_spark_v1","""event"",""trial"",""time""
""fullscreenenter"",""1"",""2303""
","
","
","""event"",""trial"",""time""
""fullscreenenter"",""1"",""2303""
","
","","","","","","661.0999999046326","images/racket3.png","","","learning","7","0","0","0","practice","practice","practice","-1","","",""
"html-keyboard-response","37","215462","0.0-8.0-2.0-0.6","6490","2","24","Male","approach_avoid_spark_v1","""event"",""trial"",""time""
""fullscreenenter"",""1"",""2303""
","
","
","""event"",""trial"",""time""
""fullscreenenter"",""1"",""2303""
","
","","","","","","null","<div style=""font-size:60px;"">+</div>","null","","fixation","","","","","","","","","","",""
"aa-learning-trial","38","218467","0.0-8.0-2.0-1.6","6490","2","24","Male","approach_avoid_spark_v1","""event"",""trial"",""time""
""fullscreenenter"",""1"",""2303""
","
","
","""event"",""trial"",""time""
""fullscreenenter"",""1"",""2303""
","
","","","","","","868.1999998092651","images/ball4.png","","","learning","-8","0","0","0","practice","practice","practice","-1","","",""
"html-keyboard-response","39","218981","0.0-8.0-2.0-0.7","6490","2","24","Male","approach_avoid_spark_v1","""event"",""trial"",""time""
""fullscreenenter"",""1"",""2303""
","
","
","""event"",""trial"",""time""
""fullscreenenter"",""1"",""2303""
","
","","","","","","null","<div style=""font-size:60px;"">+</div>","null","","fixation","","","","","","","","","","",""
"aa-learning-trial","40","221990","0.0-8.0-2.0-1.7","6490","2","24","Male","approach_avoid_spark_v1","""event"",""trial"",""time""
""fullscreenenter"",""1"",""2303""
","
","
","""event"",""trial"",""time""
""fullscreenenter"",""1"",""2303""
","
","","","","","","453","images/racket4.png","","","learning","9","9","1","1","practice","practice","practice","-1","","",""
"html-keyboard-response","41","222491","0.0-8.0-2.0-0.8","6490","2","24","Male","approach_avoid_spark_v1","""event"",""trial"",""time""
""fullscreenenter"",""1"",""2303""
","
","
","""event"",""trial"",""time""
""fullscreenenter"",""1"",""2303""
","
","","","","","","null","<div style=""font-size:60px;"">+</div>","null","","fixation","","","","","","","","","","",""
"aa-learning-trial","42","225493","0.0-8.0-2.0-1.8","6490","2","24","Male","approach_avoid_spark_v1","""event"",""trial"",""time""
""fullscreenenter"",""1"",""2303""
","
","
","""event"",""trial"",""time""
""fullscreenenter"",""1"",""2303""
","
","","","","","","1103.0999999046326","images/ball4.png","","","learning","8","8","1","1","practice","practice","practice","-1","","",""
"html-keyboard-response","43","225994","0.0-8.0-2.0-0.9","6490","2","24","Male","approach_avoid_spark_v1","""event"",""trial"",""time""
""fullscreenenter"",""1"",""2303""
","
","
","""event"",""trial"",""time""
""fullscreenenter"",""1"",""2303""
","
","","","","","","null","<div style=""font-size:60px;"">+</div>","null","","fixation","","","","","","","","","","",""
"aa-learning-trial","44","229006","0.0-8.0-2.0-1.9","6490","2","24","Male","approach_avoid_spark_v1","""event"",""trial"",""time""
""fullscreenenter"",""1"",""2303""
","
","
","""event"",""trial"",""time""
""fullscreenenter"",""1"",""2303""
","
","","","","","","224","images/ball3.png","","","learning","8","8","1","1","practice","practice","practice","-1","","",""
"html-keyboard-response","45","229508","0.0-8.0-2.0-0.10","6490","2","24","Male","approach_avoid_spark_v1","""event"",""trial"",""time""
""fullscreenenter"",""1"",""2303""
","
","
","""event"",""trial"",""time""
""fullscreenenter"",""1"",""2303""
","
","","","","","","null","<div style=""font-size:60px;"">+</div>","null","","fixation","","","","","","","","","","",""
"aa-learning-trial","46","232510","0.0-8.0-2.0-1.10","6490","2","24","Male","approach_avoid_spark_v1","""event"",""trial"",""time""
""fullscreenenter"",""1"",""2303""
","
","
","""event"",""trial"",""time""
""fullscreenenter"",""1"",""2303""
","
","","","","","","249.09999990463257","images/ball3.png","","","learning","-6","-6","1","1","practice","practice","practice","-1","","",""
"html-keyboard-response","47","233012","0.0-8.0-2.0-0.11","6490","2","24","Male","approach_avoid_spark_v1","""event"",""trial"",""time""
""fullscreenenter"",""1"",""2303""
","
","
","""event"",""trial"",""time""
""fullscreenenter"",""1"",""2303""
","
","","","","","","null","<div style=""font-size:60px;"">+</div>","null","","fixation","","","","","","","","","","",""
"aa-learning-trial","48","236020","0.0-8.0-2.0-1.11","6490","2","24","Male","approach_avoid_spark_v1","""event"",""trial"",""time""
""fullscreenenter"",""1"",""2303""
","
","
","""event"",""trial"",""time""
""fullscreenenter"",""1"",""2303""
","
","","","","","","303.2999999523163","images/ball3.png","","","learning","2","0","0","0","practice","practice","practice","-1","","",""
"html-button-response","49","238060","0.0-8.0-3.0","6490","2","24","Male","approach_avoid_spark_v1","""event"",""trial"",""time""
""fullscreenenter"",""1"",""2303""
","
","
","""event"",""trial"",""time""
""fullscreenenter"",""1"",""2303""
","
","","","","","","2038.5999999046326","<p> You earned 27 points in the practice round! </p>","0","","break","","","","","","","","","","",""
"learning-instructions","50","245308","0.0-8.0-4.0-0.0","6490","2","24","Male","approach_avoid_spark_v1","""event"",""trial"",""time""
""fullscreenenter"",""1"",""2303""
","
","
","""event"",""trial"",""time""
""fullscreenenter"",""1"",""2303""
","
","","","","","","1195.5999999046326","<p> It's almost time to start the real game. </p><p> Before you start, we're going to ask you a few questions about how the game works. </p>","","0","instructions","","","","","","","","","","",""
"preload","51","252499","0.0-8.0-5.0","6490","2","24","Male","approach_avoid_spark_v1","""event"",""trial"",""time""
""fullscreenenter"",""1"",""2303""
","
","
","""event"",""trial"",""time""
""fullscreenenter"",""1"",""2303""
","
","true","false","[]","[]","[]","","","","","","","","","","","","","","","",""
"comp-q","52","258243","0.0-8.0-6.0-0.0","6490","2","24","Male","approach_avoid_spark_v1","""event"",""trial"",""time""
""fullscreenenter"",""1"",""2303""
","
","
","""event"",""trial"",""time""
""fullscreenenter"",""1"",""2303""
","
","","","","","","750.5","<p> <b> True or False? </b> </p><p> If you see a number in GREY, that means you earned that many points. </p>","","1","comp_question","","","","","","","","","true","",""
"comp-q","53","267478","0.0-8.0-6.0-1.0","6490","2","24","Male","approach_avoid_spark_v1","""event"",""trial"",""time""
""fullscreenenter"",""1"",""2303""
","
","
","""event"",""trial"",""time""
""fullscreenenter"",""1"",""2303""
","
","","","","","","875.2000000476837","<p><b> That's right! </b> If you see a grey number, it means you earned ZERO points. <br> The grey numbers show the points you WOULD HAVE earned if you had made the other choice. </p>","","0","comp_answer","","","","","","","","","","",""
"comp-q","54","272998","0.0-8.0-7.0-0.0","6490","2","24","Male","approach_avoid_spark_v1","""event"",""trial"",""time""
""fullscreenenter"",""1"",""2303""
","
","
","""event"",""trial"",""time""
""fullscreenenter"",""1"",""2303""
","
","","","","","","814.5","<p> <b> True or False? </b> </p><p> You will have as much time as you want to make each choice. </p>","","1","comp_question","","","","","","","","","true","",""
"comp-q","55","278516","0.0-8.0-7.0-1.0","6490","2","24","Male","approach_avoid_spark_v1","""event"",""trial"",""time""
""fullscreenenter"",""1"",""2303""
","
","
","""event"",""trial"",""time""
""fullscreenenter"",""1"",""2303""
","
","","","","","","1473.5","<p> <b> That's right! </b> You will only have 3 seconds to make each choice. </p>","","0","comp_answer","","","","","","","","","","",""
"comp-q","56","284139","0.0-8.0-8.0-0.0","6490","2","24","Male","approach_avoid_spark_v1","""event"",""trial"",""time""
""fullscreenenter"",""1"",""2303""
","
","
","""event"",""trial"",""time""
""fullscreenenter"",""1"",""2303""
","
","","","","","","966.8000001907349","<p> <b> True or False? </b> </p><p> You should use the '1' and '0' keys to make your choices. </p>","","0","comp_question","","","","","","","","","true","",""
"comp-q","57","289339","0.0-8.0-8.0-1.0","6490","2","24","Male","approach_avoid_spark_v1","""event"",""trial"",""time""
""fullscreenenter"",""1"",""2303""
","
","
","""event"",""trial"",""time""
""fullscreenenter"",""1"",""2303""
","
","","","","","","585.7999999523163","<p> <b> That's right! </b> You should use the '1' and '0' keys to make each choice. </p>","","0","comp_answer","","","","","","","","","","",""
"learning-instructions","58","296396","0.0-8.0-9.0-0.0","6490","2","24","Male","approach_avoid_spark_v1","""event"",""trial"",""time""
""fullscreenenter"",""1"",""2303""
","
","
","""event"",""trial"",""time""
""fullscreenenter"",""1"",""2303""
","
","","","","","","793.5","<p> It's now time to start the real game. </p>Do your best, because the points you earn in the next rounds will influence your bonus payment. </p>","","0","instructions","","","","","","","","","","",""
"preload","59","296529","0.0-9.0-0.0","6490","2","24","Male","approach_avoid_spark_v1","""event"",""trial"",""time""
""fullscreenenter"",""1"",""2303""
","
","
","""event"",""trial"",""time""
""fullscreenenter"",""1"",""2303""
","
","true","false","[]","[]","[]","","","","","","","","","","","","","","","",""
"learning-instructions","60","302531","0.0-9.0-1.0-0.0","6490","2","24","Male","approach_avoid_spark_v1","""event"",""trial"",""time""
""fullscreenenter"",""1"",""2303""
","
","
","""event"",""trial"",""time""
""fullscreenenter"",""1"",""2303""
","
","","","","","","988.7999999523163","<p> Your goal in this round is to sell different plants to a picky customer. </p></div>","","0","instructions","","","","","","","","","","",""
"learning-instructions","61","312872","0.0-9.0-1.0-0.1","6490","2","24","Male","approach_avoid_spark_v1","""event"",""trial"",""time""
""fullscreenenter"",""1"",""2303""
","
","
","""event"",""trial"",""time""
""fullscreenenter"",""1"",""2303""
","
","","","","","","938.0999999046326","<p> The customer likes some plants and dislikes others.  </p><p> On each turn, you will see a plant.   </p><p> You need to decide whether to offer it to the customer or not.  </p>","","0","instructions","","","","","","","","","","",""
"learning-instructions","62","319172","0.0-9.0-1.0-0.2","6490","2","24","Male","approach_avoid_spark_v1","""event"",""trial"",""time""
""fullscreenenter"",""1"",""2303""
","
","
","""event"",""trial"",""time""
""fullscreenenter"",""1"",""2303""
","
","","","","","","708.5999999046326","<p> You can offer the plant by pressing 1 and decide to not offer it by pressing 0. </p><br><div class=""choice-instructions-grid""> <div class=""choice-option""><img src=""images/approach.png"" class=""choice-option-img"" stage=""instructions"" position=""0"" ><div class=""choice-option-text""> Press ""1."" </div></div><div class=""choice-option""><img src=""images/avoid.png"" class=""choice-option-img"" stage=""instructions"" position=""1"" ><div class=""choice-option-text""> Press ""0."" </div></div>","","0","instructions","","","","","","","","","","",""
"learning-instructions","63","328956","0.0-9.0-1.0-0.3","6490","2","24","Male","approach_avoid_spark_v1","""event"",""trial"",""time""
""fullscreenenter"",""1"",""2303""
","
","
","""event"",""trial"",""time""
""fullscreenenter"",""1"",""2303""
","
","","","","","","832.5999999046326","<p> If you offer a plant to the customer that she likes, she will be very pleased! </p><p> But if you offer a plant that she does NOT like, she will be annoyed. </p>","","0","instructions","","","","","","","","","","",""
"learning-instructions","64","342597","0.0-9.0-1.0-0.4","6490","2","24","Male","approach_avoid_spark_v1","""event"",""trial"",""time""
""fullscreenenter"",""1"",""2303""
","
","
","""event"",""trial"",""time""
""fullscreenenter"",""1"",""2303""
","
","","","","","","1002.2000000476837","<p> You will earn points based on how you made the customer feel. </p><p> If you made her pleased, you will WIN anywhere from 1 - 9 points, </p><p> but if you made her annoyed, you will LOSE anywhere from 1 - 9 points. </p>","","0","instructions","","","","","","","","","","",""
"learning-instructions","65","350836","0.0-9.0-1.0-0.5","6490","2","24","Male","approach_avoid_spark_v1","""event"",""trial"",""time""
""fullscreenenter"",""1"",""2303""
","
","
","""event"",""trial"",""time""
""fullscreenenter"",""1"",""2303""
","
","","","","","","792.9000000953674","<p> You will see how many points you won or lost in the center of the screen. </p><p> Here is what you would see if you won 5 points: </p><p style=""color:green;font-size:50px;font-weight:bolder"">5</p>","","0","instructions","","","","","","","","","","",""
"learning-instructions","66","354788","0.0-9.0-1.0-0.6","6490","2","24","Male","approach_avoid_spark_v1","""event"",""trial"",""time""
""fullscreenenter"",""1"",""2303""
","
","
","""event"",""trial"",""time""
""fullscreenenter"",""1"",""2303""
","
","","","","","","585.2000000476837","<p> And here is what you would see if you lost 3 points: </p><p style=""color:red;font-size:50px;font-weight:bolder"">-3</p>","","0","instructions","","","","","","","","","","",""
"learning-instructions","67","370242","0.0-9.0-1.0-0.7","6490","2","24","Male","approach_avoid_spark_v1","""event"",""trial"",""time""
""fullscreenenter"",""1"",""2303""
","
","
","""event"",""trial"",""time""
""fullscreenenter"",""1"",""2303""
","
","","","","","","526.8000001907349","<p> Some plants will make the customer VERY pleased or annoyed. </p><p> These plants will make you win or lose LOTS of points. </p><p> The customer will have less strong feelings about other plants. </p><p> These plants will make you win or lose small amounts of points. </p>","","0","instructions","","","","","","","","","","",""
"learning-instructions","68","383748","0.0-9.0-1.0-0.8","6490","2","24","Male","approach_avoid_spark_v1","""event"",""trial"",""time""
""fullscreenenter"",""1"",""2303""
","
","
","""event"",""trial"",""time""
""fullscreenenter"",""1"",""2303""
","
","","","","","","794.1000001430511","<p> If you choose to not offer the plant to the customer, you will not win or lose any points. </p><p>  However, in the center of the screen, you will see the number of points you WOULD HAVE won or lost if you had offered the plant. </p>","","0","instructions","","","","","","","","","","",""
"learning-instructions","69","395805","0.0-9.0-1.0-0.9","6490","2","24","Male","approach_avoid_spark_v1","""event"",""trial"",""time""
""fullscreenenter"",""1"",""2303""
","
","
","""event"",""trial"",""time""
""fullscreenenter"",""1"",""2303""
","
","","","","","","579.7999999523163","<p> Here is what you might see if you did not offer the plant but the customer would have liked it: </p><p style=""color:grey; font-size:50px; display: inline-block; border-spacing: 15px; border-width:3px; border-style:solid; border-color:red"">  &nbsp; 6 &nbsp; </p><p> Remember, in this case, you would not win or lose ANY points because you did not offer the plant.  </p>","","0","instructions","","","","","","","","","","",""
"learning-instructions","70","403757","0.0-9.0-1.0-0.10","6490","2","24","Male","approach_avoid_spark_v1","""event"",""trial"",""time""
""fullscreenenter"",""1"",""2303""
","
","
","""event"",""trial"",""time""
""fullscreenenter"",""1"",""2303""
","
","","","","","","383.39999985694885","<p> Try to make the best choice for each plant because </p><p> at the end of the game, you will earn bonus money based on how many points you earned. </p>","","0","instructions","","","","","","","","","","",""
"learning-instructions","71","412452","0.0-9.0-1.0-0.11","6490","2","24","Male","approach_avoid_spark_v1","""event"",""trial"",""time""
""fullscreenenter"",""1"",""2303""
","
","
","""event"",""trial"",""time""
""fullscreenenter"",""1"",""2303""
","
","","","","","","508","<p> You will have 3 seconds to make each choice. Try to respond before time runs out! </p><p> You will lose 5 points each time you do not make a response. </p>","","0","instructions","","","","","","","","","","",""
"html-keyboard-response","72","413061","0.0-9.0-2.0-0.0","6490","2","24","Male","approach_avoid_spark_v1","""event"",""trial"",""time""
""fullscreenenter"",""1"",""2303""
","
","
","""event"",""trial"",""time""
""fullscreenenter"",""1"",""2303""
","
","","","","","","null","<div style=""font-size:60px;"">+</div>","null","","fixation","","","","","","","","","","",""
"aa-learning-trial","73","416072","0.0-9.0-2.0-1.0","6490","2","24","Male","approach_avoid_spark_v1","""event"",""trial"",""time""
""fullscreenenter"",""1"",""2303""
","
","
","""event"",""trial"",""time""
""fullscreenenter"",""1"",""2303""
","
","","","","","","1144","images/flower8.png","","","learning","-2","-2","1","1","flower","plants","2","0","","good","[6]"
"html-keyboard-response","74","416587","0.0-9.0-2.0-0.1","6490","2","24","Male","approach_avoid_spark_v1","""event"",""trial"",""time""
""fullscreenenter"",""1"",""2303""
","
","
","""event"",""trial"",""time""
""fullscreenenter"",""1"",""2303""
","
","","","","","","null","<div style=""font-size:60px;"">+</div>","null","","fixation","","","","","","","","","","",""
"aa-learning-trial","75","419592","0.0-9.0-2.0-1.1","6490","2","24","Male","approach_avoid_spark_v1","""event"",""trial"",""time""
""fullscreenenter"",""1"",""2303""
","
","
","""event"",""trial"",""time""
""fullscreenenter"",""1"",""2303""
","
","","","","","","769.5","images/bush3.png","","","learning","4","4","1","1","bush","plants","2","0","","bad","[-4]"
"html-keyboard-response","76","420104","0.0-9.0-2.0-0.2","6490","2","24","Male","approach_avoid_spark_v1","""event"",""trial"",""time""
""fullscreenenter"",""1"",""2303""
","
","
","""event"",""trial"",""time""
""fullscreenenter"",""1"",""2303""
","
","","","","","","null","<div style=""font-size:60px;"">+</div>","null","","fixation","","","","","","","","","","",""
"aa-learning-trial","77","423108","0.0-9.0-2.0-1.2","6490","2","24","Male","approach_avoid_spark_v1","""event"",""trial"",""time""
""fullscreenenter"",""1"",""2303""
","
","
","""event"",""trial"",""time""
""fullscreenenter"",""1"",""2303""
","
","","","","","","594.9000000953674","images/flower6.png","","","learning","3","3","1","1","flower","plants","2","0","","good","[6]"
"html-keyboard-response","78","423615","0.0-9.0-2.0-0.3","6490","2","24","Male","approach_avoid_spark_v1","""event"",""trial"",""time""
""fullscreenenter"",""1"",""2303""
","
","
","""event"",""trial"",""time""
""fullscreenenter"",""1"",""2303""
","
","","","","","","null","<div style=""font-size:60px;"">+</div>","null","","fixation","","","","","","","","","","",""
"aa-learning-trial","79","426618","0.0-9.0-2.0-1.3","6490","2","24","Male","approach_avoid_spark_v1","""event"",""trial"",""time""
""fullscreenenter"",""1"",""2303""
","
","
","""event"",""trial"",""time""
""fullscreenenter"",""1"",""2303""
","
","","","","","","766.2999999523163","images/bush3.png","","","learning","4","4","1","1","bush","plants","2","0","","bad","[-4]"
"html-keyboard-response","80","427132","0.0-9.0-2.0-0.4","6490","2","24","Male","approach_avoid_spark_v1","""event"",""trial"",""time""
""fullscreenenter"",""1"",""2303""
","
","
","""event"",""trial"",""time""
""fullscreenenter"",""1"",""2303""
","
","","","","","","null","<div style=""font-size:60px;"">+</div>","null","","fixation","","","","","","","","","","",""
"aa-learning-trial","81","430146","0.0-9.0-2.0-1.4","6490","2","24","Male","approach_avoid_spark_v1","""event"",""trial"",""time""
""fullscreenenter"",""1"",""2303""
","
","
","""event"",""trial"",""time""
""fullscreenenter"",""1"",""2303""
","
","","","","","","863.0999999046326","images/cactus8.png","","","learning","7","0","0","0","cactus","plants","2","0","","neutral","0"
"html-keyboard-response","82","430655","0.0-9.0-2.0-0.5","6490","2","24","Male","approach_avoid_spark_v1","""event"",""trial"",""time""
""fullscreenenter"",""1"",""2303""
","
","
","""event"",""trial"",""time""
""fullscreenenter"",""1"",""2303""
","
","","","","","","null","<div style=""font-size:60px;"">+</div>","null","","fixation","","","","","","","","","","",""
"aa-learning-trial","83","433661","0.0-9.0-2.0-1.5","6490","2","24","Male","approach_avoid_spark_v1","""event"",""trial"",""time""
""fullscreenenter"",""1"",""2303""
","
","
","""event"",""trial"",""time""
""fullscreenenter"",""1"",""2303""
","
","","","","","","990.5999999046326","images/cactus3.png","","","learning","-5","-5","1","1","cactus","plants","2","0","","neutral","0"
"html-keyboard-response","84","434173","0.0-9.0-2.0-0.6","6490","2","24","Male","approach_avoid_spark_v1","""event"",""trial"",""time""
""fullscreenenter"",""1"",""2303""
","
","
","""event"",""trial"",""time""
""fullscreenenter"",""1"",""2303""
","
","","","","","","null","<div style=""font-size:60px;"">+</div>","null","","fixation","","","","","","","","","","",""
"aa-learning-trial","85","437188","0.0-9.0-2.0-1.6","6490","2","24","Male","approach_avoid_spark_v1","""event"",""trial"",""time""
""fullscreenenter"",""1"",""2303""
","
","
","""event"",""trial"",""time""
""fullscreenenter"",""1"",""2303""
","
","","","","","","830.5","images/bush1.png","","","learning","-1","-1","1","1","bush","plants","2","0","","bad","[-4]"
"html-keyboard-response","86","437701","0.0-9.0-2.0-0.7","6490","2","24","Male","approach_avoid_spark_v1","""event"",""trial"",""time""
""fullscreenenter"",""1"",""2303""
","
","
","""event"",""trial"",""time""
""fullscreenenter"",""1"",""2303""
","
","","","","","","null","<div style=""font-size:60px;"">+</div>","null","","fixation","","","","","","","","","","",""
"aa-learning-trial","87","440704","0.0-9.0-2.0-1.7","6490","2","24","Male","approach_avoid_spark_v1","""event"",""trial"",""time""
""fullscreenenter"",""1"",""2303""
","
","
","""event"",""trial"",""time""
""fullscreenenter"",""1"",""2303""
","
","","","","","","774.5","images/bush5.png","","","learning","-9","-9","1","1","bush","plants","2","0","","bad","[-4]"
"html-keyboard-response","88","441217","0.0-9.0-2.0-0.8","6490","2","24","Male","approach_avoid_spark_v1","""event"",""trial"",""time""
""fullscreenenter"",""1"",""2303""
","
","
","""event"",""trial"",""time""
""fullscreenenter"",""1"",""2303""
","
","","","","","","null","<div style=""font-size:60px;"">+</div>","null","","fixation","","","","","","","","","","",""
"aa-learning-trial","89","444223","0.0-9.0-2.0-1.8","6490","2","24","Male","approach_avoid_spark_v1","""event"",""trial"",""time""
""fullscreenenter"",""1"",""2303""
","
","
","""event"",""trial"",""time""
""fullscreenenter"",""1"",""2303""
","
","","","","","","810.7999999523163","images/flower8.png","","","learning","-2","0","0","0","flower","plants","2","0","","good","[6]"
"html-keyboard-response","90","444739","0.0-9.0-2.0-0.9","6490","2","24","Male","approach_avoid_spark_v1","""event"",""trial"",""time""
""fullscreenenter"",""1"",""2303""
","
","
","""event"",""trial"",""time""
""fullscreenenter"",""1"",""2303""
","
","","","","","","null","<div style=""font-size:60px;"">+</div>","null","","fixation","","","","","","","","","","",""
"aa-learning-trial","91","447741","0.0-9.0-2.0-1.9","6490","2","24","Male","approach_avoid_spark_v1","""event"",""trial"",""time""
""fullscreenenter"",""1"",""2303""
","
","
","""event"",""trial"",""time""
""fullscreenenter"",""1"",""2303""
","
","","","","","","1049.5999999046326","images/cactus1.png","","","learning","-7","-7","1","1","cactus","plants","2","0","","neutral","0"
"html-keyboard-response","92","448242","0.0-9.0-2.0-0.10","6490","2","24","Male","approach_avoid_spark_v1","""event"",""trial"",""time""
""fullscreenenter"",""1"",""2303""
","
","
","""event"",""trial"",""time""
""fullscreenenter"",""1"",""2303""
","
","","","","","","null","<div style=""font-size:60px;"">+</div>","null","","fixation","","","","","","","","","","",""
"aa-learning-trial","93","451244","0.0-9.0-2.0-1.10","6490","2","24","Male","approach_avoid_spark_v1","""event"",""trial"",""time""
""fullscreenenter"",""1"",""2303""
","
","
","""event"",""trial"",""time""
""fullscreenenter"",""1"",""2303""
","
","","","","","","666.5","images/cactus3.png","","","learning","-5","0","0","0","cactus","plants","2","0","","neutral","0"
"html-keyboard-response","94","451759","0.0-9.0-2.0-0.11","6490","2","24","Male","approach_avoid_spark_v1","""event"",""trial"",""time""
""fullscreenenter"",""1"",""2303""
","
","
","""event"",""trial"",""time""
""fullscreenenter"",""1"",""2303""
","
","","","","","","null","<div style=""font-size:60px;"">+</div>","null","","fixation","","","","","","","","","","",""
"aa-learning-trial","95","454762","0.0-9.0-2.0-1.11","6490","2","24","Male","approach_avoid_spark_v1","""event"",""trial"",""time""
""fullscreenenter"",""1"",""2303""
","
","
","""event"",""trial"",""time""
""fullscreenenter"",""1"",""2303""
","
","","","","","","845.1000001430511","images/cactus8.png","","","learning","7","7","1","1","cactus","plants","2","0","","neutral","0"
"html-keyboard-response","96","455263","0.0-9.0-2.0-0.12","6490","2","24","Male","approach_avoid_spark_v1","""event"",""trial"",""time""
""fullscreenenter"",""1"",""2303""
","
","
","""event"",""trial"",""time""
""fullscreenenter"",""1"",""2303""
","
","","","","","","null","<div style=""font-size:60px;"">+</div>","null","","fixation","","","","","","","","","","",""
"aa-learning-trial","97","458265","0.0-9.0-2.0-1.12","6490","2","24","Male","approach_avoid_spark_v1","""event"",""trial"",""time""
""fullscreenenter"",""1"",""2303""
","
","
","""event"",""trial"",""time""
""fullscreenenter"",""1"",""2303""
","
","","","","","","637.1999998092651","images/bush5.png","","","learning","-9","-9","1","1","bush","plants","2","0","","bad","[-4]"
"html-keyboard-response","98","458768","0.0-9.0-2.0-0.13","6490","2","24","Male","approach_avoid_spark_v1","""event"",""trial"",""time""
""fullscreenenter"",""1"",""2303""
","
","
","""event"",""trial"",""time""
""fullscreenenter"",""1"",""2303""
","
","","","","","","null","<div style=""font-size:60px;"">+</div>","null","","fixation","","","","","","","","","","",""
"aa-learning-trial","99","461771","0.0-9.0-2.0-1.13","6490","2","24","Male","approach_avoid_spark_v1","""event"",""trial"",""time""
""fullscreenenter"",""1"",""2303""
","
","
","""event"",""trial"",""time""
""fullscreenenter"",""1"",""2303""
","
","","","","","","699.5","images/flower7.png","","","learning","-6","-6","1","1","flower","plants","2","0","","good","[6]"
"html-keyboard-response","100","462272","0.0-9.0-2.0-0.14","6490","2","24","Male","approach_avoid_spark_v1","""event"",""trial"",""time""
""fullscreenenter"",""1"",""2303""
","
","
","""event"",""trial"",""time""
""fullscreenenter"",""1"",""2303""
","
","","","","","","null","<div style=""font-size:60px;"">+</div>","null","","fixation","","","","","","","","","","",""
"aa-learning-trial","101","465277","0.0-9.0-2.0-1.14","6490","2","24","Male","approach_avoid_spark_v1","""event"",""trial"",""time""
""fullscreenenter"",""1"",""2303""
","
","
","""event"",""trial"",""time""
""fullscreenenter"",""1"",""2303""
","
","","","","","","681.4000000953674","images/flower6.png","","","learning","3","3","1","1","flower","plants","2","0","","good","[6]"
"html-keyboard-response","102","465778","0.0-9.0-2.0-0.15","6490","2","24","Male","approach_avoid_spark_v1","""event"",""trial"",""time""
""fullscreenenter"",""1"",""2303""
","
","
","""event"",""trial"",""time""
""fullscreenenter"",""1"",""2303""
","
","","","","","","null","<div style=""font-size:60px;"">+</div>","null","","fixation","","","","","","","","","","",""
"aa-learning-trial","103","468780","0.0-9.0-2.0-1.15","6490","2","24","Male","approach_avoid_spark_v1","""event"",""trial"",""time""
""fullscreenenter"",""1"",""2303""
","
","
","""event"",""trial"",""time""
""fullscreenenter"",""1"",""2303""
","
","","","","","","795.2999999523163","images/bush1.png","","","learning","-1","0","0","0","bush","plants","2","0","","bad","[-4]"
"html-keyboard-response","104","469292","0.0-9.0-2.0-0.16","6490","2","24","Male","approach_avoid_spark_v1","""event"",""trial"",""time""
""fullscreenenter"",""1"",""2303""
","
","
","""event"",""trial"",""time""
""fullscreenenter"",""1"",""2303""
","
","","","","","","null","<div style=""font-size:60px;"">+</div>","null","","fixation","","","","","","","","","","",""
"aa-learning-trial","105","472293","0.0-9.0-2.0-1.16","6490","2","24","Male","approach_avoid_spark_v1","""event"",""trial"",""time""
""fullscreenenter"",""1"",""2303""
","
","
","""event"",""trial"",""time""
""fullscreenenter"",""1"",""2303""
","
","","","","","","786.7999999523163","images/bush3.png","","","learning","4","4","1","1","bush","plants","2","0","","bad","[-4]"
"html-keyboard-response","106","472797","0.0-9.0-2.0-0.17","6490","2","24","Male","approach_avoid_spark_v1","""event"",""trial"",""time""
""fullscreenenter"",""1"",""2303""
","
","
","""event"",""trial"",""time""
""fullscreenenter"",""1"",""2303""
","
","","","","","","null","<div style=""font-size:60px;"">+</div>","null","","fixation","","","","","","","","","","",""
"aa-learning-trial","107","475807","0.0-9.0-2.0-1.17","6490","2","24","Male","approach_avoid_spark_v1","""event"",""trial"",""time""
""fullscreenenter"",""1"",""2303""
","
","
","""event"",""trial"",""time""
""fullscreenenter"",""1"",""2303""
","
","","","","","","720.7000000476837","images/cactus3.png","","","learning","-5","0","0","0","cactus","plants","2","0","","neutral","0"
"html-keyboard-response","108","476309","0.0-9.0-2.0-0.18","6490","2","24","Male","approach_avoid_spark_v1","""event"",""trial"",""time""
""fullscreenenter"",""1"",""2303""
","
","
","""event"",""trial"",""time""
""fullscreenenter"",""1"",""2303""
","
","","","","","","null","<div style=""font-size:60px;"">+</div>","null","","fixation","","","","","","","","","","",""
"aa-learning-trial","109","479313","0.0-9.0-2.0-1.18","6490","2","24","Male","approach_avoid_spark_v1","""event"",""trial"",""time""
""fullscreenenter"",""1"",""2303""
","
","
","""event"",""trial"",""time""
""fullscreenenter"",""1"",""2303""
","
","","","","","","746.5999999046326","images/cactus1.png","","","learning","-7","0","0","0","cactus","plants","2","0","","neutral","0"
"html-keyboard-response","110","479816","0.0-9.0-2.0-0.19","6490","2","24","Male","approach_avoid_spark_v1","""event"",""trial"",""time""
""fullscreenenter"",""1"",""2303""
","
","
","""event"",""trial"",""time""
""fullscreenenter"",""1"",""2303""
","
","","","","","","null","<div style=""font-size:60px;"">+</div>","null","","fixation","","","","","","","","","","",""
"aa-learning-trial","111","482818","0.0-9.0-2.0-1.19","6490","2","24","Male","approach_avoid_spark_v1","""event"",""trial"",""time""
""fullscreenenter"",""1"",""2303""
","
","
","""event"",""trial"",""time""
""fullscreenenter"",""1"",""2303""
","
","","","","","","580.2999999523163","images/flower6.png","","","learning","3","3","1","1","flower","plants","2","0","","good","[6]"
"html-keyboard-response","112","483320","0.0-9.0-2.0-0.20","6490","2","24","Male","approach_avoid_spark_v1","""event"",""trial"",""time""
""fullscreenenter"",""1"",""2303""
","
","
","""event"",""trial"",""time""
""fullscreenenter"",""1"",""2303""
","
","","","","","","null","<div style=""font-size:60px;"">+</div>","null","","fixation","","","","","","","","","","",""
"aa-learning-trial","113","486323","0.0-9.0-2.0-1.20","6490","2","24","Male","approach_avoid_spark_v1","""event"",""trial"",""time""
""fullscreenenter"",""1"",""2303""
","
","
","""event"",""trial"",""time""
""fullscreenenter"",""1"",""2303""
","
","","","","","","611.7999999523163","images/cactus3.png","","","learning","-5","0","0","0","cactus","plants","2","0","","neutral","0"
"html-keyboard-response","114","486825","0.0-9.0-2.0-0.21","6490","2","24","Male","approach_avoid_spark_v1","""event"",""trial"",""time""
""fullscreenenter"",""1"",""2303""
","
","
","""event"",""trial"",""time""
""fullscreenenter"",""1"",""2303""
","
","","","","","","null","<div style=""font-size:60px;"">+</div>","null","","fixation","","","","","","","","","","",""
"aa-learning-trial","115","489843","0.0-9.0-2.0-1.21","6490","2","24","Male","approach_avoid_spark_v1","""event"",""trial"",""time""
""fullscreenenter"",""1"",""2303""
","
","
","""event"",""trial"",""time""
""fullscreenenter"",""1"",""2303""
","
","","","","","","954.5999999046326","images/bush3.png","","","learning","4","4","1","1","bush","plants","2","0","","bad","[-4]"
"html-keyboard-response","116","490344","0.0-9.0-2.0-0.22","6490","2","24","Male","approach_avoid_spark_v1","""event"",""trial"",""time""
""fullscreenenter"",""1"",""2303""
","
","
","""event"",""trial"",""time""
""fullscreenenter"",""1"",""2303""
","
","","","","","","null","<div style=""font-size:60px;"">+</div>","null","","fixation","","","","","","","","","","",""
"aa-learning-trial","117","493347","0.0-9.0-2.0-1.22","6490","2","24","Male","approach_avoid_spark_v1","""event"",""trial"",""time""
""fullscreenenter"",""1"",""2303""
","
","
","""event"",""trial"",""time""
""fullscreenenter"",""1"",""2303""
","
","","","","","","724.7999999523163","images/bush1.png","","","learning","-1","0","0","0","bush","plants","2","0","","bad","[-4]"
"html-keyboard-response","118","493849","0.0-9.0-2.0-0.23","6490","2","24","Male","approach_avoid_spark_v1","""event"",""trial"",""time""
""fullscreenenter"",""1"",""2303""
","
","
","""event"",""trial"",""time""
""fullscreenenter"",""1"",""2303""
","
","","","","","","null","<div style=""font-size:60px;"">+</div>","null","","fixation","","","","","","","","","","",""
"aa-learning-trial","119","496859","0.0-9.0-2.0-1.23","6490","2","24","Male","approach_avoid_spark_v1","""event"",""trial"",""time""
""fullscreenenter"",""1"",""2303""
","
","
","""event"",""trial"",""time""
""fullscreenenter"",""1"",""2303""
","
","","","","","","548","images/cactus8.png","","","learning","7","7","1","1","cactus","plants","2","0","","neutral","0"
"html-keyboard-response","120","497361","0.0-9.0-2.0-0.24","6490","2","24","Male","approach_avoid_spark_v1","""event"",""trial"",""time""
""fullscreenenter"",""1"",""2303""
","
","
","""event"",""trial"",""time""
""fullscreenenter"",""1"",""2303""
","
","","","","","","null","<div style=""font-size:60px;"">+</div>","null","","fixation","","","","","","","","","","",""
"aa-learning-trial","121","500363","0.0-9.0-2.0-1.24","6490","2","24","Male","approach_avoid_spark_v1","""event"",""trial"",""time""
""fullscreenenter"",""1"",""2303""
","
","
","""event"",""trial"",""time""
""fullscreenenter"",""1"",""2303""
","
","","","","","","860.2000000476837","images/bush7.png","","","learning","6","6","1","1","bush","plants","2","0","","bad","[-4]"
"html-keyboard-response","122","500866","0.0-9.0-2.0-0.25","6490","2","24","Male","approach_avoid_spark_v1","""event"",""trial"",""time""
""fullscreenenter"",""1"",""2303""
","
","
","""event"",""trial"",""time""
""fullscreenenter"",""1"",""2303""
","
","","","","","","null","<div style=""font-size:60px;"">+</div>","null","","fixation","","","","","","","","","","",""
"aa-learning-trial","123","503871","0.0-9.0-2.0-1.25","6490","2","24","Male","approach_avoid_spark_v1","""event"",""trial"",""time""
""fullscreenenter"",""1"",""2303""
","
","
","""event"",""trial"",""time""
""fullscreenenter"",""1"",""2303""
","
","","","","","","537.9000000953674","images/cactus8.png","","","learning","7","7","1","1","cactus","plants","2","0","","neutral","0"
"html-keyboard-response","124","504372","0.0-9.0-2.0-0.26","6490","2","24","Male","approach_avoid_spark_v1","""event"",""trial"",""time""
""fullscreenenter"",""1"",""2303""
","
","
","""event"",""trial"",""time""
""fullscreenenter"",""1"",""2303""
","
","","","","","","null","<div style=""font-size:60px;"">+</div>","null","","fixation","","","","","","","","","","",""
"aa-learning-trial","125","507375","0.0-9.0-2.0-1.26","6490","2","24","Male","approach_avoid_spark_v1","""event"",""trial"",""time""
""fullscreenenter"",""1"",""2303""
","
","
","""event"",""trial"",""time""
""fullscreenenter"",""1"",""2303""
","
","","","","","","552.0999999046326","images/bush3.png","","","learning","4","4","1","1","bush","plants","2","0","","bad","[-4]"
"html-keyboard-response","126","507876","0.0-9.0-2.0-0.27","6490","2","24","Male","approach_avoid_spark_v1","""event"",""trial"",""time""
""fullscreenenter"",""1"",""2303""
","
","
","""event"",""trial"",""time""
""fullscreenenter"",""1"",""2303""
","
","","","","","","null","<div style=""font-size:60px;"">+</div>","null","","fixation","","","","","","","","","","",""
"aa-learning-trial","127","510879","0.0-9.0-2.0-1.27","6490","2","24","Male","approach_avoid_spark_v1","""event"",""trial"",""time""
""fullscreenenter"",""1"",""2303""
","
","
","""event"",""trial"",""time""
""fullscreenenter"",""1"",""2303""
","
","","","","","","712.5","images/flower4.png","","","learning","9","9","1","1","flower","plants","2","0","","good","[6]"
"html-keyboard-response","128","511381","0.0-9.0-2.0-0.28","6490","2","24","Male","approach_avoid_spark_v1","""event"",""trial"",""time""
""fullscreenenter"",""1"",""2303""
","
","
","""event"",""trial"",""time""
""fullscreenenter"",""1"",""2303""
","
","","","","","","null","<div style=""font-size:60px;"">+</div>","null","","fixation","","","","","","","","","","",""
"aa-learning-trial","129","514397","0.0-9.0-2.0-1.28","6490","2","24","Male","approach_avoid_spark_v1","""event"",""trial"",""time""
""fullscreenenter"",""1"",""2303""
","
","
","""event"",""trial"",""time""
""fullscreenenter"",""1"",""2303""
","
","","","","","","631.2999999523163","images/cactus3.png","","","learning","-5","0","0","0","cactus","plants","2","0","","neutral","0"
"html-keyboard-response","130","514898","0.0-9.0-2.0-0.29","6490","2","24","Male","approach_avoid_spark_v1","""event"",""trial"",""time""
""fullscreenenter"",""1"",""2303""
","
","
","""event"",""trial"",""time""
""fullscreenenter"",""1"",""2303""
","
","","","","","","null","<div style=""font-size:60px;"">+</div>","null","","fixation","","","","","","","","","","",""
"aa-learning-trial","131","517900","0.0-9.0-2.0-1.29","6490","2","24","Male","approach_avoid_spark_v1","""event"",""trial"",""time""
""fullscreenenter"",""1"",""2303""
","
","
","""event"",""trial"",""time""
""fullscreenenter"",""1"",""2303""
","
","","","","","","715.7000000476837","images/flower6.png","","","learning","3","3","1","1","flower","plants","2","0","","good","[6]"
"html-keyboard-response","132","518401","0.0-9.0-2.0-0.30","6490","2","24","Male","approach_avoid_spark_v1","""event"",""trial"",""time""
""fullscreenenter"",""1"",""2303""
","
","
","""event"",""trial"",""time""
""fullscreenenter"",""1"",""2303""
","
","","","","","","null","<div style=""font-size:60px;"">+</div>","null","","fixation","","","","","","","","","","",""
"aa-learning-trial","133","521403","0.0-9.0-2.0-1.30","6490","2","24","Male","approach_avoid_spark_v1","""event"",""trial"",""time""
""fullscreenenter"",""1"",""2303""
","
","
","""event"",""trial"",""time""
""fullscreenenter"",""1"",""2303""
","
","","","","","","811.9000000953674","images/bush5.png","","","learning","-9","0","0","0","bush","plants","2","0","","bad","[-4]"
"html-keyboard-response","134","521906","0.0-9.0-2.0-0.31","6490","2","24","Male","approach_avoid_spark_v1","""event"",""trial"",""time""
""fullscreenenter"",""1"",""2303""
","
","
","""event"",""trial"",""time""
""fullscreenenter"",""1"",""2303""
","
","","","","","","null","<div style=""font-size:60px;"">+</div>","null","","fixation","","","","","","","","","","",""
"aa-learning-trial","135","524909","0.0-9.0-2.0-1.31","6490","2","24","Male","approach_avoid_spark_v1","""event"",""trial"",""time""
""fullscreenenter"",""1"",""2303""
","
","
","""event"",""trial"",""time""
""fullscreenenter"",""1"",""2303""
","
","","","","","","539.4000000953674","images/bush5.png","","","learning","-9","0","0","0","bush","plants","2","0","","bad","[-4]"
"html-keyboard-response","136","525410","0.0-9.0-2.0-0.32","6490","2","24","Male","approach_avoid_spark_v1","""event"",""trial"",""time""
""fullscreenenter"",""1"",""2303""
","
","
","""event"",""trial"",""time""
""fullscreenenter"",""1"",""2303""
","
","","","","","","null","<div style=""font-size:60px;"">+</div>","null","","fixation","","","","","","","","","","",""
"aa-learning-trial","137","528413","0.0-9.0-2.0-1.32","6490","2","24","Male","approach_avoid_spark_v1","""event"",""trial"",""time""
""fullscreenenter"",""1"",""2303""
","
","
","""event"",""trial"",""time""
""fullscreenenter"",""1"",""2303""
","
","","","","","","570.6999998092651","images/cactus8.png","","","learning","7","7","1","1","cactus","plants","2","0","","neutral","0"
"html-keyboard-response","138","528916","0.0-9.0-2.0-0.33","6490","2","24","Male","approach_avoid_spark_v1","""event"",""trial"",""time""
""fullscreenenter"",""1"",""2303""
","
","
","""event"",""trial"",""time""
""fullscreenenter"",""1"",""2303""
","
","","","","","","null","<div style=""font-size:60px;"">+</div>","null","","fixation","","","","","","","","","","",""
"aa-learning-trial","139","531918","0.0-9.0-2.0-1.33","6490","2","24","Male","approach_avoid_spark_v1","""event"",""trial"",""time""
""fullscreenenter"",""1"",""2303""
","
","
","""event"",""trial"",""time""
""fullscreenenter"",""1"",""2303""
","
","","","","","","954.2999999523163","images/flower5.png","","","learning","-3","0","0","0","flower","plants","2","0","","good","[6]"
"html-keyboard-response","140","532419","0.0-9.0-2.0-0.34","6490","2","24","Male","approach_avoid_spark_v1","""event"",""trial"",""time""
""fullscreenenter"",""1"",""2303""
","
","
","""event"",""trial"",""time""
""fullscreenenter"",""1"",""2303""
","
","","","","","","null","<div style=""font-size:60px;"">+</div>","null","","fixation","","","","","","","","","","",""
"aa-learning-trial","141","535421","0.0-9.0-2.0-1.34","6490","2","24","Male","approach_avoid_spark_v1","""event"",""trial"",""time""
""fullscreenenter"",""1"",""2303""
","
","
","""event"",""trial"",""time""
""fullscreenenter"",""1"",""2303""
","
","","","","","","969.5","images/cactus2.png","","","learning","1","0","0","0","cactus","plants","2","0","","neutral","0"
"html-keyboard-response","142","535922","0.0-9.0-2.0-0.35","6490","2","24","Male","approach_avoid_spark_v1","""event"",""trial"",""time""
""fullscreenenter"",""1"",""2303""
","
","
","""event"",""trial"",""time""
""fullscreenenter"",""1"",""2303""
","
","","","","","","null","<div style=""font-size:60px;"">+</div>","null","","fixation","","","","","","","","","","",""
"aa-learning-trial","143","538924","0.0-9.0-2.0-1.35","6490","2","24","Male","approach_avoid_spark_v1","""event"",""trial"",""time""
""fullscreenenter"",""1"",""2303""
","
","
","""event"",""trial"",""time""
""fullscreenenter"",""1"",""2303""
","
","","","","","","650.5999999046326","images/bush5.png","","","learning","-9","0","0","0","bush","plants","2","0","","bad","[-4]"
"html-keyboard-response","144","539426","0.0-9.0-2.0-0.36","6490","2","24","Male","approach_avoid_spark_v1","""event"",""trial"",""time""
""fullscreenenter"",""1"",""2303""
","
","
","""event"",""trial"",""time""
""fullscreenenter"",""1"",""2303""
","
","","","","","","null","<div style=""font-size:60px;"">+</div>","null","","fixation","","","","","","","","","","",""
"aa-learning-trial","145","542428","0.0-9.0-2.0-1.36","6490","2","24","Male","approach_avoid_spark_v1","""event"",""trial"",""time""
""fullscreenenter"",""1"",""2303""
","
","
","""event"",""trial"",""time""
""fullscreenenter"",""1"",""2303""
","
","","","","","","603.4000000953674","images/cactus1.png","","","learning","-7","0","0","0","cactus","plants","2","0","","neutral","0"
"html-keyboard-response","146","542929","0.0-9.0-2.0-0.37","6490","2","24","Male","approach_avoid_spark_v1","""event"",""trial"",""time""
""fullscreenenter"",""1"",""2303""
","
","
","""event"",""trial"",""time""
""fullscreenenter"",""1"",""2303""
","
","","","","","","null","<div style=""font-size:60px;"">+</div>","null","","fixation","","","","","","","","","","",""
"aa-learning-trial","147","545931","0.0-9.0-2.0-1.37","6490","2","24","Male","approach_avoid_spark_v1","""event"",""trial"",""time""
""fullscreenenter"",""1"",""2303""
","
","
","""event"",""trial"",""time""
""fullscreenenter"",""1"",""2303""
","
","","","","","","783.7999999523163","images/flower7.png","","","learning","-6","-6","1","1","flower","plants","2","0","","good","[6]"
"html-keyboard-response","148","546433","0.0-9.0-2.0-0.38","6490","2","24","Male","approach_avoid_spark_v1","""event"",""trial"",""time""
""fullscreenenter"",""1"",""2303""
","
","
","""event"",""trial"",""time""
""fullscreenenter"",""1"",""2303""
","
","","","","","","null","<div style=""font-size:60px;"">+</div>","null","","fixation","","","","","","","","","","",""
"aa-learning-trial","149","549439","0.0-9.0-2.0-1.38","6490","2","24","Male","approach_avoid_spark_v1","""event"",""trial"",""time""
""fullscreenenter"",""1"",""2303""
","
","
","""event"",""trial"",""time""
""fullscreenenter"",""1"",""2303""
","
","","","","","","889.3999998569489","images/flower8.png","","","learning","-2","-2","1","1","flower","plants","2","0","","good","[6]"
"html-keyboard-response","150","549944","0.0-9.0-2.0-0.39","6490","2","24","Male","approach_avoid_spark_v1","""event"",""trial"",""time""
""fullscreenenter"",""1"",""2303""
","
","
","""event"",""trial"",""time""
""fullscreenenter"",""1"",""2303""
","
","","","","","","null","<div style=""font-size:60px;"">+</div>","null","","fixation","","","","","","","","","","",""
"aa-learning-trial","151","552949","0.0-9.0-2.0-1.39","6490","2","24","Male","approach_avoid_spark_v1","""event"",""trial"",""time""
""fullscreenenter"",""1"",""2303""
","
","
","""event"",""trial"",""time""
""fullscreenenter"",""1"",""2303""
","
","","","","","","562.7999999523163","images/flower8.png","","","learning","-2","0","0","0","flower","plants","2","0","","good","[6]"
"html-keyboard-response","152","553451","0.0-9.0-2.0-0.40","6490","2","24","Male","approach_avoid_spark_v1","""event"",""trial"",""time""
""fullscreenenter"",""1"",""2303""
","
","
","""event"",""trial"",""time""
""fullscreenenter"",""1"",""2303""
","
","","","","","","null","<div style=""font-size:60px;"">+</div>","null","","fixation","","","","","","","","","","",""
"aa-learning-trial","153","556453","0.0-9.0-2.0-1.40","6490","2","24","Male","approach_avoid_spark_v1","""event"",""trial"",""time""
""fullscreenenter"",""1"",""2303""
","
","
","""event"",""trial"",""time""
""fullscreenenter"",""1"",""2303""
","
","","","","","","468.19999980926514","images/flower8.png","","","learning","-2","0","0","0","flower","plants","2","0","","good","[6]"
"html-keyboard-response","154","556955","0.0-9.0-2.0-0.41","6490","2","24","Male","approach_avoid_spark_v1","""event"",""trial"",""time""
""fullscreenenter"",""1"",""2303""
","
","
","""event"",""trial"",""time""
""fullscreenenter"",""1"",""2303""
","
","","","","","","null","<div style=""font-size:60px;"">+</div>","null","","fixation","","","","","","","","","","",""
"aa-learning-trial","155","559956","0.0-9.0-2.0-1.41","6490","2","24","Male","approach_avoid_spark_v1","""event"",""trial"",""time""
""fullscreenenter"",""1"",""2303""
","
","
","""event"",""trial"",""time""
""fullscreenenter"",""1"",""2303""
","
","","","","","","579.5999999046326","images/flower8.png","","","learning","-2","0","0","0","flower","plants","2","0","","good","[6]"
"html-keyboard-response","156","560459","0.0-9.0-2.0-0.42","6490","2","24","Male","approach_avoid_spark_v1","""event"",""trial"",""time""
""fullscreenenter"",""1"",""2303""
","
","
","""event"",""trial"",""time""
""fullscreenenter"",""1"",""2303""
","
","","","","","","null","<div style=""font-size:60px;"">+</div>","null","","fixation","","","","","","","","","","",""
"aa-learning-trial","157","563472","0.0-9.0-2.0-1.42","6490","2","24","Male","approach_avoid_spark_v1","""event"",""trial"",""time""
""fullscreenenter"",""1"",""2303""
","
","
","""event"",""trial"",""time""
""fullscreenenter"",""1"",""2303""
","
","","","","","","579.2999999523163","images/cactus8.png","","","learning","7","7","1","1","cactus","plants","2","0","","neutral","0"
"html-keyboard-response","158","563974","0.0-9.0-2.0-0.43","6490","2","24","Male","approach_avoid_spark_v1","""event"",""trial"",""time""
""fullscreenenter"",""1"",""2303""
","
","
","""event"",""trial"",""time""
""fullscreenenter"",""1"",""2303""
","
","","","","","","null","<div style=""font-size:60px;"">+</div>","null","","fixation","","","","","","","","","","",""
"aa-learning-trial","159","566977","0.0-9.0-2.0-1.43","6490","2","24","Male","approach_avoid_spark_v1","""event"",""trial"",""time""
""fullscreenenter"",""1"",""2303""
","
","
","""event"",""trial"",""time""
""fullscreenenter"",""1"",""2303""
","
","","","","","","631.7000000476837","images/cactus3.png","","","learning","-5","0","0","0","cactus","plants","2","0","","neutral","0"
"html-keyboard-response","160","567479","0.0-9.0-2.0-0.44","6490","2","24","Male","approach_avoid_spark_v1","""event"",""trial"",""time""
""fullscreenenter"",""1"",""2303""
","
","
","""event"",""trial"",""time""
""fullscreenenter"",""1"",""2303""
","
","","","","","","null","<div style=""font-size:60px;"">+</div>","null","","fixation","","","","","","","","","","",""
"aa-learning-trial","161","570482","0.0-9.0-2.0-1.44","6490","2","24","Male","approach_avoid_spark_v1","""event"",""trial"",""time""
""fullscreenenter"",""1"",""2303""
","
","
","""event"",""trial"",""time""
""fullscreenenter"",""1"",""2303""
","
","","","","","","565.7000000476837","images/bush3.png","","","learning","4","4","1","1","bush","plants","2","0","","bad","[-4]"
"html-keyboard-response","162","570985","0.0-9.0-2.0-0.45","6490","2","24","Male","approach_avoid_spark_v1","""event"",""trial"",""time""
""fullscreenenter"",""1"",""2303""
","
","
","""event"",""trial"",""time""
""fullscreenenter"",""1"",""2303""
","
","","","","","","null","<div style=""font-size:60px;"">+</div>","null","","fixation","","","","","","","","","","",""
"aa-learning-trial","163","573989","0.0-9.0-2.0-1.45","6490","2","24","Male","approach_avoid_spark_v1","""event"",""trial"",""time""
""fullscreenenter"",""1"",""2303""
","
","
","""event"",""trial"",""time""
""fullscreenenter"",""1"",""2303""
","
","","","","","","723.5","images/flower6.png","","","learning","3","3","1","1","flower","plants","2","0","","good","[6]"
"html-keyboard-response","164","574491","0.0-9.0-2.0-0.46","6490","2","24","Male","approach_avoid_spark_v1","""event"",""trial"",""time""
""fullscreenenter"",""1"",""2303""
","
","
","""event"",""trial"",""time""
""fullscreenenter"",""1"",""2303""
","
","","","","","","null","<div style=""font-size:60px;"">+</div>","null","","fixation","","","","","","","","","","",""
"aa-learning-trial","165","577495","0.0-9.0-2.0-1.46","6490","2","24","Male","approach_avoid_spark_v1","""event"",""trial"",""time""
""fullscreenenter"",""1"",""2303""
","
","
","""event"",""trial"",""time""
""fullscreenenter"",""1"",""2303""
","
","","","","","","465.7999999523163","images/flower6.png","","","learning","3","3","1","1","flower","plants","2","0","","good","[6]"
"html-keyboard-response","166","578006","0.0-9.0-2.0-0.47","6490","2","24","Male","approach_avoid_spark_v1","""event"",""trial"",""time""
""fullscreenenter"",""1"",""2303""
","
","
","""event"",""trial"",""time""
""fullscreenenter"",""1"",""2303""
","
","","","","","","null","<div style=""font-size:60px;"">+</div>","null","","fixation","","","","","","","","","","",""
"aa-learning-trial","167","581008","0.0-9.0-2.0-1.47","6490","2","24","Male","approach_avoid_spark_v1","""event"",""trial"",""time""
""fullscreenenter"",""1"",""2303""
","
","
","""event"",""trial"",""time""
""fullscreenenter"",""1"",""2303""
","
","","","","","","649.2000000476837","images/bush5.png","","","learning","-9","0","0","0","bush","plants","2","0","","bad","[-4]"
"html-keyboard-response","168","581509","0.0-9.0-2.0-0.48","6490","2","24","Male","approach_avoid_spark_v1","""event"",""trial"",""time""
""fullscreenenter"",""1"",""2303""
","
","
","""event"",""trial"",""time""
""fullscreenenter"",""1"",""2303""
","
","","","","","","null","<div style=""font-size:60px;"">+</div>","null","","fixation","","","","","","","","","","",""
"aa-learning-trial","169","584519","0.0-9.0-2.0-1.48","6490","2","24","Male","approach_avoid_spark_v1","""event"",""trial"",""time""
""fullscreenenter"",""1"",""2303""
","
","
","""event"",""trial"",""time""
""fullscreenenter"",""1"",""2303""
","
","","","","","","1288.3999998569489","images/flower7.png","","","learning","-6","0","0","0","flower","plants","2","0","","good","[6]"
"html-keyboard-response","170","585021","0.0-9.0-2.0-0.49","6490","2","24","Male","approach_avoid_spark_v1","""event"",""trial"",""time""
""fullscreenenter"",""1"",""2303""
","
","
","""event"",""trial"",""time""
""fullscreenenter"",""1"",""2303""
","
","","","","","","null","<div style=""font-size:60px;"">+</div>","null","","fixation","","","","","","","","","","",""
"aa-learning-trial","171","588023","0.0-9.0-2.0-1.49","6490","2","24","Male","approach_avoid_spark_v1","""event"",""trial"",""time""
""fullscreenenter"",""1"",""2303""
","
","
","""event"",""trial"",""time""
""fullscreenenter"",""1"",""2303""
","
","","","","","","736.7999999523163","images/bush8.png","","","learning","-4","0","0","0","bush","plants","2","0","","bad","[-4]"
"html-keyboard-response","172","588525","0.0-9.0-2.0-0.50","6490","2","24","Male","approach_avoid_spark_v1","""event"",""trial"",""time""
""fullscreenenter"",""1"",""2303""
","
","
","""event"",""trial"",""time""
""fullscreenenter"",""1"",""2303""
","
","","","","","","null","<div style=""font-size:60px;"">+</div>","null","","fixation","","","","","","","","","","",""
"aa-learning-trial","173","591526","0.0-9.0-2.0-1.50","6490","2","24","Male","approach_avoid_spark_v1","""event"",""trial"",""time""
""fullscreenenter"",""1"",""2303""
","
","
","""event"",""trial"",""time""
""fullscreenenter"",""1"",""2303""
","
","","","","","","944.7999999523163","images/cactus5.png","","","learning","5","0","0","0","cactus","plants","2","0","","neutral","0"
"html-button-response","174","593502","0.0-9.0-3.0","6490","2","24","Male","approach_avoid_spark_v1","""event"",""trial"",""time""
""fullscreenenter"",""1"",""2303""
","
","
","""event"",""trial"",""time""
""fullscreenenter"",""1"",""2303""
","
","","","","","","1975.2000000476837","<p> You have completed the round! <p> In this round, you earned 45 points! </p>","0","","break","","","","","","","","","","",""
"html-button-response","175","594399","0.0-10.0","6490","2","24","Male","approach_avoid_spark_v1","""event"",""trial"",""time""
""fullscreenenter"",""1"",""2303""
","
","
","""event"",""trial"",""time""
""fullscreenenter"",""1"",""2303""
","
","","","","","","895.5","<p> Now it's time to play another round. </p>","0","","transition_screen","","","","","","","","","","",""
"preload","176","594523","0.0-11.0-0.0","6490","2","24","Male","approach_avoid_spark_v1","""event"",""trial"",""time""
""fullscreenenter"",""1"",""2303""
","
","
","""event"",""trial"",""time""
""fullscreenenter"",""1"",""2303""
","
","true","false","[]","[]","[]","","","","","","","","","","","","","","","",""
"learning-instructions","177","600686","0.0-11.0-1.0-0.0","6490","2","24","Male","approach_avoid_spark_v1","""event"",""trial"",""time""
""fullscreenenter"",""1"",""2303""
","
","
","""event"",""trial"",""time""
""fullscreenenter"",""1"",""2303""
","
","","","","","","900.7000000476837","<p> Your goal in this round is to take your friend for rides in different vehicles. </p></div>","","0","instructions","","","","","","","","","","",""
"learning-instructions","178","611582","0.0-11.0-1.0-0.1","6490","2","24","Male","approach_avoid_spark_v1","""event"",""trial"",""time""
""fullscreenenter"",""1"",""2303""
","
","
","""event"",""trial"",""time""
""fullscreenenter"",""1"",""2303""
","
","","","","","","977.0999999046326","<p> Your friend enjoys riding in some vehicles but not in others.  </p><p> On each turn, you will see a vehicle.   </p><p> You need to decide whether to take your friend for a ride or not.  </p>","","0","instructions","","","","","","","","","","",""
"learning-instructions","179","618686","0.0-11.0-1.0-0.2","6490","2","24","Male","approach_avoid_spark_v1","""event"",""trial"",""time""
""fullscreenenter"",""1"",""2303""
","
","
","""event"",""trial"",""time""
""fullscreenenter"",""1"",""2303""
","
","","","","","","710.1999998092651","<p> You can take your friend for a ride in the vehicle by pressing 1 and skip the ride by pressing 0. </p><br><div class=""choice-instructions-grid""> <div class=""choice-option""><img src=""images/approach.png"" class=""choice-option-img"" stage=""instructions"" position=""0"" ><div class=""choice-option-text""> Press ""1."" </div></div><div class=""choice-option""><img src=""images/avoid.png"" class=""choice-option-img"" stage=""instructions"" position=""1"" ><div class=""choice-option-text""> Press ""0."" </div></div>","","0","instructions","","","","","","","","","","",""
"learning-instructions","180","627911","0.0-11.0-1.0-0.3","6490","2","24","Male","approach_avoid_spark_v1","""event"",""trial"",""time""
""fullscreenenter"",""1"",""2303""
","
","
","""event"",""trial"",""time""
""fullscreenenter"",""1"",""2303""
","
","","","","","","395.7999999523163","<p> If you take them for a ride in a vehicle they like, they will be thrilled! </p><p> But if you take them for a ride in a vehicle they do not like, they will be upset. </p>","","0","instructions","","","","","","","","","","",""
"learning-instructions","181","639918","0.0-11.0-1.0-0.4","6490","2","24","Male","approach_avoid_spark_v1","""event"",""trial"",""time""
""fullscreenenter"",""1"",""2303""
","
","
","""event"",""trial"",""time""
""fullscreenenter"",""1"",""2303""
","
","","","","","","331.2000000476837","<p> You will earn points based on how you made your friend feel. </p><p> If you made him thrilled, you will WIN anywhere from 1 - 9 points, </p><p> but if you made him upset, you will LOSE anywhere from 1 - 9 points. </p>","","0","instructions","","","","","","","","","","",""
"learning-instructions","182","648406","0.0-11.0-1.0-0.5","6490","2","24","Male","approach_avoid_spark_v1","""event"",""trial"",""time""
""fullscreenenter"",""1"",""2303""
","
","
","""event"",""trial"",""time""
""fullscreenenter"",""1"",""2303""
","
","","","","","","1840.3999998569489","<p> You will see how many points you won or lost in the center of the screen. </p><p> Here is what you would see if you won 5 points: </p><p style=""color:green;font-size:50px;font-weight:bolder"">5</p>","","0","instructions","","","","","","","","","","",""
"learning-instructions","183","652294","0.0-11.0-1.0-0.6","6490","2","24","Male","approach_avoid_spark_v1","""event"",""trial"",""time""
""fullscreenenter"",""1"",""2303""
","
","
","""event"",""trial"",""time""
""fullscreenenter"",""1"",""2303""
","
","","","","","","1048.7000000476837","<p> And here is what you would see if you lost 3 points: </p><p style=""color:red;font-size:50px;font-weight:bolder"">-3</p>","","0","instructions","","","","","","","","","","",""
"learning-instructions","184","669055","0.0-11.0-1.0-0.7","6490","2","24","Male","approach_avoid_spark_v1","""event"",""trial"",""time""
""fullscreenenter"",""1"",""2303""
","
","
","""event"",""trial"",""time""
""fullscreenenter"",""1"",""2303""
","
","","","","","","1538.7000000476837","<p> Some vehicles will make your friend REALLY thrilled or upset. </p><p> These vehicles will make you win or lose LOTS of points. </p><p> Other vehicles will only make him feel a little thrilled or upset. </p><p> These vehicles will make you win or lose small amounts of points. </p>","","0","instructions","","","","","","","","","","",""
"learning-instructions","185","681376","0.0-11.0-1.0-0.8","6490","2","24","Male","approach_avoid_spark_v1","""event"",""trial"",""time""
""fullscreenenter"",""1"",""2303""
","
","
","""event"",""trial"",""time""
""fullscreenenter"",""1"",""2303""
","
","","","","","","559.5","<p> If you choose to skip the ride, you will not win or lose any points. </p><p>  However, in the center of the screen, you will see the number of points you WOULD HAVE won or lost if you had taken your friend for a ride. </p>","","0","instructions","","","","","","","","","","",""
"learning-instructions","186","692640","0.0-11.0-1.0-0.9","6490","2","24","Male","approach_avoid_spark_v1","""event"",""trial"",""time""
""fullscreenenter"",""1"",""2303""
","
","
","""event"",""trial"",""time""
""fullscreenenter"",""1"",""2303""
","
","","","","","","523.7000000476837","<p> Here is what you might see if you did not take your friend for a ride but he would have enjoyed it: </p><p style=""color:grey; font-size:50px; display: inline-block; border-spacing: 15px; border-width:3px; border-style:solid; border-color:red"">  &nbsp; 6 &nbsp; </p><p> Remember, in this case, you would not win or lose ANY points because you skipped the ride.  </p>","","0","instructions","","","","","","","","","","",""
"learning-instructions","187","700679","0.0-11.0-1.0-0.10","6490","2","24","Male","approach_avoid_spark_v1","""event"",""trial"",""time""
""fullscreenenter"",""1"",""2303""
","
","
","""event"",""trial"",""time""
""fullscreenenter"",""1"",""2303""
","
","","","","","","572.4000000953674","<p> Try to make the best choice for each vehicle because </p><p> at the end of the game, you will earn bonus money based on how many points you earned. </p>","","0","instructions","","","","","","","","","","",""
"learning-instructions","188","709688","0.0-11.0-1.0-0.11","6490","2","24","Male","approach_avoid_spark_v1","""event"",""trial"",""time""
""fullscreenenter"",""1"",""2303""
","
","
","""event"",""trial"",""time""
""fullscreenenter"",""1"",""2303""
","
","","","","","","821.5","<p> You will have 3 seconds to make each choice. Try to respond before time runs out! </p><p> You will lose 5 points each time you do not make a response. </p>","","0","instructions","","","","","","","","","","",""
"html-keyboard-response","189","710318","0.0-11.0-2.0-0.0","6490","2","24","Male","approach_avoid_spark_v1","""event"",""trial"",""time""
""fullscreenenter"",""1"",""2303""
","
","
","""event"",""trial"",""time""
""fullscreenenter"",""1"",""2303""
","
","","","","","","null","<div style=""font-size:60px;"">+</div>","null","","fixation","","","","","","","","","","",""
"aa-learning-trial","190","713319","0.0-11.0-2.0-1.0","6490","2","24","Male","approach_avoid_spark_v1","""event"",""trial"",""time""
""fullscreenenter"",""1"",""2303""
","
","
","""event"",""trial"",""time""
""fullscreenenter"",""1"",""2303""
","
","","","","","","null","images/truck7.png","","","learning","-6","-5","","null","truck","vehicles","1","1","","bad","[-3]"
"html-keyboard-response","191","713832","0.0-11.0-2.0-0.1","6490","2","24","Male","approach_avoid_spark_v1","""event"",""trial"",""time""
""fullscreenenter"",""1"",""2303""
","
","
","""event"",""trial"",""time""
""fullscreenenter"",""1"",""2303""
","
","","","","","","null","<div style=""font-size:60px;"">+</div>","null","","fixation","","","","","","","","","","",""
"aa-learning-trial","192","716838","0.0-11.0-2.0-1.1","6490","2","24","Male","approach_avoid_spark_v1","""event"",""trial"",""time""
""fullscreenenter"",""1"",""2303""
","
","
","""event"",""trial"",""time""
""fullscreenenter"",""1"",""2303""
","
","","","","","","840.5999999046326","images/plane7.png","","","learning","-4","-4","1","1","plane","vehicles","1","1","","neutral","0"
"html-keyboard-response","193","717351","0.0-11.0-2.0-0.2","6490","2","24","Male","approach_avoid_spark_v1","""event"",""trial"",""time""
""fullscreenenter"",""1"",""2303""
","
","
","""event"",""trial"",""time""
""fullscreenenter"",""1"",""2303""
","
","","","","","","null","<div style=""font-size:60px;"">+</div>","null","","fixation","","","","","","","","","","",""
"aa-learning-trial","194","720356","0.0-11.0-2.0-1.2","6490","2","24","Male","approach_avoid_spark_v1","""event"",""trial"",""time""
""fullscreenenter"",""1"",""2303""
","
","
","""event"",""trial"",""time""
""fullscreenenter"",""1"",""2303""
","
","","","","","","694.5999999046326","images/plane7.png","","","learning","4","0","0","0","plane","vehicles","1","1","","neutral","0"
"html-keyboard-response","195","720861","0.0-11.0-2.0-0.3","6490","2","24","Male","approach_avoid_spark_v1","""event"",""trial"",""time""
""fullscreenenter"",""1"",""2303""
","
","
","""event"",""trial"",""time""
""fullscreenenter"",""1"",""2303""
","
","","","","","","null","<div style=""font-size:60px;"">+</div>","null","","fixation","","","","","","","","","","",""
"aa-learning-trial","196","723872","0.0-11.0-2.0-1.3","6490","2","24","Male","approach_avoid_spark_v1","""event"",""trial"",""time""
""fullscreenenter"",""1"",""2303""
","
","
","""event"",""trial"",""time""
""fullscreenenter"",""1"",""2303""
","
","","","","","","673","images/train4.png","","","learning","5","5","1","1","train","vehicles","1","1","","good","[6]"
"html-keyboard-response","197","724384","0.0-11.0-2.0-0.4","6490","2","24","Male","approach_avoid_spark_v1","""event"",""trial"",""time""
""fullscreenenter"",""1"",""2303""
","
","
","""event"",""trial"",""time""
""fullscreenenter"",""1"",""2303""
","
","","","","","","null","<div style=""font-size:60px;"">+</div>","null","","fixation","","","","","","","","","","",""
"aa-learning-trial","198","727386","0.0-11.0-2.0-1.4","6490","2","24","Male","approach_avoid_spark_v1","""event"",""trial"",""time""
""fullscreenenter"",""1"",""2303""
","
","
","""event"",""trial"",""time""
""fullscreenenter"",""1"",""2303""
","
","","","","","","702.6000001430511","images/train7.png","","","learning","3","3","1","1","train","vehicles","1","1","","good","[6]"
"html-keyboard-response","199","727896","0.0-11.0-2.0-0.5","6490","2","24","Male","approach_avoid_spark_v1","""event"",""trial"",""time""
""fullscreenenter"",""1"",""2303""
","
","
","""event"",""trial"",""time""
""fullscreenenter"",""1"",""2303""
","
","","","","","","null","<div style=""font-size:60px;"">+</div>","null","","fixation","","","","","","","","","","",""
"aa-learning-trial","200","730907","0.0-11.0-2.0-1.5","6490","2","24","Male","approach_avoid_spark_v1","""event"",""trial"",""time""
""fullscreenenter"",""1"",""2303""
","
","
","""event"",""trial"",""time""
""fullscreenenter"",""1"",""2303""
","
","","","","","","839","images/plane5.png","","","learning","-1","-1","1","1","plane","vehicles","1","1","","neutral","0"
"html-keyboard-response","201","731417","0.0-11.0-2.0-0.6","6490","2","24","Male","approach_avoid_spark_v1","""event"",""trial"",""time""
""fullscreenenter"",""1"",""2303""
","
","
","""event"",""trial"",""time""
""fullscreenenter"",""1"",""2303""
","
","","","","","","null","<div style=""font-size:60px;"">+</div>","null","","fixation","","","","","","","","","","",""
"aa-learning-trial","202","734420","0.0-11.0-2.0-1.6","6490","2","24","Male","approach_avoid_spark_v1","""event"",""trial"",""time""
""fullscreenenter"",""1"",""2303""
","
","
","""event"",""trial"",""time""
""fullscreenenter"",""1"",""2303""
","
","","","","","","646.2000000476837","images/truck1.png","","","learning","-2","-2","1","1","truck","vehicles","1","1","","bad","[-3]"
"html-keyboard-response","203","734936","0.0-11.0-2.0-0.7","6490","2","24","Male","approach_avoid_spark_v1","""event"",""trial"",""time""
""fullscreenenter"",""1"",""2303""
","
","
","""event"",""trial"",""time""
""fullscreenenter"",""1"",""2303""
","
","","","","","","null","<div style=""font-size:60px;"">+</div>","null","","fixation","","","","","","","","","","",""
"aa-learning-trial","204","737946","0.0-11.0-2.0-1.7","6490","2","24","Male","approach_avoid_spark_v1","""event"",""trial"",""time""
""fullscreenenter"",""1"",""2303""
","
","
","""event"",""trial"",""time""
""fullscreenenter"",""1"",""2303""
","
","","","","","","981.1000001430511","images/plane8.png","","","learning","-3","0","0","0","plane","vehicles","1","1","","neutral","0"
"html-keyboard-response","205","738458","0.0-11.0-2.0-0.8","6490","2","24","Male","approach_avoid_spark_v1","""event"",""trial"",""time""
""fullscreenenter"",""1"",""2303""
","
","
","""event"",""trial"",""time""
""fullscreenenter"",""1"",""2303""
","
","","","","","","null","<div style=""font-size:60px;"">+</div>","null","","fixation","","","","","","","","","","",""
"aa-learning-trial","206","741468","0.0-11.0-2.0-1.8","6490","2","24","Male","approach_avoid_spark_v1","""event"",""trial"",""time""
""fullscreenenter"",""1"",""2303""
","
","
","""event"",""trial"",""time""
""fullscreenenter"",""1"",""2303""
","
","","","","","","692.5999999046326","images/truck7.png","","","learning","-6","-6","1","1","truck","vehicles","1","1","","bad","[-3]"
"html-keyboard-response","207","741971","0.0-11.0-2.0-0.9","6490","2","24","Male","approach_avoid_spark_v1","""event"",""trial"",""time""
""fullscreenenter"",""1"",""2303""
","
","
","""event"",""trial"",""time""
""fullscreenenter"",""1"",""2303""
","
","","","","","","null","<div style=""font-size:60px;"">+</div>","null","","fixation","","","","","","","","","","",""
"aa-learning-trial","208","744972","0.0-11.0-2.0-1.9","6490","2","24","Male","approach_avoid_spark_v1","""event"",""trial"",""time""
""fullscreenenter"",""1"",""2303""
","
","
","""event"",""trial"",""time""
""fullscreenenter"",""1"",""2303""
","
","","","","","","1036.5999999046326","images/truck3.png","","","learning","-2","-2","1","1","truck","vehicles","1","1","","bad","[-3]"
"html-keyboard-response","209","745473","0.0-11.0-2.0-0.10","6490","2","24","Male","approach_avoid_spark_v1","""event"",""trial"",""time""
""fullscreenenter"",""1"",""2303""
","
","
","""event"",""trial"",""time""
""fullscreenenter"",""1"",""2303""
","
","","","","","","null","<div style=""font-size:60px;"">+</div>","null","","fixation","","","","","","","","","","",""
"aa-learning-trial","210","748485","0.0-11.0-2.0-1.10","6490","2","24","Male","approach_avoid_spark_v1","""event"",""trial"",""time""
""fullscreenenter"",""1"",""2303""
","
","
","""event"",""trial"",""time""
""fullscreenenter"",""1"",""2303""
","
","","","","","","923.9000000953674","images/plane5.png","","","learning","[-1]","-1","1","1","plane","vehicles","1","1","","neutral","0"
"html-keyboard-response","211","748987","0.0-11.0-2.0-0.11","6490","2","24","Male","approach_avoid_spark_v1","""event"",""trial"",""time""
""fullscreenenter"",""1"",""2303""
","
","
","""event"",""trial"",""time""
""fullscreenenter"",""1"",""2303""
","
","","","","","","null","<div style=""font-size:60px;"">+</div>","null","","fixation","","","","","","","","","","",""
"aa-learning-trial","212","751991","0.0-11.0-2.0-1.11","6490","2","24","Male","approach_avoid_spark_v1","""event"",""trial"",""time""
""fullscreenenter"",""1"",""2303""
","
","
","""event"",""trial"",""time""
""fullscreenenter"",""1"",""2303""
","
","","","","","","625","images/train4.png","","","learning","5","5","1","1","train","vehicles","1","1","","good","[6]"
"html-keyboard-response","213","752492","0.0-11.0-2.0-0.12","6490","2","24","Male","approach_avoid_spark_v1","""event"",""trial"",""time""
""fullscreenenter"",""1"",""2303""
","
","
","""event"",""trial"",""time""
""fullscreenenter"",""1"",""2303""
","
","","","","","","null","<div style=""font-size:60px;"">+</div>","null","","fixation","","","","","","","","","","",""
"aa-learning-trial","214","755497","0.0-11.0-2.0-1.12","6490","2","24","Male","approach_avoid_spark_v1","""event"",""trial"",""time""
""fullscreenenter"",""1"",""2303""
","
","
","""event"",""trial"",""time""
""fullscreenenter"",""1"",""2303""
","
","","","","","","578.8000001907349","images/truck1.png","","","learning","-3","0","0","0","truck","vehicles","1","1","","bad","[-3]"
"html-keyboard-response","215","755998","0.0-11.0-2.0-0.13","6490","2","24","Male","approach_avoid_spark_v1","""event"",""trial"",""time""
""fullscreenenter"",""1"",""2303""
","
","
","""event"",""trial"",""time""
""fullscreenenter"",""1"",""2303""
","
","","","","","","null","<div style=""font-size:60px;"">+</div>","null","","fixation","","","","","","","","","","",""
"aa-learning-trial","216","759001","0.0-11.0-2.0-1.13","6490","2","24","Male","approach_avoid_spark_v1","""event"",""trial"",""time""
""fullscreenenter"",""1"",""2303""
","
","
","""event"",""trial"",""time""
""fullscreenenter"",""1"",""2303""
","
","","","","","","639.3999998569489","images/train2.png","","","learning","4","4","1","1","train","vehicles","1","1","","good","[6]"
"html-keyboard-response","217","759503","0.0-11.0-2.0-0.14","6490","2","24","Male","approach_avoid_spark_v1","""event"",""trial"",""time""
""fullscreenenter"",""1"",""2303""
","
","
","""event"",""trial"",""time""
""fullscreenenter"",""1"",""2303""
","
","","","","","","null","<div style=""font-size:60px;"">+</div>","null","","fixation","","","","","","","","","","",""
"aa-learning-trial","218","762506","0.0-11.0-2.0-1.14","6490","2","24","Male","approach_avoid_spark_v1","""event"",""trial"",""time""
""fullscreenenter"",""1"",""2303""
","
","
","""event"",""trial"",""time""
""fullscreenenter"",""1"",""2303""
","
","","","","","","398.40000009536743","images/train2.png","","","learning","7","7","1","1","train","vehicles","1","1","","good","[6]"
"html-keyboard-response","219","763007","0.0-11.0-2.0-0.15","6490","2","24","Male","approach_avoid_spark_v1","""event"",""trial"",""time""
""fullscreenenter"",""1"",""2303""
","
","
","""event"",""trial"",""time""
""fullscreenenter"",""1"",""2303""
","
","","","","","","null","<div style=""font-size:60px;"">+</div>","null","","fixation","","","","","","","","","","",""
"aa-learning-trial","220","766009","0.0-11.0-2.0-1.15","6490","2","24","Male","approach_avoid_spark_v1","""event"",""trial"",""time""
""fullscreenenter"",""1"",""2303""
","
","
","""event"",""trial"",""time""
""fullscreenenter"",""1"",""2303""
","
","","","","","","384.2999999523163","images/train2.png","","","learning","6","6","1","1","train","vehicles","1","1","","good","[6]"
"html-keyboard-response","221","766510","0.0-11.0-2.0-0.16","6490","2","24","Male","approach_avoid_spark_v1","""event"",""trial"",""time""
""fullscreenenter"",""1"",""2303""
","
","
","""event"",""trial"",""time""
""fullscreenenter"",""1"",""2303""
","
","","","","","","null","<div style=""font-size:60px;"">+</div>","null","","fixation","","","","","","","","","","",""
"aa-learning-trial","222","769512","0.0-11.0-2.0-1.16","6490","2","24","Male","approach_avoid_spark_v1","""event"",""trial"",""time""
""fullscreenenter"",""1"",""2303""
","
","
","""event"",""trial"",""time""
""fullscreenenter"",""1"",""2303""
","
","","","","","","511.59999990463257","images/truck1.png","","","learning","-3","0","0","0","truck","vehicles","1","1","","bad","[-3]"
"html-keyboard-response","223","770015","0.0-11.0-2.0-0.17","6490","2","24","Male","approach_avoid_spark_v1","""event"",""trial"",""time""
""fullscreenenter"",""1"",""2303""
","
","
","""event"",""trial"",""time""
""fullscreenenter"",""1"",""2303""
","
","","","","","","null","<div style=""font-size:60px;"">+</div>","null","","fixation","","","","","","","","","","",""
"aa-learning-trial","224","773017","0.0-11.0-2.0-1.17","6490","2","24","Male","approach_avoid_spark_v1","""event"",""trial"",""time""
""fullscreenenter"",""1"",""2303""
","
","
","""event"",""trial"",""time""
""fullscreenenter"",""1"",""2303""
","
","","","","","","560.3999998569489","images/train4.png","","","learning","5","5","1","1","train","vehicles","1","1","","good","[6]"
"html-keyboard-response","225","773518","0.0-11.0-2.0-0.18","6490","2","24","Male","approach_avoid_spark_v1","""event"",""trial"",""time""
""fullscreenenter"",""1"",""2303""
","
","
","""event"",""trial"",""time""
""fullscreenenter"",""1"",""2303""
","
","","","","","","null","<div style=""font-size:60px;"">+</div>","null","","fixation","","","","","","","","","","",""
"aa-learning-trial","226","776525","0.0-11.0-2.0-1.18","6490","2","24","Male","approach_avoid_spark_v1","""event"",""trial"",""time""
""fullscreenenter"",""1"",""2303""
","
","
","""event"",""trial"",""time""
""fullscreenenter"",""1"",""2303""
","
","","","","","","717.7999999523163","images/truck7.png","","","learning","-1","0","0","0","truck","vehicles","1","1","","bad","[-3]"
"html-keyboard-response","227","777032","0.0-11.0-2.0-0.19","6490","2","24","Male","approach_avoid_spark_v1","""event"",""trial"",""time""
""fullscreenenter"",""1"",""2303""
","
","
","""event"",""trial"",""time""
""fullscreenenter"",""1"",""2303""
","
","","","","","","null","<div style=""font-size:60px;"">+</div>","null","","fixation","","","","","","","","","","",""
"aa-learning-trial","228","780036","0.0-11.0-2.0-1.19","6490","2","24","Male","approach_avoid_spark_v1","""event"",""trial"",""time""
""fullscreenenter"",""1"",""2303""
","
","
","""event"",""trial"",""time""
""fullscreenenter"",""1"",""2303""
","
","","","","","","1043.0999999046326","images/plane7.png","","","learning","-1","0","0","0","plane","vehicles","1","1","","neutral","0"
"html-keyboard-response","229","780538","0.0-11.0-2.0-0.20","6490","2","24","Male","approach_avoid_spark_v1","""event"",""trial"",""time""
""fullscreenenter"",""1"",""2303""
","
","
","""event"",""trial"",""time""
""fullscreenenter"",""1"",""2303""
","
","","","","","","null","<div style=""font-size:60px;"">+</div>","null","","fixation","","","","","","","","","","",""
"aa-learning-trial","230","783548","0.0-11.0-2.0-1.20","6490","2","24","Male","approach_avoid_spark_v1","""event"",""trial"",""time""
""fullscreenenter"",""1"",""2303""
","
","
","""event"",""trial"",""time""
""fullscreenenter"",""1"",""2303""
","
","","","","","","595.7999999523163","images/truck7.png","","","learning","-2","0","0","0","truck","vehicles","1","1","","bad","[-3]"
"html-keyboard-response","231","784050","0.0-11.0-2.0-0.21","6490","2","24","Male","approach_avoid_spark_v1","""event"",""trial"",""time""
""fullscreenenter"",""1"",""2303""
","
","
","""event"",""trial"",""time""
""fullscreenenter"",""1"",""2303""
","
","","","","","","null","<div style=""font-size:60px;"">+</div>","null","","fixation","","","","","","","","","","",""
"aa-learning-trial","232","787052","0.0-11.0-2.0-1.21","6490","2","24","Male","approach_avoid_spark_v1","""event"",""trial"",""time""
""fullscreenenter"",""1"",""2303""
","
","
","""event"",""trial"",""time""
""fullscreenenter"",""1"",""2303""
","
","","","","","","492.60000014305115","images/truck1.png","","","learning","-1","0","0","0","truck","vehicles","1","1","","bad","[-3]"
"html-keyboard-response","233","787554","0.0-11.0-2.0-0.22","6490","2","24","Male","approach_avoid_spark_v1","""event"",""trial"",""time""
""fullscreenenter"",""1"",""2303""
","
","
","""event"",""trial"",""time""
""fullscreenenter"",""1"",""2303""
","
","","","","","","null","<div style=""font-size:60px;"">+</div>","null","","fixation","","","","","","","","","","",""
"aa-learning-trial","234","790558","0.0-11.0-2.0-1.22","6490","2","24","Male","approach_avoid_spark_v1","""event"",""trial"",""time""
""fullscreenenter"",""1"",""2303""
","
","
","""event"",""trial"",""time""
""fullscreenenter"",""1"",""2303""
","
","","","","","","492","images/train7.png","","","learning","5","5","1","1","train","vehicles","1","1","","good","[6]"
"html-keyboard-response","235","791064","0.0-11.0-2.0-0.23","6490","2","24","Male","approach_avoid_spark_v1","""event"",""trial"",""time""
""fullscreenenter"",""1"",""2303""
","
","
","""event"",""trial"",""time""
""fullscreenenter"",""1"",""2303""
","
","","","","","","null","<div style=""font-size:60px;"">+</div>","null","","fixation","","","","","","","","","","",""
"aa-learning-trial","236","794067","0.0-11.0-2.0-1.23","6490","2","24","Male","approach_avoid_spark_v1","""event"",""trial"",""time""
""fullscreenenter"",""1"",""2303""
","
","
","""event"",""trial"",""time""
""fullscreenenter"",""1"",""2303""
","
","","","","","","742.2999999523163","images/truck1.png","","","learning","-5","0","0","0","truck","vehicles","1","1","","bad","[-3]"
"html-keyboard-response","237","794568","0.0-11.0-2.0-0.24","6490","2","24","Male","approach_avoid_spark_v1","""event"",""trial"",""time""
""fullscreenenter"",""1"",""2303""
","
","
","""event"",""trial"",""time""
