"trial_type","trial_index","time_elapsed","internal_node_id","subject_id","task_condition","age","gender","task_version","interactions","blur_events","focus_events","fullscreenenter_events","fullscreenexit_events","success","timeout","failed_images","failed_audio","failed_video","rt","stimulus","response","button_pressed","task_part","approach_reward","points","key_press","option_selected","stim_cat","task_block","block_condition","block_number","correct","cat_type","mean_cat_reward"
"pavlovia","0","3","0.0-0.0","8071","2","8","Female","approach_avoid_spark_v1","""event"",""trial"",""time""
""fullscreenenter"",""1"",""1899""
","
","
","""event"",""trial"",""time""
""fullscreenenter"",""1"",""1899""
","
","","","","","","","","","","","","","","","","","","","","",""
"fullscreen","1","2895","0.0-1.0","8071","2","8","Female","approach_avoid_spark_v1","""event"",""trial"",""time""
""fullscreenenter"",""1"",""1899""
""fullscreenexit"",""2"",""7176""
","
","
","""event"",""trial"",""time""
""fullscreenenter"",""1"",""1899""
","""event"",""trial"",""time""
""fullscreenexit"",""2"",""7176""
","true","","","","","","","","","","","","","","","","","","","",""
"preload","2","31945","0.0-2.0","8071","2","8","Female","approach_avoid_spark_v1","""event"",""trial"",""time""
""fullscreenenter"",""1"",""1899""
""fullscreenexit"",""2"",""7176""
","
","
","""event"",""trial"",""time""
""fullscreenenter"",""1"",""1899""
","""event"",""trial"",""time""
""fullscreenexit"",""2"",""7176""
","true","false","[]","[]","[]","","","","","","","","","","","","","","","",""
"audio-keyboard-response","3","38352","0.0-3.0","8071","2","8","Female","approach_avoid_spark_v1","""event"",""trial"",""time""
""fullscreenenter"",""1"",""1899""
""fullscreenexit"",""2"",""7176""
","
","
","""event"",""trial"",""time""
""fullscreenenter"",""1"",""1899""
","""event"",""trial"",""time""
""fullscreenexit"",""2"",""7176""
","","","","","","6410.666666666664","audio/beep_loop.wav"," ","","","","","","","","","","","","",""
"audio-button-response","4","40243","0.0-4.0","8071","2","8","Female","approach_avoid_spark_v1","""event"",""trial"",""time""
""fullscreenenter"",""1"",""1899""
""fullscreenexit"",""2"",""7176""
","
","
","""event"",""trial"",""time""
""fullscreenenter"",""1"",""1899""
","""event"",""trial"",""time""
""fullscreenexit"",""2"",""7176""
","","","","","","1891","audio/shark.wav","4","","","","","","","","","","","","",""
"audio-button-response","5","42915","0.0-5.0","8071","2","8","Female","approach_avoid_spark_v1","""event"",""trial"",""time""
""fullscreenenter"",""1"",""1899""
""fullscreenexit"",""2"",""7176""
","
","
","""event"",""trial"",""time""
""fullscreenenter"",""1"",""1899""
","""event"",""trial"",""time""
""fullscreenexit"",""2"",""7176""
","","","","","","1651","audio/turtle.wav","1","","","","","","","","","","","","",""
"preload","6","53180","0.0-6.0","8071","2","8","Female","approach_avoid_spark_v1","""event"",""trial"",""time""
""fullscreenenter"",""1"",""1899""
""fullscreenexit"",""2"",""7176""
","
","
","""event"",""trial"",""time""
""fullscreenenter"",""1"",""1899""
","""event"",""trial"",""time""
""fullscreenexit"",""2"",""7176""
","true","false","[]","[]","[]","","","","","","","","","","","","","","","",""
"html-keyboard-response","7","56562","0.0-7.0","8071","2","8","Female","approach_avoid_spark_v1","""event"",""trial"",""time""
""fullscreenenter"",""1"",""1899""
""fullscreenexit"",""2"",""7176""
","
","
","""event"",""trial"",""time""
""fullscreenenter"",""1"",""1899""
","""event"",""trial"",""time""
""fullscreenexit"",""2"",""7176""
","","","","","","3381.2999999523163","Welcome to the experiment. Press any key to begin and to advance the instructions."," ","","","","","","","","","","","","",""
"learning-instructions","8","73729","0.0-8.0-0.0-0.0","8071","2","8","Female","approach_avoid_spark_v1","""event"",""trial"",""time""
""fullscreenenter"",""1"",""1899""
""fullscreenexit"",""2"",""7176""
""blur"",""8"",""78316""
""focus"",""9"",""78320""
","""event"",""trial"",""time""
""blur"",""8"",""78316""
","""event"",""trial"",""time""
""focus"",""9"",""78320""
","""event"",""trial"",""time""
""fullscreenenter"",""1"",""1899""
","""event"",""trial"",""time""
""fullscreenexit"",""2"",""7176""
","","","","","","10211.400000095367","<p> Welcome! Today you are going to play 6 different rounds of a decision-making game. </p><p> Use the mouse to click next to continue. </p>","","0","instructions","","","","","","","","","","",""
"learning-instructions","9","83169","0.0-8.0-0.0-0.1","8071","2","8","Female","approach_avoid_spark_v1","""event"",""trial"",""time""
""fullscreenenter"",""1"",""1899""
""fullscreenexit"",""2"",""7176""
""blur"",""8"",""78316""
""focus"",""9"",""78320""
","""event"",""trial"",""time""
""blur"",""8"",""78316""
","""event"",""trial"",""time""
""focus"",""9"",""78320""
","""event"",""trial"",""time""
""fullscreenenter"",""1"",""1899""
","""event"",""trial"",""time""
""fullscreenexit"",""2"",""7176""
","","","","","","2231.9000000953674","<p> You will start with a practice round to learn the rules. </p>","","0","instructions","","","","","","","","","","",""
"learning-instructions","10","87273","0.0-8.0-0.0-0.2","8071","2","8","Female","approach_avoid_spark_v1","""event"",""trial"",""time""
""fullscreenenter"",""1"",""1899""
""fullscreenexit"",""2"",""7176""
""blur"",""8"",""78316""
""focus"",""9"",""78320""
","""event"",""trial"",""time""
""blur"",""8"",""78316""
","""event"",""trial"",""time""
""focus"",""9"",""78320""
","""event"",""trial"",""time""
""fullscreenenter"",""1"",""1899""
","""event"",""trial"",""time""
""fullscreenexit"",""2"",""7176""
","","","","","","645.9000000953674","<p> Your goal in this round is to give out sports equipment to kids. </p></div>","","0","instructions","","","","","","","","","","",""
"learning-instructions","11","95810","0.0-8.0-0.0-0.3","8071","2","8","Female","approach_avoid_spark_v1","""event"",""trial"",""time""
""fullscreenenter"",""1"",""1899""
""fullscreenexit"",""2"",""7176""
""blur"",""8"",""78316""
""focus"",""9"",""78320""
","""event"",""trial"",""time""
""blur"",""8"",""78316""
","""event"",""trial"",""time""
""focus"",""9"",""78320""
","""event"",""trial"",""time""
""fullscreenenter"",""1"",""1899""
","""event"",""trial"",""time""
""fullscreenexit"",""2"",""7176""
","","","","","","971.8999998569489","<p> The kids only like some of the equipment.  </p><p> On each turn, you will see a piece of sports equipment.   </p><p> You need to decide whether to give it to the kids or not.  </p>","","0","instructions","","","","","","","","","","",""
"learning-instructions","12","111410","0.0-8.0-0.0-0.4","8071","2","8","Female","approach_avoid_spark_v1","""event"",""trial"",""time""
""fullscreenenter"",""1"",""1899""
""fullscreenexit"",""2"",""7176""
""blur"",""8"",""78316""
""focus"",""9"",""78320""
","""event"",""trial"",""time""
""blur"",""8"",""78316""
","""event"",""trial"",""time""
""focus"",""9"",""78320""
","""event"",""trial"",""time""
""fullscreenenter"",""1"",""1899""
","""event"",""trial"",""time""
""fullscreenexit"",""2"",""7176""
","","","","","","10831.899999856949","<p> You can give them the equipment by pressing 1 and choose not to give it to them by pressing 0. </p><br><div class=""choice-instructions-grid""> <div class=""choice-option""><img src=""images/approach.png"" class=""choice-option-img"" stage=""instructions"" position=""0"" ><div class=""choice-option-text""> Press ""1."" </div></div><div class=""choice-option""><img src=""images/avoid.png"" class=""choice-option-img"" stage=""instructions"" position=""1"" ><div class=""choice-option-text""> Press ""0."" </div></div>","","0","instructions","","","","","","","","","","",""
"learning-instructions","13","119530","0.0-8.0-0.0-0.5","8071","2","8","Female","approach_avoid_spark_v1","""event"",""trial"",""time""
""fullscreenenter"",""1"",""1899""
""fullscreenexit"",""2"",""7176""
""blur"",""8"",""78316""
""focus"",""9"",""78320""
","""event"",""trial"",""time""
""blur"",""8"",""78316""
","""event"",""trial"",""time""
""focus"",""9"",""78320""
","""event"",""trial"",""time""
""fullscreenenter"",""1"",""1899""
","""event"",""trial"",""time""
""fullscreenexit"",""2"",""7176""
","","","","","","731.8000001907349","<p> If you give them a piece of equipment they like, they will be happy! </p><p> But if you give them a piece of equipment they do not like, they will be sad. </p>","","0","instructions","","","","","","","","","","",""
"learning-instructions","14","131070","0.0-8.0-0.0-0.6","8071","2","8","Female","approach_avoid_spark_v1","""event"",""trial"",""time""
""fullscreenenter"",""1"",""1899""
""fullscreenexit"",""2"",""7176""
""blur"",""8"",""78316""
""focus"",""9"",""78320""
","""event"",""trial"",""time""
""blur"",""8"",""78316""
","""event"",""trial"",""time""
""focus"",""9"",""78320""
","""event"",""trial"",""time""
""fullscreenenter"",""1"",""1899""
","""event"",""trial"",""time""
""fullscreenexit"",""2"",""7176""
","","","","","","1017.5","<p> You will earn points based on how you make kids feel. </p><p> If you make them happy, you will WIN anywhere from 1 - 9 points, </p><p> but if you make them sad, you will LOSE anywhere from 1 - 9 points. </p>","","0","instructions","","","","","","","","","","",""
"learning-instructions","15","143230","0.0-8.0-0.0-0.7","8071","2","8","Female","approach_avoid_spark_v1","""event"",""trial"",""time""
""fullscreenenter"",""1"",""1899""
""fullscreenexit"",""2"",""7176""
""blur"",""8"",""78316""
""focus"",""9"",""78320""
","""event"",""trial"",""time""
""blur"",""8"",""78316""
","""event"",""trial"",""time""
""focus"",""9"",""78320""
","""event"",""trial"",""time""
""fullscreenenter"",""1"",""1899""
","""event"",""trial"",""time""
""fullscreenexit"",""2"",""7176""
","","","","","","2617.5999999046326","<p> You will see how many points you won or lost in the center of the screen. </p><p> Here is what you would see if you won 6 points: </p><p style=""color:green;font-size:50px;font-weight:bolder"">6</p><p style=""color:green"">The text is GREEN because you WON points.</p>","","0","instructions","","","","","","","","","","",""
"learning-instructions","16","149879","0.0-8.0-0.0-0.8","8071","2","8","Female","approach_avoid_spark_v1","""event"",""trial"",""time""
""fullscreenenter"",""1"",""1899""
""fullscreenexit"",""2"",""7176""
""blur"",""8"",""78316""
""focus"",""9"",""78320""
","""event"",""trial"",""time""
""blur"",""8"",""78316""
","""event"",""trial"",""time""
""focus"",""9"",""78320""
","""event"",""trial"",""time""
""fullscreenenter"",""1"",""1899""
","""event"",""trial"",""time""
""fullscreenexit"",""2"",""7176""
","","","","","","1135.7000000476837","<p> And here is what you would see if you lost 4 points: </p><p style=""color:red;font-size:50px;font-weight:bolder"">-4</p><p style=""color:red"">The text is RED because you LOST points. </p>","","0","instructions","","","","","","","","","","",""
"learning-instructions","17","165327","0.0-8.0-0.0-0.9","8071","2","8","Female","approach_avoid_spark_v1","""event"",""trial"",""time""
""fullscreenenter"",""1"",""1899""
""fullscreenexit"",""2"",""7176""
""blur"",""8"",""78316""
""focus"",""9"",""78320""
","""event"",""trial"",""time""
""blur"",""8"",""78316""
","""event"",""trial"",""time""
""focus"",""9"",""78320""
","""event"",""trial"",""time""
""fullscreenenter"",""1"",""1899""
","""event"",""trial"",""time""
""fullscreenexit"",""2"",""7176""
","","","","","","733.7000000476837","<p> Some of the equipment will make the kids VERY happy or sad. </p><p> These pieces of equipment will make you win or lose LOTS of points. </p><p> Other pieces of equipment will only make the kids a little happy or sad. </p><p> These pieces of equipment will make you win or lose small amounts of points. </p>","","0","instructions","","","","","","","","","","",""
"learning-instructions","18","176824","0.0-8.0-0.0-0.10","8071","2","8","Female","approach_avoid_spark_v1","""event"",""trial"",""time""
""fullscreenenter"",""1"",""1899""
""fullscreenexit"",""2"",""7176""
""blur"",""8"",""78316""
""focus"",""9"",""78320""
","""event"",""trial"",""time""
""blur"",""8"",""78316""
","""event"",""trial"",""time""
""focus"",""9"",""78320""
","""event"",""trial"",""time""
""fullscreenenter"",""1"",""1899""
","""event"",""trial"",""time""
""fullscreenexit"",""2"",""7176""
","","","","","","869.2000000476837","<p> If you choose not to give them the equipment, you will not win or lose any points. </p><p>  However, in the center of the screen, you will see the number of points you WOULD HAVE won or lost if you had given them the equipment. </p>","","0","instructions","","","","","","","","","","",""
"learning-instructions","19","200497","0.0-8.0-0.0-0.11","8071","2","8","Female","approach_avoid_spark_v1","""event"",""trial"",""time""
""fullscreenenter"",""1"",""1899""
""fullscreenexit"",""2"",""7176""
""blur"",""8"",""78316""
""focus"",""9"",""78320""
","""event"",""trial"",""time""
""blur"",""8"",""78316""
","""event"",""trial"",""time""
""focus"",""9"",""78320""
","""event"",""trial"",""time""
""fullscreenenter"",""1"",""1899""
","""event"",""trial"",""time""
""fullscreenexit"",""2"",""7176""
","","","","","","2131.0999999046326","<p> Here is what you might see if you did not give the equipment to the kids but it would have made them happy: </p><p style=""color:grey; font-size:50px; display: inline-block; border-spacing: 15px; border-width:3px; border-style:solid; border-color:red"">  &nbsp; 7 &nbsp; </p><p> Remember, in this case, you would not win or lose ANY points because you did not give them the equipment.  </p><p style=""color:grey"">The text is GREY because you earned ZERO points. </p><p style=""color:red"">However, choosing to give the kids the equipment would have made you win points. The box around the text is RED because you chose the worse option. </p>","","0","instructions","","","","","","","","","","",""
"learning-instructions","20","222353","0.0-8.0-0.0-0.12","8071","2","8","Female","approach_avoid_spark_v1","""event"",""trial"",""time""
""fullscreenenter"",""1"",""1899""
""fullscreenexit"",""2"",""7176""
""blur"",""8"",""78316""
""focus"",""9"",""78320""
","""event"",""trial"",""time""
""blur"",""8"",""78316""
","""event"",""trial"",""time""
""focus"",""9"",""78320""
","""event"",""trial"",""time""
""fullscreenenter"",""1"",""1899""
","""event"",""trial"",""time""
""fullscreenexit"",""2"",""7176""
","","","","","","777.1000001430511","<p> Here is what you might see if you did not give the equipment to the kids but it would have made them sad: </p><p style=""color:grey;font-size:50px; display: inline-block; border-spacing: 15px; border-width:3px; border-style:solid; border-color:green"">  &nbsp; -8 &nbsp; </p><p> Remember, in this case, you would not win or lose ANY points because you did not give them the equipment.  </p><p style=""color:grey"">The text is GREY because you earned ZERO points. </p><p  style=""color:green""> Choosing to give the kids the equipment would have made you lose points. The box around the text is GREEN because you chose the better option.</p>","","0","instructions","","","","","","","","","","",""
"learning-instructions","21","232602","0.0-8.0-0.0-0.13","8071","2","8","Female","approach_avoid_spark_v1","""event"",""trial"",""time""
""fullscreenenter"",""1"",""1899""
""fullscreenexit"",""2"",""7176""
""blur"",""8"",""78316""
""focus"",""9"",""78320""
","""event"",""trial"",""time""
""blur"",""8"",""78316""
","""event"",""trial"",""time""
""focus"",""9"",""78320""
","""event"",""trial"",""time""
""fullscreenenter"",""1"",""1899""
","""event"",""trial"",""time""
""fullscreenexit"",""2"",""7176""
","","","","","","965.1000001430511","<p> You will have 3 seconds to make each choice. Try to respond before time runs out! </p><p> You will lose 5 points each time you do not make a response. </p>","","0","instructions","","","","","","","","","","",""
"learning-instructions","22","238866","0.0-8.0-0.0-0.14","8071","2","8","Female","approach_avoid_spark_v1","""event"",""trial"",""time""
""fullscreenenter"",""1"",""1899""
""fullscreenexit"",""2"",""7176""
""blur"",""8"",""78316""
""focus"",""9"",""78320""
","""event"",""trial"",""time""
""blur"",""8"",""78316""
","""event"",""trial"",""time""
""focus"",""9"",""78320""
","""event"",""trial"",""time""
""fullscreenenter"",""1"",""1899""
","""event"",""trial"",""time""
""fullscreenexit"",""2"",""7176""
","","","","","","849.1000001430511","<p> This is just a practice round, but in the real game, your bonus payment will depend on your total number of points.","","0","instructions","","","","","","","","","","",""
"learning-instructions","23","245562","0.0-8.0-0.0-0.15","8071","2","8","Female","approach_avoid_spark_v1","""event"",""trial"",""time""
""fullscreenenter"",""1"",""1899""
""fullscreenexit"",""2"",""7176""
""blur"",""8"",""78316""
""focus"",""9"",""78320""
","""event"",""trial"",""time""
""blur"",""8"",""78316""
","""event"",""trial"",""time""
""focus"",""9"",""78320""
","""event"",""trial"",""time""
""fullscreenenter"",""1"",""1899""
","""event"",""trial"",""time""
""fullscreenexit"",""2"",""7176""
","","","","","","924.3999998569489","<p> Remember, you can give them the equipment by pressing 1 and choose not to give it to them by pressing 0. </p><br><div class=""choice-instructions-grid""> <div class=""choice-option""><img src=""images/approach.png"" class=""choice-option-img"" stage=""instructions"" position=""0"" ><div class=""choice-option-text""> Press ""1."" </div></div><div class=""choice-option""><img src=""images/avoid.png"" class=""choice-option-img"" stage=""instructions"" position=""1"" ><div class=""choice-option-text""> Press ""0."" </div></div>","","0","instructions","","","","","","","","","","",""
"html-button-response","24","248378","0.0-8.0-1.0","8071","2","8","Female","approach_avoid_spark_v1","""event"",""trial"",""time""
""fullscreenenter"",""1"",""1899""
""fullscreenexit"",""2"",""7176""
""blur"",""8"",""78316""
""focus"",""9"",""78320""
","""event"",""trial"",""time""
""blur"",""8"",""78316""
","""event"",""trial"",""time""
""focus"",""9"",""78320""
","""event"",""trial"",""time""
""fullscreenenter"",""1"",""1899""
","""event"",""trial"",""time""
""fullscreenexit"",""2"",""7176""
","","","","","","2706.2000000476837","<p> Ready to practice? </p>","0","","","","","","","","","","","","",""
"html-keyboard-response","25","249001","0.0-8.0-2.0-0.0","8071","2","8","Female","approach_avoid_spark_v1","""event"",""trial"",""time""
""fullscreenenter"",""1"",""1899""
""fullscreenexit"",""2"",""7176""
""blur"",""8"",""78316""
""focus"",""9"",""78320""
","""event"",""trial"",""time""
""blur"",""8"",""78316""
","""event"",""trial"",""time""
""focus"",""9"",""78320""
","""event"",""trial"",""time""
""fullscreenenter"",""1"",""1899""
","""event"",""trial"",""time""
""fullscreenexit"",""2"",""7176""
","","","","","","null","<div style=""font-size:60px;"">+</div>","null","","fixation","","","","","","","","","","",""
"aa-learning-trial","26","252021","0.0-8.0-2.0-1.0","8071","2","8","Female","approach_avoid_spark_v1","""event"",""trial"",""time""
""fullscreenenter"",""1"",""1899""
""fullscreenexit"",""2"",""7176""
""blur"",""8"",""78316""
""focus"",""9"",""78320""
","""event"",""trial"",""time""
""blur"",""8"",""78316""
","""event"",""trial"",""time""
""focus"",""9"",""78320""
","""event"",""trial"",""time""
""fullscreenenter"",""1"",""1899""
","""event"",""trial"",""time""
""fullscreenexit"",""2"",""7176""
","","","","","","1088","images/ball3.png","","","learning","7","7","1","1","practice","practice","practice","-1","","",""
"html-keyboard-response","27","252526","0.0-8.0-2.0-0.1","8071","2","8","Female","approach_avoid_spark_v1","""event"",""trial"",""time""
""fullscreenenter"",""1"",""1899""
""fullscreenexit"",""2"",""7176""
""blur"",""8"",""78316""
""focus"",""9"",""78320""
","""event"",""trial"",""time""
""blur"",""8"",""78316""
","""event"",""trial"",""time""
""focus"",""9"",""78320""
","""event"",""trial"",""time""
""fullscreenenter"",""1"",""1899""
","""event"",""trial"",""time""
""fullscreenexit"",""2"",""7176""
","","","","","","null","<div style=""font-size:60px;"">+</div>","null","","fixation","","","","","","","","","","",""
"aa-learning-trial","28","255540","0.0-8.0-2.0-1.1","8071","2","8","Female","approach_avoid_spark_v1","""event"",""trial"",""time""
""fullscreenenter"",""1"",""1899""
""fullscreenexit"",""2"",""7176""
""blur"",""8"",""78316""
""focus"",""9"",""78320""
","""event"",""trial"",""time""
""blur"",""8"",""78316""
","""event"",""trial"",""time""
""focus"",""9"",""78320""
","""event"",""trial"",""time""
""fullscreenenter"",""1"",""1899""
","""event"",""trial"",""time""
""fullscreenexit"",""2"",""7176""
","","","","","","631","images/ball2.png","","","learning","-8","0","0","0","practice","practice","practice","-1","","",""
"html-keyboard-response","29","256061","0.0-8.0-2.0-0.2","8071","2","8","Female","approach_avoid_spark_v1","""event"",""trial"",""time""
""fullscreenenter"",""1"",""1899""
""fullscreenexit"",""2"",""7176""
""blur"",""8"",""78316""
""focus"",""9"",""78320""
","""event"",""trial"",""time""
""blur"",""8"",""78316""
","""event"",""trial"",""time""
""focus"",""9"",""78320""
","""event"",""trial"",""time""
""fullscreenenter"",""1"",""1899""
","""event"",""trial"",""time""
""fullscreenexit"",""2"",""7176""
","","","","","","null","<div style=""font-size:60px;"">+</div>","null","","fixation","","","","","","","","","","",""
"aa-learning-trial","30","259081","0.0-8.0-2.0-1.2","8071","2","8","Female","approach_avoid_spark_v1","""event"",""trial"",""time""
""fullscreenenter"",""1"",""1899""
""fullscreenexit"",""2"",""7176""
""blur"",""8"",""78316""
""focus"",""9"",""78320""
","""event"",""trial"",""time""
""blur"",""8"",""78316""
","""event"",""trial"",""time""
""focus"",""9"",""78320""
","""event"",""trial"",""time""
""fullscreenenter"",""1"",""1899""
","""event"",""trial"",""time""
""fullscreenexit"",""2"",""7176""
","","","","","","725.7000000476837","images/ball2.png","","","learning","1","1","1","1","practice","practice","practice","-1","","",""
"html-keyboard-response","31","259601","0.0-8.0-2.0-0.3","8071","2","8","Female","approach_avoid_spark_v1","""event"",""trial"",""time""
""fullscreenenter"",""1"",""1899""
""fullscreenexit"",""2"",""7176""
""blur"",""8"",""78316""
""focus"",""9"",""78320""
","""event"",""trial"",""time""
""blur"",""8"",""78316""
","""event"",""trial"",""time""
""focus"",""9"",""78320""
","""event"",""trial"",""time""
""fullscreenenter"",""1"",""1899""
","""event"",""trial"",""time""
""fullscreenexit"",""2"",""7176""
","","","","","","null","<div style=""font-size:60px;"">+</div>","null","","fixation","","","","","","","","","","",""
"aa-learning-trial","32","262621","0.0-8.0-2.0-1.3","8071","2","8","Female","approach_avoid_spark_v1","""event"",""trial"",""time""
""fullscreenenter"",""1"",""1899""
""fullscreenexit"",""2"",""7176""
""blur"",""8"",""78316""
""focus"",""9"",""78320""
","""event"",""trial"",""time""
""blur"",""8"",""78316""
","""event"",""trial"",""time""
""focus"",""9"",""78320""
","""event"",""trial"",""time""
""fullscreenenter"",""1"",""1899""
","""event"",""trial"",""time""
""fullscreenexit"",""2"",""7176""
","","","","","","570.7999999523163","images/ball2.png","","","learning","8","8","1","1","practice","practice","practice","-1","","",""
"html-keyboard-response","33","263141","0.0-8.0-2.0-0.4","8071","2","8","Female","approach_avoid_spark_v1","""event"",""trial"",""time""
""fullscreenenter"",""1"",""1899""
""fullscreenexit"",""2"",""7176""
""blur"",""8"",""78316""
""focus"",""9"",""78320""
","""event"",""trial"",""time""
""blur"",""8"",""78316""
","""event"",""trial"",""time""
""focus"",""9"",""78320""
","""event"",""trial"",""time""
""fullscreenenter"",""1"",""1899""
","""event"",""trial"",""time""
""fullscreenexit"",""2"",""7176""
","","","","","","null","<div style=""font-size:60px;"">+</div>","null","","fixation","","","","","","","","","","",""
"aa-learning-trial","34","266161","0.0-8.0-2.0-1.4","8071","2","8","Female","approach_avoid_spark_v1","""event"",""trial"",""time""
""fullscreenenter"",""1"",""1899""
""fullscreenexit"",""2"",""7176""
""blur"",""8"",""78316""
""focus"",""9"",""78320""
","""event"",""trial"",""time""
""blur"",""8"",""78316""
","""event"",""trial"",""time""
""focus"",""9"",""78320""
","""event"",""trial"",""time""
""fullscreenenter"",""1"",""1899""
","""event"",""trial"",""time""
""fullscreenexit"",""2"",""7176""
","","","","","","854.8000001907349","images/racket3.png","","","learning","4","4","1","1","practice","practice","practice","-1","","",""
"html-keyboard-response","35","266681","0.0-8.0-2.0-0.5","8071","2","8","Female","approach_avoid_spark_v1","""event"",""trial"",""time""
""fullscreenenter"",""1"",""1899""
""fullscreenexit"",""2"",""7176""
""blur"",""8"",""78316""
""focus"",""9"",""78320""
","""event"",""trial"",""time""
""blur"",""8"",""78316""
","""event"",""trial"",""time""
""focus"",""9"",""78320""
","""event"",""trial"",""time""
""fullscreenenter"",""1"",""1899""
","""event"",""trial"",""time""
""fullscreenexit"",""2"",""7176""
","","","","","","null","<div style=""font-size:60px;"">+</div>","null","","fixation","","","","","","","","","","",""
"aa-learning-trial","36","269702","0.0-8.0-2.0-1.5","8071","2","8","Female","approach_avoid_spark_v1","""event"",""trial"",""time""
""fullscreenenter"",""1"",""1899""
""fullscreenexit"",""2"",""7176""
""blur"",""8"",""78316""
""focus"",""9"",""78320""
","""event"",""trial"",""time""
""blur"",""8"",""78316""
","""event"",""trial"",""time""
""focus"",""9"",""78320""
","""event"",""trial"",""time""
""fullscreenenter"",""1"",""1899""
","""event"",""trial"",""time""
""fullscreenexit"",""2"",""7176""
","","","","","","508.40000009536743","images/racket4.png","","","learning","-4","-4","1","1","practice","practice","practice","-1","","",""
"html-keyboard-response","37","270221","0.0-8.0-2.0-0.6","8071","2","8","Female","approach_avoid_spark_v1","""event"",""trial"",""time""
""fullscreenenter"",""1"",""1899""
""fullscreenexit"",""2"",""7176""
""blur"",""8"",""78316""
""focus"",""9"",""78320""
","""event"",""trial"",""time""
""blur"",""8"",""78316""
","""event"",""trial"",""time""
""focus"",""9"",""78320""
","""event"",""trial"",""time""
""fullscreenenter"",""1"",""1899""
","""event"",""trial"",""time""
""fullscreenexit"",""2"",""7176""
","","","","","","null","<div style=""font-size:60px;"">+</div>","null","","fixation","","","","","","","","","","",""
"aa-learning-trial","38","273232","0.0-8.0-2.0-1.6","8071","2","8","Female","approach_avoid_spark_v1","""event"",""trial"",""time""
""fullscreenenter"",""1"",""1899""
""fullscreenexit"",""2"",""7176""
""blur"",""8"",""78316""
""focus"",""9"",""78320""
","""event"",""trial"",""time""
""blur"",""8"",""78316""
","""event"",""trial"",""time""
""focus"",""9"",""78320""
","""event"",""trial"",""time""
""fullscreenenter"",""1"",""1899""
","""event"",""trial"",""time""
""fullscreenexit"",""2"",""7176""
","","","","","","565.2000000476837","images/racket3.png","","","learning","-6","0","0","0","practice","practice","practice","-1","","",""
"html-keyboard-response","39","273751","0.0-8.0-2.0-0.7","8071","2","8","Female","approach_avoid_spark_v1","""event"",""trial"",""time""
""fullscreenenter"",""1"",""1899""
""fullscreenexit"",""2"",""7176""
""blur"",""8"",""78316""
""focus"",""9"",""78320""
","""event"",""trial"",""time""
""blur"",""8"",""78316""
","""event"",""trial"",""time""
""focus"",""9"",""78320""
","""event"",""trial"",""time""
""fullscreenenter"",""1"",""1899""
","""event"",""trial"",""time""
""fullscreenexit"",""2"",""7176""
","","","","","","null","<div style=""font-size:60px;"">+</div>","null","","fixation","","","","","","","","","","",""
"aa-learning-trial","40","276757","0.0-8.0-2.0-1.7","8071","2","8","Female","approach_avoid_spark_v1","""event"",""trial"",""time""
""fullscreenenter"",""1"",""1899""
""fullscreenexit"",""2"",""7176""
""blur"",""8"",""78316""
""focus"",""9"",""78320""
","""event"",""trial"",""time""
""blur"",""8"",""78316""
","""event"",""trial"",""time""
""focus"",""9"",""78320""
","""event"",""trial"",""time""
""fullscreenenter"",""1"",""1899""
","""event"",""trial"",""time""
""fullscreenexit"",""2"",""7176""
","","","","","","603.9000000953674","images/ball1.png","","","learning","2","2","1","1","practice","practice","practice","-1","","",""
"html-keyboard-response","41","277261","0.0-8.0-2.0-0.8","8071","2","8","Female","approach_avoid_spark_v1","""event"",""trial"",""time""
""fullscreenenter"",""1"",""1899""
""fullscreenexit"",""2"",""7176""
""blur"",""8"",""78316""
""focus"",""9"",""78320""
","""event"",""trial"",""time""
""blur"",""8"",""78316""
","""event"",""trial"",""time""
""focus"",""9"",""78320""
","""event"",""trial"",""time""
""fullscreenenter"",""1"",""1899""
","""event"",""trial"",""time""
""fullscreenexit"",""2"",""7176""
","","","","","","null","<div style=""font-size:60px;"">+</div>","null","","fixation","","","","","","","","","","",""
"aa-learning-trial","42","280265","0.0-8.0-2.0-1.8","8071","2","8","Female","approach_avoid_spark_v1","""event"",""trial"",""time""
""fullscreenenter"",""1"",""1899""
""fullscreenexit"",""2"",""7176""
""blur"",""8"",""78316""
""focus"",""9"",""78320""
","""event"",""trial"",""time""
""blur"",""8"",""78316""
","""event"",""trial"",""time""
""focus"",""9"",""78320""
","""event"",""trial"",""time""
""fullscreenenter"",""1"",""1899""
","""event"",""trial"",""time""
""fullscreenexit"",""2"",""7176""
","","","","","","616.2999999523163","images/racket2.png","","","learning","-1","-1","1","1","practice","practice","practice","-1","","",""
"html-keyboard-response","43","280767","0.0-8.0-2.0-0.9","8071","2","8","Female","approach_avoid_spark_v1","""event"",""trial"",""time""
""fullscreenenter"",""1"",""1899""
""fullscreenexit"",""2"",""7176""
""blur"",""8"",""78316""
""focus"",""9"",""78320""
","""event"",""trial"",""time""
""blur"",""8"",""78316""
","""event"",""trial"",""time""
""focus"",""9"",""78320""
","""event"",""trial"",""time""
""fullscreenenter"",""1"",""1899""
","""event"",""trial"",""time""
""fullscreenexit"",""2"",""7176""
","","","","","","null","<div style=""font-size:60px;"">+</div>","null","","fixation","","","","","","","","","","",""
"aa-learning-trial","44","283771","0.0-8.0-2.0-1.9","8071","2","8","Female","approach_avoid_spark_v1","""event"",""trial"",""time""
""fullscreenenter"",""1"",""1899""
""fullscreenexit"",""2"",""7176""
""blur"",""8"",""78316""
""focus"",""9"",""78320""
","""event"",""trial"",""time""
""blur"",""8"",""78316""
","""event"",""trial"",""time""
""focus"",""9"",""78320""
","""event"",""trial"",""time""
""fullscreenenter"",""1"",""1899""
","""event"",""trial"",""time""
""fullscreenexit"",""2"",""7176""
","","","","","","750.5","images/racket4.png","","","learning","8","0","0","0","practice","practice","practice","-1","","",""
"html-keyboard-response","45","284273","0.0-8.0-2.0-0.10","8071","2","8","Female","approach_avoid_spark_v1","""event"",""trial"",""time""
""fullscreenenter"",""1"",""1899""
""fullscreenexit"",""2"",""7176""
""blur"",""8"",""78316""
""focus"",""9"",""78320""
","""event"",""trial"",""time""
""blur"",""8"",""78316""
","""event"",""trial"",""time""
""focus"",""9"",""78320""
","""event"",""trial"",""time""
""fullscreenenter"",""1"",""1899""
","""event"",""trial"",""time""
""fullscreenexit"",""2"",""7176""
","","","","","","null","<div style=""font-size:60px;"">+</div>","null","","fixation","","","","","","","","","","",""
"aa-learning-trial","46","287279","0.0-8.0-2.0-1.10","8071","2","8","Female","approach_avoid_spark_v1","""event"",""trial"",""time""
""fullscreenenter"",""1"",""1899""
""fullscreenexit"",""2"",""7176""
""blur"",""8"",""78316""
""focus"",""9"",""78320""
","""event"",""trial"",""time""
""blur"",""8"",""78316""
","""event"",""trial"",""time""
""focus"",""9"",""78320""
","""event"",""trial"",""time""
""fullscreenenter"",""1"",""1899""
","""event"",""trial"",""time""
""fullscreenexit"",""2"",""7176""
","","","","","","491.39999985694885","images/ball4.png","","","learning","2","0","0","0","practice","practice","practice","-1","","",""
"html-keyboard-response","47","287780","0.0-8.0-2.0-0.11","8071","2","8","Female","approach_avoid_spark_v1","""event"",""trial"",""time""
""fullscreenenter"",""1"",""1899""
""fullscreenexit"",""2"",""7176""
""blur"",""8"",""78316""
""focus"",""9"",""78320""
","""event"",""trial"",""time""
""blur"",""8"",""78316""
","""event"",""trial"",""time""
""focus"",""9"",""78320""
","""event"",""trial"",""time""
""fullscreenenter"",""1"",""1899""
","""event"",""trial"",""time""
""fullscreenexit"",""2"",""7176""
","","","","","","null","<div style=""font-size:60px;"">+</div>","null","","fixation","","","","","","","","","","",""
"aa-learning-trial","48","290786","0.0-8.0-2.0-1.11","8071","2","8","Female","approach_avoid_spark_v1","""event"",""trial"",""time""
""fullscreenenter"",""1"",""1899""
""fullscreenexit"",""2"",""7176""
""blur"",""8"",""78316""
""focus"",""9"",""78320""
","""event"",""trial"",""time""
""blur"",""8"",""78316""
","""event"",""trial"",""time""
""focus"",""9"",""78320""
","""event"",""trial"",""time""
""fullscreenenter"",""1"",""1899""
","""event"",""trial"",""time""
""fullscreenexit"",""2"",""7176""
","","","","","","528.5","images/racket2.png","","","learning","4","4","1","1","practice","practice","practice","-1","","",""
"html-button-response","49","294708","0.0-8.0-3.0","8071","2","8","Female","approach_avoid_spark_v1","""event"",""trial"",""time""
""fullscreenenter"",""1"",""1899""
""fullscreenexit"",""2"",""7176""
""blur"",""8"",""78316""
""focus"",""9"",""78320""
","""event"",""trial"",""time""
""blur"",""8"",""78316""
","""event"",""trial"",""time""
""focus"",""9"",""78320""
","""event"",""trial"",""time""
""fullscreenenter"",""1"",""1899""
","""event"",""trial"",""time""
""fullscreenexit"",""2"",""7176""
","","","","","","3921.2000000476837","<p> You earned 21 points in the practice round! </p>","0","","break","","","","","","","","","","",""
"learning-instructions","50","302316","0.0-8.0-4.0-0.0","8071","2","8","Female","approach_avoid_spark_v1","""event"",""trial"",""time""
""fullscreenenter"",""1"",""1899""
""fullscreenexit"",""2"",""7176""
""blur"",""8"",""78316""
""focus"",""9"",""78320""
","""event"",""trial"",""time""
""blur"",""8"",""78316""
","""event"",""trial"",""time""
""focus"",""9"",""78320""
","""event"",""trial"",""time""
""fullscreenenter"",""1"",""1899""
","""event"",""trial"",""time""
""fullscreenexit"",""2"",""7176""
","","","","","","1635.7999999523163","<p> It's almost time to start the real game. </p><p> Before you start, we're going to ask you a few questions about how the game works. </p>","","0","instructions","","","","","","","","","","",""
"preload","51","305198","0.0-8.0-5.0","8071","2","8","Female","approach_avoid_spark_v1","""event"",""trial"",""time""
""fullscreenenter"",""1"",""1899""
""fullscreenexit"",""2"",""7176""
""blur"",""8"",""78316""
""focus"",""9"",""78320""
","""event"",""trial"",""time""
""blur"",""8"",""78316""
","""event"",""trial"",""time""
""focus"",""9"",""78320""
","""event"",""trial"",""time""
""fullscreenenter"",""1"",""1899""
","""event"",""trial"",""time""
""fullscreenexit"",""2"",""7176""
","true","false","[]","[]","[]","","","","","","","","","","","","","","","",""
"comp-q","52","312581","0.0-8.0-6.0-0.0","8071","2","8","Female","approach_avoid_spark_v1","""event"",""trial"",""time""
""fullscreenenter"",""1"",""1899""
""fullscreenexit"",""2"",""7176""
""blur"",""8"",""78316""
""focus"",""9"",""78320""
","""event"",""trial"",""time""
""blur"",""8"",""78316""
","""event"",""trial"",""time""
""focus"",""9"",""78320""
","""event"",""trial"",""time""
""fullscreenenter"",""1"",""1899""
","""event"",""trial"",""time""
""fullscreenexit"",""2"",""7176""
","","","","","","2389.4000000953674","<p> <b> True or False? </b> </p><p> If you see a number in GREY, that means you earned that many points. </p>","","1","comp_question","","","","","","","","","true","",""
"comp-q","53","324949","0.0-8.0-6.0-1.0","8071","2","8","Female","approach_avoid_spark_v1","""event"",""trial"",""time""
""fullscreenenter"",""1"",""1899""
""fullscreenexit"",""2"",""7176""
""blur"",""8"",""78316""
""focus"",""9"",""78320""
","""event"",""trial"",""time""
""blur"",""8"",""78316""
","""event"",""trial"",""time""
""focus"",""9"",""78320""
","""event"",""trial"",""time""
""fullscreenenter"",""1"",""1899""
","""event"",""trial"",""time""
""fullscreenexit"",""2"",""7176""
","","","","","","3997.7999999523163","<p><b> That's right! </b> If you see a grey number, it means you earned ZERO points. <br> The grey numbers show the points you WOULD HAVE earned if you had made the other choice. </p>","","0","comp_answer","","","","","","","","","","",""
"comp-q","54","330677","0.0-8.0-7.0-0.0","8071","2","8","Female","approach_avoid_spark_v1","""event"",""trial"",""time""
""fullscreenenter"",""1"",""1899""
""fullscreenexit"",""2"",""7176""
""blur"",""8"",""78316""
""focus"",""9"",""78320""
","""event"",""trial"",""time""
""blur"",""8"",""78316""
","""event"",""trial"",""time""
""focus"",""9"",""78320""
","""event"",""trial"",""time""
""fullscreenenter"",""1"",""1899""
","""event"",""trial"",""time""
""fullscreenexit"",""2"",""7176""
","","","","","","1025.4000000953674","<p> <b> True or False? </b> </p><p> You will have as much time as you want to make each choice. </p>","","1","comp_question","","","","","","","","","true","",""
"comp-q","55","335997","0.0-8.0-7.0-1.0","8071","2","8","Female","approach_avoid_spark_v1","""event"",""trial"",""time""
""fullscreenenter"",""1"",""1899""
""fullscreenexit"",""2"",""7176""
""blur"",""8"",""78316""
""focus"",""9"",""78320""
","""event"",""trial"",""time""
""blur"",""8"",""78316""
","""event"",""trial"",""time""
""focus"",""9"",""78320""
","""event"",""trial"",""time""
""fullscreenenter"",""1"",""1899""
","""event"",""trial"",""time""
""fullscreenexit"",""2"",""7176""
","","","","","","1275.7999999523163","<p> <b> That's right! </b> You will only have 3 seconds to make each choice. </p>","","0","comp_answer","","","","","","","","","","",""
"comp-q","56","342989","0.0-8.0-8.0-0.0","8071","2","8","Female","approach_avoid_spark_v1","""event"",""trial"",""time""
""fullscreenenter"",""1"",""1899""
""fullscreenexit"",""2"",""7176""
""blur"",""8"",""78316""
""focus"",""9"",""78320""
","""event"",""trial"",""time""
""blur"",""8"",""78316""
","""event"",""trial"",""time""
""focus"",""9"",""78320""
","""event"",""trial"",""time""
""fullscreenenter"",""1"",""1899""
","""event"",""trial"",""time""
""fullscreenexit"",""2"",""7176""
","","","","","","2327.800000190735","<p> <b> True or False? </b> </p><p> You should use the '1' and '0' keys to make your choices. </p>","","0","comp_question","","","","","","","","","true","",""
"comp-q","57","348998","0.0-8.0-8.0-1.0","8071","2","8","Female","approach_avoid_spark_v1","""event"",""trial"",""time""
""fullscreenenter"",""1"",""1899""
""fullscreenexit"",""2"",""7176""
""blur"",""8"",""78316""
""focus"",""9"",""78320""
","""event"",""trial"",""time""
""blur"",""8"",""78316""
","""event"",""trial"",""time""
""focus"",""9"",""78320""
","""event"",""trial"",""time""
""fullscreenenter"",""1"",""1899""
","""event"",""trial"",""time""
""fullscreenexit"",""2"",""7176""
","","","","","","1385.5999999046326","<p> <b> That's right! </b> You should use the '1' and '0' keys to make each choice. </p>","","0","comp_answer","","","","","","","","","","",""
"learning-instructions","58","358270","0.0-8.0-9.0-0.0","8071","2","8","Female","approach_avoid_spark_v1","""event"",""trial"",""time""
""fullscreenenter"",""1"",""1899""
""fullscreenexit"",""2"",""7176""
""blur"",""8"",""78316""
""focus"",""9"",""78320""
","""event"",""trial"",""time""
""blur"",""8"",""78316""
","""event"",""trial"",""time""
""focus"",""9"",""78320""
","""event"",""trial"",""time""
""fullscreenenter"",""1"",""1899""
","""event"",""trial"",""time""
""fullscreenexit"",""2"",""7176""
","","","","","","2997.7000000476837","<p> It's now time to start the real game. </p>Do your best, because the points you earn in the next rounds will influence your bonus payment. </p>","","0","instructions","","","","","","","","","","",""
"preload","59","358398","0.0-9.0-0.0","8071","2","8","Female","approach_avoid_spark_v1","""event"",""trial"",""time""
""fullscreenenter"",""1"",""1899""
""fullscreenexit"",""2"",""7176""
""blur"",""8"",""78316""
""focus"",""9"",""78320""
","""event"",""trial"",""time""
""blur"",""8"",""78316""
","""event"",""trial"",""time""
""focus"",""9"",""78320""
","""event"",""trial"",""time""
""fullscreenenter"",""1"",""1899""
","""event"",""trial"",""time""
""fullscreenexit"",""2"",""7176""
","true","false","[]","[]","[]","","","","","","","","","","","","","","","",""
"learning-instructions","60","363334","0.0-9.0-1.0-0.0","8071","2","8","Female","approach_avoid_spark_v1","""event"",""trial"",""time""
""fullscreenenter"",""1"",""1899""
""fullscreenexit"",""2"",""7176""
""blur"",""8"",""78316""
""focus"",""9"",""78320""
","""event"",""trial"",""time""
""blur"",""8"",""78316""
","""event"",""trial"",""time""
""focus"",""9"",""78320""
","""event"",""trial"",""time""
""fullscreenenter"",""1"",""1899""
","""event"",""trial"",""time""
""fullscreenexit"",""2"",""7176""
","","","","","","1031.7000000476837","<p> Your goal in this round is to take care of lots of animals. </p></div>","","0","instructions","","","","","","","","","","",""
"learning-instructions","61","373879","0.0-9.0-1.0-0.1","8071","2","8","Female","approach_avoid_spark_v1","""event"",""trial"",""time""
""fullscreenenter"",""1"",""1899""
""fullscreenexit"",""2"",""7176""
""blur"",""8"",""78316""
""focus"",""9"",""78320""
","""event"",""trial"",""time""
""blur"",""8"",""78316""
","""event"",""trial"",""time""
""focus"",""9"",""78320""
","""event"",""trial"",""time""
""fullscreenenter"",""1"",""1899""
","""event"",""trial"",""time""
""fullscreenexit"",""2"",""7176""
","","","","","","935.5","<p> Some animals want to be pet, while other animals want to be left alone.  </p><p> On each turn, you will see an animal.   </p><p> You need to decide whether to pet it or not.  </p>","","0","instructions","","","","","","","","","","",""
"learning-instructions","62","380463","0.0-9.0-1.0-0.2","8071","2","8","Female","approach_avoid_spark_v1","""event"",""trial"",""time""
""fullscreenenter"",""1"",""1899""
""fullscreenexit"",""2"",""7176""
""blur"",""8"",""78316""
""focus"",""9"",""78320""
","""event"",""trial"",""time""
""blur"",""8"",""78316""
","""event"",""trial"",""time""
""focus"",""9"",""78320""
","""event"",""trial"",""time""
""fullscreenenter"",""1"",""1899""
","""event"",""trial"",""time""
""fullscreenexit"",""2"",""7176""
","","","","","","1359.8999998569489","<p> You can pet the animal by pressing 1 and leave the animal alone by pressing 0. </p><br><div class=""choice-instructions-grid""> <div class=""choice-option""><img src=""images/approach.png"" class=""choice-option-img"" stage=""instructions"" position=""0"" ><div class=""choice-option-text""> Press ""1."" </div></div><div class=""choice-option""><img src=""images/avoid.png"" class=""choice-option-img"" stage=""instructions"" position=""1"" ><div class=""choice-option-text""> Press ""0."" </div></div>","","0","instructions","","","","","","","","","","",""
"learning-instructions","63","391351","0.0-9.0-1.0-0.3","8071","2","8","Female","approach_avoid_spark_v1","""event"",""trial"",""time""
""fullscreenenter"",""1"",""1899""
""fullscreenexit"",""2"",""7176""
""blur"",""8"",""78316""
""focus"",""9"",""78320""
","""event"",""trial"",""time""
""blur"",""8"",""78316""
","""event"",""trial"",""time""
""focus"",""9"",""78320""
","""event"",""trial"",""time""
""fullscreenenter"",""1"",""1899""
","""event"",""trial"",""time""
""fullscreenexit"",""2"",""7176""
","","","","","","1848.1000001430511","<p> If you pet an animal that wants to be pet, you will make it feel happy! </p><p> But if you pet an animal that wants to be left alone, you will make it feel angry. </p>","","0","instructions","","","","","","","","","","",""
"learning-instructions","64","405664","0.0-9.0-1.0-0.4","8071","2","8","Female","approach_avoid_spark_v1","""event"",""trial"",""time""
""fullscreenenter"",""1"",""1899""
""fullscreenexit"",""2"",""7176""
""blur"",""8"",""78316""
""focus"",""9"",""78320""
","""event"",""trial"",""time""
""blur"",""8"",""78316""
","""event"",""trial"",""time""
""focus"",""9"",""78320""
","""event"",""trial"",""time""
""fullscreenenter"",""1"",""1899""
","""event"",""trial"",""time""
""fullscreenexit"",""2"",""7176""
","","","","","","1809.8000001907349","<p> You will earn points based on how you made the animal feel. </p><p> If you made it feel happy, you will WIN anywhere from 1 - 9 points, </p><p> but if you made it feel angry, you will LOSE anywhere from 1 - 9 points. </p>","","0","instructions","","","","","","","","","","",""
"learning-instructions","65","415352","0.0-9.0-1.0-0.5","8071","2","8","Female","approach_avoid_spark_v1","""event"",""trial"",""time""
""fullscreenenter"",""1"",""1899""
""fullscreenexit"",""2"",""7176""
""blur"",""8"",""78316""
""focus"",""9"",""78320""
","""event"",""trial"",""time""
""blur"",""8"",""78316""
","""event"",""trial"",""time""
""focus"",""9"",""78320""
","""event"",""trial"",""time""
""fullscreenenter"",""1"",""1899""
","""event"",""trial"",""time""
""fullscreenexit"",""2"",""7176""
","","","","","","1997.6000001430511","<p> You will see how many points you won or lost in the center of the screen. </p><p> Here is what you would see if you won 5 points: </p><p style=""color:green;font-size:50px;font-weight:bolder"">5</p>","","0","instructions","","","","","","","","","","",""
"learning-instructions","66","425376","0.0-9.0-1.0-0.6","8071","2","8","Female","approach_avoid_spark_v1","""event"",""trial"",""time""
""fullscreenenter"",""1"",""1899""
""fullscreenexit"",""2"",""7176""
""blur"",""8"",""78316""
""focus"",""9"",""78320""
","""event"",""trial"",""time""
""blur"",""8"",""78316""
","""event"",""trial"",""time""
""focus"",""9"",""78320""
","""event"",""trial"",""time""
""fullscreenenter"",""1"",""1899""
","""event"",""trial"",""time""
""fullscreenexit"",""2"",""7176""
","","","","","","6461.799999952316","<p> And here is what you would see if you lost 3 points: </p><p style=""color:red;font-size:50px;font-weight:bolder"">-3</p>","","0","instructions","","","","","","","","","","",""
"learning-instructions","67","441456","0.0-9.0-1.0-0.7","8071","2","8","Female","approach_avoid_spark_v1","""event"",""trial"",""time""
""fullscreenenter"",""1"",""1899""
""fullscreenexit"",""2"",""7176""
""blur"",""8"",""78316""
""focus"",""9"",""78320""
","""event"",""trial"",""time""
""blur"",""8"",""78316""
","""event"",""trial"",""time""
""focus"",""9"",""78320""
","""event"",""trial"",""time""
""fullscreenenter"",""1"",""1899""
","""event"",""trial"",""time""
""fullscreenexit"",""2"",""7176""
","","","","","","2141.5","<p> Some animals will become very happy or very angry. </p><p> These animals will make you win or lose LOTS of points. </p><p> Other animals have less strong feelings. </p><p> These animals will make you win or lose small amounts of points. </p>","","0","instructions","","","","","","","","","","",""
"learning-instructions","68","456448","0.0-9.0-1.0-0.8","8071","2","8","Female","approach_avoid_spark_v1","""event"",""trial"",""time""
""fullscreenenter"",""1"",""1899""
""fullscreenexit"",""2"",""7176""
""blur"",""8"",""78316""
""focus"",""9"",""78320""
","""event"",""trial"",""time""
""blur"",""8"",""78316""
","""event"",""trial"",""time""
""focus"",""9"",""78320""
","""event"",""trial"",""time""
""fullscreenenter"",""1"",""1899""
","""event"",""trial"",""time""
""fullscreenexit"",""2"",""7176""
","","","","","","3423.4000000953674","<p> If you choose to leave the animal alone, you will not win or lose any points. </p><p>  However, in the center of the screen, you will see the number of points you WOULD HAVE won or lost if you had pet the animal. </p>","","0","instructions","","","","","","","","","","",""
"learning-instructions","69","471033","0.0-9.0-1.0-0.9","8071","2","8","Female","approach_avoid_spark_v1","""event"",""trial"",""time""
""fullscreenenter"",""1"",""1899""
""fullscreenexit"",""2"",""7176""
""blur"",""8"",""78316""
""focus"",""9"",""78320""
","""event"",""trial"",""time""
""blur"",""8"",""78316""
","""event"",""trial"",""time""
""focus"",""9"",""78320""
","""event"",""trial"",""time""
""fullscreenenter"",""1"",""1899""
","""event"",""trial"",""time""
""fullscreenexit"",""2"",""7176""
","","","","","","2877.7000000476837","<p> Here is what you might see if you did not pet the animal but the animal wanted to be pet: </p><p style=""color:grey; font-size:50px; display: inline-block; border-spacing: 15px; border-width:3px; border-style:solid; border-color:red"">  &nbsp; 6 &nbsp; </p><p> Remember, in this case, you would not win or lose ANY points because you did not pet the animal.  </p>","","0","instructions","","","","","","","","","","",""
"learning-instructions","70","479993","0.0-9.0-1.0-0.10","8071","2","8","Female","approach_avoid_spark_v1","""event"",""trial"",""time""
""fullscreenenter"",""1"",""1899""
""fullscreenexit"",""2"",""7176""
""blur"",""8"",""78316""
""focus"",""9"",""78320""
","""event"",""trial"",""time""
""blur"",""8"",""78316""
","""event"",""trial"",""time""
""focus"",""9"",""78320""
","""event"",""trial"",""time""
""fullscreenenter"",""1"",""1899""
","""event"",""trial"",""time""
""fullscreenexit"",""2"",""7176""
","","","","","","1757.8999998569489","<p> Try to make the best choice for each animal because </p><p> at the end of the game, you will earn bonus money based on how many points you earned. </p>","","0","instructions","","","","","","","","","","",""
"learning-instructions","71","489641","0.0-9.0-1.0-0.11","8071","2","8","Female","approach_avoid_spark_v1","""event"",""trial"",""time""
""fullscreenenter"",""1"",""1899""
""fullscreenexit"",""2"",""7176""
""blur"",""8"",""78316""
""focus"",""9"",""78320""
","""event"",""trial"",""time""
""blur"",""8"",""78316""
","""event"",""trial"",""time""
""focus"",""9"",""78320""
","""event"",""trial"",""time""
""fullscreenenter"",""1"",""1899""
","""event"",""trial"",""time""
""fullscreenexit"",""2"",""7176""
","","","","","","1445.2999999523163","<p> You will have 3 seconds to make each choice. Try to respond before time runs out! </p><p> You will lose 5 points each time you do not make a response. </p>","","0","instructions","","","","","","","","","","",""
"html-keyboard-response","72","490270","0.0-9.0-2.0-0.0","8071","2","8","Female","approach_avoid_spark_v1","""event"",""trial"",""time""
""fullscreenenter"",""1"",""1899""
""fullscreenexit"",""2"",""7176""
""blur"",""8"",""78316""
""focus"",""9"",""78320""
","""event"",""trial"",""time""
""blur"",""8"",""78316""
","""event"",""trial"",""time""
""focus"",""9"",""78320""
","""event"",""trial"",""time""
""fullscreenenter"",""1"",""1899""
","""event"",""trial"",""time""
""fullscreenexit"",""2"",""7176""
","","","","","","null","<div style=""font-size:60px;"">+</div>","null","","fixation","","","","","","","","","","",""
"aa-learning-trial","73","493290","0.0-9.0-2.0-1.0","8071","2","8","Female","approach_avoid_spark_v1","""event"",""trial"",""time""
""fullscreenenter"",""1"",""1899""
""fullscreenexit"",""2"",""7176""
""blur"",""8"",""78316""
""focus"",""9"",""78320""
","""event"",""trial"",""time""
""blur"",""8"",""78316""
","""event"",""trial"",""time""
""focus"",""9"",""78320""
","""event"",""trial"",""time""
""fullscreenenter"",""1"",""1899""
","""event"",""trial"",""time""
""fullscreenexit"",""2"",""7176""
","","","","","","960.2000000476837","images/cat2.png","","","learning","-1","-1","1","1","cat","pets","2","0","","good","[6]"
"html-keyboard-response","74","493810","0.0-9.0-2.0-0.1","8071","2","8","Female","approach_avoid_spark_v1","""event"",""trial"",""time""
""fullscreenenter"",""1"",""1899""
""fullscreenexit"",""2"",""7176""
""blur"",""8"",""78316""
""focus"",""9"",""78320""
","""event"",""trial"",""time""
""blur"",""8"",""78316""
","""event"",""trial"",""time""
""focus"",""9"",""78320""
","""event"",""trial"",""time""
""fullscreenenter"",""1"",""1899""
","""event"",""trial"",""time""
""fullscreenexit"",""2"",""7176""
","","","","","","null","<div style=""font-size:60px;"">+</div>","null","","fixation","","","","","","","","","","",""
"aa-learning-trial","75","496820","0.0-9.0-2.0-1.1","8071","2","8","Female","approach_avoid_spark_v1","""event"",""trial"",""time""
""fullscreenenter"",""1"",""1899""
""fullscreenexit"",""2"",""7176""
""blur"",""8"",""78316""
""focus"",""9"",""78320""
","""event"",""trial"",""time""
""blur"",""8"",""78316""
","""event"",""trial"",""time""
""focus"",""9"",""78320""
","""event"",""trial"",""time""
""fullscreenenter"",""1"",""1899""
","""event"",""trial"",""time""
""fullscreenexit"",""2"",""7176""
","","","","","","860.0999999046326","images/rabbit7.png","","","learning","-6","-6","1","1","rabbit","pets","2","0","","neutral","0"
"html-keyboard-response","76","497340","0.0-9.0-2.0-0.2","8071","2","8","Female","approach_avoid_spark_v1","""event"",""trial"",""time""
""fullscreenenter"",""1"",""1899""
""fullscreenexit"",""2"",""7176""
""blur"",""8"",""78316""
""focus"",""9"",""78320""
","""event"",""trial"",""time""
""blur"",""8"",""78316""
","""event"",""trial"",""time""
""focus"",""9"",""78320""
","""event"",""trial"",""time""
""fullscreenenter"",""1"",""1899""
","""event"",""trial"",""time""
""fullscreenexit"",""2"",""7176""
","","","","","","null","<div style=""font-size:60px;"">+</div>","null","","fixation","","","","","","","","","","",""
"aa-learning-trial","77","500351","0.0-9.0-2.0-1.2","8071","2","8","Female","approach_avoid_spark_v1","""event"",""trial"",""time""
""fullscreenenter"",""1"",""1899""
""fullscreenexit"",""2"",""7176""
""blur"",""8"",""78316""
""focus"",""9"",""78320""
","""event"",""trial"",""time""
""blur"",""8"",""78316""
","""event"",""trial"",""time""
""focus"",""9"",""78320""
","""event"",""trial"",""time""
""fullscreenenter"",""1"",""1899""
","""event"",""trial"",""time""
""fullscreenexit"",""2"",""7176""
","","","","","","461.7000000476837","images/rabbit3.png","","","learning","-5","0","0","0","rabbit","pets","2","0","","neutral","0"
"html-keyboard-response","78","500870","0.0-9.0-2.0-0.3","8071","2","8","Female","approach_avoid_spark_v1","""event"",""trial"",""time""
""fullscreenenter"",""1"",""1899""
""fullscreenexit"",""2"",""7176""
""blur"",""8"",""78316""
""focus"",""9"",""78320""
","""event"",""trial"",""time""
""blur"",""8"",""78316""
","""event"",""trial"",""time""
""focus"",""9"",""78320""
","""event"",""trial"",""time""
""fullscreenenter"",""1"",""1899""
","""event"",""trial"",""time""
""fullscreenexit"",""2"",""7176""
","","","","","","null","<div style=""font-size:60px;"">+</div>","null","","fixation","","","","","","","","","","",""
"aa-learning-trial","79","503880","0.0-9.0-2.0-1.3","8071","2","8","Female","approach_avoid_spark_v1","""event"",""trial"",""time""
""fullscreenenter"",""1"",""1899""
""fullscreenexit"",""2"",""7176""
""blur"",""8"",""78316""
""focus"",""9"",""78320""
","""event"",""trial"",""time""
""blur"",""8"",""78316""
","""event"",""trial"",""time""
""focus"",""9"",""78320""
","""event"",""trial"",""time""
""fullscreenenter"",""1"",""1899""
","""event"",""trial"",""time""
""fullscreenexit"",""2"",""7176""
","","","","","","573.8999998569489","images/rodent1.png","","","learning","-9","0","0","0","rodent","pets","2","0","","bad","[-3]"
"html-keyboard-response","80","504391","0.0-9.0-2.0-0.4","8071","2","8","Female","approach_avoid_spark_v1","""event"",""trial"",""time""
""fullscreenenter"",""1"",""1899""
""fullscreenexit"",""2"",""7176""
""blur"",""8"",""78316""
""focus"",""9"",""78320""
","""event"",""trial"",""time""
""blur"",""8"",""78316""
","""event"",""trial"",""time""
""focus"",""9"",""78320""
","""event"",""trial"",""time""
""fullscreenenter"",""1"",""1899""
","""event"",""trial"",""time""
""fullscreenexit"",""2"",""7176""
","","","","","","null","<div style=""font-size:60px;"">+</div>","null","","fixation","","","","","","","","","","",""
"aa-learning-trial","81","507401","0.0-9.0-2.0-1.4","8071","2","8","Female","approach_avoid_spark_v1","""event"",""trial"",""time""
""fullscreenenter"",""1"",""1899""
""fullscreenexit"",""2"",""7176""
""blur"",""8"",""78316""
""focus"",""9"",""78320""
","""event"",""trial"",""time""
""blur"",""8"",""78316""
","""event"",""trial"",""time""
""focus"",""9"",""78320""
","""event"",""trial"",""time""
""fullscreenenter"",""1"",""1899""
","""event"",""trial"",""time""
""fullscreenexit"",""2"",""7176""
","","","","","","571.9000000953674","images/cat2.png","","","learning","-1","-1","1","1","cat","pets","2","0","","good","[6]"
"html-keyboard-response","82","507920","0.0-9.0-2.0-0.5","8071","2","8","Female","approach_avoid_spark_v1","""event"",""trial"",""time""
""fullscreenenter"",""1"",""1899""
""fullscreenexit"",""2"",""7176""
""blur"",""8"",""78316""
""focus"",""9"",""78320""
","""event"",""trial"",""time""
""blur"",""8"",""78316""
","""event"",""trial"",""time""
""focus"",""9"",""78320""
","""event"",""trial"",""time""
""fullscreenenter"",""1"",""1899""
","""event"",""trial"",""time""
""fullscreenexit"",""2"",""7176""
","","","","","","null","<div style=""font-size:60px;"">+</div>","null","","fixation","","","","","","","","","","",""
"aa-learning-trial","83","510941","0.0-9.0-2.0-1.5","8071","2","8","Female","approach_avoid_spark_v1","""event"",""trial"",""time""
""fullscreenenter"",""1"",""1899""
""fullscreenexit"",""2"",""7176""
""blur"",""8"",""78316""
""focus"",""9"",""78320""
","""event"",""trial"",""time""
""blur"",""8"",""78316""
","""event"",""trial"",""time""
""focus"",""9"",""78320""
","""event"",""trial"",""time""
""fullscreenenter"",""1"",""1899""
","""event"",""trial"",""time""
""fullscreenexit"",""2"",""7176""
","","","","","","675.2999999523163","images/cat1.png","","","learning","-3","0","0","0","cat","pets","2","0","","good","[6]"
"html-keyboard-response","84","511460","0.0-9.0-2.0-0.6","8071","2","8","Female","approach_avoid_spark_v1","""event"",""trial"",""time""
""fullscreenenter"",""1"",""1899""
""fullscreenexit"",""2"",""7176""
""blur"",""8"",""78316""
""focus"",""9"",""78320""
","""event"",""trial"",""time""
""blur"",""8"",""78316""
","""event"",""trial"",""time""
""focus"",""9"",""78320""
","""event"",""trial"",""time""
""fullscreenenter"",""1"",""1899""
","""event"",""trial"",""time""
""fullscreenexit"",""2"",""7176""
","","","","","","null","<div style=""font-size:60px;"">+</div>","null","","fixation","","","","","","","","","","",""
"aa-learning-trial","85","514481","0.0-9.0-2.0-1.6","8071","2","8","Female","approach_avoid_spark_v1","""event"",""trial"",""time""
""fullscreenenter"",""1"",""1899""
""fullscreenexit"",""2"",""7176""
""blur"",""8"",""78316""
""focus"",""9"",""78320""
","""event"",""trial"",""time""
""blur"",""8"",""78316""
","""event"",""trial"",""time""
""focus"",""9"",""78320""
","""event"",""trial"",""time""
""fullscreenenter"",""1"",""1899""
","""event"",""trial"",""time""
""fullscreenexit"",""2"",""7176""
","","","","","","592.1999998092651","images/rabbit8.png","","","learning","8","8","1","1","rabbit","pets","2","0","","neutral","0"
"html-keyboard-response","86","515001","0.0-9.0-2.0-0.7","8071","2","8","Female","approach_avoid_spark_v1","""event"",""trial"",""time""
""fullscreenenter"",""1"",""1899""
""fullscreenexit"",""2"",""7176""
""blur"",""8"",""78316""
""focus"",""9"",""78320""
","""event"",""trial"",""time""
""blur"",""8"",""78316""
","""event"",""trial"",""time""
""focus"",""9"",""78320""
","""event"",""trial"",""time""
""fullscreenenter"",""1"",""1899""
","""event"",""trial"",""time""
""fullscreenexit"",""2"",""7176""
","","","","","","null","<div style=""font-size:60px;"">+</div>","null","","fixation","","","","","","","","","","",""
"aa-learning-trial","87","518021","0.0-9.0-2.0-1.7","8071","2","8","Female","approach_avoid_spark_v1","""event"",""trial"",""time""
""fullscreenenter"",""1"",""1899""
""fullscreenexit"",""2"",""7176""
""blur"",""8"",""78316""
""focus"",""9"",""78320""
","""event"",""trial"",""time""
""blur"",""8"",""78316""
","""event"",""trial"",""time""
""focus"",""9"",""78320""
","""event"",""trial"",""time""
""fullscreenenter"",""1"",""1899""
","""event"",""trial"",""time""
""fullscreenexit"",""2"",""7176""
","","","","","","436.59999990463257","images/cat1.png","","","learning","-3","-3","1","1","cat","pets","2","0","","good","[6]"
"html-keyboard-response","88","518523","0.0-9.0-2.0-0.8","8071","2","8","Female","approach_avoid_spark_v1","""event"",""trial"",""time""
""fullscreenenter"",""1"",""1899""
""fullscreenexit"",""2"",""7176""
""blur"",""8"",""78316""
""focus"",""9"",""78320""
","""event"",""trial"",""time""
""blur"",""8"",""78316""
","""event"",""trial"",""time""
""focus"",""9"",""78320""
","""event"",""trial"",""time""
""fullscreenenter"",""1"",""1899""
","""event"",""trial"",""time""
""fullscreenexit"",""2"",""7176""
","","","","","","null","<div style=""font-size:60px;"">+</div>","null","","fixation","","","","","","","","","","",""
"aa-learning-trial","89","521527","0.0-9.0-2.0-1.8","8071","2","8","Female","approach_avoid_spark_v1","""event"",""trial"",""time""
""fullscreenenter"",""1"",""1899""
""fullscreenexit"",""2"",""7176""
""blur"",""8"",""78316""
""focus"",""9"",""78320""
","""event"",""trial"",""time""
""blur"",""8"",""78316""
","""event"",""trial"",""time""
""focus"",""9"",""78320""
","""event"",""trial"",""time""
""fullscreenenter"",""1"",""1899""
","""event"",""trial"",""time""
""fullscreenexit"",""2"",""7176""
","","","","","","801.5999999046326","images/cat3.png","","","learning","-7","0","0","0","cat","pets","2","0","","good","[6]"
"html-keyboard-response","90","522041","0.0-9.0-2.0-0.9","8071","2","8","Female","approach_avoid_spark_v1","""event"",""trial"",""time""
""fullscreenenter"",""1"",""1899""
""fullscreenexit"",""2"",""7176""
""blur"",""8"",""78316""
""focus"",""9"",""78320""
","""event"",""trial"",""time""
""blur"",""8"",""78316""
","""event"",""trial"",""time""
""focus"",""9"",""78320""
","""event"",""trial"",""time""
""fullscreenenter"",""1"",""1899""
","""event"",""trial"",""time""
""fullscreenexit"",""2"",""7176""
","","","","","","null","<div style=""font-size:60px;"">+</div>","null","","fixation","","","","","","","","","","",""
"aa-learning-trial","91","525043","0.0-9.0-2.0-1.9","8071","2","8","Female","approach_avoid_spark_v1","""event"",""trial"",""time""
""fullscreenenter"",""1"",""1899""
""fullscreenexit"",""2"",""7176""
""blur"",""8"",""78316""
""focus"",""9"",""78320""
","""event"",""trial"",""time""
""blur"",""8"",""78316""
","""event"",""trial"",""time""
""focus"",""9"",""78320""
","""event"",""trial"",""time""
""fullscreenenter"",""1"",""1899""
","""event"",""trial"",""time""
""fullscreenexit"",""2"",""7176""
","","","","","","525","images/rodent7.png","","","learning","-4","-4","1","1","rodent","pets","2","0","","bad","[-3]"
"html-keyboard-response","92","525545","0.0-9.0-2.0-0.10","8071","2","8","Female","approach_avoid_spark_v1","""event"",""trial"",""time""
""fullscreenenter"",""1"",""1899""
""fullscreenexit"",""2"",""7176""
""blur"",""8"",""78316""
""focus"",""9"",""78320""
","""event"",""trial"",""time""
""blur"",""8"",""78316""
","""event"",""trial"",""time""
""focus"",""9"",""78320""
","""event"",""trial"",""time""
""fullscreenenter"",""1"",""1899""
","""event"",""trial"",""time""
""fullscreenexit"",""2"",""7176""
","","","","","","null","<div style=""font-size:60px;"">+</div>","null","","fixation","","","","","","","","","","",""
"aa-learning-trial","93","528550","0.0-9.0-2.0-1.10","8071","2","8","Female","approach_avoid_spark_v1","""event"",""trial"",""time""
""fullscreenenter"",""1"",""1899""
""fullscreenexit"",""2"",""7176""
""blur"",""8"",""78316""
""focus"",""9"",""78320""
","""event"",""trial"",""time""
""blur"",""8"",""78316""
","""event"",""trial"",""time""
""focus"",""9"",""78320""
","""event"",""trial"",""time""
""fullscreenenter"",""1"",""1899""
","""event"",""trial"",""time""
""fullscreenexit"",""2"",""7176""
","","","","","","627.5999999046326","images/rodent8.png","","","learning","9","9","1","1","rodent","pets","2","0","","bad","[-3]"
"html-keyboard-response","94","529053","0.0-9.0-2.0-0.11","8071","2","8","Female","approach_avoid_spark_v1","""event"",""trial"",""time""
""fullscreenenter"",""1"",""1899""
""fullscreenexit"",""2"",""7176""
""blur"",""8"",""78316""
""focus"",""9"",""78320""
","""event"",""trial"",""time""
""blur"",""8"",""78316""
","""event"",""trial"",""time""
""focus"",""9"",""78320""
","""event"",""trial"",""time""
""fullscreenenter"",""1"",""1899""
","""event"",""trial"",""time""
""fullscreenexit"",""2"",""7176""
","","","","","","null","<div style=""font-size:60px;"">+</div>","null","","fixation","","","","","","","","","","",""
"aa-learning-trial","95","532057","0.0-9.0-2.0-1.11","8071","2","8","Female","approach_avoid_spark_v1","""event"",""trial"",""time""
""fullscreenenter"",""1"",""1899""
""fullscreenexit"",""2"",""7176""
""blur"",""8"",""78316""
""focus"",""9"",""78320""
","""event"",""trial"",""time""
""blur"",""8"",""78316""
","""event"",""trial"",""time""
""focus"",""9"",""78320""
","""event"",""trial"",""time""
""fullscreenenter"",""1"",""1899""
","""event"",""trial"",""time""
""fullscreenexit"",""2"",""7176""
","","","","","","559.8999998569489","images/rodent1.png","","","learning","-9","-9","1","1","rodent","pets","2","0","","bad","[-3]"
"html-keyboard-response","96","532559","0.0-9.0-2.0-0.12","8071","2","8","Female","approach_avoid_spark_v1","""event"",""trial"",""time""
""fullscreenenter"",""1"",""1899""
""fullscreenexit"",""2"",""7176""
""blur"",""8"",""78316""
""focus"",""9"",""78320""
","""event"",""trial"",""time""
""blur"",""8"",""78316""
","""event"",""trial"",""time""
""focus"",""9"",""78320""
","""event"",""trial"",""time""
""fullscreenenter"",""1"",""1899""
","""event"",""trial"",""time""
""fullscreenexit"",""2"",""7176""
","","","","","","null","<div style=""font-size:60px;"">+</div>","null","","fixation","","","","","","","","","","",""
"aa-learning-trial","97","535564","0.0-9.0-2.0-1.12","8071","2","8","Female","approach_avoid_spark_v1","""event"",""trial"",""time""
""fullscreenenter"",""1"",""1899""
""fullscreenexit"",""2"",""7176""
""blur"",""8"",""78316""
""focus"",""9"",""78320""
","""event"",""trial"",""time""
""blur"",""8"",""78316""
","""event"",""trial"",""time""
""focus"",""9"",""78320""
","""event"",""trial"",""time""
""fullscreenenter"",""1"",""1899""
","""event"",""trial"",""time""
""fullscreenexit"",""2"",""7176""
","","","","","","956.4000000953674","images/rodent8.png","","","learning","9","9","1","1","rodent","pets","2","0","","bad","[-3]"
"html-keyboard-response","98","536066","0.0-9.0-2.0-0.13","8071","2","8","Female","approach_avoid_spark_v1","""event"",""trial"",""time""
""fullscreenenter"",""1"",""1899""
""fullscreenexit"",""2"",""7176""
""blur"",""8"",""78316""
""focus"",""9"",""78320""
","""event"",""trial"",""time""
""blur"",""8"",""78316""
","""event"",""trial"",""time""
""focus"",""9"",""78320""
","""event"",""trial"",""time""
""fullscreenenter"",""1"",""1899""
","""event"",""trial"",""time""
""fullscreenexit"",""2"",""7176""
","","","","","","null","<div style=""font-size:60px;"">+</div>","null","","fixation","","","","","","","","","","",""
"aa-learning-trial","99","539070","0.0-9.0-2.0-1.13","8071","2","8","Female","approach_avoid_spark_v1","""event"",""trial"",""time""
""fullscreenenter"",""1"",""1899""
""fullscreenexit"",""2"",""7176""
""blur"",""8"",""78316""
""focus"",""9"",""78320""
","""event"",""trial"",""time""
""blur"",""8"",""78316""
","""event"",""trial"",""time""
""focus"",""9"",""78320""
","""event"",""trial"",""time""
""fullscreenenter"",""1"",""1899""
","""event"",""trial"",""time""
""fullscreenexit"",""2"",""7176""
","","","","","","571.9000000953674","images/rabbit3.png","","","learning","-5","0","0","0","rabbit","pets","2","0","","neutral","0"
"html-keyboard-response","100","539571","0.0-9.0-2.0-0.14","8071","2","8","Female","approach_avoid_spark_v1","""event"",""trial"",""time""
""fullscreenenter"",""1"",""1899""
""fullscreenexit"",""2"",""7176""
""blur"",""8"",""78316""
""focus"",""9"",""78320""
","""event"",""trial"",""time""
""blur"",""8"",""78316""
","""event"",""trial"",""time""
""focus"",""9"",""78320""
","""event"",""trial"",""time""
""fullscreenenter"",""1"",""1899""
","""event"",""trial"",""time""
""fullscreenexit"",""2"",""7176""
","","","","","","null","<div style=""font-size:60px;"">+</div>","null","","fixation","","","","","","","","","","",""
"aa-learning-trial","101","542576","0.0-9.0-2.0-1.14","8071","2","8","Female","approach_avoid_spark_v1","""event"",""trial"",""time""
""fullscreenenter"",""1"",""1899""
""fullscreenexit"",""2"",""7176""
""blur"",""8"",""78316""
""focus"",""9"",""78320""
","""event"",""trial"",""time""
""blur"",""8"",""78316""
","""event"",""trial"",""time""
""focus"",""9"",""78320""
","""event"",""trial"",""time""
""fullscreenenter"",""1"",""1899""
","""event"",""trial"",""time""
""fullscreenexit"",""2"",""7176""
","","","","","","1096.2000000476837","images/rabbit8.png","","","learning","8","8","1","1","rabbit","pets","2","0","","neutral","0"
"html-keyboard-response","102","543077","0.0-9.0-2.0-0.15","8071","2","8","Female","approach_avoid_spark_v1","""event"",""trial"",""time""
""fullscreenenter"",""1"",""1899""
""fullscreenexit"",""2"",""7176""
""blur"",""8"",""78316""
""focus"",""9"",""78320""
","""event"",""trial"",""time""
""blur"",""8"",""78316""
","""event"",""trial"",""time""
""focus"",""9"",""78320""
","""event"",""trial"",""time""
""fullscreenenter"",""1"",""1899""
","""event"",""trial"",""time""
""fullscreenexit"",""2"",""7176""
","","","","","","null","<div style=""font-size:60px;"">+</div>","null","","fixation","","","","","","","","","","",""
"aa-learning-trial","103","546094","0.0-9.0-2.0-1.15","8071","2","8","Female","approach_avoid_spark_v1","""event"",""trial"",""time""
""fullscreenenter"",""1"",""1899""
""fullscreenexit"",""2"",""7176""
""blur"",""8"",""78316""
""focus"",""9"",""78320""
","""event"",""trial"",""time""
""blur"",""8"",""78316""
","""event"",""trial"",""time""
""focus"",""9"",""78320""
","""event"",""trial"",""time""
""fullscreenenter"",""1"",""1899""
","""event"",""trial"",""time""
""fullscreenexit"",""2"",""7176""
","","","","","","1474.7000000476837","images/cat3.png","","","learning","-7","0","0","0","cat","pets","2","0","","good","[6]"
"html-keyboard-response","104","546596","0.0-9.0-2.0-0.16","8071","2","8","Female","approach_avoid_spark_v1","""event"",""trial"",""time""
""fullscreenenter"",""1"",""1899""
""fullscreenexit"",""2"",""7176""
""blur"",""8"",""78316""
""focus"",""9"",""78320""
","""event"",""trial"",""time""
""blur"",""8"",""78316""
","""event"",""trial"",""time""
""focus"",""9"",""78320""
","""event"",""trial"",""time""
""fullscreenenter"",""1"",""1899""
","""event"",""trial"",""time""
""fullscreenexit"",""2"",""7176""
","","","","","","null","<div style=""font-size:60px;"">+</div>","null","","fixation","","","","","","","","","","",""
"aa-learning-trial","105","549601","0.0-9.0-2.0-1.16","8071","2","8","Female","approach_avoid_spark_v1","""event"",""trial"",""time""
""fullscreenenter"",""1"",""1899""
""fullscreenexit"",""2"",""7176""
""blur"",""8"",""78316""
""focus"",""9"",""78320""
","""event"",""trial"",""time""
""blur"",""8"",""78316""
","""event"",""trial"",""time""
""focus"",""9"",""78320""
","""event"",""trial"",""time""
""fullscreenenter"",""1"",""1899""
","""event"",""trial"",""time""
""fullscreenexit"",""2"",""7176""
","","","","","","993.0999999046326","images/cat3.png","","","learning","-7","0","0","0","cat","pets","2","0","","good","[6]"
"html-keyboard-response","106","550102","0.0-9.0-2.0-0.17","8071","2","8","Female","approach_avoid_spark_v1","""event"",""trial"",""time""
""fullscreenenter"",""1"",""1899""
""fullscreenexit"",""2"",""7176""
""blur"",""8"",""78316""
""focus"",""9"",""78320""
","""event"",""trial"",""time""
""blur"",""8"",""78316""
","""event"",""trial"",""time""
""focus"",""9"",""78320""
","""event"",""trial"",""time""
""fullscreenenter"",""1"",""1899""
","""event"",""trial"",""time""
""fullscreenexit"",""2"",""7176""
","","","","","","null","<div style=""font-size:60px;"">+</div>","null","","fixation","","","","","","","","","","",""
"aa-learning-trial","107","553104","0.0-9.0-2.0-1.17","8071","2","8","Female","approach_avoid_spark_v1","""event"",""trial"",""time""
""fullscreenenter"",""1"",""1899""
""fullscreenexit"",""2"",""7176""
""blur"",""8"",""78316""
""focus"",""9"",""78320""
","""event"",""trial"",""time""
""blur"",""8"",""78316""
","""event"",""trial"",""time""
""focus"",""9"",""78320""
","""event"",""trial"",""time""
""fullscreenenter"",""1"",""1899""
","""event"",""trial"",""time""
""fullscreenexit"",""2"",""7176""
","","","","","","489.5","images/cat1.png","","","learning","-3","-3","1","1","cat","pets","2","0","","good","[6]"
"html-keyboard-response","108","553617","0.0-9.0-2.0-0.18","8071","2","8","Female","approach_avoid_spark_v1","""event"",""trial"",""time""
""fullscreenenter"",""1"",""1899""
""fullscreenexit"",""2"",""7176""
""blur"",""8"",""78316""
""focus"",""9"",""78320""
","""event"",""trial"",""time""
""blur"",""8"",""78316""
","""event"",""trial"",""time""
""focus"",""9"",""78320""
","""event"",""trial"",""time""
""fullscreenenter"",""1"",""1899""
","""event"",""trial"",""time""
""fullscreenexit"",""2"",""7176""
","","","","","","null","<div style=""font-size:60px;"">+</div>","null","","fixation","","","","","","","","","","",""
"aa-learning-trial","109","556622","0.0-9.0-2.0-1.18","8071","2","8","Female","approach_avoid_spark_v1","""event"",""trial"",""time""
""fullscreenenter"",""1"",""1899""
""fullscreenexit"",""2"",""7176""
""blur"",""8"",""78316""
""focus"",""9"",""78320""
","""event"",""trial"",""time""
""blur"",""8"",""78316""
","""event"",""trial"",""time""
""focus"",""9"",""78320""
","""event"",""trial"",""time""
""fullscreenenter"",""1"",""1899""
","""event"",""trial"",""time""
""fullscreenexit"",""2"",""7176""
","","","","","","1148.9000000953674","images/cat2.png","","","learning","-1","-1","1","1","cat","pets","2","0","","good","[6]"
"html-keyboard-response","110","557124","0.0-9.0-2.0-0.19","8071","2","8","Female","approach_avoid_spark_v1","""event"",""trial"",""time""
""fullscreenenter"",""1"",""1899""
""fullscreenexit"",""2"",""7176""
""blur"",""8"",""78316""
""focus"",""9"",""78320""
","""event"",""trial"",""time""
""blur"",""8"",""78316""
","""event"",""trial"",""time""
""focus"",""9"",""78320""
","""event"",""trial"",""time""
""fullscreenenter"",""1"",""1899""
","""event"",""trial"",""time""
""fullscreenexit"",""2"",""7176""
","","","","","","null","<div style=""font-size:60px;"">+</div>","null","","fixation","","","","","","","","","","",""
"aa-learning-trial","111","560126","0.0-9.0-2.0-1.19","8071","2","8","Female","approach_avoid_spark_v1","""event"",""trial"",""time""
""fullscreenenter"",""1"",""1899""
""fullscreenexit"",""2"",""7176""
""blur"",""8"",""78316""
""focus"",""9"",""78320""
","""event"",""trial"",""time""
""blur"",""8"",""78316""
","""event"",""trial"",""time""
""focus"",""9"",""78320""
","""event"",""trial"",""time""
""fullscreenenter"",""1"",""1899""
","""event"",""trial"",""time""
""fullscreenexit"",""2"",""7176""
","","","","","","1371.8999998569489","images/rodent1.png","","","learning","-9","0","0","0","rodent","pets","2","0","","bad","[-3]"
"html-keyboard-response","112","560628","0.0-9.0-2.0-0.20","8071","2","8","Female","approach_avoid_spark_v1","""event"",""trial"",""time""
""fullscreenenter"",""1"",""1899""
""fullscreenexit"",""2"",""7176""
""blur"",""8"",""78316""
""focus"",""9"",""78320""
","""event"",""trial"",""time""
""blur"",""8"",""78316""
","""event"",""trial"",""time""
""focus"",""9"",""78320""
","""event"",""trial"",""time""
""fullscreenenter"",""1"",""1899""
","""event"",""trial"",""time""
""fullscreenexit"",""2"",""7176""
","","","","","","null","<div style=""font-size:60px;"">+</div>","null","","fixation","","","","","","","","","","",""
"aa-learning-trial","113","563632","0.0-9.0-2.0-1.20","8071","2","8","Female","approach_avoid_spark_v1","""event"",""trial"",""time""
""fullscreenenter"",""1"",""1899""
""fullscreenexit"",""2"",""7176""
""blur"",""8"",""78316""
""focus"",""9"",""78320""
","""event"",""trial"",""time""
""blur"",""8"",""78316""
","""event"",""trial"",""time""
""focus"",""9"",""78320""
","""event"",""trial"",""time""
""fullscreenenter"",""1"",""1899""
","""event"",""trial"",""time""
""fullscreenexit"",""2"",""7176""
","","","","","","1185.2000000476837","images/rabbit3.png","","","learning","-5","0","0","0","rabbit","pets","2","0","","neutral","0"
"html-keyboard-response","114","564135","0.0-9.0-2.0-0.21","8071","2","8","Female","approach_avoid_spark_v1","""event"",""trial"",""time""
""fullscreenenter"",""1"",""1899""
""fullscreenexit"",""2"",""7176""
""blur"",""8"",""78316""
""focus"",""9"",""78320""
","""event"",""trial"",""time""
""blur"",""8"",""78316""
","""event"",""trial"",""time""
""focus"",""9"",""78320""
","""event"",""trial"",""time""
""fullscreenenter"",""1"",""1899""
","""event"",""trial"",""time""
""fullscreenexit"",""2"",""7176""
","","","","","","null","<div style=""font-size:60px;"">+</div>","null","","fixation","","","","","","","","","","",""
"aa-learning-trial","115","567136","0.0-9.0-2.0-1.21","8071","2","8","Female","approach_avoid_spark_v1","""event"",""trial"",""time""
""fullscreenenter"",""1"",""1899""
""fullscreenexit"",""2"",""7176""
""blur"",""8"",""78316""
""focus"",""9"",""78320""
","""event"",""trial"",""time""
""blur"",""8"",""78316""
","""event"",""trial"",""time""
""focus"",""9"",""78320""
","""event"",""trial"",""time""
""fullscreenenter"",""1"",""1899""
","""event"",""trial"",""time""
""fullscreenexit"",""2"",""7176""
","","","","","","1098","images/rodent1.png","","","learning","-9","0","0","0","rodent","pets","2","0","","bad","[-3]"
"html-keyboard-response","116","567638","0.0-9.0-2.0-0.22","8071","2","8","Female","approach_avoid_spark_v1","""event"",""trial"",""time""
""fullscreenenter"",""1"",""1899""
""fullscreenexit"",""2"",""7176""
""blur"",""8"",""78316""
""focus"",""9"",""78320""
","""event"",""trial"",""time""
""blur"",""8"",""78316""
","""event"",""trial"",""time""
""focus"",""9"",""78320""
","""event"",""trial"",""time""
""fullscreenenter"",""1"",""1899""
","""event"",""trial"",""time""
""fullscreenexit"",""2"",""7176""
","","","","","","null","<div style=""font-size:60px;"">+</div>","null","","fixation","","","","","","","","","","",""
"aa-learning-trial","117","570642","0.0-9.0-2.0-1.22","8071","2","8","Female","approach_avoid_spark_v1","""event"",""trial"",""time""
""fullscreenenter"",""1"",""1899""
""fullscreenexit"",""2"",""7176""
""blur"",""8"",""78316""
""focus"",""9"",""78320""
","""event"",""trial"",""time""
""blur"",""8"",""78316""
","""event"",""trial"",""time""
""focus"",""9"",""78320""
","""event"",""trial"",""time""
""fullscreenenter"",""1"",""1899""
","""event"",""trial"",""time""
""fullscreenexit"",""2"",""7176""
","","","","","","1081.1000001430511","images/cat5.png","","","learning","3","3","1","1","cat","pets","2","0","","good","[6]"
"html-keyboard-response","118","571143","0.0-9.0-2.0-0.23","8071","2","8","Female","approach_avoid_spark_v1","""event"",""trial"",""time""
""fullscreenenter"",""1"",""1899""
""fullscreenexit"",""2"",""7176""
""blur"",""8"",""78316""
""focus"",""9"",""78320""
","""event"",""trial"",""time""
""blur"",""8"",""78316""
","""event"",""trial"",""time""
""focus"",""9"",""78320""
","""event"",""trial"",""time""
""fullscreenenter"",""1"",""1899""
","""event"",""trial"",""time""
""fullscreenexit"",""2"",""7176""
","","","","","","null","<div style=""font-size:60px;"">+</div>","null","","fixation","","","","","","","","","","",""
"aa-learning-trial","119","574145","0.0-9.0-2.0-1.23","8071","2","8","Female","approach_avoid_spark_v1","""event"",""trial"",""time""
""fullscreenenter"",""1"",""1899""
""fullscreenexit"",""2"",""7176""
""blur"",""8"",""78316""
""focus"",""9"",""78320""
","""event"",""trial"",""time""
""blur"",""8"",""78316""
","""event"",""trial"",""time""
""focus"",""9"",""78320""
","""event"",""trial"",""time""
""fullscreenenter"",""1"",""1899""
","""event"",""trial"",""time""
""fullscreenexit"",""2"",""7176""
","","","","","","705.4000000953674","images/rabbit8.png","","","learning","8","8","1","1","rabbit","pets","2","0","","neutral","0"
"html-keyboard-response","120","574647","0.0-9.0-2.0-0.24","8071","2","8","Female","approach_avoid_spark_v1","""event"",""trial"",""time""
""fullscreenenter"",""1"",""1899""
""fullscreenexit"",""2"",""7176""
""blur"",""8"",""78316""
""focus"",""9"",""78320""
","""event"",""trial"",""time""
""blur"",""8"",""78316""
","""event"",""trial"",""time""
""focus"",""9"",""78320""
","""event"",""trial"",""time""
""fullscreenenter"",""1"",""1899""
","""event"",""trial"",""time""
""fullscreenexit"",""2"",""7176""
","","","","","","null","<div style=""font-size:60px;"">+</div>","null","","fixation","","","","","","","","","","",""
"aa-learning-trial","121","577649","0.0-9.0-2.0-1.24","8071","2","8","Female","approach_avoid_spark_v1","""event"",""trial"",""time""
""fullscreenenter"",""1"",""1899""
""fullscreenexit"",""2"",""7176""
""blur"",""8"",""78316""
""focus"",""9"",""78320""
","""event"",""trial"",""time""
""blur"",""8"",""78316""
","""event"",""trial"",""time""
""focus"",""9"",""78320""
","""event"",""trial"",""time""
""fullscreenenter"",""1"",""1899""
","""event"",""trial"",""time""
""fullscreenexit"",""2"",""7176""
","","","","","","1728.7000000476837","images/cat2.png","","","learning","-1","0","0","0","cat","pets","2","0","","good","[6]"
"html-keyboard-response","122","578151","0.0-9.0-2.0-0.25","8071","2","8","Female","approach_avoid_spark_v1","""event"",""trial"",""time""
""fullscreenenter"",""1"",""1899""
""fullscreenexit"",""2"",""7176""
""blur"",""8"",""78316""
""focus"",""9"",""78320""
","""event"",""trial"",""time""
""blur"",""8"",""78316""
","""event"",""trial"",""time""
""focus"",""9"",""78320""
","""event"",""trial"",""time""
""fullscreenenter"",""1"",""1899""
","""event"",""trial"",""time""
""fullscreenexit"",""2"",""7176""
","","","","","","null","<div style=""font-size:60px;"">+</div>","null","","fixation","","","","","","","","","","",""
"aa-learning-trial","123","581155","0.0-9.0-2.0-1.25","8071","2","8","Female","approach_avoid_spark_v1","""event"",""trial"",""time""
""fullscreenenter"",""1"",""1899""
""fullscreenexit"",""2"",""7176""
""blur"",""8"",""78316""
""focus"",""9"",""78320""
","""event"",""trial"",""time""
""blur"",""8"",""78316""
","""event"",""trial"",""time""
""focus"",""9"",""78320""
","""event"",""trial"",""time""
""fullscreenenter"",""1"",""1899""
","""event"",""trial"",""time""
""fullscreenexit"",""2"",""7176""
","","","","","","760.7000000476837","images/rodent7.png","","","learning","-4","-4","1","1","rodent","pets","2","0","","bad","[-3]"
"html-keyboard-response","124","581656","0.0-9.0-2.0-0.26","8071","2","8","Female","approach_avoid_spark_v1","""event"",""trial"",""time""
""fullscreenenter"",""1"",""1899""
""fullscreenexit"",""2"",""7176""
""blur"",""8"",""78316""
""focus"",""9"",""78320""
","""event"",""trial"",""time""
""blur"",""8"",""78316""
","""event"",""trial"",""time""
""focus"",""9"",""78320""
","""event"",""trial"",""time""
""fullscreenenter"",""1"",""1899""
","""event"",""trial"",""time""
""fullscreenexit"",""2"",""7176""
","","","","","","null","<div style=""font-size:60px;"">+</div>","null","","fixation","","","","","","","","","","",""
"aa-learning-trial","125","584660","0.0-9.0-2.0-1.26","8071","2","8","Female","approach_avoid_spark_v1","""event"",""trial"",""time""
""fullscreenenter"",""1"",""1899""
""fullscreenexit"",""2"",""7176""
""blur"",""8"",""78316""
""focus"",""9"",""78320""
","""event"",""trial"",""time""
""blur"",""8"",""78316""
","""event"",""trial"",""time""
""focus"",""9"",""78320""
","""event"",""trial"",""time""
""fullscreenenter"",""1"",""1899""
","""event"",""trial"",""time""
""fullscreenexit"",""2"",""7176""
","","","","","","902.8999998569489","images/rodent2.png","","","learning","-2","0","0","0","rodent","pets","2","0","","bad","[-3]"
"html-keyboard-response","126","585162","0.0-9.0-2.0-0.27","8071","2","8","Female","approach_avoid_spark_v1","""event"",""trial"",""time""
""fullscreenenter"",""1"",""1899""
""fullscreenexit"",""2"",""7176""
""blur"",""8"",""78316""
""focus"",""9"",""78320""
","""event"",""trial"",""time""
""blur"",""8"",""78316""
","""event"",""trial"",""time""
""focus"",""9"",""78320""
","""event"",""trial"",""time""
""fullscreenenter"",""1"",""1899""
","""event"",""trial"",""time""
""fullscreenexit"",""2"",""7176""
","","","","","","null","<div style=""font-size:60px;"">+</div>","null","","fixation","","","","","","","","","","",""
"aa-learning-trial","127","588165","0.0-9.0-2.0-1.27","8071","2","8","Female","approach_avoid_spark_v1","""event"",""trial"",""time""
""fullscreenenter"",""1"",""1899""
""fullscreenexit"",""2"",""7176""
""blur"",""8"",""78316""
""focus"",""9"",""78320""
","""event"",""trial"",""time""
""blur"",""8"",""78316""
","""event"",""trial"",""time""
""focus"",""9"",""78320""
","""event"",""trial"",""time""
""fullscreenenter"",""1"",""1899""
","""event"",""trial"",""time""
""fullscreenexit"",""2"",""7176""
","","","","","","807.0999999046326","images/rodent7.png","","","learning","-4","-4","1","1","rodent","pets","2","0","","bad","[-3]"
"html-keyboard-response","128","588668","0.0-9.0-2.0-0.28","8071","2","8","Female","approach_avoid_spark_v1","""event"",""trial"",""time""
""fullscreenenter"",""1"",""1899""
""fullscreenexit"",""2"",""7176""
""blur"",""8"",""78316""
""focus"",""9"",""78320""
","""event"",""trial"",""time""
""blur"",""8"",""78316""
","""event"",""trial"",""time""
""focus"",""9"",""78320""
","""event"",""trial"",""time""
""fullscreenenter"",""1"",""1899""
","""event"",""trial"",""time""
""fullscreenexit"",""2"",""7176""
","","","","","","null","<div style=""font-size:60px;"">+</div>","null","","fixation","","","","","","","","","","",""
"aa-learning-trial","129","591672","0.0-9.0-2.0-1.28","8071","2","8","Female","approach_avoid_spark_v1","""event"",""trial"",""time""
""fullscreenenter"",""1"",""1899""
""fullscreenexit"",""2"",""7176""
""blur"",""8"",""78316""
""focus"",""9"",""78320""
","""event"",""trial"",""time""
""blur"",""8"",""78316""
","""event"",""trial"",""time""
""focus"",""9"",""78320""
","""event"",""trial"",""time""
""fullscreenenter"",""1"",""1899""
","""event"",""trial"",""time""
""fullscreenexit"",""2"",""7176""
","","","","","","1443.7999999523163","images/cat2.png","","","learning","-1","0","0","0","cat","pets","2","0","","good","[6]"
"html-keyboard-response","130","592174","0.0-9.0-2.0-0.29","8071","2","8","Female","approach_avoid_spark_v1","""event"",""trial"",""time""
""fullscreenenter"",""1"",""1899""
""fullscreenexit"",""2"",""7176""
""blur"",""8"",""78316""
""focus"",""9"",""78320""
","""event"",""trial"",""time""
""blur"",""8"",""78316""
","""event"",""trial"",""time""
""focus"",""9"",""78320""
","""event"",""trial"",""time""
""fullscreenenter"",""1"",""1899""
","""event"",""trial"",""time""
""fullscreenexit"",""2"",""7176""
","","","","","","null","<div style=""font-size:60px;"">+</div>","null","","fixation","","","","","","","","","","",""
"aa-learning-trial","131","595177","0.0-9.0-2.0-1.29","8071","2","8","Female","approach_avoid_spark_v1","""event"",""trial"",""time""
""fullscreenenter"",""1"",""1899""
""fullscreenexit"",""2"",""7176""
""blur"",""8"",""78316""
""focus"",""9"",""78320""
","""event"",""trial"",""time""
""blur"",""8"",""78316""
","""event"",""trial"",""time""
""focus"",""9"",""78320""
","""event"",""trial"",""time""
""fullscreenenter"",""1"",""1899""
","""event"",""trial"",""time""
""fullscreenexit"",""2"",""7176""
","","","","","","1226.6000001430511","images/rodent8.png","","","learning","9","9","1","1","rodent","pets","2","0","","bad","[-3]"
"html-keyboard-response","132","595691","0.0-9.0-2.0-0.30","8071","2","8","Female","approach_avoid_spark_v1","""event"",""trial"",""time""
""fullscreenenter"",""1"",""1899""
""fullscreenexit"",""2"",""7176""
""blur"",""8"",""78316""
""focus"",""9"",""78320""
","""event"",""trial"",""time""
""blur"",""8"",""78316""
","""event"",""trial"",""time""
""focus"",""9"",""78320""
","""event"",""trial"",""time""
""fullscreenenter"",""1"",""1899""
","""event"",""trial"",""time""
""fullscreenexit"",""2"",""7176""
","","","","","","null","<div style=""font-size:60px;"">+</div>","null","","fixation","","","","","","","","","","",""
"aa-learning-trial","133","598695","0.0-9.0-2.0-1.30","8071","2","8","Female","approach_avoid_spark_v1","""event"",""trial"",""time""
""fullscreenenter"",""1"",""1899""
""fullscreenexit"",""2"",""7176""
""blur"",""8"",""78316""
""focus"",""9"",""78320""
","""event"",""trial"",""time""
""blur"",""8"",""78316""
","""event"",""trial"",""time""
""focus"",""9"",""78320""
","""event"",""trial"",""time""
""fullscreenenter"",""1"",""1899""
","""event"",""trial"",""time""
""fullscreenexit"",""2"",""7176""
","","","","","","659.5999999046326","images/rodent8.png","","","learning","9","9","1","1","rodent","pets","2","0","","bad","[-3]"
"html-keyboard-response","134","599198","0.0-9.0-2.0-0.31","8071","2","8","Female","approach_avoid_spark_v1","""event"",""trial"",""time""
""fullscreenenter"",""1"",""1899""
""fullscreenexit"",""2"",""7176""
""blur"",""8"",""78316""
""focus"",""9"",""78320""
","""event"",""trial"",""time""
""blur"",""8"",""78316""
","""event"",""trial"",""time""
""focus"",""9"",""78320""
","""event"",""trial"",""time""
""fullscreenenter"",""1"",""1899""
","""event"",""trial"",""time""
""fullscreenexit"",""2"",""7176""
","","","","","","null","<div style=""font-size:60px;"">+</div>","null","","fixation","","","","","","","","","","",""
"aa-learning-trial","135","602204","0.0-9.0-2.0-1.31","8071","2","8","Female","approach_avoid_spark_v1","""event"",""trial"",""time""
""fullscreenenter"",""1"",""1899""
""fullscreenexit"",""2"",""7176""
""blur"",""8"",""78316""
""focus"",""9"",""78320""
","""event"",""trial"",""time""
""blur"",""8"",""78316""
","""event"",""trial"",""time""
""focus"",""9"",""78320""
","""event"",""trial"",""time""
""fullscreenenter"",""1"",""1899""
","""event"",""trial"",""time""
""fullscreenexit"",""2"",""7176""
","","","","","","897.5","images/rabbit8.png","","","learning","8","8","1","1","rabbit","pets","2","0","","neutral","0"
"html-keyboard-response","136","602712","0.0-9.0-2.0-0.32","8071","2","8","Female","approach_avoid_spark_v1","""event"",""trial"",""time""
""fullscreenenter"",""1"",""1899""
""fullscreenexit"",""2"",""7176""
""blur"",""8"",""78316""
""focus"",""9"",""78320""
","""event"",""trial"",""time""
""blur"",""8"",""78316""
","""event"",""trial"",""time""
""focus"",""9"",""78320""
","""event"",""trial"",""time""
""fullscreenenter"",""1"",""1899""
","""event"",""trial"",""time""
""fullscreenexit"",""2"",""7176""
","","","","","","null","<div style=""font-size:60px;"">+</div>","null","","fixation","","","","","","","","","","",""
"aa-learning-trial","137","605716","0.0-9.0-2.0-1.32","8071","2","8","Female","approach_avoid_spark_v1","""event"",""trial"",""time""
""fullscreenenter"",""1"",""1899""
""fullscreenexit"",""2"",""7176""
""blur"",""8"",""78316""
""focus"",""9"",""78320""
","""event"",""trial"",""time""
""blur"",""8"",""78316""
","""event"",""trial"",""time""
""focus"",""9"",""78320""
","""event"",""trial"",""time""
""fullscreenenter"",""1"",""1899""
","""event"",""trial"",""time""
""fullscreenexit"",""2"",""7176""
","","","","","","968.1000001430511","images/rabbit7.png","","","learning","-6","-6","1","1","rabbit","pets","2","0","","neutral","0"
"html-keyboard-response","138","606218","0.0-9.0-2.0-0.33","8071","2","8","Female","approach_avoid_spark_v1","""event"",""trial"",""time""
""fullscreenenter"",""1"",""1899""
""fullscreenexit"",""2"",""7176""
""blur"",""8"",""78316""
""focus"",""9"",""78320""
","""event"",""trial"",""time""
""blur"",""8"",""78316""
","""event"",""trial"",""time""
""focus"",""9"",""78320""
","""event"",""trial"",""time""
""fullscreenenter"",""1"",""1899""
","""event"",""trial"",""time""
""fullscreenexit"",""2"",""7176""
","","","","","","null","<div style=""font-size:60px;"">+</div>","null","","fixation","","","","","","","","","","",""
"aa-learning-trial","139","609222","0.0-9.0-2.0-1.33","8071","2","8","Female","approach_avoid_spark_v1","""event"",""trial"",""time""
""fullscreenenter"",""1"",""1899""
""fullscreenexit"",""2"",""7176""
""blur"",""8"",""78316""
""focus"",""9"",""78320""
","""event"",""trial"",""time""
""blur"",""8"",""78316""
","""event"",""trial"",""time""
""focus"",""9"",""78320""
","""event"",""trial"",""time""
""fullscreenenter"",""1"",""1899""
","""event"",""trial"",""time""
""fullscreenexit"",""2"",""7176""
","","","","","","838.5","images/rodent8.png","","","learning","9","9","1","1","rodent","pets","2","0","","bad","[-3]"
"html-keyboard-response","140","609724","0.0-9.0-2.0-0.34","8071","2","8","Female","approach_avoid_spark_v1","""event"",""trial"",""time""
""fullscreenenter"",""1"",""1899""
""fullscreenexit"",""2"",""7176""
""blur"",""8"",""78316""
""focus"",""9"",""78320""
","""event"",""trial"",""time""
""blur"",""8"",""78316""
","""event"",""trial"",""time""
""focus"",""9"",""78320""
","""event"",""trial"",""time""
""fullscreenenter"",""1"",""1899""
","""event"",""trial"",""time""
""fullscreenexit"",""2"",""7176""
","","","","","","null","<div style=""font-size:60px;"">+</div>","null","","fixation","","","","","","","","","","",""
"aa-learning-trial","141","612729","0.0-9.0-2.0-1.34","8071","2","8","Female","approach_avoid_spark_v1","""event"",""trial"",""time""
""fullscreenenter"",""1"",""1899""
""fullscreenexit"",""2"",""7176""
""blur"",""8"",""78316""
""focus"",""9"",""78320""
","""event"",""trial"",""time""
""blur"",""8"",""78316""
","""event"",""trial"",""time""
""focus"",""9"",""78320""
","""event"",""trial"",""time""
""fullscreenenter"",""1"",""1899""
","""event"",""trial"",""time""
""fullscreenexit"",""2"",""7176""
","","","","","","1074.1000001430511","images/cat1.png","","","learning","-3","0","0","0","cat","pets","2","0","","good","[6]"
"html-keyboard-response","142","613231","0.0-9.0-2.0-0.35","8071","2","8","Female","approach_avoid_spark_v1","""event"",""trial"",""time""
""fullscreenenter"",""1"",""1899""
""fullscreenexit"",""2"",""7176""
""blur"",""8"",""78316""
""focus"",""9"",""78320""
","""event"",""trial"",""time""
""blur"",""8"",""78316""
","""event"",""trial"",""time""
""focus"",""9"",""78320""
","""event"",""trial"",""time""
""fullscreenenter"",""1"",""1899""
","""event"",""trial"",""time""
""fullscreenexit"",""2"",""7176""
","","","","","","null","<div style=""font-size:60px;"">+</div>","null","","fixation","","","","","","","","","","",""
"aa-learning-trial","143","616235","0.0-9.0-2.0-1.35","8071","2","8","Female","approach_avoid_spark_v1","""event"",""trial"",""time""
""fullscreenenter"",""1"",""1899""
""fullscreenexit"",""2"",""7176""
""blur"",""8"",""78316""
""focus"",""9"",""78320""
","""event"",""trial"",""time""
""blur"",""8"",""78316""
","""event"",""trial"",""time""
""focus"",""9"",""78320""
","""event"",""trial"",""time""
""fullscreenenter"",""1"",""1899""
","""event"",""trial"",""time""
""fullscreenexit"",""2"",""7176""
","","","","","","945.5999999046326","images/rodent8.png","","","learning","9","9","1","1","rodent","pets","2","0","","bad","[-3]"
"html-keyboard-response","144","616737","0.0-9.0-2.0-0.36","8071","2","8","Female","approach_avoid_spark_v1","""event"",""trial"",""time""
""fullscreenenter"",""1"",""1899""
""fullscreenexit"",""2"",""7176""
""blur"",""8"",""78316""
""focus"",""9"",""78320""
","""event"",""trial"",""time""
""blur"",""8"",""78316""
","""event"",""trial"",""time""
""focus"",""9"",""78320""
","""event"",""trial"",""time""
""fullscreenenter"",""1"",""1899""
","""event"",""trial"",""time""
""fullscreenexit"",""2"",""7176""
","","","","","","null","<div style=""font-size:60px;"">+</div>","null","","fixation","","","","","","","","","","",""
"aa-learning-trial","145","619744","0.0-9.0-2.0-1.36","8071","2","8","Female","approach_avoid_spark_v1","""event"",""trial"",""time""
""fullscreenenter"",""1"",""1899""
""fullscreenexit"",""2"",""7176""
""blur"",""8"",""78316""
""focus"",""9"",""78320""
","""event"",""trial"",""time""
""blur"",""8"",""78316""
","""event"",""trial"",""time""
""focus"",""9"",""78320""
","""event"",""trial"",""time""
""fullscreenenter"",""1"",""1899""
","""event"",""trial"",""time""
""fullscreenexit"",""2"",""7176""
","","","","","","1030.9000000953674","images/rabbit3.png","","","learning","-5","-5","1","1","rabbit","pets","2","0","","neutral","0"
"html-keyboard-response","146","620246","0.0-9.0-2.0-0.37","8071","2","8","Female","approach_avoid_spark_v1","""event"",""trial"",""time""
""fullscreenenter"",""1"",""1899""
""fullscreenexit"",""2"",""7176""
""blur"",""8"",""78316""
""focus"",""9"",""78320""
","""event"",""trial"",""time""
""blur"",""8"",""78316""
","""event"",""trial"",""time""
""focus"",""9"",""78320""
","""event"",""trial"",""time""
""fullscreenenter"",""1"",""1899""
","""event"",""trial"",""time""
""fullscreenexit"",""2"",""7176""
","","","","","","null","<div style=""font-size:60px;"">+</div>","null","","fixation","","","","","","","","","","",""
