"trial_type","trial_index","time_elapsed","internal_node_id","subject_id","task_condition","age","gender","task_version","interactions","blur_events","focus_events","fullscreenenter_events","fullscreenexit_events","success","timeout","failed_images","failed_audio","failed_video","rt","stimulus","response","button_pressed","task_part","approach_reward","points","key_press","option_selected","stim_cat","task_block","block_condition","block_number","correct","cat_type","mean_cat_reward"
"pavlovia","0","4","0.0-0.0","4005","1","12","Female","approach_avoid_spark_v1","""event"",""trial"",""time""
""fullscreenenter"",""1"",""7601""
","
","
","""event"",""trial"",""time""
""fullscreenenter"",""1"",""7601""
","
","","","","","","","","","","","","","","","","","","","","",""
"fullscreen","1","8594","0.0-1.0","4005","1","12","Female","approach_avoid_spark_v1","""event"",""trial"",""time""
""fullscreenenter"",""1"",""7601""
","
","
","""event"",""trial"",""time""
""fullscreenenter"",""1"",""7601""
","
","true","","","","","","","","","","","","","","","","","","","",""
"preload","2","11155","0.0-2.0","4005","1","12","Female","approach_avoid_spark_v1","""event"",""trial"",""time""
""fullscreenenter"",""1"",""7601""
","
","
","""event"",""trial"",""time""
""fullscreenenter"",""1"",""7601""
","
","true","false","[]","[]","[]","","","","","","","","","","","","","","","",""
"audio-keyboard-response","3","15596","0.0-3.0","4005","1","12","Female","approach_avoid_spark_v1","""event"",""trial"",""time""
""fullscreenenter"",""1"",""7601""
","
","
","""event"",""trial"",""time""
""fullscreenenter"",""1"",""7601""
","
","","","","","","4440","audio/beep_loop.wav"," ","","","","","","","","","","","","",""
"audio-button-response","4","18106","0.0-4.0","4005","1","12","Female","approach_avoid_spark_v1","""event"",""trial"",""time""
""fullscreenenter"",""1"",""7601""
","
","
","""event"",""trial"",""time""
""fullscreenenter"",""1"",""7601""
","
","","","","","","2509","audio/shark.wav","4","","","","","","","","","","","","",""
"audio-button-response","5","20561","0.0-5.0","4005","1","12","Female","approach_avoid_spark_v1","""event"",""trial"",""time""
""fullscreenenter"",""1"",""7601""
","
","
","""event"",""trial"",""time""
""fullscreenenter"",""1"",""7601""
","
","","","","","","1448","audio/turtle.wav","1","","","","","","","","","","","","",""
"preload","6","22916","0.0-6.0","4005","1","12","Female","approach_avoid_spark_v1","""event"",""trial"",""time""
""fullscreenenter"",""1"",""7601""
","
","
","""event"",""trial"",""time""
""fullscreenenter"",""1"",""7601""
","
","true","false","[]","[]","[]","","","","","","","","","","","","","","","",""
"html-keyboard-response","7","25007","0.0-7.0","4005","1","12","Female","approach_avoid_spark_v1","""event"",""trial"",""time""
""fullscreenenter"",""1"",""7601""
","
","
","""event"",""trial"",""time""
""fullscreenenter"",""1"",""7601""
","
","","","","","","2088.5","Welcome to the experiment. Press any key to begin and to advance the instructions."," ","","","","","","","","","","","","",""
"learning-instructions","8","33552","0.0-8.0-0.0-0.0","4005","1","12","Female","approach_avoid_spark_v1","""event"",""trial"",""time""
""fullscreenenter"",""1"",""7601""
","
","
","""event"",""trial"",""time""
""fullscreenenter"",""1"",""7601""
","
","","","","","","1582.4000000059605","<p> Welcome! Today you are going to play 6 different rounds of a decision-making game. </p><p> Use the mouse to click next to continue. </p>","","0","instructions","","","","","","","","","","",""
"learning-instructions","9","38890","0.0-8.0-0.0-0.1","4005","1","12","Female","approach_avoid_spark_v1","""event"",""trial"",""time""
""fullscreenenter"",""1"",""7601""
","
","
","""event"",""trial"",""time""
""fullscreenenter"",""1"",""7601""
","
","","","","","","2599.699999988079","<p> You will start with a practice round to learn the rules. </p>","","0","instructions","","","","","","","","","","",""
"learning-instructions","10","43347","0.0-8.0-0.0-0.2","4005","1","12","Female","approach_avoid_spark_v1","""event"",""trial"",""time""
""fullscreenenter"",""1"",""7601""
","
","
","""event"",""trial"",""time""
""fullscreenenter"",""1"",""7601""
","
","","","","","","1006.9000000059605","<p> Your goal in this round is to give out sports equipment to kids. </p></div>","","0","instructions","","","","","","","","","","",""
"learning-instructions","11","51975","0.0-8.0-0.0-0.3","4005","1","12","Female","approach_avoid_spark_v1","""event"",""trial"",""time""
""fullscreenenter"",""1"",""7601""
","
","
","""event"",""trial"",""time""
""fullscreenenter"",""1"",""7601""
","
","","","","","","1074.7999999821186","<p> The kids only like some of the equipment.  </p><p> On each turn, you will see a piece of sports equipment.   </p><p> You need to decide whether to give it to the kids or not.  </p>","","0","instructions","","","","","","","","","","",""
"learning-instructions","12","57258","0.0-8.0-0.0-0.4","4005","1","12","Female","approach_avoid_spark_v1","""event"",""trial"",""time""
""fullscreenenter"",""1"",""7601""
","
","
","""event"",""trial"",""time""
""fullscreenenter"",""1"",""7601""
","
","","","","","","526.1000000238419","<p> You can give them the equipment by pressing 1 and choose not to give it to them by pressing 0. </p><br><div class=""choice-instructions-grid""> <div class=""choice-option""><img src=""images/approach.png"" class=""choice-option-img"" stage=""instructions"" position=""0"" ><div class=""choice-option-text""> Press ""1."" </div></div><div class=""choice-option""><img src=""images/avoid.png"" class=""choice-option-img"" stage=""instructions"" position=""1"" ><div class=""choice-option-text""> Press ""0."" </div></div>","","0","instructions","","","","","","","","","","",""
"learning-instructions","13","65369","0.0-8.0-0.0-0.5","4005","1","12","Female","approach_avoid_spark_v1","""event"",""trial"",""time""
""fullscreenenter"",""1"",""7601""
","
","
","""event"",""trial"",""time""
""fullscreenenter"",""1"",""7601""
","
","","","","","","729.2000000178814","<p> If you give them a piece of equipment they like, they will be happy! </p><p> But if you give them a piece of equipment they do not like, they will be sad. </p>","","0","instructions","","","","","","","","","","",""
"learning-instructions","14","76592","0.0-8.0-0.0-0.6","4005","1","12","Female","approach_avoid_spark_v1","""event"",""trial"",""time""
""fullscreenenter"",""1"",""7601""
","
","
","""event"",""trial"",""time""
""fullscreenenter"",""1"",""7601""
","
","","","","","","711.2000000178814","<p> You will earn points based on how you make kids feel. </p><p> If you make them happy, you will WIN anywhere from 1 - 9 points, </p><p> but if you make them sad, you will LOSE anywhere from 1 - 9 points. </p>","","0","instructions","","","","","","","","","","",""
"learning-instructions","15","86589","0.0-8.0-0.0-0.7","4005","1","12","Female","approach_avoid_spark_v1","""event"",""trial"",""time""
""fullscreenenter"",""1"",""7601""
","
","
","""event"",""trial"",""time""
""fullscreenenter"",""1"",""7601""
","
","","","","","","437.40000000596046","<p> You will see how many points you won or lost in the center of the screen. </p><p> Here is what you would see if you won 6 points: </p><p style=""color:green;font-size:50px;font-weight:bolder"">6</p><p style=""color:green"">The text is GREEN because you WON points.</p>","","0","instructions","","","","","","","","","","",""
"learning-instructions","16","92777","0.0-8.0-0.0-0.8","4005","1","12","Female","approach_avoid_spark_v1","""event"",""trial"",""time""
""fullscreenenter"",""1"",""7601""
","
","
","""event"",""trial"",""time""
""fullscreenenter"",""1"",""7601""
","
","","","","","","685.6999999880791","<p> And here is what you would see if you lost 4 points: </p><p style=""color:red;font-size:50px;font-weight:bolder"">-4</p><p style=""color:red"">The text is RED because you LOST points. </p>","","0","instructions","","","","","","","","","","",""
"learning-instructions","17","108230","0.0-8.0-0.0-0.9","4005","1","12","Female","approach_avoid_spark_v1","""event"",""trial"",""time""
""fullscreenenter"",""1"",""7601""
","
","
","""event"",""trial"",""time""
""fullscreenenter"",""1"",""7601""
","
","","","","","","739.1999999880791","<p> Some of the equipment will make the kids VERY happy or sad. </p><p> These pieces of equipment will make you win or lose LOTS of points. </p><p> Other pieces of equipment will only make the kids a little happy or sad. </p><p> These pieces of equipment will make you win or lose small amounts of points. </p>","","0","instructions","","","","","","","","","","",""
"learning-instructions","18","119882","0.0-8.0-0.0-0.10","4005","1","12","Female","approach_avoid_spark_v1","""event"",""trial"",""time""
""fullscreenenter"",""1"",""7601""
","
","
","""event"",""trial"",""time""
""fullscreenenter"",""1"",""7601""
","
","","","","","","1021.6999999880791","<p> If you choose not to give them the equipment, you will not win or lose any points. </p><p>  However, in the center of the screen, you will see the number of points you WOULD HAVE won or lost if you had given them the equipment. </p>","","0","instructions","","","","","","","","","","",""
"learning-instructions","19","142064","0.0-8.0-0.0-0.11","4005","1","12","Female","approach_avoid_spark_v1","""event"",""trial"",""time""
""fullscreenenter"",""1"",""7601""
","
","
","""event"",""trial"",""time""
""fullscreenenter"",""1"",""7601""
","
","","","","","","652","<p> Here is what you might see if you did not give the equipment to the kids but it would have made them happy: </p><p style=""color:grey; font-size:50px; display: inline-block; border-spacing: 15px; border-width:3px; border-style:solid; border-color:red"">  &nbsp; 7 &nbsp; </p><p> Remember, in this case, you would not win or lose ANY points because you did not give them the equipment.  </p><p style=""color:grey"">The text is GREY because you earned ZERO points. </p><p style=""color:red"">However, choosing to give the kids the equipment would have made you win points. The box around the text is RED because you chose the worse option. </p>","","0","instructions","","","","","","","","","","",""
"learning-instructions","20","164155","0.0-8.0-0.0-0.12","4005","1","12","Female","approach_avoid_spark_v1","""event"",""trial"",""time""
""fullscreenenter"",""1"",""7601""
","
","
","""event"",""trial"",""time""
""fullscreenenter"",""1"",""7601""
","
","","","","","","1012.5999999940395","<p> Here is what you might see if you did not give the equipment to the kids but it would have made them sad: </p><p style=""color:grey;font-size:50px; display: inline-block; border-spacing: 15px; border-width:3px; border-style:solid; border-color:green"">  &nbsp; -8 &nbsp; </p><p> Remember, in this case, you would not win or lose ANY points because you did not give them the equipment.  </p><p style=""color:grey"">The text is GREY because you earned ZERO points. </p><p  style=""color:green""> Choosing to give the kids the equipment would have made you lose points. The box around the text is GREEN because you chose the better option.</p>","","0","instructions","","","","","","","","","","",""
"learning-instructions","21","217855","0.0-8.0-0.0-0.13","4005","1","12","Female","approach_avoid_spark_v1","""event"",""trial"",""time""
""fullscreenenter"",""1"",""7601""
","
","
","""event"",""trial"",""time""
""fullscreenenter"",""1"",""7601""
","
","","","","","","44803.80000001192","<p> You will have 3 seconds to make each choice. Try to respond before time runs out! </p><p> You will lose 5 points each time you do not make a response. </p>","","0","instructions","","","","","","","","","","",""
"learning-instructions","22","224303","0.0-8.0-0.0-0.14","4005","1","12","Female","approach_avoid_spark_v1","""event"",""trial"",""time""
""fullscreenenter"",""1"",""7601""
","
","
","""event"",""trial"",""time""
""fullscreenenter"",""1"",""7601""
","
","","","","","","911.9000000059605","<p> This is just a practice round, but in the real game, your bonus payment will depend on your total number of points.","","0","instructions","","","","","","","","","","",""
"learning-instructions","23","230720","0.0-8.0-0.0-0.15","4005","1","12","Female","approach_avoid_spark_v1","""event"",""trial"",""time""
""fullscreenenter"",""1"",""7601""
","
","
","""event"",""trial"",""time""
""fullscreenenter"",""1"",""7601""
","
","","","","","","648.3999999761581","<p> Remember, you can give them the equipment by pressing 1 and choose not to give it to them by pressing 0. </p><br><div class=""choice-instructions-grid""> <div class=""choice-option""><img src=""images/approach.png"" class=""choice-option-img"" stage=""instructions"" position=""0"" ><div class=""choice-option-text""> Press ""1."" </div></div><div class=""choice-option""><img src=""images/avoid.png"" class=""choice-option-img"" stage=""instructions"" position=""1"" ><div class=""choice-option-text""> Press ""0."" </div></div>","","0","instructions","","","","","","","","","","",""
"html-button-response","24","232157","0.0-8.0-1.0","4005","1","12","Female","approach_avoid_spark_v1","""event"",""trial"",""time""
""fullscreenenter"",""1"",""7601""
","
","
","""event"",""trial"",""time""
""fullscreenenter"",""1"",""7601""
","
","","","","","","1329.300000011921","<p> Ready to practice? </p>","0","","","","","","","","","","","","",""
"html-keyboard-response","25","232770","0.0-8.0-2.0-0.0","4005","1","12","Female","approach_avoid_spark_v1","""event"",""trial"",""time""
""fullscreenenter"",""1"",""7601""
","
","
","""event"",""trial"",""time""
""fullscreenenter"",""1"",""7601""
","
","","","","","","null","<div style=""font-size:60px;"">+</div>","null","","fixation","","","","","","","","","","",""
"aa-learning-trial","26","235779","0.0-8.0-2.0-1.0","4005","1","12","Female","approach_avoid_spark_v1","""event"",""trial"",""time""
""fullscreenenter"",""1"",""7601""
","
","
","""event"",""trial"",""time""
""fullscreenenter"",""1"",""7601""
","
","","","","","","null","images/ball1.png","","","learning","-9","-5","","null","practice","practice","practice","-1","","",""
"html-keyboard-response","27","236282","0.0-8.0-2.0-0.1","4005","1","12","Female","approach_avoid_spark_v1","""event"",""trial"",""time""
""fullscreenenter"",""1"",""7601""
","
","
","""event"",""trial"",""time""
""fullscreenenter"",""1"",""7601""
","
","","","","","","null","<div style=""font-size:60px;"">+</div>","null","","fixation","","","","","","","","","","",""
"aa-learning-trial","28","239290","0.0-8.0-2.0-1.1","4005","1","12","Female","approach_avoid_spark_v1","""event"",""trial"",""time""
""fullscreenenter"",""1"",""7601""
","
","
","""event"",""trial"",""time""
""fullscreenenter"",""1"",""7601""
","
","","","","","","null","images/racket1.png","","","learning","5","-5","","null","practice","practice","practice","-1","","",""
"html-keyboard-response","29","239794","0.0-8.0-2.0-0.2","4005","1","12","Female","approach_avoid_spark_v1","""event"",""trial"",""time""
""fullscreenenter"",""1"",""7601""
","
","
","""event"",""trial"",""time""
""fullscreenenter"",""1"",""7601""
","
","","","","","","null","<div style=""font-size:60px;"">+</div>","null","","fixation","","","","","","","","","","",""
"aa-learning-trial","30","242802","0.0-8.0-2.0-1.2","4005","1","12","Female","approach_avoid_spark_v1","""event"",""trial"",""time""
""fullscreenenter"",""1"",""7601""
","
","
","""event"",""trial"",""time""
""fullscreenenter"",""1"",""7601""
","
","","","","","","668.4000000059605","images/ball3.png","","","learning","4","4","1","1","practice","practice","practice","-1","","",""
"html-keyboard-response","31","243306","0.0-8.0-2.0-0.3","4005","1","12","Female","approach_avoid_spark_v1","""event"",""trial"",""time""
""fullscreenenter"",""1"",""7601""
","
","
","""event"",""trial"",""time""
""fullscreenenter"",""1"",""7601""
","
","","","","","","null","<div style=""font-size:60px;"">+</div>","null","","fixation","","","","","","","","","","",""
"aa-learning-trial","32","246314","0.0-8.0-2.0-1.3","4005","1","12","Female","approach_avoid_spark_v1","""event"",""trial"",""time""
""fullscreenenter"",""1"",""7601""
","
","
","""event"",""trial"",""time""
""fullscreenenter"",""1"",""7601""
","
","","","","","","804.0999999940395","images/ball4.png","","","learning","6","6","1","1","practice","practice","practice","-1","","",""
"html-keyboard-response","33","246818","0.0-8.0-2.0-0.4","4005","1","12","Female","approach_avoid_spark_v1","""event"",""trial"",""time""
""fullscreenenter"",""1"",""7601""
","
","
","""event"",""trial"",""time""
""fullscreenenter"",""1"",""7601""
","
","","","","","","null","<div style=""font-size:60px;"">+</div>","null","","fixation","","","","","","","","","","",""
"aa-learning-trial","34","249826","0.0-8.0-2.0-1.4","4005","1","12","Female","approach_avoid_spark_v1","""event"",""trial"",""time""
""fullscreenenter"",""1"",""7601""
","
","
","""event"",""trial"",""time""
""fullscreenenter"",""1"",""7601""
","
","","","","","","953.5","images/racket4.png","","","learning","5","-5","arrowdown","","practice","practice","practice","-1","","",""
"html-keyboard-response","35","250330","0.0-8.0-2.0-0.5","4005","1","12","Female","approach_avoid_spark_v1","""event"",""trial"",""time""
""fullscreenenter"",""1"",""7601""
","
","
","""event"",""trial"",""time""
""fullscreenenter"",""1"",""7601""
","
","","","","","","null","<div style=""font-size:60px;"">+</div>","null","","fixation","","","","","","","","","","",""
"aa-learning-trial","36","253338","0.0-8.0-2.0-1.5","4005","1","12","Female","approach_avoid_spark_v1","""event"",""trial"",""time""
""fullscreenenter"",""1"",""7601""
","
","
","""event"",""trial"",""time""
""fullscreenenter"",""1"",""7601""
","
","","","","","","991.3999999761581","images/racket3.png","","","learning","-4","-4","1","1","practice","practice","practice","-1","","",""
"html-keyboard-response","37","253842","0.0-8.0-2.0-0.6","4005","1","12","Female","approach_avoid_spark_v1","""event"",""trial"",""time""
""fullscreenenter"",""1"",""7601""
","
","
","""event"",""trial"",""time""
""fullscreenenter"",""1"",""7601""
","
","","","","","","null","<div style=""font-size:60px;"">+</div>","null","","fixation","","","","","","","","","","",""
"aa-learning-trial","38","256850","0.0-8.0-2.0-1.6","4005","1","12","Female","approach_avoid_spark_v1","""event"",""trial"",""time""
""fullscreenenter"",""1"",""7601""
","
","
","""event"",""trial"",""time""
""fullscreenenter"",""1"",""7601""
","
","","","","","","2225.5","images/racket1.png","","","learning","-1","-1","1","1","practice","practice","practice","-1","","",""
"html-keyboard-response","39","257353","0.0-8.0-2.0-0.7","4005","1","12","Female","approach_avoid_spark_v1","""event"",""trial"",""time""
""fullscreenenter"",""1"",""7601""
","
","
","""event"",""trial"",""time""
""fullscreenenter"",""1"",""7601""
","
","","","","","","null","<div style=""font-size:60px;"">+</div>","null","","fixation","","","","","","","","","","",""
"aa-learning-trial","40","260362","0.0-8.0-2.0-1.7","4005","1","12","Female","approach_avoid_spark_v1","""event"",""trial"",""time""
""fullscreenenter"",""1"",""7601""
","
","
","""event"",""trial"",""time""
""fullscreenenter"",""1"",""7601""
","
","","","","","","804.5","images/racket2.png","","","learning","-1","0","0","0","practice","practice","practice","-1","","",""
"html-keyboard-response","41","260867","0.0-8.0-2.0-0.8","4005","1","12","Female","approach_avoid_spark_v1","""event"",""trial"",""time""
""fullscreenenter"",""1"",""7601""
","
","
","""event"",""trial"",""time""
""fullscreenenter"",""1"",""7601""
","
","","","","","","null","<div style=""font-size:60px;"">+</div>","null","","fixation","","","","","","","","","","",""
"aa-learning-trial","42","263874","0.0-8.0-2.0-1.8","4005","1","12","Female","approach_avoid_spark_v1","""event"",""trial"",""time""
""fullscreenenter"",""1"",""7601""
","
","
","""event"",""trial"",""time""
""fullscreenenter"",""1"",""7601""
","
","","","","","","1115.5","images/racket4.png","","","learning","3","0","0","0","practice","practice","practice","-1","","",""
"html-keyboard-response","43","264379","0.0-8.0-2.0-0.9","4005","1","12","Female","approach_avoid_spark_v1","""event"",""trial"",""time""
""fullscreenenter"",""1"",""7601""
","
","
","""event"",""trial"",""time""
""fullscreenenter"",""1"",""7601""
","
","","","","","","null","<div style=""font-size:60px;"">+</div>","null","","fixation","","","","","","","","","","",""
"aa-learning-trial","44","267386","0.0-8.0-2.0-1.9","4005","1","12","Female","approach_avoid_spark_v1","""event"",""trial"",""time""
""fullscreenenter"",""1"",""7601""
","
","
","""event"",""trial"",""time""
""fullscreenenter"",""1"",""7601""
","
","","","","","","1446.7000000178814","images/racket3.png","","","learning","-9","0","0","0","practice","practice","practice","-1","","",""
"html-keyboard-response","45","267891","0.0-8.0-2.0-0.10","4005","1","12","Female","approach_avoid_spark_v1","""event"",""trial"",""time""
""fullscreenenter"",""1"",""7601""
","
","
","""event"",""trial"",""time""
""fullscreenenter"",""1"",""7601""
","
","","","","","","null","<div style=""font-size:60px;"">+</div>","null","","fixation","","","","","","","","","","",""
"aa-learning-trial","46","270899","0.0-8.0-2.0-1.10","4005","1","12","Female","approach_avoid_spark_v1","""event"",""trial"",""time""
""fullscreenenter"",""1"",""7601""
","
","
","""event"",""trial"",""time""
""fullscreenenter"",""1"",""7601""
","
","","","","","","1132.3999999761581","images/racket4.png","","","learning","7","0","0","0","practice","practice","practice","-1","","",""
"html-keyboard-response","47","271402","0.0-8.0-2.0-0.11","4005","1","12","Female","approach_avoid_spark_v1","""event"",""trial"",""time""
""fullscreenenter"",""1"",""7601""
","
","
","""event"",""trial"",""time""
""fullscreenenter"",""1"",""7601""
","
","","","","","","null","<div style=""font-size:60px;"">+</div>","null","","fixation","","","","","","","","","","",""
"aa-learning-trial","48","274410","0.0-8.0-2.0-1.11","4005","1","12","Female","approach_avoid_spark_v1","""event"",""trial"",""time""
""fullscreenenter"",""1"",""7601""
","
","
","""event"",""trial"",""time""
""fullscreenenter"",""1"",""7601""
","
","","","","","","632.8999999761581","images/racket4.png","","","learning","-5","-5","1","1","practice","practice","practice","-1","","",""
"html-button-response","49","277469","0.0-8.0-3.0","4005","1","12","Female","approach_avoid_spark_v1","""event"",""trial"",""time""
""fullscreenenter"",""1"",""7601""
","
","
","""event"",""trial"",""time""
""fullscreenenter"",""1"",""7601""
","
","","","","","","3054.5","<p> You earned -15 points in the practice round! </p>","0","","break","","","","","","","","","","",""
"learning-instructions","50","284843","0.0-8.0-4.0-0.0","4005","1","12","Female","approach_avoid_spark_v1","""event"",""trial"",""time""
""fullscreenenter"",""1"",""7601""
","
","
","""event"",""trial"",""time""
""fullscreenenter"",""1"",""7601""
","
","","","","","","1401.4000000059605","<p> It's almost time to start the real game. </p><p> Before you start, we're going to ask you a few questions about how the game works. </p>","","0","instructions","","","","","","","","","","",""
"preload","51","285857","0.0-8.0-5.0","4005","1","12","Female","approach_avoid_spark_v1","""event"",""trial"",""time""
""fullscreenenter"",""1"",""7601""
","
","
","""event"",""trial"",""time""
""fullscreenenter"",""1"",""7601""
","
","true","false","[]","[]","[]","","","","","","","","","","","","","","","",""
"comp-q","52","292242","0.0-8.0-6.0-0.0","4005","1","12","Female","approach_avoid_spark_v1","""event"",""trial"",""time""
""fullscreenenter"",""1"",""7601""
","
","
","""event"",""trial"",""time""
""fullscreenenter"",""1"",""7601""
","
","","","","","","1390.4000000059605","<p> <b> True or False? </b> </p><p> If you see a number in GREY, that means you earned that many points. </p>","","1","comp_question","","","","","","","","","true","",""
"comp-q","53","301741","0.0-8.0-6.0-1.0","4005","1","12","Female","approach_avoid_spark_v1","""event"",""trial"",""time""
""fullscreenenter"",""1"",""7601""
","
","
","""event"",""trial"",""time""
""fullscreenenter"",""1"",""7601""
","
","","","","","","1129.7999999821186","<p><b> That's right! </b> If you see a grey number, it means you earned ZERO points. <br> The grey numbers show the points you WOULD HAVE earned if you had made the other choice. </p>","","0","comp_answer","","","","","","","","","","",""
"comp-q","54","307470","0.0-8.0-7.0-0.0","4005","1","12","Female","approach_avoid_spark_v1","""event"",""trial"",""time""
""fullscreenenter"",""1"",""7601""
","
","
","""event"",""trial"",""time""
""fullscreenenter"",""1"",""7601""
","
","","","","","","1038.5","<p> <b> True or False? </b> </p><p> You will have as much time as you want to make each choice. </p>","","1","comp_question","","","","","","","","","true","",""
"comp-q","55","313922","0.0-8.0-7.0-1.0","4005","1","12","Female","approach_avoid_spark_v1","""event"",""trial"",""time""
""fullscreenenter"",""1"",""7601""
","
","
","""event"",""trial"",""time""
""fullscreenenter"",""1"",""7601""
","
","","","","","","2401.0999999940395","<p> <b> That's right! </b> You will only have 3 seconds to make each choice. </p>","","0","comp_answer","","","","","","","","","","",""
"comp-q","56","319365","0.0-8.0-8.0-0.0","4005","1","12","Female","approach_avoid_spark_v1","""event"",""trial"",""time""
""fullscreenenter"",""1"",""7601""
","
","
","""event"",""trial"",""time""
""fullscreenenter"",""1"",""7601""
","
","","","","","","783.5999999940395","<p> <b> True or False? </b> </p><p> You should use the '1' and '0' keys to make your choices. </p>","","0","comp_question","","","","","","","","","true","",""
"comp-q","57","325044","0.0-8.0-8.0-1.0","4005","1","12","Female","approach_avoid_spark_v1","""event"",""trial"",""time""
""fullscreenenter"",""1"",""7601""
","
","
","""event"",""trial"",""time""
""fullscreenenter"",""1"",""7601""
","
","","","","","","1073.5","<p> <b> That's right! </b> You should use the '1' and '0' keys to make each choice. </p>","","0","comp_answer","","","","","","","","","","",""
"learning-instructions","58","361298","0.0-8.0-9.0-0.0","4005","1","12","Female","approach_avoid_spark_v1","""event"",""trial"",""time""
""fullscreenenter"",""1"",""7601""
","
","
","""event"",""trial"",""time""
""fullscreenenter"",""1"",""7601""
","
","","","","","","29987.90000000596","<p> It's now time to start the real game. </p>Do your best, because the points you earn in the next rounds will influence your bonus payment. </p>","","0","instructions","","","","","","","","","","",""
"preload","59","361438","0.0-9.0-0.0","4005","1","12","Female","approach_avoid_spark_v1","""event"",""trial"",""time""
""fullscreenenter"",""1"",""7601""
","
","
","""event"",""trial"",""time""
""fullscreenenter"",""1"",""7601""
","
","true","false","[]","[]","[]","","","","","","","","","","","","","","","",""
"learning-instructions","60","368042","0.0-9.0-1.0-0.0","4005","1","12","Female","approach_avoid_spark_v1","""event"",""trial"",""time""
""fullscreenenter"",""1"",""7601""
","
","
","""event"",""trial"",""time""
""fullscreenenter"",""1"",""7601""
","
","","","","","","1603.699999988079","<p> Your goal in this round is to take your friend for rides in different vehicles. </p></div>","","0","instructions","","","","","","","","","","",""
"learning-instructions","61","378772","0.0-9.0-1.0-0.1","4005","1","12","Female","approach_avoid_spark_v1","""event"",""trial"",""time""
""fullscreenenter"",""1"",""7601""
","
","
","""event"",""trial"",""time""
""fullscreenenter"",""1"",""7601""
","
","","","","","","923.2000000178814","<p> Your friend enjoys riding in some vehicles but not in others.  </p><p> On each turn, you will see a vehicle.   </p><p> You need to decide whether to take your friend for a ride or not.  </p>","","0","instructions","","","","","","","","","","",""
"learning-instructions","62","386051","0.0-9.0-1.0-0.2","4005","1","12","Female","approach_avoid_spark_v1","""event"",""trial"",""time""
""fullscreenenter"",""1"",""7601""
","
","
","""event"",""trial"",""time""
""fullscreenenter"",""1"",""7601""
","
","","","","","","861.2000000178814","<p> You can take your friend for a ride in the vehicle by pressing 1 and skip the ride by pressing 0. </p><br><div class=""choice-instructions-grid""> <div class=""choice-option""><img src=""images/approach.png"" class=""choice-option-img"" stage=""instructions"" position=""0"" ><div class=""choice-option-text""> Press ""1."" </div></div><div class=""choice-option""><img src=""images/avoid.png"" class=""choice-option-img"" stage=""instructions"" position=""1"" ><div class=""choice-option-text""> Press ""0."" </div></div>","","0","instructions","","","","","","","","","","",""
"learning-instructions","63","395795","0.0-9.0-1.0-0.3","4005","1","12","Female","approach_avoid_spark_v1","""event"",""trial"",""time""
""fullscreenenter"",""1"",""7601""
","
","
","""event"",""trial"",""time""
""fullscreenenter"",""1"",""7601""
","
","","","","","","1035.6000000238419","<p> If you take them for a ride in a vehicle they like, they will be thrilled! </p><p> But if you take them for a ride in a vehicle they do not like, they will be upset. </p>","","0","instructions","","","","","","","","","","",""
"learning-instructions","64","408912","0.0-9.0-1.0-0.4","4005","1","12","Female","approach_avoid_spark_v1","""event"",""trial"",""time""
""fullscreenenter"",""1"",""7601""
","
","
","""event"",""trial"",""time""
""fullscreenenter"",""1"",""7601""
","
","","","","","","1511.699999988079","<p> You will earn points based on how you made your friend feel. </p><p> If you made him thrilled, you will WIN anywhere from 1 - 9 points, </p><p> but if you made him upset, you will LOSE anywhere from 1 - 9 points. </p>","","0","instructions","","","","","","","","","","",""
"learning-instructions","65","418001","0.0-9.0-1.0-0.5","4005","1","12","Female","approach_avoid_spark_v1","""event"",""trial"",""time""
""fullscreenenter"",""1"",""7601""
","
","
","""event"",""trial"",""time""
""fullscreenenter"",""1"",""7601""
","
","","","","","","1761.4000000059605","<p> You will see how many points you won or lost in the center of the screen. </p><p> Here is what you would see if you won 5 points: </p><p style=""color:green;font-size:50px;font-weight:bolder"">5</p>","","0","instructions","","","","","","","","","","",""
"learning-instructions","66","422417","0.0-9.0-1.0-0.6","4005","1","12","Female","approach_avoid_spark_v1","""event"",""trial"",""time""
""fullscreenenter"",""1"",""7601""
","
","
","""event"",""trial"",""time""
""fullscreenenter"",""1"",""7601""
","
","","","","","","1126.5999999940395","<p> And here is what you would see if you lost 3 points: </p><p style=""color:red;font-size:50px;font-weight:bolder"">-3</p>","","0","instructions","","","","","","","","","","",""
"learning-instructions","67","438391","0.0-9.0-1.0-0.7","4005","1","12","Female","approach_avoid_spark_v1","""event"",""trial"",""time""
""fullscreenenter"",""1"",""7601""
","
","
","""event"",""trial"",""time""
""fullscreenenter"",""1"",""7601""
","
","","","","","","862","<p> Some vehicles will make your friend REALLY thrilled or upset. </p><p> These vehicles will make you win or lose LOTS of points. </p><p> Other vehicles will only make him feel a little thrilled or upset. </p><p> These vehicles will make you win or lose small amounts of points. </p>","","0","instructions","","","","","","","","","","",""
"learning-instructions","68","451439","0.0-9.0-1.0-0.8","4005","1","12","Female","approach_avoid_spark_v1","""event"",""trial"",""time""
""fullscreenenter"",""1"",""7601""
","
","
","""event"",""trial"",""time""
""fullscreenenter"",""1"",""7601""
","
","","","","","","1358.2000000178814","<p> If you choose to skip the ride, you will not win or lose any points. </p><p>  However, in the center of the screen, you will see the number of points you WOULD HAVE won or lost if you had taken your friend for a ride. </p>","","0","instructions","","","","","","","","","","",""
"learning-instructions","69","463317","0.0-9.0-1.0-0.9","4005","1","12","Female","approach_avoid_spark_v1","""event"",""trial"",""time""
""fullscreenenter"",""1"",""7601""
","
","
","""event"",""trial"",""time""
""fullscreenenter"",""1"",""7601""
","
","","","","","","1166.300000011921","<p> Here is what you might see if you did not take your friend for a ride but he would have enjoyed it: </p><p style=""color:grey; font-size:50px; display: inline-block; border-spacing: 15px; border-width:3px; border-style:solid; border-color:red"">  &nbsp; 6 &nbsp; </p><p> Remember, in this case, you would not win or lose ANY points because you skipped the ride.  </p>","","0","instructions","","","","","","","","","","",""
"learning-instructions","70","471935","0.0-9.0-1.0-0.10","4005","1","12","Female","approach_avoid_spark_v1","""event"",""trial"",""time""
""fullscreenenter"",""1"",""7601""
","
","
","""event"",""trial"",""time""
""fullscreenenter"",""1"",""7601""
","
","","","","","","1054.5999999940395","<p> Try to make the best choice for each vehicle because </p><p> at the end of the game, you will earn bonus money based on how many points you earned. </p>","","0","instructions","","","","","","","","","","",""
"learning-instructions","71","481024","0.0-9.0-1.0-0.11","4005","1","12","Female","approach_avoid_spark_v1","""event"",""trial"",""time""
""fullscreenenter"",""1"",""7601""
","
","
","""event"",""trial"",""time""
""fullscreenenter"",""1"",""7601""
","
","","","","","","894.0999999940395","<p> You will have 3 seconds to make each choice. Try to respond before time runs out! </p><p> You will lose 5 points each time you do not make a response. </p>","","0","instructions","","","","","","","","","","",""
"html-keyboard-response","72","481634","0.0-9.0-2.0-0.0","4005","1","12","Female","approach_avoid_spark_v1","""event"",""trial"",""time""
""fullscreenenter"",""1"",""7601""
","
","
","""event"",""trial"",""time""
""fullscreenenter"",""1"",""7601""
","
","","","","","","null","<div style=""font-size:60px;"">+</div>","null","","fixation","","","","","","","","","","",""
"aa-learning-trial","73","484644","0.0-9.0-2.0-1.0","4005","1","12","Female","approach_avoid_spark_v1","""event"",""trial"",""time""
""fullscreenenter"",""1"",""7601""
","
","
","""event"",""trial"",""time""
""fullscreenenter"",""1"",""7601""
","
","","","","","","957.6999999880791","images/truck4.png","","","learning","[-1]","0","0","0","truck","vehicles","1","0","","neutral","0"
"html-keyboard-response","74","485155","0.0-9.0-2.0-0.1","4005","1","12","Female","approach_avoid_spark_v1","""event"",""trial"",""time""
""fullscreenenter"",""1"",""7601""
","
","
","""event"",""trial"",""time""
""fullscreenenter"",""1"",""7601""
","
","","","","","","null","<div style=""font-size:60px;"">+</div>","null","","fixation","","","","","","","","","","",""
"aa-learning-trial","75","488162","0.0-9.0-2.0-1.1","4005","1","12","Female","approach_avoid_spark_v1","""event"",""trial"",""time""
""fullscreenenter"",""1"",""7601""
","
","
","""event"",""trial"",""time""
""fullscreenenter"",""1"",""7601""
","
","","","","","","737.5999999940395","images/boat8.png","","","learning","9","9","1","1","boat","vehicles","1","0","","good","[6]"
"html-keyboard-response","76","488666","0.0-9.0-2.0-0.2","4005","1","12","Female","approach_avoid_spark_v1","""event"",""trial"",""time""
""fullscreenenter"",""1"",""7601""
","
","
","""event"",""trial"",""time""
""fullscreenenter"",""1"",""7601""
","
","","","","","","null","<div style=""font-size:60px;"">+</div>","null","","fixation","","","","","","","","","","",""
"aa-learning-trial","77","491675","0.0-9.0-2.0-1.2","4005","1","12","Female","approach_avoid_spark_v1","""event"",""trial"",""time""
""fullscreenenter"",""1"",""7601""
","
","
","""event"",""trial"",""time""
""fullscreenenter"",""1"",""7601""
","
","","","","","","1296.5","images/truck3.png","","","learning","[-1]","0","0","0","truck","vehicles","1","0","","neutral","0"
"html-keyboard-response","78","492178","0.0-9.0-2.0-0.3","4005","1","12","Female","approach_avoid_spark_v1","""event"",""trial"",""time""
""fullscreenenter"",""1"",""7601""
","
","
","""event"",""trial"",""time""
""fullscreenenter"",""1"",""7601""
","
","","","","","","null","<div style=""font-size:60px;"">+</div>","null","","fixation","","","","","","","","","","",""
"aa-learning-trial","79","495187","0.0-9.0-2.0-1.3","4005","1","12","Female","approach_avoid_spark_v1","""event"",""trial"",""time""
""fullscreenenter"",""1"",""7601""
","
","
","""event"",""trial"",""time""
""fullscreenenter"",""1"",""7601""
","
","","","","","","753.5999999940395","images/train8.png","","","learning","-6","-6","1","1","train","vehicles","1","0","","bad","[-6]"
"html-keyboard-response","80","495691","0.0-9.0-2.0-0.4","4005","1","12","Female","approach_avoid_spark_v1","""event"",""trial"",""time""
""fullscreenenter"",""1"",""7601""
","
","
","""event"",""trial"",""time""
""fullscreenenter"",""1"",""7601""
","
","","","","","","null","<div style=""font-size:60px;"">+</div>","null","","fixation","","","","","","","","","","",""
"aa-learning-trial","81","498698","0.0-9.0-2.0-1.4","4005","1","12","Female","approach_avoid_spark_v1","""event"",""trial"",""time""
""fullscreenenter"",""1"",""7601""
","
","
","""event"",""trial"",""time""
""fullscreenenter"",""1"",""7601""
","
","","","","","","810.0999999940395","images/boat2.png","","","learning","6","6","1","1","boat","vehicles","1","0","","good","[6]"
"html-keyboard-response","82","499202","0.0-9.0-2.0-0.5","4005","1","12","Female","approach_avoid_spark_v1","""event"",""trial"",""time""
""fullscreenenter"",""1"",""7601""
","
","
","""event"",""trial"",""time""
""fullscreenenter"",""1"",""7601""
","
","","","","","","null","<div style=""font-size:60px;"">+</div>","null","","fixation","","","","","","","","","","",""
"aa-learning-trial","83","502210","0.0-9.0-2.0-1.5","4005","1","12","Female","approach_avoid_spark_v1","""event"",""trial"",""time""
""fullscreenenter"",""1"",""7601""
","
","
","""event"",""trial"",""time""
""fullscreenenter"",""1"",""7601""
","
","","","","","","649.1999999880791","images/boat2.png","","","learning","3","3","1","1","boat","vehicles","1","0","","good","[6]"
"html-keyboard-response","84","502714","0.0-9.0-2.0-0.6","4005","1","12","Female","approach_avoid_spark_v1","""event"",""trial"",""time""
""fullscreenenter"",""1"",""7601""
","
","
","""event"",""trial"",""time""
""fullscreenenter"",""1"",""7601""
","
","","","","","","null","<div style=""font-size:60px;"">+</div>","null","","fixation","","","","","","","","","","",""
"aa-learning-trial","85","505722","0.0-9.0-2.0-1.6","4005","1","12","Female","approach_avoid_spark_v1","""event"",""trial"",""time""
""fullscreenenter"",""1"",""7601""
","
","
","""event"",""trial"",""time""
""fullscreenenter"",""1"",""7601""
","
","","","","","","732.5","images/boat8.png","","","learning","5","5","1","1","boat","vehicles","1","0","","good","[6]"
"html-keyboard-response","86","506227","0.0-9.0-2.0-0.7","4005","1","12","Female","approach_avoid_spark_v1","""event"",""trial"",""time""
""fullscreenenter"",""1"",""7601""
","
","
","""event"",""trial"",""time""
""fullscreenenter"",""1"",""7601""
","
","","","","","","null","<div style=""font-size:60px;"">+</div>","null","","fixation","","","","","","","","","","",""
"aa-learning-trial","87","509234","0.0-9.0-2.0-1.7","4005","1","12","Female","approach_avoid_spark_v1","""event"",""trial"",""time""
""fullscreenenter"",""1"",""7601""
","
","
","""event"",""trial"",""time""
""fullscreenenter"",""1"",""7601""
","
","","","","","","500.90000000596046","images/train2.png","","","learning","-6","0","0","0","train","vehicles","1","0","","bad","[-6]"
"html-keyboard-response","88","509739","0.0-9.0-2.0-0.8","4005","1","12","Female","approach_avoid_spark_v1","""event"",""trial"",""time""
""fullscreenenter"",""1"",""7601""
","
","
","""event"",""trial"",""time""
""fullscreenenter"",""1"",""7601""
","
","","","","","","null","<div style=""font-size:60px;"">+</div>","null","","fixation","","","","","","","","","","",""
"aa-learning-trial","89","512747","0.0-9.0-2.0-1.8","4005","1","12","Female","approach_avoid_spark_v1","""event"",""trial"",""time""
""fullscreenenter"",""1"",""7601""
","
","
","""event"",""trial"",""time""
""fullscreenenter"",""1"",""7601""
","
","","","","","","633.9000000059605","images/boat6.png","","","learning","5","5","1","1","boat","vehicles","1","0","","good","[6]"
"html-keyboard-response","90","513251","0.0-9.0-2.0-0.9","4005","1","12","Female","approach_avoid_spark_v1","""event"",""trial"",""time""
""fullscreenenter"",""1"",""7601""
","
","
","""event"",""trial"",""time""
""fullscreenenter"",""1"",""7601""
","
","","","","","","null","<div style=""font-size:60px;"">+</div>","null","","fixation","","","","","","","","","","",""
"aa-learning-trial","91","516258","0.0-9.0-2.0-1.9","4005","1","12","Female","approach_avoid_spark_v1","""event"",""trial"",""time""
""fullscreenenter"",""1"",""7601""
","
","
","""event"",""trial"",""time""
""fullscreenenter"",""1"",""7601""
","
","","","","","","990.5999999940395","images/train8.png","","","learning","-6","0","0","0","train","vehicles","1","0","","bad","[-6]"
"html-keyboard-response","92","516762","0.0-9.0-2.0-0.10","4005","1","12","Female","approach_avoid_spark_v1","""event"",""trial"",""time""
""fullscreenenter"",""1"",""7601""
","
","
","""event"",""trial"",""time""
""fullscreenenter"",""1"",""7601""
","
","","","","","","null","<div style=""font-size:60px;"">+</div>","null","","fixation","","","","","","","","","","",""
"aa-learning-trial","93","519770","0.0-9.0-2.0-1.10","4005","1","12","Female","approach_avoid_spark_v1","""event"",""trial"",""time""
""fullscreenenter"",""1"",""7601""
","
","
","""event"",""trial"",""time""
""fullscreenenter"",""1"",""7601""
","
","","","","","","598.3000000119209","images/truck6.png","","","learning","1","0","0","0","truck","vehicles","1","0","","neutral","0"
"html-keyboard-response","94","520274","0.0-9.0-2.0-0.11","4005","1","12","Female","approach_avoid_spark_v1","""event"",""trial"",""time""
""fullscreenenter"",""1"",""7601""
","
","
","""event"",""trial"",""time""
""fullscreenenter"",""1"",""7601""
","
","","","","","","null","<div style=""font-size:60px;"">+</div>","null","","fixation","","","","","","","","","","",""
"aa-learning-trial","95","523282","0.0-9.0-2.0-1.11","4005","1","12","Female","approach_avoid_spark_v1","""event"",""trial"",""time""
""fullscreenenter"",""1"",""7601""
","
","
","""event"",""trial"",""time""
""fullscreenenter"",""1"",""7601""
","
","","","","","","751.4000000059605","images/truck6.png","","","learning","[1]","0","0","0","truck","vehicles","1","0","","neutral","0"
"html-keyboard-response","96","523785","0.0-9.0-2.0-0.12","4005","1","12","Female","approach_avoid_spark_v1","""event"",""trial"",""time""
""fullscreenenter"",""1"",""7601""
","
","
","""event"",""trial"",""time""
""fullscreenenter"",""1"",""7601""
","
","","","","","","null","<div style=""font-size:60px;"">+</div>","null","","fixation","","","","","","","","","","",""
"aa-learning-trial","97","526794","0.0-9.0-2.0-1.12","4005","1","12","Female","approach_avoid_spark_v1","""event"",""trial"",""time""
""fullscreenenter"",""1"",""7601""
","
","
","""event"",""trial"",""time""
""fullscreenenter"",""1"",""7601""
","
","","","","","","1137","images/train6.png","","","learning","-7","-7","1","1","train","vehicles","1","0","","bad","[-6]"
"html-keyboard-response","98","527298","0.0-9.0-2.0-0.13","4005","1","12","Female","approach_avoid_spark_v1","""event"",""trial"",""time""
""fullscreenenter"",""1"",""7601""
","
","
","""event"",""trial"",""time""
""fullscreenenter"",""1"",""7601""
","
","","","","","","null","<div style=""font-size:60px;"">+</div>","null","","fixation","","","","","","","","","","",""
"aa-learning-trial","99","530306","0.0-9.0-2.0-1.13","4005","1","12","Female","approach_avoid_spark_v1","""event"",""trial"",""time""
""fullscreenenter"",""1"",""7601""
","
","
","""event"",""trial"",""time""
""fullscreenenter"",""1"",""7601""
","
","","","","","","647.1000000238419","images/truck4.png","","","learning","1","0","0","0","truck","vehicles","1","0","","neutral","0"
"html-keyboard-response","100","530810","0.0-9.0-2.0-0.14","4005","1","12","Female","approach_avoid_spark_v1","""event"",""trial"",""time""
""fullscreenenter"",""1"",""7601""
","
","
","""event"",""trial"",""time""
""fullscreenenter"",""1"",""7601""
","
","","","","","","null","<div style=""font-size:60px;"">+</div>","null","","fixation","","","","","","","","","","",""
"aa-learning-trial","101","533818","0.0-9.0-2.0-1.14","4005","1","12","Female","approach_avoid_spark_v1","""event"",""trial"",""time""
""fullscreenenter"",""1"",""7601""
","
","
","""event"",""trial"",""time""
""fullscreenenter"",""1"",""7601""
","
","","","","","","935","images/train6.png","","","learning","-5","0","0","0","train","vehicles","1","0","","bad","[-6]"
"html-keyboard-response","102","534322","0.0-9.0-2.0-0.15","4005","1","12","Female","approach_avoid_spark_v1","""event"",""trial"",""time""
""fullscreenenter"",""1"",""7601""
","
","
","""event"",""trial"",""time""
""fullscreenenter"",""1"",""7601""
","
","","","","","","null","<div style=""font-size:60px;"">+</div>","null","","fixation","","","","","","","","","","",""
"aa-learning-trial","103","537330","0.0-9.0-2.0-1.15","4005","1","12","Female","approach_avoid_spark_v1","""event"",""trial"",""time""
""fullscreenenter"",""1"",""7601""
","
","
","""event"",""trial"",""time""
""fullscreenenter"",""1"",""7601""
","
","","","","","","524.7999999821186","images/boat2.png","","","learning","5","5","1","1","boat","vehicles","1","0","","good","[6]"
"html-keyboard-response","104","537834","0.0-9.0-2.0-0.16","4005","1","12","Female","approach_avoid_spark_v1","""event"",""trial"",""time""
""fullscreenenter"",""1"",""7601""
","
","
","""event"",""trial"",""time""
""fullscreenenter"",""1"",""7601""
","
","","","","","","null","<div style=""font-size:60px;"">+</div>","null","","fixation","","","","","","","","","","",""
"aa-learning-trial","105","540843","0.0-9.0-2.0-1.16","4005","1","12","Female","approach_avoid_spark_v1","""event"",""trial"",""time""
""fullscreenenter"",""1"",""7601""
","
","
","""event"",""trial"",""time""
""fullscreenenter"",""1"",""7601""
","
","","","","","","1223.2999999821186","images/truck4.png","","","learning","3","3","1","1","truck","vehicles","1","0","","neutral","0"
"html-keyboard-response","106","541346","0.0-9.0-2.0-0.17","4005","1","12","Female","approach_avoid_spark_v1","""event"",""trial"",""time""
""fullscreenenter"",""1"",""7601""
","
","
","""event"",""trial"",""time""
""fullscreenenter"",""1"",""7601""
","
","","","","","","null","<div style=""font-size:60px;"">+</div>","null","","fixation","","","","","","","","","","",""
"aa-learning-trial","107","544354","0.0-9.0-2.0-1.17","4005","1","12","Female","approach_avoid_spark_v1","""event"",""trial"",""time""
""fullscreenenter"",""1"",""7601""
","
","
","""event"",""trial"",""time""
""fullscreenenter"",""1"",""7601""
","
","","","","","","565","images/boat2.png","","","learning","7","7","1","1","boat","vehicles","1","0","","good","[6]"
"html-keyboard-response","108","544858","0.0-9.0-2.0-0.18","4005","1","12","Female","approach_avoid_spark_v1","""event"",""trial"",""time""
""fullscreenenter"",""1"",""7601""
","
","
","""event"",""trial"",""time""
""fullscreenenter"",""1"",""7601""
","
","","","","","","null","<div style=""font-size:60px;"">+</div>","null","","fixation","","","","","","","","","","",""
"aa-learning-trial","109","547866","0.0-9.0-2.0-1.18","4005","1","12","Female","approach_avoid_spark_v1","""event"",""trial"",""time""
""fullscreenenter"",""1"",""7601""
","
","
","""event"",""trial"",""time""
""fullscreenenter"",""1"",""7601""
","
","","","","","","582.9000000059605","images/truck4.png","","","learning","[-1]","-1","1","1","truck","vehicles","1","0","","neutral","0"
"html-keyboard-response","110","548370","0.0-9.0-2.0-0.19","4005","1","12","Female","approach_avoid_spark_v1","""event"",""trial"",""time""
""fullscreenenter"",""1"",""7601""
","
","
","""event"",""trial"",""time""
""fullscreenenter"",""1"",""7601""
","
","","","","","","null","<div style=""font-size:60px;"">+</div>","null","","fixation","","","","","","","","","","",""
"aa-learning-trial","111","551378","0.0-9.0-2.0-1.19","4005","1","12","Female","approach_avoid_spark_v1","""event"",""trial"",""time""
""fullscreenenter"",""1"",""7601""
","
","
","""event"",""trial"",""time""
""fullscreenenter"",""1"",""7601""
","
","","","","","","1138.9000000059605","images/truck3.png","","","learning","1","0","0","0","truck","vehicles","1","0","","neutral","0"
"html-keyboard-response","112","551882","0.0-9.0-2.0-0.20","4005","1","12","Female","approach_avoid_spark_v1","""event"",""trial"",""time""
""fullscreenenter"",""1"",""7601""
","
","
","""event"",""trial"",""time""
""fullscreenenter"",""1"",""7601""
","
","","","","","","null","<div style=""font-size:60px;"">+</div>","null","","fixation","","","","","","","","","","",""
"aa-learning-trial","113","554889","0.0-9.0-2.0-1.20","4005","1","12","Female","approach_avoid_spark_v1","""event"",""trial"",""time""
""fullscreenenter"",""1"",""7601""
","
","
","""event"",""trial"",""time""
""fullscreenenter"",""1"",""7601""
","
","","","","","","469.40000000596046","images/truck3.png","","","learning","[1]","1","1","1","truck","vehicles","1","0","","neutral","0"
"html-keyboard-response","114","555394","0.0-9.0-2.0-0.21","4005","1","12","Female","approach_avoid_spark_v1","""event"",""trial"",""time""
""fullscreenenter"",""1"",""7601""
","
","
","""event"",""trial"",""time""
""fullscreenenter"",""1"",""7601""
","
","","","","","","null","<div style=""font-size:60px;"">+</div>","null","","fixation","","","","","","","","","","",""
"aa-learning-trial","115","558403","0.0-9.0-2.0-1.21","4005","1","12","Female","approach_avoid_spark_v1","""event"",""trial"",""time""
""fullscreenenter"",""1"",""7601""
","
","
","""event"",""trial"",""time""
""fullscreenenter"",""1"",""7601""
","
","","","","","","741.0999999940395","images/truck4.png","","","learning","[-1]","-1","1","1","truck","vehicles","1","0","","neutral","0"
"html-keyboard-response","116","558907","0.0-9.0-2.0-0.22","4005","1","12","Female","approach_avoid_spark_v1","""event"",""trial"",""time""
""fullscreenenter"",""1"",""7601""
","
","
","""event"",""trial"",""time""
""fullscreenenter"",""1"",""7601""
","
","","","","","","null","<div style=""font-size:60px;"">+</div>","null","","fixation","","","","","","","","","","",""
"aa-learning-trial","117","561914","0.0-9.0-2.0-1.22","4005","1","12","Female","approach_avoid_spark_v1","""event"",""trial"",""time""
""fullscreenenter"",""1"",""7601""
","
","
","""event"",""trial"",""time""
""fullscreenenter"",""1"",""7601""
","
","","","","","","819.5999999940395","images/boat6.png","","","learning","3","3","1","1","boat","vehicles","1","0","","good","[6]"
"html-keyboard-response","118","562418","0.0-9.0-2.0-0.23","4005","1","12","Female","approach_avoid_spark_v1","""event"",""trial"",""time""
""fullscreenenter"",""1"",""7601""
","
","
","""event"",""trial"",""time""
""fullscreenenter"",""1"",""7601""
","
","","","","","","null","<div style=""font-size:60px;"">+</div>","null","","fixation","","","","","","","","","","",""
"aa-learning-trial","119","565426","0.0-9.0-2.0-1.23","4005","1","12","Female","approach_avoid_spark_v1","""event"",""trial"",""time""
""fullscreenenter"",""1"",""7601""
","
","
","""event"",""trial"",""time""
""fullscreenenter"",""1"",""7601""
","
","","","","","","1230","images/train8.png","","","learning","-7","0","0","0","train","vehicles","1","0","","bad","[-6]"
"html-keyboard-response","120","565930","0.0-9.0-2.0-0.24","4005","1","12","Female","approach_avoid_spark_v1","""event"",""trial"",""time""
""fullscreenenter"",""1"",""7601""
","
","
","""event"",""trial"",""time""
""fullscreenenter"",""1"",""7601""
","
","","","","","","null","<div style=""font-size:60px;"">+</div>","null","","fixation","","","","","","","","","","",""
"aa-learning-trial","121","568938","0.0-9.0-2.0-1.24","4005","1","12","Female","approach_avoid_spark_v1","""event"",""trial"",""time""
""fullscreenenter"",""1"",""7601""
","
","
","""event"",""trial"",""time""
""fullscreenenter"",""1"",""7601""
","
","","","","","","626.5999999940395","images/train2.png","","","learning","-9","0","0","0","train","vehicles","1","0","","bad","[-6]"
"html-keyboard-response","122","569442","0.0-9.0-2.0-0.25","4005","1","12","Female","approach_avoid_spark_v1","""event"",""trial"",""time""
""fullscreenenter"",""1"",""7601""
","
","
","""event"",""trial"",""time""
""fullscreenenter"",""1"",""7601""
","
","","","","","","null","<div style=""font-size:60px;"">+</div>","null","","fixation","","","","","","","","","","",""
"aa-learning-trial","123","572450","0.0-9.0-2.0-1.25","4005","1","12","Female","approach_avoid_spark_v1","""event"",""trial"",""time""
""fullscreenenter"",""1"",""7601""
","
","
","""event"",""trial"",""time""
""fullscreenenter"",""1"",""7601""
","
","","","","","","541.4000000059605","images/boat8.png","","","learning","9","9","1","1","boat","vehicles","1","0","","good","[6]"
"html-keyboard-response","124","572954","0.0-9.0-2.0-0.26","4005","1","12","Female","approach_avoid_spark_v1","""event"",""trial"",""time""
""fullscreenenter"",""1"",""7601""
","
","
","""event"",""trial"",""time""
""fullscreenenter"",""1"",""7601""
","
","","","","","","null","<div style=""font-size:60px;"">+</div>","null","","fixation","","","","","","","","","","",""
"aa-learning-trial","125","575962","0.0-9.0-2.0-1.26","4005","1","12","Female","approach_avoid_spark_v1","""event"",""trial"",""time""
""fullscreenenter"",""1"",""7601""
","
","
","""event"",""trial"",""time""
""fullscreenenter"",""1"",""7601""
","
","","","","","","1130.6000000238419","images/train3.png","","","learning","-4","0","0","0","train","vehicles","1","0","","bad","[-6]"
"html-keyboard-response","126","576465","0.0-9.0-2.0-0.27","4005","1","12","Female","approach_avoid_spark_v1","""event"",""trial"",""time""
""fullscreenenter"",""1"",""7601""
","
","
","""event"",""trial"",""time""
""fullscreenenter"",""1"",""7601""
","
","","","","","","null","<div style=""font-size:60px;"">+</div>","null","","fixation","","","","","","","","","","",""
"aa-learning-trial","127","579474","0.0-9.0-2.0-1.27","4005","1","12","Female","approach_avoid_spark_v1","""event"",""trial"",""time""
""fullscreenenter"",""1"",""7601""
","
","
","""event"",""trial"",""time""
""fullscreenenter"",""1"",""7601""
","
","","","","","","571.1000000238419","images/boat5.png","","","learning","7","7","1","1","boat","vehicles","1","0","","good","[6]"
"html-keyboard-response","128","579979","0.0-9.0-2.0-0.28","4005","1","12","Female","approach_avoid_spark_v1","""event"",""trial"",""time""
""fullscreenenter"",""1"",""7601""
","
","
","""event"",""trial"",""time""
""fullscreenenter"",""1"",""7601""
","
","","","","","","null","<div style=""font-size:60px;"">+</div>","null","","fixation","","","","","","","","","","",""
"aa-learning-trial","129","582985","0.0-9.0-2.0-1.28","4005","1","12","Female","approach_avoid_spark_v1","""event"",""trial"",""time""
""fullscreenenter"",""1"",""7601""
","
","
","""event"",""trial"",""time""
""fullscreenenter"",""1"",""7601""
","
","","","","","","969.9000000059605","images/truck7.png","","","learning","2","0","0","0","truck","vehicles","1","0","","neutral","0"
"html-keyboard-response","130","583490","0.0-9.0-2.0-0.29","4005","1","12","Female","approach_avoid_spark_v1","""event"",""trial"",""time""
""fullscreenenter"",""1"",""7601""
","
","
","""event"",""trial"",""time""
""fullscreenenter"",""1"",""7601""
","
","","","","","","null","<div style=""font-size:60px;"">+</div>","null","","fixation","","","","","","","","","","",""
"aa-learning-trial","131","586498","0.0-9.0-2.0-1.29","4005","1","12","Female","approach_avoid_spark_v1","""event"",""trial"",""time""
""fullscreenenter"",""1"",""7601""
","
","
","""event"",""trial"",""time""
""fullscreenenter"",""1"",""7601""
","
","","","","","","761.9000000059605","images/truck4.png","","","learning","2","2","1","1","truck","vehicles","1","0","","neutral","0"
"html-keyboard-response","132","587001","0.0-9.0-2.0-0.30","4005","1","12","Female","approach_avoid_spark_v1","""event"",""trial"",""time""
""fullscreenenter"",""1"",""7601""
","
","
","""event"",""trial"",""time""
""fullscreenenter"",""1"",""7601""
","
","","","","","","null","<div style=""font-size:60px;"">+</div>","null","","fixation","","","","","","","","","","",""
"aa-learning-trial","133","590010","0.0-9.0-2.0-1.30","4005","1","12","Female","approach_avoid_spark_v1","""event"",""trial"",""time""
""fullscreenenter"",""1"",""7601""
","
","
","""event"",""trial"",""time""
""fullscreenenter"",""1"",""7601""
","
","","","","","","596.1999999880791","images/boat2.png","","","learning","8","8","1","1","boat","vehicles","1","0","","good","[6]"
"html-keyboard-response","134","590514","0.0-9.0-2.0-0.31","4005","1","12","Female","approach_avoid_spark_v1","""event"",""trial"",""time""
""fullscreenenter"",""1"",""7601""
","
","
","""event"",""trial"",""time""
""fullscreenenter"",""1"",""7601""
","
","","","","","","null","<div style=""font-size:60px;"">+</div>","null","","fixation","","","","","","","","","","",""
"aa-learning-trial","135","593522","0.0-9.0-2.0-1.31","4005","1","12","Female","approach_avoid_spark_v1","""event"",""trial"",""time""
""fullscreenenter"",""1"",""7601""
","
","
","""event"",""trial"",""time""
""fullscreenenter"",""1"",""7601""
","
","","","","","","958.8000000119209","images/train8.png","","","learning","-8","0","0","0","train","vehicles","1","0","","bad","[-6]"
"html-keyboard-response","136","594026","0.0-9.0-2.0-0.32","4005","1","12","Female","approach_avoid_spark_v1","""event"",""trial"",""time""
""fullscreenenter"",""1"",""7601""
","
","
","""event"",""trial"",""time""
""fullscreenenter"",""1"",""7601""
","
","","","","","","null","<div style=""font-size:60px;"">+</div>","null","","fixation","","","","","","","","","","",""
"aa-learning-trial","137","597034","0.0-9.0-2.0-1.32","4005","1","12","Female","approach_avoid_spark_v1","""event"",""trial"",""time""
""fullscreenenter"",""1"",""7601""
","
","
","""event"",""trial"",""time""
""fullscreenenter"",""1"",""7601""
","
","","","","","","757.8000000119209","images/train8.png","","","learning","-7","0","0","0","train","vehicles","1","0","","bad","[-6]"
"html-keyboard-response","138","597537","0.0-9.0-2.0-0.33","4005","1","12","Female","approach_avoid_spark_v1","""event"",""trial"",""time""
""fullscreenenter"",""1"",""7601""
","
","
","""event"",""trial"",""time""
""fullscreenenter"",""1"",""7601""
","
","","","","","","null","<div style=""font-size:60px;"">+</div>","null","","fixation","","","","","","","","","","",""
"aa-learning-trial","139","600547","0.0-9.0-2.0-1.33","4005","1","12","Female","approach_avoid_spark_v1","""event"",""trial"",""time""
""fullscreenenter"",""1"",""7601""
","
","
","""event"",""trial"",""time""
""fullscreenenter"",""1"",""7601""
","
","","","","","","647.1999999880791","images/train8.png","","","learning","-5","0","0","0","train","vehicles","1","0","","bad","[-6]"
"html-keyboard-response","140","601050","0.0-9.0-2.0-0.34","4005","1","12","Female","approach_avoid_spark_v1","""event"",""trial"",""time""
""fullscreenenter"",""1"",""7601""
","
","
","""event"",""trial"",""time""
""fullscreenenter"",""1"",""7601""
","
","","","","","","null","<div style=""font-size:60px;"">+</div>","null","","fixation","","","","","","","","","","",""
"aa-learning-trial","141","604058","0.0-9.0-2.0-1.34","4005","1","12","Female","approach_avoid_spark_v1","""event"",""trial"",""time""
""fullscreenenter"",""1"",""7601""
","
","
","""event"",""trial"",""time""
""fullscreenenter"",""1"",""7601""
","
","","","","","","654.5999999940395","images/truck5.png","","","learning","1","0","0","0","truck","vehicles","1","0","","neutral","0"
"html-keyboard-response","142","604562","0.0-9.0-2.0-0.35","4005","1","12","Female","approach_avoid_spark_v1","""event"",""trial"",""time""
""fullscreenenter"",""1"",""7601""
","
","
","""event"",""trial"",""time""
""fullscreenenter"",""1"",""7601""
","
","","","","","","null","<div style=""font-size:60px;"">+</div>","null","","fixation","","","","","","","","","","",""
"aa-learning-trial","143","607570","0.0-9.0-2.0-1.35","4005","1","12","Female","approach_avoid_spark_v1","""event"",""trial"",""time""
""fullscreenenter"",""1"",""7601""
","
","
","""event"",""trial"",""time""
""fullscreenenter"",""1"",""7601""
","
","","","","","","650.8000000119209","images/boat2.png","","","learning","8","8","1","1","boat","vehicles","1","0","","good","[6]"
"html-keyboard-response","144","608075","0.0-9.0-2.0-0.36","4005","1","12","Female","approach_avoid_spark_v1","""event"",""trial"",""time""
""fullscreenenter"",""1"",""7601""
","
","
","""event"",""trial"",""time""
""fullscreenenter"",""1"",""7601""
","
","","","","","","null","<div style=""font-size:60px;"">+</div>","null","","fixation","","","","","","","","","","",""
"aa-learning-trial","145","611083","0.0-9.0-2.0-1.36","4005","1","12","Female","approach_avoid_spark_v1","""event"",""trial"",""time""
""fullscreenenter"",""1"",""7601""
","
","
","""event"",""trial"",""time""
""fullscreenenter"",""1"",""7601""
","
","","","","","","1105.800000011921","images/truck6.png","","","learning","3","0","0","0","truck","vehicles","1","0","","neutral","0"
"html-keyboard-response","146","611586","0.0-9.0-2.0-0.37","4005","1","12","Female","approach_avoid_spark_v1","""event"",""trial"",""time""
""fullscreenenter"",""1"",""7601""
","
","
","""event"",""trial"",""time""
""fullscreenenter"",""1"",""7601""
","
","","","","","","null","<div style=""font-size:60px;"">+</div>","null","","fixation","","","","","","","","","","",""
"aa-learning-trial","147","614595","0.0-9.0-2.0-1.37","4005","1","12","Female","approach_avoid_spark_v1","""event"",""trial"",""time""
""fullscreenenter"",""1"",""7601""
","
","
","""event"",""trial"",""time""
""fullscreenenter"",""1"",""7601""
","
","","","","","","581.5999999940395","images/boat1.png","","","learning","8","8","1","1","boat","vehicles","1","0","","good","[6]"
"html-keyboard-response","148","615098","0.0-9.0-2.0-0.38","4005","1","12","Female","approach_avoid_spark_v1","""event"",""trial"",""time""
""fullscreenenter"",""1"",""7601""
","
","
","""event"",""trial"",""time""
""fullscreenenter"",""1"",""7601""
","
","","","","","","null","<div style=""font-size:60px;"">+</div>","null","","fixation","","","","","","","","","","",""
"aa-learning-trial","149","618107","0.0-9.0-2.0-1.38","4005","1","12","Female","approach_avoid_spark_v1","""event"",""trial"",""time""
""fullscreenenter"",""1"",""7601""
","
","
","""event"",""trial"",""time""
""fullscreenenter"",""1"",""7601""
","
","","","","","","630.5","images/boat8.png","","","learning","6","6","1","1","boat","vehicles","1","0","","good","[6]"
"html-keyboard-response","150","618609","0.0-9.0-2.0-0.39","4005","1","12","Female","approach_avoid_spark_v1","""event"",""trial"",""time""
""fullscreenenter"",""1"",""7601""
","
","
","""event"",""trial"",""time""
""fullscreenenter"",""1"",""7601""
","
","","","","","","null","<div style=""font-size:60px;"">+</div>","null","","fixation","","","","","","","","","","",""
"aa-learning-trial","151","621619","0.0-9.0-2.0-1.39","4005","1","12","Female","approach_avoid_spark_v1","""event"",""trial"",""time""
""fullscreenenter"",""1"",""7601""
","
","
","""event"",""trial"",""time""
""fullscreenenter"",""1"",""7601""
","
","","","","","","537.7999999821186","images/boat6.png","","","learning","6","6","1","1","boat","vehicles","1","0","","good","[6]"
"html-keyboard-response","152","622122","0.0-9.0-2.0-0.40","4005","1","12","Female","approach_avoid_spark_v1","""event"",""trial"",""time""
""fullscreenenter"",""1"",""7601""
","
","
","""event"",""trial"",""time""
""fullscreenenter"",""1"",""7601""
","
","","","","","","null","<div style=""font-size:60px;"">+</div>","null","","fixation","","","","","","","","","","",""
"aa-learning-trial","153","625131","0.0-9.0-2.0-1.40","4005","1","12","Female","approach_avoid_spark_v1","""event"",""trial"",""time""
""fullscreenenter"",""1"",""7601""
","
","
","""event"",""trial"",""time""
""fullscreenenter"",""1"",""7601""
","
","","","","","","592.5","images/truck6.png","","","learning","-1","-1","1","1","truck","vehicles","1","0","","neutral","0"
"html-keyboard-response","154","625635","0.0-9.0-2.0-0.41","4005","1","12","Female","approach_avoid_spark_v1","""event"",""trial"",""time""
""fullscreenenter"",""1"",""7601""
","
","
","""event"",""trial"",""time""
""fullscreenenter"",""1"",""7601""
","
","","","","","","null","<div style=""font-size:60px;"">+</div>","null","","fixation","","","","","","","","","","",""
"aa-learning-trial","155","628642","0.0-9.0-2.0-1.41","4005","1","12","Female","approach_avoid_spark_v1","""event"",""trial"",""time""
""fullscreenenter"",""1"",""7601""
","
","
","""event"",""trial"",""time""
""fullscreenenter"",""1"",""7601""
","
","","","","","","523.2000000178814","images/boat8.png","","","learning","8","8","1","1","boat","vehicles","1","0","","good","[6]"
"html-keyboard-response","156","629145","0.0-9.0-2.0-0.42","4005","1","12","Female","approach_avoid_spark_v1","""event"",""trial"",""time""
""fullscreenenter"",""1"",""7601""
","
","
","""event"",""trial"",""time""
""fullscreenenter"",""1"",""7601""
","
","","","","","","null","<div style=""font-size:60px;"">+</div>","null","","fixation","","","","","","","","","","",""
"aa-learning-trial","157","632154","0.0-9.0-2.0-1.42","4005","1","12","Female","approach_avoid_spark_v1","""event"",""trial"",""time""
""fullscreenenter"",""1"",""7601""
","
","
","""event"",""trial"",""time""
""fullscreenenter"",""1"",""7601""
","
","","","","","","604.0999999940395","images/train5.png","","","learning","-6","0","0","0","train","vehicles","1","0","","bad","[-6]"
"html-keyboard-response","158","632658","0.0-9.0-2.0-0.43","4005","1","12","Female","approach_avoid_spark_v1","""event"",""trial"",""time""
""fullscreenenter"",""1"",""7601""
","
","
","""event"",""trial"",""time""
""fullscreenenter"",""1"",""7601""
","
","","","","","","null","<div style=""font-size:60px;"">+</div>","null","","fixation","","","","","","","","","","",""
"aa-learning-trial","159","635666","0.0-9.0-2.0-1.43","4005","1","12","Female","approach_avoid_spark_v1","""event"",""trial"",""time""
""fullscreenenter"",""1"",""7601""
","
","
","""event"",""trial"",""time""
""fullscreenenter"",""1"",""7601""
","
","","","","","","653.5999999940395","images/train6.png","","","learning","-3","0","0","0","train","vehicles","1","0","","bad","[-6]"
"html-keyboard-response","160","636170","0.0-9.0-2.0-0.44","4005","1","12","Female","approach_avoid_spark_v1","""event"",""trial"",""time""
""fullscreenenter"",""1"",""7601""
","
","
","""event"",""trial"",""time""
""fullscreenenter"",""1"",""7601""
","
","","","","","","null","<div style=""font-size:60px;"">+</div>","null","","fixation","","","","","","","","","","",""
"aa-learning-trial","161","639179","0.0-9.0-2.0-1.44","4005","1","12","Female","approach_avoid_spark_v1","""event"",""trial"",""time""
""fullscreenenter"",""1"",""7601""
","
","
","""event"",""trial"",""time""
""fullscreenenter"",""1"",""7601""
","
","","","","","","673.7999999821186","images/train6.png","","","learning","-8","0","0","0","train","vehicles","1","0","","bad","[-6]"
"html-keyboard-response","162","639682","0.0-9.0-2.0-0.45","4005","1","12","Female","approach_avoid_spark_v1","""event"",""trial"",""time""
""fullscreenenter"",""1"",""7601""
","
","
","""event"",""trial"",""time""
""fullscreenenter"",""1"",""7601""
","
","","","","","","null","<div style=""font-size:60px;"">+</div>","null","","fixation","","","","","","","","","","",""
"aa-learning-trial","163","642691","0.0-9.0-2.0-1.45","4005","1","12","Female","approach_avoid_spark_v1","""event"",""trial"",""time""
""fullscreenenter"",""1"",""7601""
","
","
","""event"",""trial"",""time""
""fullscreenenter"",""1"",""7601""
","
","","","","","","952.1999999880791","images/train2.png","","","learning","-7","-7","1","1","train","vehicles","1","0","","bad","[-6]"
"html-keyboard-response","164","643193","0.0-9.0-2.0-0.46","4005","1","12","Female","approach_avoid_spark_v1","""event"",""trial"",""time""
""fullscreenenter"",""1"",""7601""
","
","
","""event"",""trial"",""time""
""fullscreenenter"",""1"",""7601""
","
","","","","","","null","<div style=""font-size:60px;"">+</div>","null","","fixation","","","","","","","","","","",""
"aa-learning-trial","165","646202","0.0-9.0-2.0-1.46","4005","1","12","Female","approach_avoid_spark_v1","""event"",""trial"",""time""
""fullscreenenter"",""1"",""7601""
","
","
","""event"",""trial"",""time""
""fullscreenenter"",""1"",""7601""
","
","","","","","","627","images/train6.png","","","learning","-6","0","0","0","train","vehicles","1","0","","bad","[-6]"
"html-keyboard-response","166","646706","0.0-9.0-2.0-0.47","4005","1","12","Female","approach_avoid_spark_v1","""event"",""trial"",""time""
""fullscreenenter"",""1"",""7601""
","
","
","""event"",""trial"",""time""
""fullscreenenter"",""1"",""7601""
","
","","","","","","null","<div style=""font-size:60px;"">+</div>","null","","fixation","","","","","","","","","","",""
"aa-learning-trial","167","649715","0.0-9.0-2.0-1.47","4005","1","12","Female","approach_avoid_spark_v1","""event"",""trial"",""time""
""fullscreenenter"",""1"",""7601""
","
","
","""event"",""trial"",""time""
""fullscreenenter"",""1"",""7601""
","
","","","","","","759.3000000119209","images/truck6.png","","","learning","-1","-1","1","1","truck","vehicles","1","0","","neutral","0"
"html-keyboard-response","168","650218","0.0-9.0-2.0-0.48","4005","1","12","Female","approach_avoid_spark_v1","""event"",""trial"",""time""
""fullscreenenter"",""1"",""7601""
","
","
","""event"",""trial"",""time""
""fullscreenenter"",""1"",""7601""
","
","","","","","","null","<div style=""font-size:60px;"">+</div>","null","","fixation","","","","","","","","","","",""
"aa-learning-trial","169","653226","0.0-9.0-2.0-1.48","4005","1","12","Female","approach_avoid_spark_v1","""event"",""trial"",""time""
""fullscreenenter"",""1"",""7601""
","
","
","""event"",""trial"",""time""
""fullscreenenter"",""1"",""7601""
","
","","","","","","525.8000000119209","images/train6.png","","","learning","-4","0","0","0","train","vehicles","1","0","","bad","[-6]"
"html-keyboard-response","170","653731","0.0-9.0-2.0-0.49","4005","1","12","Female","approach_avoid_spark_v1","""event"",""trial"",""time""
""fullscreenenter"",""1"",""7601""
","
","
","""event"",""trial"",""time""
""fullscreenenter"",""1"",""7601""
","
","","","","","","null","<div style=""font-size:60px;"">+</div>","null","","fixation","","","","","","","","","","",""
"aa-learning-trial","171","656738","0.0-9.0-2.0-1.49","4005","1","12","Female","approach_avoid_spark_v1","""event"",""trial"",""time""
""fullscreenenter"",""1"",""7601""
","
","
","""event"",""trial"",""time""
""fullscreenenter"",""1"",""7601""
","
","","","","","","670.8000000119209","images/truck6.png","","","learning","2","0","0","0","truck","vehicles","1","0","","neutral","0"
"html-keyboard-response","172","657241","0.0-9.0-2.0-0.50","4005","1","12","Female","approach_avoid_spark_v1","""event"",""trial"",""time""
""fullscreenenter"",""1"",""7601""
","
","
","""event"",""trial"",""time""
""fullscreenenter"",""1"",""7601""
","
","","","","","","null","<div style=""font-size:60px;"">+</div>","null","","fixation","","","","","","","","","","",""
"aa-learning-trial","173","660250","0.0-9.0-2.0-1.50","4005","1","12","Female","approach_avoid_spark_v1","""event"",""trial"",""time""
""fullscreenenter"",""1"",""7601""
","
","
","""event"",""trial"",""time""
""fullscreenenter"",""1"",""7601""
","
","","","","","","415.5","images/boat8.png","","","learning","5","5","1","1","boat","vehicles","1","0","","good","[6]"
"html-button-response","174","662811","0.0-9.0-3.0","4005","1","12","Female","approach_avoid_spark_v1","""event"",""trial"",""time""
""fullscreenenter"",""1"",""7601""
","
","
","""event"",""trial"",""time""
""fullscreenenter"",""1"",""7601""
","
","","","","","","2559.199999988079","<p> You have completed the round! <p> In this round, you earned 90 points! </p>","0","","break","","","","","","","","","","",""
"html-button-response","175","664128","0.0-10.0","4005","1","12","Female","approach_avoid_spark_v1","""event"",""trial"",""time""
""fullscreenenter"",""1"",""7601""
","
","
","""event"",""trial"",""time""
""fullscreenenter"",""1"",""7601""
","
","","","","","","1314.5","<p> Now it's time to play another round. </p>","0","","transition_screen","","","","","","","","","","",""
"preload","176","664273","0.0-11.0-0.0","4005","1","12","Female","approach_avoid_spark_v1","""event"",""trial"",""time""
""fullscreenenter"",""1"",""7601""
","
","
","""event"",""trial"",""time""
""fullscreenenter"",""1"",""7601""
","
","true","false","[]","[]","[]","","","","","","","","","","","","","","","",""
"learning-instructions","177","676229","0.0-11.0-1.0-0.0","4005","1","12","Female","approach_avoid_spark_v1","""event"",""trial"",""time""
""fullscreenenter"",""1"",""7601""
","
","
","""event"",""trial"",""time""
""fullscreenenter"",""1"",""7601""
","
","","","","","","7679","<p> Your goal in this round is to take care of lots of animals. </p></div>","","0","instructions","","","","","","","","","","",""
"learning-instructions","178","686092","0.0-11.0-1.0-0.1","4005","1","12","Female","approach_avoid_spark_v1","""event"",""trial"",""time""
""fullscreenenter"",""1"",""7601""
","
","
","""event"",""trial"",""time""
""fullscreenenter"",""1"",""7601""
","
","","","","","","591.4000000059605","<p> Some animals want to be pet, while other animals want to be left alone.  </p><p> On each turn, you will see an animal.   </p><p> You need to decide whether to pet it or not.  </p>","","0","instructions","","","","","","","","","","",""
"learning-instructions","179","691988","0.0-11.0-1.0-0.2","4005","1","12","Female","approach_avoid_spark_v1","""event"",""trial"",""time""
""fullscreenenter"",""1"",""7601""
","
","
","""event"",""trial"",""time""
""fullscreenenter"",""1"",""7601""
","
","","","","","","966.5","<p> You can pet the animal by pressing 1 and leave the animal alone by pressing 0. </p><br><div class=""choice-instructions-grid""> <div class=""choice-option""><img src=""images/approach.png"" class=""choice-option-img"" stage=""instructions"" position=""0"" ><div class=""choice-option-text""> Press ""1."" </div></div><div class=""choice-option""><img src=""images/avoid.png"" class=""choice-option-img"" stage=""instructions"" position=""1"" ><div class=""choice-option-text""> Press ""0."" </div></div>","","0","instructions","","","","","","","","","","",""
"learning-instructions","180","702182","0.0-11.0-1.0-0.3","4005","1","12","Female","approach_avoid_spark_v1","""event"",""trial"",""time""
""fullscreenenter"",""1"",""7601""
","
","
","""event"",""trial"",""time""
""fullscreenenter"",""1"",""7601""
","
","","","","","","1722.2999999821186","<p> If you pet an animal that wants to be pet, you will make it feel happy! </p><p> But if you pet an animal that wants to be left alone, you will make it feel angry. </p>","","0","instructions","","","","","","","","","","",""
"learning-instructions","181","715097","0.0-11.0-1.0-0.4","4005","1","12","Female","approach_avoid_spark_v1","""event"",""trial"",""time""
""fullscreenenter"",""1"",""7601""
","
","
","""event"",""trial"",""time""
""fullscreenenter"",""1"",""7601""
","
","","","","","","837.4000000059605","<p> You will earn points based on how you made the animal feel. </p><p> If you made it feel happy, you will WIN anywhere from 1 - 9 points, </p><p> but if you made it feel angry, you will LOSE anywhere from 1 - 9 points. </p>","","0","instructions","","","","","","","","","","",""
"learning-instructions","182","723088","0.0-11.0-1.0-0.5","4005","1","12","Female","approach_avoid_spark_v1","""event"",""trial"",""time""
""fullscreenenter"",""1"",""7601""
","
","
","""event"",""trial"",""time""
""fullscreenenter"",""1"",""7601""
","
","","","","","","1337.2999999821186","<p> You will see how many points you won or lost in the center of the screen. </p><p> Here is what you would see if you won 5 points: </p><p style=""color:green;font-size:50px;font-weight:bolder"">5</p>","","0","instructions","","","","","","","","","","",""
"learning-instructions","183","726483","0.0-11.0-1.0-0.6","4005","1","12","Female","approach_avoid_spark_v1","""event"",""trial"",""time""
""fullscreenenter"",""1"",""7601""
","
","
","""event"",""trial"",""time""
""fullscreenenter"",""1"",""7601""
","
","","","","","","562.3000000119209","<p> And here is what you would see if you lost 3 points: </p><p style=""color:red;font-size:50px;font-weight:bolder"">-3</p>","","0","instructions","","","","","","","","","","",""
"learning-instructions","184","741112","0.0-11.0-1.0-0.7","4005","1","12","Female","approach_avoid_spark_v1","""event"",""trial"",""time""
""fullscreenenter"",""1"",""7601""
","
","
","""event"",""trial"",""time""
""fullscreenenter"",""1"",""7601""
","
","","","","","","1201.7999999821186","<p> Some animals will become very happy or very angry. </p><p> These animals will make you win or lose LOTS of points. </p><p> Other animals have less strong feelings. </p><p> These animals will make you win or lose small amounts of points. </p>","","0","instructions","","","","","","","","","","",""
"learning-instructions","185","753190","0.0-11.0-1.0-0.8","4005","1","12","Female","approach_avoid_spark_v1","""event"",""trial"",""time""
""fullscreenenter"",""1"",""7601""
","
","
","""event"",""trial"",""time""
""fullscreenenter"",""1"",""7601""
","
","","","","","","1160.0999999940395","<p> If you choose to leave the animal alone, you will not win or lose any points. </p><p>  However, in the center of the screen, you will see the number of points you WOULD HAVE won or lost if you had pet the animal. </p>","","0","instructions","","","","","","","","","","",""
"learning-instructions","186","767286","0.0-11.0-1.0-0.9","4005","1","12","Female","approach_avoid_spark_v1","""event"",""trial"",""time""
""fullscreenenter"",""1"",""7601""
","
","
","""event"",""trial"",""time""
""fullscreenenter"",""1"",""7601""
","
","","","","","","2845.699999988079","<p> Here is what you might see if you did not pet the animal but the animal wanted to be pet: </p><p style=""color:grey; font-size:50px; display: inline-block; border-spacing: 15px; border-width:3px; border-style:solid; border-color:red"">  &nbsp; 6 &nbsp; </p><p> Remember, in this case, you would not win or lose ANY points because you did not pet the animal.  </p>","","0","instructions","","","","","","","","","","",""
"learning-instructions","187","779136","0.0-11.0-1.0-0.10","4005","1","12","Female","approach_avoid_spark_v1","""event"",""trial"",""time""
""fullscreenenter"",""1"",""7601""
","
","
","""event"",""trial"",""time""
""fullscreenenter"",""1"",""7601""
","
","","","","","","4875.300000011921","<p> Try to make the best choice for each animal because </p><p> at the end of the game, you will earn bonus money based on how many points you earned. </p>","","0","instructions","","","","","","","","","","",""
"learning-instructions","188","790508","0.0-11.0-1.0-0.11","4005","1","12","Female","approach_avoid_spark_v1","""event"",""trial"",""time""
""fullscreenenter"",""1"",""7601""
","
","
","""event"",""trial"",""time""
""fullscreenenter"",""1"",""7601""
","
","","","","","","3178","<p> You will have 3 seconds to make each choice. Try to respond before time runs out! </p><p> You will lose 5 points each time you do not make a response. </p>","","0","instructions","","","","","","","","","","",""
"html-keyboard-response","189","791113","0.0-11.0-2.0-0.0","4005","1","12","Female","approach_avoid_spark_v1","""event"",""trial"",""time""
""fullscreenenter"",""1"",""7601""
","
","
","""event"",""trial"",""time""
""fullscreenenter"",""1"",""7601""
","
","","","","","","null","<div style=""font-size:60px;"">+</div>","null","","fixation","","","","","","","","","","",""
"aa-learning-trial","190","794121","0.0-11.0-2.0-1.0","4005","1","12","Female","approach_avoid_spark_v1","""event"",""trial"",""time""
""fullscreenenter"",""1"",""7601""
","
","
","""event"",""trial"",""time""
""fullscreenenter"",""1"",""7601""
","
","","","","","","2254.5","images/dog5.png","","","learning","-5","-5","1","1","dog","pets","2","1","","bad","[-5]"
"html-keyboard-response","191","794625","0.0-11.0-2.0-0.1","4005","1","12","Female","approach_avoid_spark_v1","""event"",""trial"",""time""
""fullscreenenter"",""1"",""7601""
","
","
","""event"",""trial"",""time""
""fullscreenenter"",""1"",""7601""
","
","","","","","","null","<div style=""font-size:60px;"">+</div>","null","","fixation","","","","","","","","","","",""
"aa-learning-trial","192","797634","0.0-11.0-2.0-1.1","4005","1","12","Female","approach_avoid_spark_v1","""event"",""trial"",""time""
""fullscreenenter"",""1"",""7601""
","
","
","""event"",""trial"",""time""
""fullscreenenter"",""1"",""7601""
","
","","","","","","807.0999999940395","images/cat3.png","","","learning","-3","-3","1","1","cat","pets","2","1","","neutral","0"
"html-keyboard-response","193","798138","0.0-11.0-2.0-0.2","4005","1","12","Female","approach_avoid_spark_v1","""event"",""trial"",""time""
""fullscreenenter"",""1"",""7601""
","
","
","""event"",""trial"",""time""
""fullscreenenter"",""1"",""7601""
","
","","","","","","null","<div style=""font-size:60px;"">+</div>","null","","fixation","","","","","","","","","","",""
"aa-learning-trial","194","801147","0.0-11.0-2.0-1.2","4005","1","12","Female","approach_avoid_spark_v1","""event"",""trial"",""time""
""fullscreenenter"",""1"",""7601""
","
","
","""event"",""trial"",""time""
""fullscreenenter"",""1"",""7601""
","
","","","","","","748","images/rabbit3.png","","","learning","4","4","1","1","rabbit","pets","2","1","","good","[5]"
"html-keyboard-response","195","801650","0.0-11.0-2.0-0.3","4005","1","12","Female","approach_avoid_spark_v1","""event"",""trial"",""time""
""fullscreenenter"",""1"",""7601""
","
","
","""event"",""trial"",""time""
""fullscreenenter"",""1"",""7601""
","
","","","","","","null","<div style=""font-size:60px;"">+</div>","null","","fixation","","","","","","","","","","",""
"aa-learning-trial","196","804658","0.0-11.0-2.0-1.3","4005","1","12","Female","approach_avoid_spark_v1","""event"",""trial"",""time""
""fullscreenenter"",""1"",""7601""
","
","
","""event"",""trial"",""time""
""fullscreenenter"",""1"",""7601""
","
","","","","","","897.1999999880791","images/cat7.png","","","learning","-7","0","0","0","cat","pets","2","1","","neutral","0"
"html-keyboard-response","197","805163","0.0-11.0-2.0-0.4","4005","1","12","Female","approach_avoid_spark_v1","""event"",""trial"",""time""
""fullscreenenter"",""1"",""7601""
","
","
","""event"",""trial"",""time""
""fullscreenenter"",""1"",""7601""
","
","","","","","","null","<div style=""font-size:60px;"">+</div>","null","","fixation","","","","","","","","","","",""
"aa-learning-trial","198","808170","0.0-11.0-2.0-1.4","4005","1","12","Female","approach_avoid_spark_v1","""event"",""trial"",""time""
""fullscreenenter"",""1"",""7601""
","
","
","""event"",""trial"",""time""
""fullscreenenter"",""1"",""7601""
","
","","","","","","651.8000000119209","images/rabbit6.png","","","learning","-4","-4","1","1","rabbit","pets","2","1","","good","[5]"
"html-keyboard-response","199","808674","0.0-11.0-2.0-0.5","4005","1","12","Female","approach_avoid_spark_v1","""event"",""trial"",""time""
""fullscreenenter"",""1"",""7601""
","
","
","""event"",""trial"",""time""
""fullscreenenter"",""1"",""7601""
","
","","","","","","null","<div style=""font-size:60px;"">+</div>","null","","fixation","","","","","","","","","","",""
"aa-learning-trial","200","811682","0.0-11.0-2.0-1.5","4005","1","12","Female","approach_avoid_spark_v1","""event"",""trial"",""time""
""fullscreenenter"",""1"",""7601""
","
","
","""event"",""trial"",""time""
""fullscreenenter"",""1"",""7601""
","
","","","","","","671.9000000059605","images/dog1.png","","","learning","-1","-1","1","1","dog","pets","2","1","","bad","[-5]"
"html-keyboard-response","201","812186","0.0-11.0-2.0-0.6","4005","1","12","Female","approach_avoid_spark_v1","""event"",""trial"",""time""
""fullscreenenter"",""1"",""7601""
","
","
","""event"",""trial"",""time""
""fullscreenenter"",""1"",""7601""
","
","","","","","","null","<div style=""font-size:60px;"">+</div>","null","","fixation","","","","","","","","","","",""
"aa-learning-trial","202","815194","0.0-11.0-2.0-1.6","4005","1","12","Female","approach_avoid_spark_v1","""event"",""trial"",""time""
""fullscreenenter"",""1"",""7601""
","
","
","""event"",""trial"",""time""
""fullscreenenter"",""1"",""7601""
","
","","","","","","682.1000000238419","images/rabbit7.png","","","learning","7","7","1","1","rabbit","pets","2","1","","good","[5]"
"html-keyboard-response","203","815698","0.0-11.0-2.0-0.7","4005","1","12","Female","approach_avoid_spark_v1","""event"",""trial"",""time""
""fullscreenenter"",""1"",""7601""
","
","
","""event"",""trial"",""time""
""fullscreenenter"",""1"",""7601""
","
","","","","","","null","<div style=""font-size:60px;"">+</div>","null","","fixation","","","","","","","","","","",""
"aa-learning-trial","204","818706","0.0-11.0-2.0-1.7","4005","1","12","Female","approach_avoid_spark_v1","""event"",""trial"",""time""
""fullscreenenter"",""1"",""7601""
","
","
","""event"",""trial"",""time""
""fullscreenenter"",""1"",""7601""
","
","","","","","","820.2999999821186","images/cat3.png","","","learning","-3","-3","1","1","cat","pets","2","1","","neutral","0"
"html-keyboard-response","205","819210","0.0-11.0-2.0-0.8","4005","1","12","Female","approach_avoid_spark_v1","""event"",""trial"",""time""
""fullscreenenter"",""1"",""7601""
","
","
","""event"",""trial"",""time""
""fullscreenenter"",""1"",""7601""
","
","","","","","","null","<div style=""font-size:60px;"">+</div>","null","","fixation","","","","","","","","","","",""
"aa-learning-trial","206","822218","0.0-11.0-2.0-1.8","4005","1","12","Female","approach_avoid_spark_v1","""event"",""trial"",""time""
""fullscreenenter"",""1"",""7601""
","
","
","""event"",""trial"",""time""
""fullscreenenter"",""1"",""7601""
","
","","","","","","776.5","images/dog4.png","","","learning","8","8","1","1","dog","pets","2","1","","bad","[-5]"
"html-keyboard-response","207","822722","0.0-11.0-2.0-0.9","4005","1","12","Female","approach_avoid_spark_v1","""event"",""trial"",""time""
""fullscreenenter"",""1"",""7601""
","
","
","""event"",""trial"",""time""
""fullscreenenter"",""1"",""7601""
","
","","","","","","null","<div style=""font-size:60px;"">+</div>","null","","fixation","","","","","","","","","","",""
"aa-learning-trial","208","825730","0.0-11.0-2.0-1.9","4005","1","12","Female","approach_avoid_spark_v1","""event"",""trial"",""time""
""fullscreenenter"",""1"",""7601""
","
","
","""event"",""trial"",""time""
""fullscreenenter"",""1"",""7601""
","
","","","","","","832.8000000119209","images/cat2.png","","","learning","1","1","1","1","cat","pets","2","1","","neutral","0"
"html-keyboard-response","209","826234","0.0-11.0-2.0-0.10","4005","1","12","Female","approach_avoid_spark_v1","""event"",""trial"",""time""
""fullscreenenter"",""1"",""7601""
","
","
","""event"",""trial"",""time""
""fullscreenenter"",""1"",""7601""
","
","","","","","","null","<div style=""font-size:60px;"">+</div>","null","","fixation","","","","","","","","","","",""
"aa-learning-trial","210","829243","0.0-11.0-2.0-1.10","4005","1","12","Female","approach_avoid_spark_v1","""event"",""trial"",""time""
""fullscreenenter"",""1"",""7601""
","
","
","""event"",""trial"",""time""
""fullscreenenter"",""1"",""7601""
","
","","","","","","625.8000000119209","images/dog4.png","","","learning","8","8","1","1","dog","pets","2","1","","bad","[-5]"
"html-keyboard-response","211","829746","0.0-11.0-2.0-0.11","4005","1","12","Female","approach_avoid_spark_v1","""event"",""trial"",""time""
""fullscreenenter"",""1"",""7601""
","
","
","""event"",""trial"",""time""
""fullscreenenter"",""1"",""7601""
","
","","","","","","null","<div style=""font-size:60px;"">+</div>","null","","fixation","","","","","","","","","","",""
"aa-learning-trial","212","832755","0.0-11.0-2.0-1.11","4005","1","12","Female","approach_avoid_spark_v1","""event"",""trial"",""time""
""fullscreenenter"",""1"",""7601""
","
","
","""event"",""trial"",""time""
""fullscreenenter"",""1"",""7601""
","
","","","","","","704.6999999880791","images/dog5.png","","","learning","-5","0","0","0","dog","pets","2","1","","bad","[-5]"
"html-keyboard-response","213","833257","0.0-11.0-2.0-0.12","4005","1","12","Female","approach_avoid_spark_v1","""event"",""trial"",""time""
""fullscreenenter"",""1"",""7601""
","
","
","""event"",""trial"",""time""
""fullscreenenter"",""1"",""7601""
","
","","","","","","null","<div style=""font-size:60px;"">+</div>","null","","fixation","","","","","","","","","","",""
"aa-learning-trial","214","836266","0.0-11.0-2.0-1.12","4005","1","12","Female","approach_avoid_spark_v1","""event"",""trial"",""time""
""fullscreenenter"",""1"",""7601""
","
","
","""event"",""trial"",""time""
""fullscreenenter"",""1"",""7601""
","
","","","","","","782.3000000119209","images/rabbit7.png","","","learning","7","7","1","1","rabbit","pets","2","1","","good","[5]"
"html-keyboard-response","215","836770","0.0-11.0-2.0-0.13","4005","1","12","Female","approach_avoid_spark_v1","""event"",""trial"",""time""
""fullscreenenter"",""1"",""7601""
","
","
","""event"",""trial"",""time""
""fullscreenenter"",""1"",""7601""
","
","","","","","","null","<div style=""font-size:60px;"">+</div>","null","","fixation","","","","","","","","","","",""
"aa-learning-trial","216","839779","0.0-11.0-2.0-1.13","4005","1","12","Female","approach_avoid_spark_v1","""event"",""trial"",""time""
""fullscreenenter"",""1"",""7601""
","
","
","""event"",""trial"",""time""
""fullscreenenter"",""1"",""7601""
","
","","","","","","784.7999999821186","images/cat7.png","","","learning","-7","0","0","0","cat","pets","2","1","","neutral","0"
"html-keyboard-response","217","840282","0.0-11.0-2.0-0.14","4005","1","12","Female","approach_avoid_spark_v1","""event"",""trial"",""time""
""fullscreenenter"",""1"",""7601""
","
","
","""event"",""trial"",""time""
""fullscreenenter"",""1"",""7601""
","
","","","","","","null","<div style=""font-size:60px;"">+</div>","null","","fixation","","","","","","","","","","",""
"aa-learning-trial","218","843290","0.0-11.0-2.0-1.14","4005","1","12","Female","approach_avoid_spark_v1","""event"",""trial"",""time""
""fullscreenenter"",""1"",""7601""
","
","
","""event"",""trial"",""time""
""fullscreenenter"",""1"",""7601""
","
","","","","","","817.6999999880791","images/rabbit3.png","","","learning","4","0","0","0","rabbit","pets","2","1","","good","[5]"
"html-keyboard-response","219","843794","0.0-11.0-2.0-0.15","4005","1","12","Female","approach_avoid_spark_v1","""event"",""trial"",""time""
""fullscreenenter"",""1"",""7601""
","
","
","""event"",""trial"",""time""
""fullscreenenter"",""1"",""7601""
","
","","","","","","null","<div style=""font-size:60px;"">+</div>","null","","fixation","","","","","","","","","","",""
"aa-learning-trial","220","846802","0.0-11.0-2.0-1.15","4005","1","12","Female","approach_avoid_spark_v1","""event"",""trial"",""time""
""fullscreenenter"",""1"",""7601""
","
","
","""event"",""trial"",""time""
""fullscreenenter"",""1"",""7601""
","
","","","","","","861.5","images/cat7.png","","","learning","-7","0","0","0","cat","pets","2","1","","neutral","0"
"html-keyboard-response","221","847306","0.0-11.0-2.0-0.16","4005","1","12","Female","approach_avoid_spark_v1","""event"",""trial"",""time""
""fullscreenenter"",""1"",""7601""
","
","
","""event"",""trial"",""time""
""fullscreenenter"",""1"",""7601""
","
","","","","","","null","<div style=""font-size:60px;"">+</div>","null","","fixation","","","","","","","","","","",""
"aa-learning-trial","222","850315","0.0-11.0-2.0-1.16","4005","1","12","Female","approach_avoid_spark_v1","""event"",""trial"",""time""
""fullscreenenter"",""1"",""7601""
","
","
","""event"",""trial"",""time""
""fullscreenenter"",""1"",""7601""
","
","","","","","","1107.0999999940395","images/dog1.png","","","learning","-1","0","0","0","dog","pets","2","1","","bad","[-5]"
"html-keyboard-response","223","850819","0.0-11.0-2.0-0.17","4005","1","12","Female","approach_avoid_spark_v1","""event"",""trial"",""time""
""fullscreenenter"",""1"",""7601""
","
","
","""event"",""trial"",""time""
""fullscreenenter"",""1"",""7601""
","
","","","","","","null","<div style=""font-size:60px;"">+</div>","null","","fixation","","","","","","","","","","",""
"aa-learning-trial","224","853827","0.0-11.0-2.0-1.17","4005","1","12","Female","approach_avoid_spark_v1","""event"",""trial"",""time""
""fullscreenenter"",""1"",""7601""
","
","
","""event"",""trial"",""time""
""fullscreenenter"",""1"",""7601""
","
","","","","","","909.5","images/rabbit8.png","","","learning","2","2","1","1","rabbit","pets","2","1","","good","[5]"
"html-keyboard-response","225","854330","0.0-11.0-2.0-0.18","4005","1","12","Female","approach_avoid_spark_v1","""event"",""trial"",""time""
""fullscreenenter"",""1"",""7601""
","
","
","""event"",""trial"",""time""
""fullscreenenter"",""1"",""7601""
","
","","","","","","null","<div style=""font-size:60px;"">+</div>","null","","fixation","","","","","","","","","","",""
"aa-learning-trial","226","857338","0.0-11.0-2.0-1.18","4005","1","12","Female","approach_avoid_spark_v1","""event"",""trial"",""time""
""fullscreenenter"",""1"",""7601""
","
","
","""event"",""trial"",""time""
""fullscreenenter"",""1"",""7601""
","
","","","","","","522.4000000059605","images/cat3.png","","","learning","-3","0","0","0","cat","pets","2","1","","neutral","0"
"html-keyboard-response","227","857842","0.0-11.0-2.0-0.19","4005","1","12","Female","approach_avoid_spark_v1","""event"",""trial"",""time""
""fullscreenenter"",""1"",""7601""
","
","
","""event"",""trial"",""time""
""fullscreenenter"",""1"",""7601""
","
","","","","","","null","<div style=""font-size:60px;"">+</div>","null","","fixation","","","","","","","","","","",""
"aa-learning-trial","228","860850","0.0-11.0-2.0-1.19","4005","1","12","Female","approach_avoid_spark_v1","""event"",""trial"",""time""
""fullscreenenter"",""1"",""7601""
","
","
","""event"",""trial"",""time""
""fullscreenenter"",""1"",""7601""
","
","","","","","","489.2000000178814","images/cat3.png","","","learning","-3","0","0","0","cat","pets","2","1","","neutral","0"
"html-keyboard-response","229","861354","0.0-11.0-2.0-0.20","4005","1","12","Female","approach_avoid_spark_v1","""event"",""trial"",""time""
""fullscreenenter"",""1"",""7601""
","
","
","""event"",""trial"",""time""
""fullscreenenter"",""1"",""7601""
","
","","","","","","null","<div style=""font-size:60px;"">+</div>","null","","fixation","","","","","","","","","","",""
"aa-learning-trial","230","864363","0.0-11.0-2.0-1.20","4005","1","12","Female","approach_avoid_spark_v1","""event"",""trial"",""time""
""fullscreenenter"",""1"",""7601""
","
","
","""event"",""trial"",""time""
""fullscreenenter"",""1"",""7601""
","
","","","","","","805.8000000119209","images/cat4.png","","","learning","6","6","1","1","cat","pets","2","1","","neutral","0"
"html-keyboard-response","231","864867","0.0-11.0-2.0-0.21","4005","1","12","Female","approach_avoid_spark_v1","""event"",""trial"",""time""
""fullscreenenter"",""1"",""7601""
","
","
","""event"",""trial"",""time""
""fullscreenenter"",""1"",""7601""
","
","","","","","","null","<div style=""font-size:60px;"">+</div>","null","","fixation","","","","","","","","","","",""
"aa-learning-trial","232","867875","0.0-11.0-2.0-1.21","4005","1","12","Female","approach_avoid_spark_v1","""event"",""trial"",""time""
""fullscreenenter"",""1"",""7601""
","
","
","""event"",""trial"",""time""
""fullscreenenter"",""1"",""7601""
","
","","","","","","1233.6000000238419","images/rabbit7.png","","","learning","7","7","1","1","rabbit","pets","2","1","","good","[5]"
"html-keyboard-response","233","868379","0.0-11.0-2.0-0.22","4005","1","12","Female","approach_avoid_spark_v1","""event"",""trial"",""time""
""fullscreenenter"",""1"",""7601""
","
","
","""event"",""trial"",""time""
""fullscreenenter"",""1"",""7601""
","
","","","","","","null","<div style=""font-size:60px;"">+</div>","null","","fixation","","","","","","","","","","",""
"aa-learning-trial","234","871386","0.0-11.0-2.0-1.22","4005","1","12","Female","approach_avoid_spark_v1","""event"",""trial"",""time""
""fullscreenenter"",""1"",""7601""
","
","
","""event"",""trial"",""time""
""fullscreenenter"",""1"",""7601""
","
","","","","","","739.6999999880791","images/rabbit3.png","","","learning","4","0","0","0","rabbit","pets","2","1","","good","[5]"
"html-keyboard-response","235","871890","0.0-11.0-2.0-0.23","4005","1","12","Female","approach_avoid_spark_v1","""event"",""trial"",""time""
""fullscreenenter"",""1"",""7601""
","
","
","""event"",""trial"",""time""
""fullscreenenter"",""1"",""7601""
","
","","","","","","null","<div style=""font-size:60px;"">+</div>","null","","fixation","","","","","","","","","","",""
"aa-learning-trial","236","874898","0.0-11.0-2.0-1.23","4005","1","12","Female","approach_avoid_spark_v1","""event"",""trial"",""time""
""fullscreenenter"",""1"",""7601""
","
","
","""event"",""trial"",""time""
""fullscreenenter"",""1"",""7601""
","
