"trial_type","trial_index","time_elapsed","internal_node_id","subject_id","task_condition","age","gender","task_version","interactions","blur_events","focus_events","fullscreenenter_events","fullscreenexit_events","success","timeout","failed_images","failed_audio","failed_video","rt","stimulus","response","button_pressed","task_part","approach_reward","points","key_press","option_selected","stim_cat","task_block","block_condition","block_number","correct","cat_type","mean_cat_reward"
"pavlovia","0","4","0.0-0.0","6132","1","12","Female","approach_avoid_spark_v1","""event"",""trial"",""time""
""fullscreenenter"",""1"",""3272""
","
","
","""event"",""trial"",""time""
""fullscreenenter"",""1"",""3272""
","
","","","","","","","","","","","","","","","","","","","","",""
"fullscreen","1","4265","0.0-1.0","6132","1","12","Female","approach_avoid_spark_v1","""event"",""trial"",""time""
""fullscreenenter"",""1"",""3272""
","
","
","""event"",""trial"",""time""
""fullscreenenter"",""1"",""3272""
","
","true","","","","","","","","","","","","","","","","","","","",""
"preload","2","8101","0.0-2.0","6132","1","12","Female","approach_avoid_spark_v1","""event"",""trial"",""time""
""fullscreenenter"",""1"",""3272""
","
","
","""event"",""trial"",""time""
""fullscreenenter"",""1"",""3272""
","
","true","false","[]","[]","[]","","","","","","","","","","","","","","","",""
"audio-keyboard-response","3","19104","0.0-3.0","6132","1","12","Female","approach_avoid_spark_v1","""event"",""trial"",""time""
""fullscreenenter"",""1"",""3272""
","
","
","""event"",""trial"",""time""
""fullscreenenter"",""1"",""3272""
","
","","","","","","11000","audio/beep_loop.wav"," ","","","","","","","","","","","","",""
"audio-button-response","4","25071","0.0-4.0","6132","1","12","Female","approach_avoid_spark_v1","""event"",""trial"",""time""
""fullscreenenter"",""1"",""3272""
","
","
","""event"",""trial"",""time""
""fullscreenenter"",""1"",""3272""
","
","","","","","","5960","audio/shark.wav","0","","","","","","","","","","","","",""
"audio-button-response","5","30918","0.0-5.0","6132","1","12","Female","approach_avoid_spark_v1","""event"",""trial"",""time""
""fullscreenenter"",""1"",""3272""
","
","
","""event"",""trial"",""time""
""fullscreenenter"",""1"",""3272""
","
","","","","","","4829","audio/turtle.wav","0","","","","","","","","","","","","",""
"preload","6","34304","0.0-6.0","6132","1","12","Female","approach_avoid_spark_v1","""event"",""trial"",""time""
""fullscreenenter"",""1"",""3272""
","
","
","""event"",""trial"",""time""
""fullscreenenter"",""1"",""3272""
","
","true","false","[]","[]","[]","","","","","","","","","","","","","","","",""
"html-keyboard-response","7","37382","0.0-7.0","6132","1","12","Female","approach_avoid_spark_v1","""event"",""trial"",""time""
""fullscreenenter"",""1"",""3272""
","
","
","""event"",""trial"",""time""
""fullscreenenter"",""1"",""3272""
","
","","","","","","3076.7000000476837","Welcome to the experiment. Press any key to begin and to advance the instructions.","enter","","","","","","","","","","","","",""
"learning-instructions","8","46783","0.0-8.0-0.0-0.0","6132","1","12","Female","approach_avoid_spark_v1","""event"",""trial"",""time""
""fullscreenenter"",""1"",""3272""
","
","
","""event"",""trial"",""time""
""fullscreenenter"",""1"",""3272""
","
","","","","","","2449.100000143051","<p> Welcome! Today you are going to play 6 different rounds of a decision-making game. </p><p> Use the mouse to click next to continue. </p>","","0","instructions","","","","","","","","","","",""
"learning-instructions","9","50278","0.0-8.0-0.0-0.1","6132","1","12","Female","approach_avoid_spark_v1","""event"",""trial"",""time""
""fullscreenenter"",""1"",""3272""
","
","
","""event"",""trial"",""time""
""fullscreenenter"",""1"",""3272""
","
","","","","","","765.2000000476837","<p> You will start with a practice round to learn the rules. </p>","","0","instructions","","","","","","","","","","",""
"learning-instructions","10","54462","0.0-8.0-0.0-0.2","6132","1","12","Female","approach_avoid_spark_v1","""event"",""trial"",""time""
""fullscreenenter"",""1"",""3272""
","
","
","""event"",""trial"",""time""
""fullscreenenter"",""1"",""3272""
","
","","","","","","739","<p> Your goal in this round is to give out sports equipment to kids. </p></div>","","0","instructions","","","","","","","","","","",""
"learning-instructions","11","62647","0.0-8.0-0.0-0.3","6132","1","12","Female","approach_avoid_spark_v1","""event"",""trial"",""time""
""fullscreenenter"",""1"",""3272""
","
","
","""event"",""trial"",""time""
""fullscreenenter"",""1"",""3272""
","
","","","","","","633.2999999523163","<p> The kids only like some of the equipment.  </p><p> On each turn, you will see a piece of sports equipment.   </p><p> You need to decide whether to give it to the kids or not.  </p>","","0","instructions","","","","","","","","","","",""
"learning-instructions","12","68366","0.0-8.0-0.0-0.4","6132","1","12","Female","approach_avoid_spark_v1","""event"",""trial"",""time""
""fullscreenenter"",""1"",""3272""
","
","
","""event"",""trial"",""time""
""fullscreenenter"",""1"",""3272""
","
","","","","","","952.4000000953674","<p> You can give them the equipment by pressing 1 and choose not to give it to them by pressing 0. </p><br><div class=""choice-instructions-grid""> <div class=""choice-option""><img src=""images/approach.png"" class=""choice-option-img"" stage=""instructions"" position=""0"" ><div class=""choice-option-text""> Press ""1."" </div></div><div class=""choice-option""><img src=""images/avoid.png"" class=""choice-option-img"" stage=""instructions"" position=""1"" ><div class=""choice-option-text""> Press ""0."" </div></div>","","0","instructions","","","","","","","","","","",""
"learning-instructions","13","76326","0.0-8.0-0.0-0.5","6132","1","12","Female","approach_avoid_spark_v1","""event"",""trial"",""time""
""fullscreenenter"",""1"",""3272""
","
","
","""event"",""trial"",""time""
""fullscreenenter"",""1"",""3272""
","
","","","","","","583","<p> If you give them a piece of equipment they like, they will be happy! </p><p> But if you give them a piece of equipment they do not like, they will be sad. </p>","","0","instructions","","","","","","","","","","",""
"learning-instructions","14","87430","0.0-8.0-0.0-0.6","6132","1","12","Female","approach_avoid_spark_v1","""event"",""trial"",""time""
""fullscreenenter"",""1"",""3272""
","
","
","""event"",""trial"",""time""
""fullscreenenter"",""1"",""3272""
","
","","","","","","597","<p> You will earn points based on how you make kids feel. </p><p> If you make them happy, you will WIN anywhere from 1 - 9 points, </p><p> but if you make them sad, you will LOSE anywhere from 1 - 9 points. </p>","","0","instructions","","","","","","","","","","",""
"learning-instructions","15","97558","0.0-8.0-0.0-0.7","6132","1","12","Female","approach_avoid_spark_v1","""event"",""trial"",""time""
""fullscreenenter"",""1"",""3272""
","
","
","""event"",""trial"",""time""
""fullscreenenter"",""1"",""3272""
","
","","","","","","574.9000000953674","<p> You will see how many points you won or lost in the center of the screen. </p><p> Here is what you would see if you won 6 points: </p><p style=""color:green;font-size:50px;font-weight:bolder"">6</p><p style=""color:green"">The text is GREEN because you WON points.</p>","","0","instructions","","","","","","","","","","",""
"learning-instructions","16","103847","0.0-8.0-0.0-0.8","6132","1","12","Female","approach_avoid_spark_v1","""event"",""trial"",""time""
""fullscreenenter"",""1"",""3272""
","
","
","""event"",""trial"",""time""
""fullscreenenter"",""1"",""3272""
","
","","","","","","793","<p> And here is what you would see if you lost 4 points: </p><p style=""color:red;font-size:50px;font-weight:bolder"">-4</p><p style=""color:red"">The text is RED because you LOST points. </p>","","0","instructions","","","","","","","","","","",""
"learning-instructions","17","119182","0.0-8.0-0.0-0.9","6132","1","12","Female","approach_avoid_spark_v1","""event"",""trial"",""time""
""fullscreenenter"",""1"",""3272""
","
","
","""event"",""trial"",""time""
""fullscreenenter"",""1"",""3272""
","
","","","","","","619.0999999046326","<p> Some of the equipment will make the kids VERY happy or sad. </p><p> These pieces of equipment will make you win or lose LOTS of points. </p><p> Other pieces of equipment will only make the kids a little happy or sad. </p><p> These pieces of equipment will make you win or lose small amounts of points. </p>","","0","instructions","","","","","","","","","","",""
"learning-instructions","18","130470","0.0-8.0-0.0-0.10","6132","1","12","Female","approach_avoid_spark_v1","""event"",""trial"",""time""
""fullscreenenter"",""1"",""3272""
","
","
","""event"",""trial"",""time""
""fullscreenenter"",""1"",""3272""
","
","","","","","","657.0999999046326","<p> If you choose not to give them the equipment, you will not win or lose any points. </p><p>  However, in the center of the screen, you will see the number of points you WOULD HAVE won or lost if you had given them the equipment. </p>","","0","instructions","","","","","","","","","","",""
"learning-instructions","19","152966","0.0-8.0-0.0-0.11","6132","1","12","Female","approach_avoid_spark_v1","""event"",""trial"",""time""
""fullscreenenter"",""1"",""3272""
","
","
","""event"",""trial"",""time""
""fullscreenenter"",""1"",""3272""
","
","","","","","","963","<p> Here is what you might see if you did not give the equipment to the kids but it would have made them happy: </p><p style=""color:grey; font-size:50px; display: inline-block; border-spacing: 15px; border-width:3px; border-style:solid; border-color:red"">  &nbsp; 7 &nbsp; </p><p> Remember, in this case, you would not win or lose ANY points because you did not give them the equipment.  </p><p style=""color:grey"">The text is GREY because you earned ZERO points. </p><p style=""color:red"">However, choosing to give the kids the equipment would have made you win points. The box around the text is RED because you chose the worse option. </p>","","0","instructions","","","","","","","","","","",""
"learning-instructions","20","175118","0.0-8.0-0.0-0.12","6132","1","12","Female","approach_avoid_spark_v1","""event"",""trial"",""time""
""fullscreenenter"",""1"",""3272""
","
","
","""event"",""trial"",""time""
""fullscreenenter"",""1"",""3272""
","
","","","","","","1074.8999998569489","<p> Here is what you might see if you did not give the equipment to the kids but it would have made them sad: </p><p style=""color:grey;font-size:50px; display: inline-block; border-spacing: 15px; border-width:3px; border-style:solid; border-color:green"">  &nbsp; -8 &nbsp; </p><p> Remember, in this case, you would not win or lose ANY points because you did not give them the equipment.  </p><p style=""color:grey"">The text is GREY because you earned ZERO points. </p><p  style=""color:green""> Choosing to give the kids the equipment would have made you lose points. The box around the text is GREEN because you chose the better option.</p>","","0","instructions","","","","","","","","","","",""
"learning-instructions","21","185309","0.0-8.0-0.0-0.13","6132","1","12","Female","approach_avoid_spark_v1","""event"",""trial"",""time""
""fullscreenenter"",""1"",""3272""
","
","
","""event"",""trial"",""time""
""fullscreenenter"",""1"",""3272""
","
","","","","","","967","<p> You will have 3 seconds to make each choice. Try to respond before time runs out! </p><p> You will lose 5 points each time you do not make a response. </p>","","0","instructions","","","","","","","","","","",""
"learning-instructions","22","191533","0.0-8.0-0.0-0.14","6132","1","12","Female","approach_avoid_spark_v1","""event"",""trial"",""time""
""fullscreenenter"",""1"",""3272""
","
","
","""event"",""trial"",""time""
""fullscreenenter"",""1"",""3272""
","
","","","","","","811","<p> This is just a practice round, but in the real game, your bonus payment will depend on your total number of points.","","0","instructions","","","","","","","","","","",""
"learning-instructions","23","201637","0.0-8.0-0.0-0.15","6132","1","12","Female","approach_avoid_spark_v1","""event"",""trial"",""time""
""fullscreenenter"",""1"",""3272""
","
","
","""event"",""trial"",""time""
""fullscreenenter"",""1"",""3272""
","
","","","","","","4334.299999952316","<p> Remember, you can give them the equipment by pressing 1 and choose not to give it to them by pressing 0. </p><br><div class=""choice-instructions-grid""> <div class=""choice-option""><img src=""images/approach.png"" class=""choice-option-img"" stage=""instructions"" position=""0"" ><div class=""choice-option-text""> Press ""1."" </div></div><div class=""choice-option""><img src=""images/avoid.png"" class=""choice-option-img"" stage=""instructions"" position=""1"" ><div class=""choice-option-text""> Press ""0."" </div></div>","","0","instructions","","","","","","","","","","",""
"html-button-response","24","204142","0.0-8.0-1.0","6132","1","12","Female","approach_avoid_spark_v1","""event"",""trial"",""time""
""fullscreenenter"",""1"",""3272""
","
","
","""event"",""trial"",""time""
""fullscreenenter"",""1"",""3272""
","
","","","","","","2400.2000000476837","<p> Ready to practice? </p>","0","","","","","","","","","","","","",""
"html-keyboard-response","25","204760","0.0-8.0-2.0-0.0","6132","1","12","Female","approach_avoid_spark_v1","""event"",""trial"",""time""
""fullscreenenter"",""1"",""3272""
","
","
","""event"",""trial"",""time""
""fullscreenenter"",""1"",""3272""
","
","","","","","","null","<div style=""font-size:60px;"">+</div>","null","","fixation","","","","","","","","","","",""
"aa-learning-trial","26","207771","0.0-8.0-2.0-1.0","6132","1","12","Female","approach_avoid_spark_v1","""event"",""trial"",""time""
""fullscreenenter"",""1"",""3272""
","
","
","""event"",""trial"",""time""
""fullscreenenter"",""1"",""3272""
","
","","","","","","1273.2000000476837","images/ball2.png","","","learning","2","2","1","1","practice","practice","practice","-1","","",""
"html-keyboard-response","27","208287","0.0-8.0-2.0-0.1","6132","1","12","Female","approach_avoid_spark_v1","""event"",""trial"",""time""
""fullscreenenter"",""1"",""3272""
","
","
","""event"",""trial"",""time""
""fullscreenenter"",""1"",""3272""
","
","","","","","","null","<div style=""font-size:60px;"">+</div>","null","","fixation","","","","","","","","","","",""
"aa-learning-trial","28","211296","0.0-8.0-2.0-1.1","6132","1","12","Female","approach_avoid_spark_v1","""event"",""trial"",""time""
""fullscreenenter"",""1"",""3272""
","
","
","""event"",""trial"",""time""
""fullscreenenter"",""1"",""3272""
","
","","","","","","1004","images/ball3.png","","","learning","-3","-3","1","1","practice","practice","practice","-1","","",""
"html-keyboard-response","29","211805","0.0-8.0-2.0-0.2","6132","1","12","Female","approach_avoid_spark_v1","""event"",""trial"",""time""
""fullscreenenter"",""1"",""3272""
","
","
","""event"",""trial"",""time""
""fullscreenenter"",""1"",""3272""
","
","","","","","","null","<div style=""font-size:60px;"">+</div>","null","","fixation","","","","","","","","","","",""
"aa-learning-trial","30","214814","0.0-8.0-2.0-1.2","6132","1","12","Female","approach_avoid_spark_v1","""event"",""trial"",""time""
""fullscreenenter"",""1"",""3272""
","
","
","""event"",""trial"",""time""
""fullscreenenter"",""1"",""3272""
","
","","","","","","2061.7999999523163","images/ball4.png","","","learning","2","2","1","1","practice","practice","practice","-1","","",""
"html-keyboard-response","31","215333","0.0-8.0-2.0-0.3","6132","1","12","Female","approach_avoid_spark_v1","""event"",""trial"",""time""
""fullscreenenter"",""1"",""3272""
","
","
","""event"",""trial"",""time""
""fullscreenenter"",""1"",""3272""
","
","","","","","","null","<div style=""font-size:60px;"">+</div>","null","","fixation","","","","","","","","","","",""
"aa-learning-trial","32","218350","0.0-8.0-2.0-1.3","6132","1","12","Female","approach_avoid_spark_v1","""event"",""trial"",""time""
""fullscreenenter"",""1"",""3272""
","
","
","""event"",""trial"",""time""
""fullscreenenter"",""1"",""3272""
","
","","","","","","2077.4000000953674","images/racket3.png","","","learning","4","0","0","0","practice","practice","practice","-1","","",""
"html-keyboard-response","33","218859","0.0-8.0-2.0-0.4","6132","1","12","Female","approach_avoid_spark_v1","""event"",""trial"",""time""
""fullscreenenter"",""1"",""3272""
","
","
","""event"",""trial"",""time""
""fullscreenenter"",""1"",""3272""
","
","","","","","","null","<div style=""font-size:60px;"">+</div>","null","","fixation","","","","","","","","","","",""
"aa-learning-trial","34","221864","0.0-8.0-2.0-1.4","6132","1","12","Female","approach_avoid_spark_v1","""event"",""trial"",""time""
""fullscreenenter"",""1"",""3272""
","
","
","""event"",""trial"",""time""
""fullscreenenter"",""1"",""3272""
","
","","","","","","2575.2000000476837","images/ball3.png","","","learning","5","5","1","1","practice","practice","practice","-1","","",""
"html-keyboard-response","35","222380","0.0-8.0-2.0-0.5","6132","1","12","Female","approach_avoid_spark_v1","""event"",""trial"",""time""
""fullscreenenter"",""1"",""3272""
","
","
","""event"",""trial"",""time""
""fullscreenenter"",""1"",""3272""
","
","","","","","","null","<div style=""font-size:60px;"">+</div>","null","","fixation","","","","","","","","","","",""
"aa-learning-trial","36","225386","0.0-8.0-2.0-1.5","6132","1","12","Female","approach_avoid_spark_v1","""event"",""trial"",""time""
""fullscreenenter"",""1"",""3272""
","
","
","""event"",""trial"",""time""
""fullscreenenter"",""1"",""3272""
","
","","","","","","1326.9000000953674","images/ball3.png","","","learning","8","8","1","1","practice","practice","practice","-1","","",""
"html-keyboard-response","37","225906","0.0-8.0-2.0-0.6","6132","1","12","Female","approach_avoid_spark_v1","""event"",""trial"",""time""
""fullscreenenter"",""1"",""3272""
","
","
","""event"",""trial"",""time""
""fullscreenenter"",""1"",""3272""
","
","","","","","","null","<div style=""font-size:60px;"">+</div>","null","","fixation","","","","","","","","","","",""
"aa-learning-trial","38","228915","0.0-8.0-2.0-1.6","6132","1","12","Female","approach_avoid_spark_v1","""event"",""trial"",""time""
""fullscreenenter"",""1"",""3272""
","
","
","""event"",""trial"",""time""
""fullscreenenter"",""1"",""3272""
","
","","","","","","704.6999998092651","images/racket4.png","","","learning","-2","-2","1","1","practice","practice","practice","-1","","",""
"html-keyboard-response","39","229419","0.0-8.0-2.0-0.7","6132","1","12","Female","approach_avoid_spark_v1","""event"",""trial"",""time""
""fullscreenenter"",""1"",""3272""
","
","
","""event"",""trial"",""time""
""fullscreenenter"",""1"",""3272""
","
","","","","","","null","<div style=""font-size:60px;"">+</div>","null","","fixation","","","","","","","","","","",""
"aa-learning-trial","40","232427","0.0-8.0-2.0-1.7","6132","1","12","Female","approach_avoid_spark_v1","""event"",""trial"",""time""
""fullscreenenter"",""1"",""3272""
","
","
","""event"",""trial"",""time""
""fullscreenenter"",""1"",""3272""
","
","","","","","","743","images/ball2.png","","","learning","-2","-2","1","1","practice","practice","practice","-1","","",""
"html-keyboard-response","41","232932","0.0-8.0-2.0-0.8","6132","1","12","Female","approach_avoid_spark_v1","""event"",""trial"",""time""
""fullscreenenter"",""1"",""3272""
","
","
","""event"",""trial"",""time""
""fullscreenenter"",""1"",""3272""
","
","","","","","","null","<div style=""font-size:60px;"">+</div>","null","","fixation","","","","","","","","","","",""
"aa-learning-trial","42","235939","0.0-8.0-2.0-1.8","6132","1","12","Female","approach_avoid_spark_v1","""event"",""trial"",""time""
""fullscreenenter"",""1"",""3272""
","
","
","""event"",""trial"",""time""
""fullscreenenter"",""1"",""3272""
","
","","","","","","1286.4000000953674","images/racket3.png","","","learning","7","0","0","0","practice","practice","practice","-1","","",""
"html-keyboard-response","43","236443","0.0-8.0-2.0-0.9","6132","1","12","Female","approach_avoid_spark_v1","""event"",""trial"",""time""
""fullscreenenter"",""1"",""3272""
","
","
","""event"",""trial"",""time""
""fullscreenenter"",""1"",""3272""
","
","","","","","","null","<div style=""font-size:60px;"">+</div>","null","","fixation","","","","","","","","","","",""
"aa-learning-trial","44","239452","0.0-8.0-2.0-1.9","6132","1","12","Female","approach_avoid_spark_v1","""event"",""trial"",""time""
""fullscreenenter"",""1"",""3272""
","
","
","""event"",""trial"",""time""
""fullscreenenter"",""1"",""3272""
","
","","","","","","1032","images/ball4.png","","","learning","-5","-5","1","1","practice","practice","practice","-1","","",""
"html-keyboard-response","45","239955","0.0-8.0-2.0-0.10","6132","1","12","Female","approach_avoid_spark_v1","""event"",""trial"",""time""
""fullscreenenter"",""1"",""3272""
","
","
","""event"",""trial"",""time""
""fullscreenenter"",""1"",""3272""
","
","","","","","","null","<div style=""font-size:60px;"">+</div>","null","","fixation","","","","","","","","","","",""
"aa-learning-trial","46","242964","0.0-8.0-2.0-1.10","6132","1","12","Female","approach_avoid_spark_v1","""event"",""trial"",""time""
""fullscreenenter"",""1"",""3272""
","
","
","""event"",""trial"",""time""
""fullscreenenter"",""1"",""3272""
","
","","","","","","790.3999998569489","images/ball1.png","","","learning","-9","0","0","0","practice","practice","practice","-1","","",""
"html-keyboard-response","47","243467","0.0-8.0-2.0-0.11","6132","1","12","Female","approach_avoid_spark_v1","""event"",""trial"",""time""
""fullscreenenter"",""1"",""3272""
","
","
","""event"",""trial"",""time""
""fullscreenenter"",""1"",""3272""
","
","","","","","","null","<div style=""font-size:60px;"">+</div>","null","","fixation","","","","","","","","","","",""
"aa-learning-trial","48","246476","0.0-8.0-2.0-1.11","6132","1","12","Female","approach_avoid_spark_v1","""event"",""trial"",""time""
""fullscreenenter"",""1"",""3272""
","
","
","""event"",""trial"",""time""
""fullscreenenter"",""1"",""3272""
","
","","","","","","2006.7000000476837","images/racket2.png","","","learning","-2","0","0","0","practice","practice","practice","-1","","",""
"html-button-response","49","253141","0.0-8.0-3.0","6132","1","12","Female","approach_avoid_spark_v1","""event"",""trial"",""time""
""fullscreenenter"",""1"",""3272""
","
","
","""event"",""trial"",""time""
""fullscreenenter"",""1"",""3272""
","
","","","","","","6662.900000095367","<p> You earned 5 points in the practice round! </p>","0","","break","","","","","","","","","","",""
"learning-instructions","50","262661","0.0-8.0-4.0-0.0","6132","1","12","Female","approach_avoid_spark_v1","""event"",""trial"",""time""
""fullscreenenter"",""1"",""3272""
","
","
","""event"",""trial"",""time""
""fullscreenenter"",""1"",""3272""
","
","","","","","","3509.2999999523163","<p> It's almost time to start the real game. </p><p> Before you start, we're going to ask you a few questions about how the game works. </p>","","0","instructions","","","","","","","","","","",""
"preload","51","264283","0.0-8.0-5.0","6132","1","12","Female","approach_avoid_spark_v1","""event"",""trial"",""time""
""fullscreenenter"",""1"",""3272""
","
","
","""event"",""trial"",""time""
""fullscreenenter"",""1"",""3272""
","
","true","false","[]","[]","[]","","","","","","","","","","","","","","","",""
"comp-q","52","279781","0.0-8.0-6.0-0.0","6132","1","12","Female","approach_avoid_spark_v1","""event"",""trial"",""time""
""fullscreenenter"",""1"",""3272""
","
","
","""event"",""trial"",""time""
""fullscreenenter"",""1"",""3272""
","
","","","","","","10499.899999856949","<p> <b> True or False? </b> </p><p> If you see a number in GREY, that means you earned that many points. </p>","","1","comp_question","","","","","","","","","true","",""
"comp-q","53","288868","0.0-8.0-6.0-1.0","6132","1","12","Female","approach_avoid_spark_v1","""event"",""trial"",""time""
""fullscreenenter"",""1"",""3272""
","
","
","""event"",""trial"",""time""
""fullscreenenter"",""1"",""3272""
","
","","","","","","728","<p><b> That's right! </b> If you see a grey number, it means you earned ZERO points. <br> The grey numbers show the points you WOULD HAVE earned if you had made the other choice. </p>","","0","comp_answer","","","","","","","","","","",""
"comp-q","54","295372","0.0-8.0-7.0-0.0","6132","1","12","Female","approach_avoid_spark_v1","""event"",""trial"",""time""
""fullscreenenter"",""1"",""3272""
","
","
","""event"",""trial"",""time""
""fullscreenenter"",""1"",""3272""
","
","","","","","","1812","<p> <b> True or False? </b> </p><p> You will have as much time as you want to make each choice. </p>","","1","comp_question","","","","","","","","","true","",""
"comp-q","55","301580","0.0-8.0-7.0-1.0","6132","1","12","Female","approach_avoid_spark_v1","""event"",""trial"",""time""
""fullscreenenter"",""1"",""3272""
","
","
","""event"",""trial"",""time""
""fullscreenenter"",""1"",""3272""
","
","","","","","","2160","<p> <b> That's right! </b> You will only have 3 seconds to make each choice. </p>","","0","comp_answer","","","","","","","","","","",""
"comp-q","56","307060","0.0-8.0-8.0-0.0","6132","1","12","Female","approach_avoid_spark_v1","""event"",""trial"",""time""
""fullscreenenter"",""1"",""3272""
","
","
","""event"",""trial"",""time""
""fullscreenenter"",""1"",""3272""
","
","","","","","","809.9000000953674","<p> <b> True or False? </b> </p><p> You should use the '1' and '0' keys to make your choices. </p>","","0","comp_question","","","","","","","","","true","",""
"comp-q","57","313164","0.0-8.0-8.0-1.0","6132","1","12","Female","approach_avoid_spark_v1","""event"",""trial"",""time""
""fullscreenenter"",""1"",""3272""
","
","
","""event"",""trial"",""time""
""fullscreenenter"",""1"",""3272""
","
","","","","","","1484","<p> <b> That's right! </b> You should use the '1' and '0' keys to make each choice. </p>","","0","comp_answer","","","","","","","","","","",""
"learning-instructions","58","322372","0.0-8.0-9.0-0.0","6132","1","12","Female","approach_avoid_spark_v1","""event"",""trial"",""time""
""fullscreenenter"",""1"",""3272""
","
","
","""event"",""trial"",""time""
""fullscreenenter"",""1"",""3272""
","
","","","","","","2932.0999999046326","<p> It's now time to start the real game. </p>Do your best, because the points you earn in the next rounds will influence your bonus payment. </p>","","0","instructions","","","","","","","","","","",""
"preload","59","322510","0.0-9.0-0.0","6132","1","12","Female","approach_avoid_spark_v1","""event"",""trial"",""time""
""fullscreenenter"",""1"",""3272""
","
","
","""event"",""trial"",""time""
""fullscreenenter"",""1"",""3272""
","
","true","false","[]","[]","[]","","","","","","","","","","","","","","","",""
"learning-instructions","60","329252","0.0-9.0-1.0-0.0","6132","1","12","Female","approach_avoid_spark_v1","""event"",""trial"",""time""
""fullscreenenter"",""1"",""3272""
","
","
","""event"",""trial"",""time""
""fullscreenenter"",""1"",""3272""
","
","","","","","","3401.7999999523163","<p> Your goal in this round is to eat tasty fruit. </p></div>","","0","instructions","","","","","","","","","","",""
"learning-instructions","61","340996","0.0-9.0-1.0-0.1","6132","1","12","Female","approach_avoid_spark_v1","""event"",""trial"",""time""
""fullscreenenter"",""1"",""3272""
","
","
","""event"",""trial"",""time""
""fullscreenenter"",""1"",""3272""
","
","","","","","","1936","<p> Some of the fruits you will see are tasty. Others are rotten on the inside.  </p><p> On each turn, you will see a fruit.   </p><p> You need to decide whether to eat it or not.  </p>","","0","instructions","","","","","","","","","","",""
"learning-instructions","62","346812","0.0-9.0-1.0-0.2","6132","1","12","Female","approach_avoid_spark_v1","""event"",""trial"",""time""
""fullscreenenter"",""1"",""3272""
","
","
","""event"",""trial"",""time""
""fullscreenenter"",""1"",""3272""
","
","","","","","","821.5","<p> You can eat the fruit by pressing 1 and choose not to eat it by pressing 0. </p><br><div class=""choice-instructions-grid""> <div class=""choice-option""><img src=""images/approach.png"" class=""choice-option-img"" stage=""instructions"" position=""0"" ><div class=""choice-option-text""> Press ""1."" </div></div><div class=""choice-option""><img src=""images/avoid.png"" class=""choice-option-img"" stage=""instructions"" position=""1"" ><div class=""choice-option-text""> Press ""0."" </div></div>","","0","instructions","","","","","","","","","","",""
"learning-instructions","63","355260","0.0-9.0-1.0-0.3","6132","1","12","Female","approach_avoid_spark_v1","""event"",""trial"",""time""
""fullscreenenter"",""1"",""3272""
","
","
","""event"",""trial"",""time""
""fullscreenenter"",""1"",""3272""
","
","","","","","","949.2999999523163","<p> If you eat the fruit and it was tasty, you will win points! </p><p> But if you eat the fruit and it was rotten, you will lose points. </p>","","0","instructions","","","","","","","","","","",""
"learning-instructions","64","367516","0.0-9.0-1.0-0.4","6132","1","12","Female","approach_avoid_spark_v1","""event"",""trial"",""time""
""fullscreenenter"",""1"",""3272""
","
","
","""event"",""trial"",""time""
""fullscreenenter"",""1"",""3272""
","
","","","","","","906.2000000476837","<p> You will earn points based on how tasty or rotten the fruit was. </p><p> If it was tasty, you will WIN anywhere from 1 - 9 points, </p><p> but if it was rotten, you will LOSE anywhere from 1 - 9 points. </p>","","0","instructions","","","","","","","","","","",""
"learning-instructions","65","375939","0.0-9.0-1.0-0.5","6132","1","12","Female","approach_avoid_spark_v1","""event"",""trial"",""time""
""fullscreenenter"",""1"",""3272""
","
","
","""event"",""trial"",""time""
""fullscreenenter"",""1"",""3272""
","
","","","","","","729.8999998569489","<p> You will see how many points you won or lost in the center of the screen. </p><p> Here is what you would see if you earned 5 points: </p><p style=""color:green;font-size:50px;font-weight:bolder"">5</p>","","0","instructions","","","","","","","","","","",""
"learning-instructions","66","379939","0.0-9.0-1.0-0.6","6132","1","12","Female","approach_avoid_spark_v1","""event"",""trial"",""time""
""fullscreenenter"",""1"",""3272""
","
","
","""event"",""trial"",""time""
""fullscreenenter"",""1"",""3272""
","
","","","","","","469.90000009536743","<p> And here is what you would see if you lost 3 points: </p><p style=""color:red;font-size:50px;font-weight:bolder"">-3</p>","","0","instructions","","","","","","","","","","",""
"learning-instructions","67","394356","0.0-9.0-1.0-0.7","6132","1","12","Female","approach_avoid_spark_v1","""event"",""trial"",""time""
""fullscreenenter"",""1"",""3272""
","
","
","""event"",""trial"",""time""
""fullscreenenter"",""1"",""3272""
","
","","","","","","665.9000000953674","<p> Some fruit is very tasty or very rotten. </p><p> These fruits will make you win or lose LOTS of points. </p><p> Other fruits are only kind of tasty or kind of rotten. </p><p> These fruits will make you win or lose small amounts of points. </p>","","0","instructions","","","","","","","","","","",""
"learning-instructions","68","406340","0.0-9.0-1.0-0.8","6132","1","12","Female","approach_avoid_spark_v1","""event"",""trial"",""time""
""fullscreenenter"",""1"",""3272""
","
","
","""event"",""trial"",""time""
""fullscreenenter"",""1"",""3272""
","
","","","","","","1530","<p> If you choose to not eat the fruit, you will not win or lose any points. </p><p>  However, in the center of the screen, you will see the number of points you WOULD HAVE earned if you had eaten the fruit. </p>","","0","instructions","","","","","","","","","","",""
"learning-instructions","69","417308","0.0-9.0-1.0-0.9","6132","1","12","Female","approach_avoid_spark_v1","""event"",""trial"",""time""
""fullscreenenter"",""1"",""3272""
","
","
","""event"",""trial"",""time""
""fullscreenenter"",""1"",""3272""
","
","","","","","","1047.9000000953674","<p> Here is what you might see if you did not eat the fruit but the fruit was tasty: </p><p style=""color:grey; font-size:50px; display: inline-block; border-spacing: 15px; border-width:3px; border-style:solid; border-color:red"">  &nbsp; 6 &nbsp; </p><p> Remember, in this case, you would not win or lose ANY points because you did not eat the fruit.  </p>","","0","instructions","","","","","","","","","","",""
"learning-instructions","70","426212","0.0-9.0-1.0-0.10","6132","1","12","Female","approach_avoid_spark_v1","""event"",""trial"",""time""
""fullscreenenter"",""1"",""3272""
","
","
","""event"",""trial"",""time""
""fullscreenenter"",""1"",""3272""
","
","","","","","","922","<p> Try to make the best choice for each fruit because </p><p> at the end of the game, you will earn bonus money based on how many points you earned. </p>","","0","instructions","","","","","","","","","","",""
"learning-instructions","71","435740","0.0-9.0-1.0-0.11","6132","1","12","Female","approach_avoid_spark_v1","""event"",""trial"",""time""
""fullscreenenter"",""1"",""3272""
","
","
","""event"",""trial"",""time""
""fullscreenenter"",""1"",""3272""
","
","","","","","","1330","<p> You will have 3 seconds to make each choice. Try to respond before time runs out! </p><p> You will lose 5 points each time you do not make a response. </p>","","0","instructions","","","","","","","","","","",""
"html-keyboard-response","72","436376","0.0-9.0-2.0-0.0","6132","1","12","Female","approach_avoid_spark_v1","""event"",""trial"",""time""
""fullscreenenter"",""1"",""3272""
","
","
","""event"",""trial"",""time""
""fullscreenenter"",""1"",""3272""
","
","","","","","","null","<div style=""font-size:60px;"">+</div>","null","","fixation","","","","","","","","","","",""
"aa-learning-trial","73","439389","0.0-9.0-2.0-1.0","6132","1","12","Female","approach_avoid_spark_v1","""event"",""trial"",""time""
""fullscreenenter"",""1"",""3272""
","
","
","""event"",""trial"",""time""
""fullscreenenter"",""1"",""3272""
","
","","","","","","1464.3000001907349","images/straw8.png","","","learning","-1","-1","1","1","straw","fruit","1","0","","bad","[-3]"
"html-keyboard-response","74","439898","0.0-9.0-2.0-0.1","6132","1","12","Female","approach_avoid_spark_v1","""event"",""trial"",""time""
""fullscreenenter"",""1"",""3272""
","
","
","""event"",""trial"",""time""
""fullscreenenter"",""1"",""3272""
","
","","","","","","null","<div style=""font-size:60px;"">+</div>","null","","fixation","","","","","","","","","","",""
"aa-learning-trial","75","442908","0.0-9.0-2.0-1.1","6132","1","12","Female","approach_avoid_spark_v1","""event"",""trial"",""time""
""fullscreenenter"",""1"",""3272""
","
","
","""event"",""trial"",""time""
""fullscreenenter"",""1"",""3272""
","
","","","","","","750.7999999523163","images/straw2.png","","","learning","-2","-2","1","1","straw","fruit","1","0","","bad","[-3]"
"html-keyboard-response","76","443414","0.0-9.0-2.0-0.2","6132","1","12","Female","approach_avoid_spark_v1","""event"",""trial"",""time""
""fullscreenenter"",""1"",""3272""
","
","
","""event"",""trial"",""time""
""fullscreenenter"",""1"",""3272""
","
","","","","","","null","<div style=""font-size:60px;"">+</div>","null","","fixation","","","","","","","","","","",""
"aa-learning-trial","77","446420","0.0-9.0-2.0-1.2","6132","1","12","Female","approach_avoid_spark_v1","""event"",""trial"",""time""
""fullscreenenter"",""1"",""3272""
","
","
","""event"",""trial"",""time""
""fullscreenenter"",""1"",""3272""
","
","","","","","","738.2000000476837","images/apple5.png","","","learning","7","0","0","0","apple","fruit","1","0","","good","[5]"
"html-keyboard-response","78","446926","0.0-9.0-2.0-0.3","6132","1","12","Female","approach_avoid_spark_v1","""event"",""trial"",""time""
""fullscreenenter"",""1"",""3272""
","
","
","""event"",""trial"",""time""
""fullscreenenter"",""1"",""3272""
","
","","","","","","null","<div style=""font-size:60px;"">+</div>","null","","fixation","","","","","","","","","","",""
"aa-learning-trial","79","449930","0.0-9.0-2.0-1.3","6132","1","12","Female","approach_avoid_spark_v1","""event"",""trial"",""time""
""fullscreenenter"",""1"",""3272""
","
","
","""event"",""trial"",""time""
""fullscreenenter"",""1"",""3272""
","
","","","","","","1314.5999999046326","images/apple8.png","","","learning","5","5","1","1","apple","fruit","1","0","","good","[5]"
"html-keyboard-response","80","450448","0.0-9.0-2.0-0.4","6132","1","12","Female","approach_avoid_spark_v1","""event"",""trial"",""time""
""fullscreenenter"",""1"",""3272""
","
","
","""event"",""trial"",""time""
""fullscreenenter"",""1"",""3272""
","
","","","","","","null","<div style=""font-size:60px;"">+</div>","null","","fixation","","","","","","","","","","",""
"aa-learning-trial","81","453458","0.0-9.0-2.0-1.4","6132","1","12","Female","approach_avoid_spark_v1","""event"",""trial"",""time""
""fullscreenenter"",""1"",""3272""
","
","
","""event"",""trial"",""time""
""fullscreenenter"",""1"",""3272""
","
","","","","","","985.0999999046326","images/orange6.png","","","learning","1","1","1","1","orange","fruit","1","0","","neutral","0"
"html-keyboard-response","82","453969","0.0-9.0-2.0-0.5","6132","1","12","Female","approach_avoid_spark_v1","""event"",""trial"",""time""
""fullscreenenter"",""1"",""3272""
","
","
","""event"",""trial"",""time""
""fullscreenenter"",""1"",""3272""
","
","","","","","","null","<div style=""font-size:60px;"">+</div>","null","","fixation","","","","","","","","","","",""
"aa-learning-trial","83","456987","0.0-9.0-2.0-1.5","6132","1","12","Female","approach_avoid_spark_v1","""event"",""trial"",""time""
""fullscreenenter"",""1"",""3272""
","
","
","""event"",""trial"",""time""
""fullscreenenter"",""1"",""3272""
","
","","","","","","1223.4000000953674","images/orange4.png","","","learning","-2","-2","1","1","orange","fruit","1","0","","neutral","0"
"html-keyboard-response","84","457496","0.0-9.0-2.0-0.6","6132","1","12","Female","approach_avoid_spark_v1","""event"",""trial"",""time""
""fullscreenenter"",""1"",""3272""
","
","
","""event"",""trial"",""time""
""fullscreenenter"",""1"",""3272""
","
","","","","","","null","<div style=""font-size:60px;"">+</div>","null","","fixation","","","","","","","","","","",""
"aa-learning-trial","85","460510","0.0-9.0-2.0-1.6","6132","1","12","Female","approach_avoid_spark_v1","""event"",""trial"",""time""
""fullscreenenter"",""1"",""3272""
","
","
","""event"",""trial"",""time""
""fullscreenenter"",""1"",""3272""
","
","","","","","","991.2000000476837","images/straw8.png","","","learning","-1","0","0","0","straw","fruit","1","0","","bad","[-3]"
"html-keyboard-response","86","461020","0.0-9.0-2.0-0.7","6132","1","12","Female","approach_avoid_spark_v1","""event"",""trial"",""time""
""fullscreenenter"",""1"",""3272""
","
","
","""event"",""trial"",""time""
""fullscreenenter"",""1"",""3272""
","
","","","","","","null","<div style=""font-size:60px;"">+</div>","null","","fixation","","","","","","","","","","",""
"aa-learning-trial","87","464031","0.0-9.0-2.0-1.7","6132","1","12","Female","approach_avoid_spark_v1","""event"",""trial"",""time""
""fullscreenenter"",""1"",""3272""
","
","
","""event"",""trial"",""time""
""fullscreenenter"",""1"",""3272""
","
","","","","","","1283.2999999523163","images/orange2.png","","","learning","[-1]","0","0","0","orange","fruit","1","0","","neutral","0"
"html-keyboard-response","88","464539","0.0-9.0-2.0-0.8","6132","1","12","Female","approach_avoid_spark_v1","""event"",""trial"",""time""
""fullscreenenter"",""1"",""3272""
","
","
","""event"",""trial"",""time""
""fullscreenenter"",""1"",""3272""
","
","","","","","","null","<div style=""font-size:60px;"">+</div>","null","","fixation","","","","","","","","","","",""
"aa-learning-trial","89","467547","0.0-9.0-2.0-1.8","6132","1","12","Female","approach_avoid_spark_v1","""event"",""trial"",""time""
""fullscreenenter"",""1"",""3272""
","
","
","""event"",""trial"",""time""
""fullscreenenter"",""1"",""3272""
","
","","","","","","1388.5","images/apple1.png","","","learning","4","0","0","0","apple","fruit","1","0","","good","[5]"
"html-keyboard-response","90","468050","0.0-9.0-2.0-0.9","6132","1","12","Female","approach_avoid_spark_v1","""event"",""trial"",""time""
""fullscreenenter"",""1"",""3272""
","
","
","""event"",""trial"",""time""
""fullscreenenter"",""1"",""3272""
","
","","","","","","null","<div style=""font-size:60px;"">+</div>","null","","fixation","","","","","","","","","","",""
"aa-learning-trial","91","471059","0.0-9.0-2.0-1.9","6132","1","12","Female","approach_avoid_spark_v1","""event"",""trial"",""time""
""fullscreenenter"",""1"",""3272""
","
","
","""event"",""trial"",""time""
""fullscreenenter"",""1"",""3272""
","
","","","","","","774","images/apple1.png","","","learning","5","5","1","1","apple","fruit","1","0","","good","[5]"
"html-keyboard-response","92","471562","0.0-9.0-2.0-0.10","6132","1","12","Female","approach_avoid_spark_v1","""event"",""trial"",""time""
""fullscreenenter"",""1"",""3272""
","
","
","""event"",""trial"",""time""
""fullscreenenter"",""1"",""3272""
","
","","","","","","null","<div style=""font-size:60px;"">+</div>","null","","fixation","","","","","","","","","","",""
"aa-learning-trial","93","474571","0.0-9.0-2.0-1.10","6132","1","12","Female","approach_avoid_spark_v1","""event"",""trial"",""time""
""fullscreenenter"",""1"",""3272""
","
","
","""event"",""trial"",""time""
""fullscreenenter"",""1"",""3272""
","
","","","","","","1053.2999999523163","images/straw7.png","","","learning","-4","0","0","0","straw","fruit","1","0","","bad","[-3]"
"html-keyboard-response","94","475074","0.0-9.0-2.0-0.11","6132","1","12","Female","approach_avoid_spark_v1","""event"",""trial"",""time""
""fullscreenenter"",""1"",""3272""
","
","
","""event"",""trial"",""time""
""fullscreenenter"",""1"",""3272""
","
","","","","","","null","<div style=""font-size:60px;"">+</div>","null","","fixation","","","","","","","","","","",""
"aa-learning-trial","95","478082","0.0-9.0-2.0-1.11","6132","1","12","Female","approach_avoid_spark_v1","""event"",""trial"",""time""
""fullscreenenter"",""1"",""3272""
","
","
","""event"",""trial"",""time""
""fullscreenenter"",""1"",""3272""
","
","","","","","","1045.5","images/orange6.png","","","learning","-1","-1","1","1","orange","fruit","1","0","","neutral","0"
"html-keyboard-response","96","478601","0.0-9.0-2.0-0.12","6132","1","12","Female","approach_avoid_spark_v1","""event"",""trial"",""time""
""fullscreenenter"",""1"",""3272""
","
","
","""event"",""trial"",""time""
""fullscreenenter"",""1"",""3272""
","
","","","","","","null","<div style=""font-size:60px;"">+</div>","null","","fixation","","","","","","","","","","",""
"aa-learning-trial","97","481610","0.0-9.0-2.0-1.12","6132","1","12","Female","approach_avoid_spark_v1","""event"",""trial"",""time""
""fullscreenenter"",""1"",""3272""
","
","
","""event"",""trial"",""time""
""fullscreenenter"",""1"",""3272""
","
","","","","","","838.2999999523163","images/apple5.png","","","learning","6","0","0","0","apple","fruit","1","0","","good","[5]"
"html-keyboard-response","98","482115","0.0-9.0-2.0-0.13","6132","1","12","Female","approach_avoid_spark_v1","""event"",""trial"",""time""
""fullscreenenter"",""1"",""3272""
","
","
","""event"",""trial"",""time""
""fullscreenenter"",""1"",""3272""
","
","","","","","","null","<div style=""font-size:60px;"">+</div>","null","","fixation","","","","","","","","","","",""
"aa-learning-trial","99","485123","0.0-9.0-2.0-1.13","6132","1","12","Female","approach_avoid_spark_v1","""event"",""trial"",""time""
""fullscreenenter"",""1"",""3272""
","
","
","""event"",""trial"",""time""
""fullscreenenter"",""1"",""3272""
","
","","","","","","1125.2000000476837","images/straw7.png","","","learning","2","0","0","0","straw","fruit","1","0","","bad","[-3]"
"html-keyboard-response","100","485627","0.0-9.0-2.0-0.14","6132","1","12","Female","approach_avoid_spark_v1","""event"",""trial"",""time""
""fullscreenenter"",""1"",""3272""
","
","
","""event"",""trial"",""time""
""fullscreenenter"",""1"",""3272""
","
","","","","","","null","<div style=""font-size:60px;"">+</div>","null","","fixation","","","","","","","","","","",""
"aa-learning-trial","101","488635","0.0-9.0-2.0-1.14","6132","1","12","Female","approach_avoid_spark_v1","""event"",""trial"",""time""
""fullscreenenter"",""1"",""3272""
","
","
","""event"",""trial"",""time""
""fullscreenenter"",""1"",""3272""
","
","","","","","","981","images/orange4.png","","","learning","[-1]","-1","1","1","orange","fruit","1","0","","neutral","0"
"html-keyboard-response","102","489138","0.0-9.0-2.0-0.15","6132","1","12","Female","approach_avoid_spark_v1","""event"",""trial"",""time""
""fullscreenenter"",""1"",""3272""
","
","
","""event"",""trial"",""time""
""fullscreenenter"",""1"",""3272""
","
","","","","","","null","<div style=""font-size:60px;"">+</div>","null","","fixation","","","","","","","","","","",""
"aa-learning-trial","103","492147","0.0-9.0-2.0-1.15","6132","1","12","Female","approach_avoid_spark_v1","""event"",""trial"",""time""
""fullscreenenter"",""1"",""3272""
","
","
","""event"",""trial"",""time""
""fullscreenenter"",""1"",""3272""
","
","","","","","","1101.1999998092651","images/apple1.png","","","learning","6","6","1","1","apple","fruit","1","0","","good","[5]"
"html-keyboard-response","104","492650","0.0-9.0-2.0-0.16","6132","1","12","Female","approach_avoid_spark_v1","""event"",""trial"",""time""
""fullscreenenter"",""1"",""3272""
","
","
","""event"",""trial"",""time""
""fullscreenenter"",""1"",""3272""
","
","","","","","","null","<div style=""font-size:60px;"">+</div>","null","","fixation","","","","","","","","","","",""
"aa-learning-trial","105","495658","0.0-9.0-2.0-1.16","6132","1","12","Female","approach_avoid_spark_v1","""event"",""trial"",""time""
""fullscreenenter"",""1"",""3272""
","
","
","""event"",""trial"",""time""
""fullscreenenter"",""1"",""3272""
","
","","","","","","909.2999999523163","images/straw8.png","","","learning","-3","0","0","0","straw","fruit","1","0","","bad","[-3]"
"html-keyboard-response","106","496162","0.0-9.0-2.0-0.17","6132","1","12","Female","approach_avoid_spark_v1","""event"",""trial"",""time""
""fullscreenenter"",""1"",""3272""
","
","
","""event"",""trial"",""time""
""fullscreenenter"",""1"",""3272""
","
","","","","","","null","<div style=""font-size:60px;"">+</div>","null","","fixation","","","","","","","","","","",""
"aa-learning-trial","107","499170","0.0-9.0-2.0-1.17","6132","1","12","Female","approach_avoid_spark_v1","""event"",""trial"",""time""
""fullscreenenter"",""1"",""3272""
","
","
","""event"",""trial"",""time""
""fullscreenenter"",""1"",""3272""
","
","","","","","","1269.9000000953674","images/orange7.png","","","learning","-1","-1","1","1","orange","fruit","1","0","","neutral","0"
"html-keyboard-response","108","499674","0.0-9.0-2.0-0.18","6132","1","12","Female","approach_avoid_spark_v1","""event"",""trial"",""time""
""fullscreenenter"",""1"",""3272""
","
","
","""event"",""trial"",""time""
""fullscreenenter"",""1"",""3272""
","
","","","","","","null","<div style=""font-size:60px;"">+</div>","null","","fixation","","","","","","","","","","",""
"aa-learning-trial","109","502683","0.0-9.0-2.0-1.18","6132","1","12","Female","approach_avoid_spark_v1","""event"",""trial"",""time""
""fullscreenenter"",""1"",""3272""
","
","
","""event"",""trial"",""time""
""fullscreenenter"",""1"",""3272""
","
","","","","","","1325.5","images/apple5.png","","","learning","5","5","1","1","apple","fruit","1","0","","good","[5]"
"html-keyboard-response","110","503187","0.0-9.0-2.0-0.19","6132","1","12","Female","approach_avoid_spark_v1","""event"",""trial"",""time""
""fullscreenenter"",""1"",""3272""
","
","
","""event"",""trial"",""time""
""fullscreenenter"",""1"",""3272""
","
","","","","","","null","<div style=""font-size:60px;"">+</div>","null","","fixation","","","","","","","","","","",""
"aa-learning-trial","111","506195","0.0-9.0-2.0-1.19","6132","1","12","Female","approach_avoid_spark_v1","""event"",""trial"",""time""
""fullscreenenter"",""1"",""3272""
","
","
","""event"",""trial"",""time""
""fullscreenenter"",""1"",""3272""
","
","","","","","","652.5999999046326","images/straw8.png","","","learning","-1","0","0","0","straw","fruit","1","0","","bad","[-3]"
"html-keyboard-response","112","506699","0.0-9.0-2.0-0.20","6132","1","12","Female","approach_avoid_spark_v1","""event"",""trial"",""time""
""fullscreenenter"",""1"",""3272""
","
","
","""event"",""trial"",""time""
""fullscreenenter"",""1"",""3272""
","
","","","","","","null","<div style=""font-size:60px;"">+</div>","null","","fixation","","","","","","","","","","",""
"aa-learning-trial","113","509707","0.0-9.0-2.0-1.20","6132","1","12","Female","approach_avoid_spark_v1","""event"",""trial"",""time""
""fullscreenenter"",""1"",""3272""
","
","
","""event"",""trial"",""time""
""fullscreenenter"",""1"",""3272""
","
","","","","","","836.7000000476837","images/straw7.png","","","learning","-3","0","0","0","straw","fruit","1","0","","bad","[-3]"
"html-keyboard-response","114","510210","0.0-9.0-2.0-0.21","6132","1","12","Female","approach_avoid_spark_v1","""event"",""trial"",""time""
""fullscreenenter"",""1"",""3272""
","
","
","""event"",""trial"",""time""
""fullscreenenter"",""1"",""3272""
","
","","","","","","null","<div style=""font-size:60px;"">+</div>","null","","fixation","","","","","","","","","","",""
"aa-learning-trial","115","513219","0.0-9.0-2.0-1.21","6132","1","12","Female","approach_avoid_spark_v1","""event"",""trial"",""time""
""fullscreenenter"",""1"",""3272""
","
","
","""event"",""trial"",""time""
""fullscreenenter"",""1"",""3272""
","
","","","","","","773.2000000476837","images/straw2.png","","","learning","2","0","0","0","straw","fruit","1","0","","bad","[-3]"
"html-keyboard-response","116","513722","0.0-9.0-2.0-0.22","6132","1","12","Female","approach_avoid_spark_v1","""event"",""trial"",""time""
""fullscreenenter"",""1"",""3272""
","
","
","""event"",""trial"",""time""
""fullscreenenter"",""1"",""3272""
","
","","","","","","null","<div style=""font-size:60px;"">+</div>","null","","fixation","","","","","","","","","","",""
"aa-learning-trial","117","516731","0.0-9.0-2.0-1.22","6132","1","12","Female","approach_avoid_spark_v1","""event"",""trial"",""time""
""fullscreenenter"",""1"",""3272""
","
","
","""event"",""trial"",""time""
""fullscreenenter"",""1"",""3272""
","
","","","","","","1541.0999999046326","images/orange6.png","","","learning","[-1]","-1","1","1","orange","fruit","1","0","","neutral","0"
"html-keyboard-response","118","517239","0.0-9.0-2.0-0.23","6132","1","12","Female","approach_avoid_spark_v1","""event"",""trial"",""time""
""fullscreenenter"",""1"",""3272""
","
","
","""event"",""trial"",""time""
""fullscreenenter"",""1"",""3272""
","
","","","","","","null","<div style=""font-size:60px;"">+</div>","null","","fixation","","","","","","","","","","",""
"aa-learning-trial","119","520243","0.0-9.0-2.0-1.23","6132","1","12","Female","approach_avoid_spark_v1","""event"",""trial"",""time""
""fullscreenenter"",""1"",""3272""
","
","
","""event"",""trial"",""time""
""fullscreenenter"",""1"",""3272""
","
","","","","","","792.9000000953674","images/apple1.png","","","learning","6","6","1","1","apple","fruit","1","0","","good","[5]"
"html-keyboard-response","120","520747","0.0-9.0-2.0-0.24","6132","1","12","Female","approach_avoid_spark_v1","""event"",""trial"",""time""
""fullscreenenter"",""1"",""3272""
","
","
","""event"",""trial"",""time""
""fullscreenenter"",""1"",""3272""
","
","","","","","","null","<div style=""font-size:60px;"">+</div>","null","","fixation","","","","","","","","","","",""
"aa-learning-trial","121","523754","0.0-9.0-2.0-1.24","6132","1","12","Female","approach_avoid_spark_v1","""event"",""trial"",""time""
""fullscreenenter"",""1"",""3272""
","
","
","""event"",""trial"",""time""
""fullscreenenter"",""1"",""3272""
","
","","","","","","836.2000000476837","images/straw7.png","","","learning","-3","0","0","0","straw","fruit","1","0","","bad","[-3]"
"html-keyboard-response","122","524259","0.0-9.0-2.0-0.25","6132","1","12","Female","approach_avoid_spark_v1","""event"",""trial"",""time""
""fullscreenenter"",""1"",""3272""
","
","
","""event"",""trial"",""time""
""fullscreenenter"",""1"",""3272""
","
","","","","","","null","<div style=""font-size:60px;"">+</div>","null","","fixation","","","","","","","","","","",""
"aa-learning-trial","123","527270","0.0-9.0-2.0-1.25","6132","1","12","Female","approach_avoid_spark_v1","""event"",""trial"",""time""
""fullscreenenter"",""1"",""3272""
","
","
","""event"",""trial"",""time""
""fullscreenenter"",""1"",""3272""
","
","","","","","","1237.2000000476837","images/orange4.png","","","learning","-2","0","0","0","orange","fruit","1","0","","neutral","0"
"html-keyboard-response","124","527779","0.0-9.0-2.0-0.26","6132","1","12","Female","approach_avoid_spark_v1","""event"",""trial"",""time""
""fullscreenenter"",""1"",""3272""
","
","
","""event"",""trial"",""time""
""fullscreenenter"",""1"",""3272""
","
","","","","","","null","<div style=""font-size:60px;"">+</div>","null","","fixation","","","","","","","","","","",""
"aa-learning-trial","125","530787","0.0-9.0-2.0-1.26","6132","1","12","Female","approach_avoid_spark_v1","""event"",""trial"",""time""
""fullscreenenter"",""1"",""3272""
","
","
","""event"",""trial"",""time""
""fullscreenenter"",""1"",""3272""
","
","","","","","","676.0999999046326","images/orange2.png","","","learning","-2","0","0","0","orange","fruit","1","0","","neutral","0"
"html-keyboard-response","126","531291","0.0-9.0-2.0-0.27","6132","1","12","Female","approach_avoid_spark_v1","""event"",""trial"",""time""
""fullscreenenter"",""1"",""3272""
","
","
","""event"",""trial"",""time""
""fullscreenenter"",""1"",""3272""
","
","","","","","","null","<div style=""font-size:60px;"">+</div>","null","","fixation","","","","","","","","","","",""
"aa-learning-trial","127","534299","0.0-9.0-2.0-1.27","6132","1","12","Female","approach_avoid_spark_v1","""event"",""trial"",""time""
""fullscreenenter"",""1"",""3272""
","
","
","""event"",""trial"",""time""
""fullscreenenter"",""1"",""3272""
","
","","","","","","836.4000000953674","images/straw3.png","","","learning","-5","0","0","0","straw","fruit","1","0","","bad","[-3]"
"html-keyboard-response","128","534803","0.0-9.0-2.0-0.28","6132","1","12","Female","approach_avoid_spark_v1","""event"",""trial"",""time""
""fullscreenenter"",""1"",""3272""
","
","
","""event"",""trial"",""time""
""fullscreenenter"",""1"",""3272""
","
","","","","","","null","<div style=""font-size:60px;"">+</div>","null","","fixation","","","","","","","","","","",""
"aa-learning-trial","129","537811","0.0-9.0-2.0-1.28","6132","1","12","Female","approach_avoid_spark_v1","""event"",""trial"",""time""
""fullscreenenter"",""1"",""3272""
","
","
","""event"",""trial"",""time""
""fullscreenenter"",""1"",""3272""
","
","","","","","","484.59999990463257","images/straw7.png","","","learning","-3","0","0","0","straw","fruit","1","0","","bad","[-3]"
"html-keyboard-response","130","538314","0.0-9.0-2.0-0.29","6132","1","12","Female","approach_avoid_spark_v1","""event"",""trial"",""time""
""fullscreenenter"",""1"",""3272""
","
","
","""event"",""trial"",""time""
""fullscreenenter"",""1"",""3272""
","
","","","","","","null","<div style=""font-size:60px;"">+</div>","null","","fixation","","","","","","","","","","",""
"aa-learning-trial","131","541323","0.0-9.0-2.0-1.29","6132","1","12","Female","approach_avoid_spark_v1","""event"",""trial"",""time""
""fullscreenenter"",""1"",""3272""
","
","
","""event"",""trial"",""time""
""fullscreenenter"",""1"",""3272""
","
","","","","","","493.7999999523163","images/straw8.png","","","learning","-2","0","0","0","straw","fruit","1","0","","bad","[-3]"
"html-keyboard-response","132","541826","0.0-9.0-2.0-0.30","6132","1","12","Female","approach_avoid_spark_v1","""event"",""trial"",""time""
""fullscreenenter"",""1"",""3272""
","
","
","""event"",""trial"",""time""
""fullscreenenter"",""1"",""3272""
","
","","","","","","null","<div style=""font-size:60px;"">+</div>","null","","fixation","","","","","","","","","","",""
"aa-learning-trial","133","544835","0.0-9.0-2.0-1.30","6132","1","12","Female","approach_avoid_spark_v1","""event"",""trial"",""time""
""fullscreenenter"",""1"",""3272""
","
","
","""event"",""trial"",""time""
""fullscreenenter"",""1"",""3272""
","
","","","","","","901","images/apple5.png","","","learning","5","5","1","1","apple","fruit","1","0","","good","[5]"
"html-keyboard-response","134","545339","0.0-9.0-2.0-0.31","6132","1","12","Female","approach_avoid_spark_v1","""event"",""trial"",""time""
""fullscreenenter"",""1"",""3272""
","
","
","""event"",""trial"",""time""
""fullscreenenter"",""1"",""3272""
","
","","","","","","null","<div style=""font-size:60px;"">+</div>","null","","fixation","","","","","","","","","","",""
"aa-learning-trial","135","548347","0.0-9.0-2.0-1.31","6132","1","12","Female","approach_avoid_spark_v1","""event"",""trial"",""time""
""fullscreenenter"",""1"",""3272""
","
","
","""event"",""trial"",""time""
""fullscreenenter"",""1"",""3272""
","
","","","","","","812.0999999046326","images/apple8.png","","","learning","9","9","1","1","apple","fruit","1","0","","good","[5]"
"html-keyboard-response","136","548851","0.0-9.0-2.0-0.32","6132","1","12","Female","approach_avoid_spark_v1","""event"",""trial"",""time""
""fullscreenenter"",""1"",""3272""
","
","
","""event"",""trial"",""time""
""fullscreenenter"",""1"",""3272""
","
","","","","","","null","<div style=""font-size:60px;"">+</div>","null","","fixation","","","","","","","","","","",""
"aa-learning-trial","137","551859","0.0-9.0-2.0-1.32","6132","1","12","Female","approach_avoid_spark_v1","""event"",""trial"",""time""
""fullscreenenter"",""1"",""3272""
","
","
","""event"",""trial"",""time""
""fullscreenenter"",""1"",""3272""
","
","","","","","","852.5999999046326","images/apple5.png","","","learning","6","6","1","1","apple","fruit","1","0","","good","[5]"
"html-keyboard-response","138","552363","0.0-9.0-2.0-0.33","6132","1","12","Female","approach_avoid_spark_v1","""event"",""trial"",""time""
""fullscreenenter"",""1"",""3272""
","
","
","""event"",""trial"",""time""
""fullscreenenter"",""1"",""3272""
","
","","","","","","null","<div style=""font-size:60px;"">+</div>","null","","fixation","","","","","","","","","","",""
"aa-learning-trial","139","555371","0.0-9.0-2.0-1.33","6132","1","12","Female","approach_avoid_spark_v1","""event"",""trial"",""time""
""fullscreenenter"",""1"",""3272""
","
","
","""event"",""trial"",""time""
""fullscreenenter"",""1"",""3272""
","
","","","","","","413","images/orange6.png","","","learning","2","0","0","0","orange","fruit","1","0","","neutral","0"
"html-keyboard-response","140","555875","0.0-9.0-2.0-0.34","6132","1","12","Female","approach_avoid_spark_v1","""event"",""trial"",""time""
""fullscreenenter"",""1"",""3272""
","
","
","""event"",""trial"",""time""
""fullscreenenter"",""1"",""3272""
","
","","","","","","null","<div style=""font-size:60px;"">+</div>","null","","fixation","","","","","","","","","","",""
"aa-learning-trial","141","558883","0.0-9.0-2.0-1.34","6132","1","12","Female","approach_avoid_spark_v1","""event"",""trial"",""time""
""fullscreenenter"",""1"",""3272""
","
","
","""event"",""trial"",""time""
""fullscreenenter"",""1"",""3272""
","
","","","","","","636.3999998569489","images/straw2.png","","","learning","-5","0","0","0","straw","fruit","1","0","","bad","[-3]"
"html-keyboard-response","142","559386","0.0-9.0-2.0-0.35","6132","1","12","Female","approach_avoid_spark_v1","""event"",""trial"",""time""
""fullscreenenter"",""1"",""3272""
","
","
","""event"",""trial"",""time""
""fullscreenenter"",""1"",""3272""
","
","","","","","","null","<div style=""font-size:60px;"">+</div>","null","","fixation","","","","","","","","","","",""
"aa-learning-trial","143","562395","0.0-9.0-2.0-1.35","6132","1","12","Female","approach_avoid_spark_v1","""event"",""trial"",""time""
""fullscreenenter"",""1"",""3272""
","
","
","""event"",""trial"",""time""
""fullscreenenter"",""1"",""3272""
","
","","","","","","700.8999998569489","images/apple8.png","","","learning","5","5","1","1","apple","fruit","1","0","","good","[5]"
"html-keyboard-response","144","562899","0.0-9.0-2.0-0.36","6132","1","12","Female","approach_avoid_spark_v1","""event"",""trial"",""time""
""fullscreenenter"",""1"",""3272""
","
","
","""event"",""trial"",""time""
""fullscreenenter"",""1"",""3272""
","
","","","","","","null","<div style=""font-size:60px;"">+</div>","null","","fixation","","","","","","","","","","",""
"aa-learning-trial","145","565907","0.0-9.0-2.0-1.36","6132","1","12","Female","approach_avoid_spark_v1","""event"",""trial"",""time""
""fullscreenenter"",""1"",""3272""
","
","
","""event"",""trial"",""time""
""fullscreenenter"",""1"",""3272""
","
","","","","","","643.5999999046326","images/apple1.png","","","learning","7","7","1","1","apple","fruit","1","0","","good","[5]"
"html-keyboard-response","146","566410","0.0-9.0-2.0-0.37","6132","1","12","Female","approach_avoid_spark_v1","""event"",""trial"",""time""
""fullscreenenter"",""1"",""3272""
","
","
","""event"",""trial"",""time""
""fullscreenenter"",""1"",""3272""
","
","","","","","","null","<div style=""font-size:60px;"">+</div>","null","","fixation","","","","","","","","","","",""
"aa-learning-trial","147","569418","0.0-9.0-2.0-1.37","6132","1","12","Female","approach_avoid_spark_v1","""event"",""trial"",""time""
""fullscreenenter"",""1"",""3272""
","
","
","""event"",""trial"",""time""
""fullscreenenter"",""1"",""3272""
","
","","","","","","773.5","images/orange4.png","","","learning","1","0","0","0","orange","fruit","1","0","","neutral","0"
"html-keyboard-response","148","569923","0.0-9.0-2.0-0.38","6132","1","12","Female","approach_avoid_spark_v1","""event"",""trial"",""time""
""fullscreenenter"",""1"",""3272""
","
","
","""event"",""trial"",""time""
""fullscreenenter"",""1"",""3272""
","
","","","","","","null","<div style=""font-size:60px;"">+</div>","null","","fixation","","","","","","","","","","",""
"aa-learning-trial","149","572931","0.0-9.0-2.0-1.38","6132","1","12","Female","approach_avoid_spark_v1","""event"",""trial"",""time""
""fullscreenenter"",""1"",""3272""
","
","
","""event"",""trial"",""time""
""fullscreenenter"",""1"",""3272""
","
","","","","","","1028.2999999523163","images/orange6.png","","","learning","-1","0","0","0","orange","fruit","1","0","","neutral","0"
"html-keyboard-response","150","573435","0.0-9.0-2.0-0.39","6132","1","12","Female","approach_avoid_spark_v1","""event"",""trial"",""time""
""fullscreenenter"",""1"",""3272""
","
","
","""event"",""trial"",""time""
""fullscreenenter"",""1"",""3272""
","
","","","","","","null","<div style=""font-size:60px;"">+</div>","null","","fixation","","","","","","","","","","",""
"aa-learning-trial","151","576443","0.0-9.0-2.0-1.39","6132","1","12","Female","approach_avoid_spark_v1","""event"",""trial"",""time""
""fullscreenenter"",""1"",""3272""
","
","
","""event"",""trial"",""time""
""fullscreenenter"",""1"",""3272""
","
","","","","","","620.1000001430511","images/apple1.png","","","learning","5","5","1","1","apple","fruit","1","0","","good","[5]"
"html-keyboard-response","152","576947","0.0-9.0-2.0-0.40","6132","1","12","Female","approach_avoid_spark_v1","""event"",""trial"",""time""
""fullscreenenter"",""1"",""3272""
","
","
","""event"",""trial"",""time""
""fullscreenenter"",""1"",""3272""
","
","","","","","","null","<div style=""font-size:60px;"">+</div>","null","","fixation","","","","","","","","","","",""
"aa-learning-trial","153","579955","0.0-9.0-2.0-1.40","6132","1","12","Female","approach_avoid_spark_v1","""event"",""trial"",""time""
""fullscreenenter"",""1"",""3272""
","
","
","""event"",""trial"",""time""
""fullscreenenter"",""1"",""3272""
","
","","","","","","1004.2000000476837","images/orange2.png","","","learning","[-1]","0","0","0","orange","fruit","1","0","","neutral","0"
"html-keyboard-response","154","580459","0.0-9.0-2.0-0.41","6132","1","12","Female","approach_avoid_spark_v1","""event"",""trial"",""time""
""fullscreenenter"",""1"",""3272""
","
","
","""event"",""trial"",""time""
""fullscreenenter"",""1"",""3272""
","
","","","","","","null","<div style=""font-size:60px;"">+</div>","null","","fixation","","","","","","","","","","",""
"aa-learning-trial","155","583467","0.0-9.0-2.0-1.41","6132","1","12","Female","approach_avoid_spark_v1","""event"",""trial"",""time""
""fullscreenenter"",""1"",""3272""
","
","
","""event"",""trial"",""time""
""fullscreenenter"",""1"",""3272""
","
","","","","","","733.3000001907349","images/apple7.png","","","learning","5","5","1","1","apple","fruit","1","0","","good","[5]"
"html-keyboard-response","156","583971","0.0-9.0-2.0-0.42","6132","1","12","Female","approach_avoid_spark_v1","""event"",""trial"",""time""
""fullscreenenter"",""1"",""3272""
","
","
","""event"",""trial"",""time""
""fullscreenenter"",""1"",""3272""
","
","","","","","","null","<div style=""font-size:60px;"">+</div>","null","","fixation","","","","","","","","","","",""
"aa-learning-trial","157","586979","0.0-9.0-2.0-1.42","6132","1","12","Female","approach_avoid_spark_v1","""event"",""trial"",""time""
""fullscreenenter"",""1"",""3272""
","
","
","""event"",""trial"",""time""
""fullscreenenter"",""1"",""3272""
","
","","","","","","732.5999999046326","images/straw7.png","","","learning","-1","0","0","0","straw","fruit","1","0","","bad","[-3]"
"html-keyboard-response","158","587483","0.0-9.0-2.0-0.43","6132","1","12","Female","approach_avoid_spark_v1","""event"",""trial"",""time""
""fullscreenenter"",""1"",""3272""
","
","
","""event"",""trial"",""time""
""fullscreenenter"",""1"",""3272""
","
","","","","","","null","<div style=""font-size:60px;"">+</div>","null","","fixation","","","","","","","","","","",""
"aa-learning-trial","159","590491","0.0-9.0-2.0-1.43","6132","1","12","Female","approach_avoid_spark_v1","""event"",""trial"",""time""
""fullscreenenter"",""1"",""3272""
","
","
","""event"",""trial"",""time""
""fullscreenenter"",""1"",""3272""
","
","","","","","","796.7999999523163","images/orange4.png","","","learning","-1","-1","1","1","orange","fruit","1","0","","neutral","0"
"html-keyboard-response","160","590995","0.0-9.0-2.0-0.44","6132","1","12","Female","approach_avoid_spark_v1","""event"",""trial"",""time""
""fullscreenenter"",""1"",""3272""
","
","
","""event"",""trial"",""time""
""fullscreenenter"",""1"",""3272""
","
","","","","","","null","<div style=""font-size:60px;"">+</div>","null","","fixation","","","","","","","","","","",""
"aa-learning-trial","161","594004","0.0-9.0-2.0-1.44","6132","1","12","Female","approach_avoid_spark_v1","""event"",""trial"",""time""
""fullscreenenter"",""1"",""3272""
","
","
","""event"",""trial"",""time""
""fullscreenenter"",""1"",""3272""
","
","","","","","","724.1000001430511","images/apple2.png","","","learning","4","4","1","1","apple","fruit","1","0","","good","[5]"
"html-keyboard-response","162","594507","0.0-9.0-2.0-0.45","6132","1","12","Female","approach_avoid_spark_v1","""event"",""trial"",""time""
""fullscreenenter"",""1"",""3272""
","
","
","""event"",""trial"",""time""
""fullscreenenter"",""1"",""3272""
","
","","","","","","null","<div style=""font-size:60px;"">+</div>","null","","fixation","","","","","","","","","","",""
"aa-learning-trial","163","597515","0.0-9.0-2.0-1.45","6132","1","12","Female","approach_avoid_spark_v1","""event"",""trial"",""time""
""fullscreenenter"",""1"",""3272""
","
","
","""event"",""trial"",""time""
""fullscreenenter"",""1"",""3272""
","
","","","","","","724.5999999046326","images/straw8.png","","","learning","-2","0","0","0","straw","fruit","1","0","","bad","[-3]"
"html-keyboard-response","164","598019","0.0-9.0-2.0-0.46","6132","1","12","Female","approach_avoid_spark_v1","""event"",""trial"",""time""
""fullscreenenter"",""1"",""3272""
","
","
","""event"",""trial"",""time""
""fullscreenenter"",""1"",""3272""
","
","","","","","","null","<div style=""font-size:60px;"">+</div>","null","","fixation","","","","","","","","","","",""
"aa-learning-trial","165","601027","0.0-9.0-2.0-1.46","6132","1","12","Female","approach_avoid_spark_v1","""event"",""trial"",""time""
""fullscreenenter"",""1"",""3272""
","
","
","""event"",""trial"",""time""
""fullscreenenter"",""1"",""3272""
","
","","","","","","892.2999999523163","images/orange4.png","","","learning","3","3","1","1","orange","fruit","1","0","","neutral","0"
"html-keyboard-response","166","601531","0.0-9.0-2.0-0.47","6132","1","12","Female","approach_avoid_spark_v1","""event"",""trial"",""time""
""fullscreenenter"",""1"",""3272""
","
","
","""event"",""trial"",""time""
""fullscreenenter"",""1"",""3272""
","
","","","","","","null","<div style=""font-size:60px;"">+</div>","null","","fixation","","","","","","","","","","",""
"aa-learning-trial","167","604539","0.0-9.0-2.0-1.47","6132","1","12","Female","approach_avoid_spark_v1","""event"",""trial"",""time""
""fullscreenenter"",""1"",""3272""
","
","
","""event"",""trial"",""time""
""fullscreenenter"",""1"",""3272""
","
","","","","","","876.4000000953674","images/orange6.png","","","learning","[-1]","0","0","0","orange","fruit","1","0","","neutral","0"
"html-keyboard-response","168","605044","0.0-9.0-2.0-0.48","6132","1","12","Female","approach_avoid_spark_v1","""event"",""trial"",""time""
""fullscreenenter"",""1"",""3272""
","
","
","""event"",""trial"",""time""
""fullscreenenter"",""1"",""3272""
","
","","","","","","null","<div style=""font-size:60px;"">+</div>","null","","fixation","","","","","","","","","","",""
"aa-learning-trial","169","608051","0.0-9.0-2.0-1.48","6132","1","12","Female","approach_avoid_spark_v1","""event"",""trial"",""time""
""fullscreenenter"",""1"",""3272""
","
","
","""event"",""trial"",""time""
""fullscreenenter"",""1"",""3272""
","
","","","","","","987.5","images/straw4.png","","","learning","-5","0","0","0","straw","fruit","1","0","","bad","[-3]"
"html-keyboard-response","170","608555","0.0-9.0-2.0-0.49","6132","1","12","Female","approach_avoid_spark_v1","""event"",""trial"",""time""
""fullscreenenter"",""1"",""3272""
","
","
","""event"",""trial"",""time""
""fullscreenenter"",""1"",""3272""
","
","","","","","","null","<div style=""font-size:60px;"">+</div>","null","","fixation","","","","","","","","","","",""
"aa-learning-trial","171","611563","0.0-9.0-2.0-1.49","6132","1","12","Female","approach_avoid_spark_v1","""event"",""trial"",""time""
""fullscreenenter"",""1"",""3272""
","
","
","""event"",""trial"",""time""
""fullscreenenter"",""1"",""3272""
","
","","","","","","773.1000001430511","images/orange3.png","","","learning","-3","-3","1","1","orange","fruit","1","0","","neutral","0"
"html-keyboard-response","172","612067","0.0-9.0-2.0-0.50","6132","1","12","Female","approach_avoid_spark_v1","""event"",""trial"",""time""
""fullscreenenter"",""1"",""3272""
","
","
","""event"",""trial"",""time""
""fullscreenenter"",""1"",""3272""
","
","","","","","","null","<div style=""font-size:60px;"">+</div>","null","","fixation","","","","","","","","","","",""
"aa-learning-trial","173","615076","0.0-9.0-2.0-1.50","6132","1","12","Female","approach_avoid_spark_v1","""event"",""trial"",""time""
""fullscreenenter"",""1"",""3272""
","
","
","""event"",""trial"",""time""
""fullscreenenter"",""1"",""3272""
","
","","","","","","1131.9000000953674","images/apple5.png","","","learning","5","0","0","0","apple","fruit","1","0","","good","[5]"
"html-button-response","174","618378","0.0-9.0-3.0","6132","1","12","Female","approach_avoid_spark_v1","""event"",""trial"",""time""
""fullscreenenter"",""1"",""3272""
","
","
","""event"",""trial"",""time""
""fullscreenenter"",""1"",""3272""
","
","","","","","","3301","<p> You have completed the round! <p> In this round, you earned 64 points! </p>","0","","break","","","","","","","","","","",""
"html-button-response","175","620378","0.0-10.0","6132","1","12","Female","approach_avoid_spark_v1","""event"",""trial"",""time""
""fullscreenenter"",""1"",""3272""
","
","
","""event"",""trial"",""time""
""fullscreenenter"",""1"",""3272""
","
","","","","","","1999.1000001430511","<p> Now it's time to play another round. </p>","0","","transition_screen","","","","","","","","","","",""
"preload","176","620523","0.0-11.0-0.0","6132","1","12","Female","approach_avoid_spark_v1","""event"",""trial"",""time""
""fullscreenenter"",""1"",""3272""
","
","
","""event"",""trial"",""time""
""fullscreenenter"",""1"",""3272""
","
","true","false","[]","[]","[]","","","","","","","","","","","","","","","",""
"learning-instructions","177","627914","0.0-11.0-1.0-0.0","6132","1","12","Female","approach_avoid_spark_v1","""event"",""trial"",""time""
""fullscreenenter"",""1"",""3272""
","
","
","""event"",""trial"",""time""
""fullscreenenter"",""1"",""3272""
","
","","","","","","1701.8999998569489","<p> Your goal in this round is to take your friend for rides in different vehicles. </p></div>","","0","instructions","","","","","","","","","","",""
"learning-instructions","178","638842","0.0-11.0-1.0-0.1","6132","1","12","Female","approach_avoid_spark_v1","""event"",""trial"",""time""
""fullscreenenter"",""1"",""3272""
","
","
","""event"",""trial"",""time""
""fullscreenenter"",""1"",""3272""
","
","","","","","","720.3999998569489","<p> Your friend enjoys riding in some vehicles but not in others.  </p><p> On each turn, you will see a vehicle.   </p><p> You need to decide whether to take your friend for a ride or not.  </p>","","0","instructions","","","","","","","","","","",""
"learning-instructions","179","646106","0.0-11.0-1.0-0.2","6132","1","12","Female","approach_avoid_spark_v1","""event"",""trial"",""time""
""fullscreenenter"",""1"",""3272""
","
","
","""event"",""trial"",""time""
""fullscreenenter"",""1"",""3272""
","
","","","","","","523.5","<p> You can take your friend for a ride in the vehicle by pressing 1 and skip the ride by pressing 0. </p><br><div class=""choice-instructions-grid""> <div class=""choice-option""><img src=""images/approach.png"" class=""choice-option-img"" stage=""instructions"" position=""0"" ><div class=""choice-option-text""> Press ""1."" </div></div><div class=""choice-option""><img src=""images/avoid.png"" class=""choice-option-img"" stage=""instructions"" position=""1"" ><div class=""choice-option-text""> Press ""0."" </div></div>","","0","instructions","","","","","","","","","","",""
"learning-instructions","180","655601","0.0-11.0-1.0-0.3","6132","1","12","Female","approach_avoid_spark_v1","""event"",""trial"",""time""
""fullscreenenter"",""1"",""3272""
","
","
","""event"",""trial"",""time""
""fullscreenenter"",""1"",""3272""
","
","","","","","","450.09999990463257","<p> If you take them for a ride in a vehicle they like, they will be thrilled! </p><p> But if you take them for a ride in a vehicle they do not like, they will be upset. </p>","","0","instructions","","","","","","","","","","",""
"learning-instructions","181","668457","0.0-11.0-1.0-0.4","6132","1","12","Female","approach_avoid_spark_v1","""event"",""trial"",""time""
""fullscreenenter"",""1"",""3272""
","
","
","""event"",""trial"",""time""
""fullscreenenter"",""1"",""3272""
","
","","","","","","855.2000000476837","<p> You will earn points based on how you made your friend feel. </p><p> If you made him thrilled, you will WIN anywhere from 1 - 9 points, </p><p> but if you made him upset, you will LOSE anywhere from 1 - 9 points. </p>","","0","instructions","","","","","","","","","","",""
"learning-instructions","182","676977","0.0-11.0-1.0-0.5","6132","1","12","Female","approach_avoid_spark_v1","""event"",""trial"",""time""
""fullscreenenter"",""1"",""3272""
","
","
","""event"",""trial"",""time""
""fullscreenenter"",""1"",""3272""
","
","","","","","","1856","<p> You will see how many points you won or lost in the center of the screen. </p><p> Here is what you would see if you won 5 points: </p><p style=""color:green;font-size:50px;font-weight:bolder"">5</p>","","0","instructions","","","","","","","","","","",""
"learning-instructions","183","680585","0.0-11.0-1.0-0.6","6132","1","12","Female","approach_avoid_spark_v1","""event"",""trial"",""time""
""fullscreenenter"",""1"",""3272""
","
","
","""event"",""trial"",""time""
""fullscreenenter"",""1"",""3272""
","
","","","","","","764","<p> And here is what you would see if you lost 3 points: </p><p style=""color:red;font-size:50px;font-weight:bolder"">-3</p>","","0","instructions","","","","","","","","","","",""
"learning-instructions","184","696969","0.0-11.0-1.0-0.7","6132","1","12","Female","approach_avoid_spark_v1","""event"",""trial"",""time""
""fullscreenenter"",""1"",""3272""
","
","
","""event"",""trial"",""time""
""fullscreenenter"",""1"",""3272""
","
","","","","","","827.8999998569489","<p> Some vehicles will make your friend REALLY thrilled or upset. </p><p> These vehicles will make you win or lose LOTS of points. </p><p> Other vehicles will only make him feel a little thrilled or upset. </p><p> These vehicles will make you win or lose small amounts of points. </p>","","0","instructions","","","","","","","","","","",""
"learning-instructions","185","710417","0.0-11.0-1.0-0.8","6132","1","12","Female","approach_avoid_spark_v1","""event"",""trial"",""time""
""fullscreenenter"",""1"",""3272""
","
","
","""event"",""trial"",""time""
""fullscreenenter"",""1"",""3272""
","
","","","","","","1376.0999999046326","<p> If you choose to skip the ride, you will not win or lose any points. </p><p>  However, in the center of the screen, you will see the number of points you WOULD HAVE won or lost if you had taken your friend for a ride. </p>","","0","instructions","","","","","","","","","","",""
"learning-instructions","186","725065","0.0-11.0-1.0-0.9","6132","1","12","Female","approach_avoid_spark_v1","""event"",""trial"",""time""
""fullscreenenter"",""1"",""3272""
","
","
","""event"",""trial"",""time""
""fullscreenenter"",""1"",""3272""
","
","","","","","","3593.9000000953674","<p> Here is what you might see if you did not take your friend for a ride but he would have enjoyed it: </p><p style=""color:grey; font-size:50px; display: inline-block; border-spacing: 15px; border-width:3px; border-style:solid; border-color:red"">  &nbsp; 6 &nbsp; </p><p> Remember, in this case, you would not win or lose ANY points because you skipped the ride.  </p>","","0","instructions","","","","","","","","","","",""
"learning-instructions","187","733881","0.0-11.0-1.0-0.10","6132","1","12","Female","approach_avoid_spark_v1","""event"",""trial"",""time""
""fullscreenenter"",""1"",""3272""
","
","
","""event"",""trial"",""time""
""fullscreenenter"",""1"",""3272""
","
","","","","","","950.1000001430511","<p> Try to make the best choice for each vehicle because </p><p> at the end of the game, you will earn bonus money based on how many points you earned. </p>","","0","instructions","","","","","","","","","","",""
"learning-instructions","188","743777","0.0-11.0-1.0-0.11","6132","1","12","Female","approach_avoid_spark_v1","""event"",""trial"",""time""
""fullscreenenter"",""1"",""3272""
","
","
","""event"",""trial"",""time""
""fullscreenenter"",""1"",""3272""
","
","","","","","","1695.7999999523163","<p> You will have 3 seconds to make each choice. Try to respond before time runs out! </p><p> You will lose 5 points each time you do not make a response. </p>","","0","instructions","","","","","","","","","","",""
"html-keyboard-response","189","744384","0.0-11.0-2.0-0.0","6132","1","12","Female","approach_avoid_spark_v1","""event"",""trial"",""time""
""fullscreenenter"",""1"",""3272""
","
","
","""event"",""trial"",""time""
""fullscreenenter"",""1"",""3272""
","
","","","","","","null","<div style=""font-size:60px;"">+</div>","null","","fixation","","","","","","","","","","",""
"aa-learning-trial","190","747410","0.0-11.0-2.0-1.0","6132","1","12","Female","approach_avoid_spark_v1","""event"",""trial"",""time""
""fullscreenenter"",""1"",""3272""
","
","
","""event"",""trial"",""time""
""fullscreenenter"",""1"",""3272""
","
","","","","","","1053.9000000953674","images/truck4.png","","","learning","5","5","1","1","truck","vehicles","2","1","","good","[4]"
"html-keyboard-response","191","747918","0.0-11.0-2.0-0.1","6132","1","12","Female","approach_avoid_spark_v1","""event"",""trial"",""time""
""fullscreenenter"",""1"",""3272""
","
","
","""event"",""trial"",""time""
""fullscreenenter"",""1"",""3272""
","
","","","","","","null","<div style=""font-size:60px;"">+</div>","null","","fixation","","","","","","","","","","",""
"aa-learning-trial","192","750937","0.0-11.0-2.0-1.1","6132","1","12","Female","approach_avoid_spark_v1","""event"",""trial"",""time""
""fullscreenenter"",""1"",""3272""
","
","
","""event"",""trial"",""time""
""fullscreenenter"",""1"",""3272""
","
","","","","","","856.9000000953674","images/truck5.png","","","learning","-7","-7","1","1","truck","vehicles","2","1","","good","[4]"
"html-keyboard-response","193","751445","0.0-11.0-2.0-0.2","6132","1","12","Female","approach_avoid_spark_v1","""event"",""trial"",""time""
""fullscreenenter"",""1"",""3272""
","
","
","""event"",""trial"",""time""
""fullscreenenter"",""1"",""3272""
","
","","","","","","null","<div style=""font-size:60px;"">+</div>","null","","fixation","","","","","","","","","","",""
"aa-learning-trial","194","754460","0.0-11.0-2.0-1.2","6132","1","12","Female","approach_avoid_spark_v1","""event"",""trial"",""time""
""fullscreenenter"",""1"",""3272""
","
","
","""event"",""trial"",""time""
""fullscreenenter"",""1"",""3272""
","
","","","","","","1001.2000000476837","images/boat7.png","","","learning","-5","-5","1","1","boat","vehicles","2","1","","neutral","0"
"html-keyboard-response","195","754965","0.0-11.0-2.0-0.3","6132","1","12","Female","approach_avoid_spark_v1","""event"",""trial"",""time""
""fullscreenenter"",""1"",""3272""
","
","
","""event"",""trial"",""time""
""fullscreenenter"",""1"",""3272""
","
","","","","","","null","<div style=""font-size:60px;"">+</div>","null","","fixation","","","","","","","","","","",""
"aa-learning-trial","196","757975","0.0-11.0-2.0-1.3","6132","1","12","Female","approach_avoid_spark_v1","""event"",""trial"",""time""
""fullscreenenter"",""1"",""3272""
","
","
","""event"",""trial"",""time""
""fullscreenenter"",""1"",""3272""
","
","","","","","","1096.4000000953674","images/boat7.png","","","learning","-5","-5","9","","boat","vehicles","2","1","","neutral","0"
"html-keyboard-response","197","758494","0.0-11.0-2.0-0.4","6132","1","12","Female","approach_avoid_spark_v1","""event"",""trial"",""time""
""fullscreenenter"",""1"",""3272""
","
","
","""event"",""trial"",""time""
""fullscreenenter"",""1"",""3272""
","
","","","","","","null","<div style=""font-size:60px;"">+</div>","null","","fixation","","","","","","","","","","",""
"aa-learning-trial","198","761501","0.0-11.0-2.0-1.4","6132","1","12","Female","approach_avoid_spark_v1","""event"",""trial"",""time""
""fullscreenenter"",""1"",""3272""
","
","
","""event"",""trial"",""time""
""fullscreenenter"",""1"",""3272""
","
","","","","","","2176","images/truck3.png","","","learning","-4","-4","1","1","truck","vehicles","2","1","","good","[4]"
"html-keyboard-response","199","762025","0.0-11.0-2.0-0.5","6132","1","12","Female","approach_avoid_spark_v1","""event"",""trial"",""time""
""fullscreenenter"",""1"",""3272""
","
","
","""event"",""trial"",""time""
""fullscreenenter"",""1"",""3272""
","
","","","","","","null","<div style=""font-size:60px;"">+</div>","null","","fixation","","","","","","","","","","",""
"aa-learning-trial","200","765048","0.0-11.0-2.0-1.5","6132","1","12","Female","approach_avoid_spark_v1","""event"",""trial"",""time""
""fullscreenenter"",""1"",""3272""
","
","
","""event"",""trial"",""time""
""fullscreenenter"",""1"",""3272""
","
","","","","","","1397.8999998569489","images/plane4.png","","","learning","4","0","0","0","plane","vehicles","2","1","","bad","[-6]"
"html-keyboard-response","201","765556","0.0-11.0-2.0-0.6","6132","1","12","Female","approach_avoid_spark_v1","""event"",""trial"",""time""
""fullscreenenter"",""1"",""3272""
","
","
","""event"",""trial"",""time""
""fullscreenenter"",""1"",""3272""
","
","","","","","","null","<div style=""font-size:60px;"">+</div>","null","","fixation","","","","","","","","","","",""
"aa-learning-trial","202","768572","0.0-11.0-2.0-1.6","6132","1","12","Female","approach_avoid_spark_v1","""event"",""trial"",""time""
""fullscreenenter"",""1"",""3272""
","
","
","""event"",""trial"",""time""
""fullscreenenter"",""1"",""3272""
","
","","","","","","938.7999999523163","images/plane7.png","","","learning","8","8","1","1","plane","vehicles","2","1","","bad","[-6]"
"html-keyboard-response","203","769079","0.0-11.0-2.0-0.7","6132","1","12","Female","approach_avoid_spark_v1","""event"",""trial"",""time""
""fullscreenenter"",""1"",""3272""
","
","
","""event"",""trial"",""time""
""fullscreenenter"",""1"",""3272""
","
","","","","","","null","<div style=""font-size:60px;"">+</div>","null","","fixation","","","","","","","","","","",""
"aa-learning-trial","204","772095","0.0-11.0-2.0-1.7","6132","1","12","Female","approach_avoid_spark_v1","""event"",""trial"",""time""
""fullscreenenter"",""1"",""3272""
","
","
","""event"",""trial"",""time""
""fullscreenenter"",""1"",""3272""
","
","","","","","","1590.5","images/truck5.png","","","learning","-7","-7","1","1","truck","vehicles","2","1","","good","[4]"
"html-keyboard-response","205","772603","0.0-11.0-2.0-0.8","6132","1","12","Female","approach_avoid_spark_v1","""event"",""trial"",""time""
""fullscreenenter"",""1"",""3272""
","
","
","""event"",""trial"",""time""
""fullscreenenter"",""1"",""3272""
","
","","","","","","null","<div style=""font-size:60px;"">+</div>","null","","fixation","","","","","","","","","","",""
"aa-learning-trial","206","775612","0.0-11.0-2.0-1.8","6132","1","12","Female","approach_avoid_spark_v1","""event"",""trial"",""time""
""fullscreenenter"",""1"",""3272""
","
","
","""event"",""trial"",""time""
""fullscreenenter"",""1"",""3272""
","
","","","","","","1586.7000000476837","images/boat6.png","","","learning","3","0","0","0","boat","vehicles","2","1","","neutral","0"
"html-keyboard-response","207","776115","0.0-11.0-2.0-0.9","6132","1","12","Female","approach_avoid_spark_v1","""event"",""trial"",""time""
""fullscreenenter"",""1"",""3272""
","
","
","""event"",""trial"",""time""
""fullscreenenter"",""1"",""3272""
","
","","","","","","null","<div style=""font-size:60px;"">+</div>","null","","fixation","","","","","","","","","","",""
"aa-learning-trial","208","779123","0.0-11.0-2.0-1.9","6132","1","12","Female","approach_avoid_spark_v1","""event"",""trial"",""time""
""fullscreenenter"",""1"",""3272""
","
","
","""event"",""trial"",""time""
""fullscreenenter"",""1"",""3272""
","
","","","","","","819.7999999523163","images/truck3.png","","","learning","-4","-4","1","1","truck","vehicles","2","1","","good","[4]"
"html-keyboard-response","209","779627","0.0-11.0-2.0-0.10","6132","1","12","Female","approach_avoid_spark_v1","""event"",""trial"",""time""
""fullscreenenter"",""1"",""3272""
","
","
","""event"",""trial"",""time""
""fullscreenenter"",""1"",""3272""
","
","","","","","","null","<div style=""font-size:60px;"">+</div>","null","","fixation","","","","","","","","","","",""
"aa-learning-trial","210","782635","0.0-11.0-2.0-1.10","6132","1","12","Female","approach_avoid_spark_v1","""event"",""trial"",""time""
""fullscreenenter"",""1"",""3272""
","
","
","""event"",""trial"",""time""
""fullscreenenter"",""1"",""3272""
","
","","","","","","963","images/plane4.png","","","learning","4","4","1","1","plane","vehicles","2","1","","bad","[-6]"
"html-keyboard-response","211","783139","0.0-11.0-2.0-0.11","6132","1","12","Female","approach_avoid_spark_v1","""event"",""trial"",""time""
""fullscreenenter"",""1"",""3272""
","
","
","""event"",""trial"",""time""
""fullscreenenter"",""1"",""3272""
","
","","","","","","null","<div style=""font-size:60px;"">+</div>","null","","fixation","","","","","","","","","","",""
"aa-learning-trial","212","786147","0.0-11.0-2.0-1.11","6132","1","12","Female","approach_avoid_spark_v1","""event"",""trial"",""time""
""fullscreenenter"",""1"",""3272""
","
","
","""event"",""trial"",""time""
""fullscreenenter"",""1"",""3272""
","
","","","","","","963","images/plane3.png","","","learning","1","1","1","1","plane","vehicles","2","1","","bad","[-6]"
"html-keyboard-response","213","786652","0.0-11.0-2.0-0.12","6132","1","12","Female","approach_avoid_spark_v1","""event"",""trial"",""time""
""fullscreenenter"",""1"",""3272""
","
","
","""event"",""trial"",""time""
""fullscreenenter"",""1"",""3272""
","
","","","","","","null","<div style=""font-size:60px;"">+</div>","null","","fixation","","","","","","","","","","",""
"aa-learning-trial","214","789660","0.0-11.0-2.0-1.12","6132","1","12","Female","approach_avoid_spark_v1","""event"",""trial"",""time""
""fullscreenenter"",""1"",""3272""
","
","
","""event"",""trial"",""time""
""fullscreenenter"",""1"",""3272""
","
","","","","","","922.5999999046326","images/boat6.png","","","learning","3","3","1","1","boat","vehicles","2","1","","neutral","0"
"html-keyboard-response","215","790163","0.0-11.0-2.0-0.13","6132","1","12","Female","approach_avoid_spark_v1","""event"",""trial"",""time""
""fullscreenenter"",""1"",""3272""
","
","
","""event"",""trial"",""time""
""fullscreenenter"",""1"",""3272""
","
","","","","","","null","<div style=""font-size:60px;"">+</div>","null","","fixation","","","","","","","","","","",""
"aa-learning-trial","216","793172","0.0-11.0-2.0-1.13","6132","1","12","Female","approach_avoid_spark_v1","""event"",""trial"",""time""
""fullscreenenter"",""1"",""3272""
","
","
","""event"",""trial"",""time""
""fullscreenenter"",""1"",""3272""
","
","","","","","","746.8999998569489","images/plane3.png","","","learning","1","1","1","1","plane","vehicles","2","1","","bad","[-6]"
"html-keyboard-response","217","793675","0.0-11.0-2.0-0.14","6132","1","12","Female","approach_avoid_spark_v1","""event"",""trial"",""time""
""fullscreenenter"",""1"",""3272""
","
","
","""event"",""trial"",""time""
""fullscreenenter"",""1"",""3272""
","
","","","","","","null","<div style=""font-size:60px;"">+</div>","null","","fixation","","","","","","","","","","",""
"aa-learning-trial","218","796684","0.0-11.0-2.0-1.14","6132","1","12","Female","approach_avoid_spark_v1","""event"",""trial"",""time""
""fullscreenenter"",""1"",""3272""
","
","
","""event"",""trial"",""time""
""fullscreenenter"",""1"",""3272""
","
","","","","","","987.7000000476837","images/boat5.png","","","learning","-8","0","0","0","boat","vehicles","2","1","","neutral","0"
"html-keyboard-response","219","797187","0.0-11.0-2.0-0.15","6132","1","12","Female","approach_avoid_spark_v1","""event"",""trial"",""time""
""fullscreenenter"",""1"",""3272""
","
","
","""event"",""trial"",""time""
""fullscreenenter"",""1"",""3272""
","
","","","","","","null","<div style=""font-size:60px;"">+</div>","null","","fixation","","","","","","","","","","",""
"aa-learning-trial","220","800196","0.0-11.0-2.0-1.15","6132","1","12","Female","approach_avoid_spark_v1","""event"",""trial"",""time""
""fullscreenenter"",""1"",""3272""
","
","
","""event"",""trial"",""time""
""fullscreenenter"",""1"",""3272""
","
","","","","","","658.7999999523163","images/plane4.png","","","learning","4","4","1","1","plane","vehicles","2","1","","bad","[-6]"
"html-keyboard-response","221","800699","0.0-11.0-2.0-0.16","6132","1","12","Female","approach_avoid_spark_v1","""event"",""trial"",""time""
""fullscreenenter"",""1"",""3272""
","
","
","""event"",""trial"",""time""
""fullscreenenter"",""1"",""3272""
","
","","","","","","null","<div style=""font-size:60px;"">+</div>","null","","fixation","","","","","","","","","","",""
"aa-learning-trial","222","803707","0.0-11.0-2.0-1.16","6132","1","12","Female","approach_avoid_spark_v1","""event"",""trial"",""time""
""fullscreenenter"",""1"",""3272""
","
","
","""event"",""trial"",""time""
""fullscreenenter"",""1"",""3272""
","
","","","","","","722.9000000953674","images/boat1.png","","","learning","2","2","1","1","boat","vehicles","2","1","","neutral","0"
"html-keyboard-response","223","804211","0.0-11.0-2.0-0.17","6132","1","12","Female","approach_avoid_spark_v1","""event"",""trial"",""time""
""fullscreenenter"",""1"",""3272""
","
","
","""event"",""trial"",""time""
""fullscreenenter"",""1"",""3272""
","
","","","","","","null","<div style=""font-size:60px;"">+</div>","null","","fixation","","","","","","","","","","",""
"aa-learning-trial","224","807219","0.0-11.0-2.0-1.17","6132","1","12","Female","approach_avoid_spark_v1","""event"",""trial"",""time""
""fullscreenenter"",""1"",""3272""
","
","
","""event"",""trial"",""time""
""fullscreenenter"",""1"",""3272""
","
","","","","","","451.39999985694885","images/plane6.png","","","learning","-9","-9","1","1","plane","vehicles","2","1","","bad","[-6]"
"html-keyboard-response","225","807737","0.0-11.0-2.0-0.18","6132","1","12","Female","approach_avoid_spark_v1","""event"",""trial"",""time""
""fullscreenenter"",""1"",""3272""
","
","
","""event"",""trial"",""time""
""fullscreenenter"",""1"",""3272""
","
","","","","","","null","<div style=""font-size:60px;"">+</div>","null","","fixation","","","","","","","","","","",""
"aa-learning-trial","226","810748","0.0-11.0-2.0-1.18","6132","1","12","Female","approach_avoid_spark_v1","""event"",""trial"",""time""
""fullscreenenter"",""1"",""3272""
","
","
","""event"",""trial"",""time""
""fullscreenenter"",""1"",""3272""
","
","","","","","","1189","images/plane7.png","","","learning","8","8","1","1","plane","vehicles","2","1","","bad","[-6]"
"html-keyboard-response","227","811252","0.0-11.0-2.0-0.19","6132","1","12","Female","approach_avoid_spark_v1","""event"",""trial"",""time""
""fullscreenenter"",""1"",""3272""
","
","
","""event"",""trial"",""time""
""fullscreenenter"",""1"",""3272""
","
","","","","","","null","<div style=""font-size:60px;"">+</div>","null","","fixation","","","","","","","","","","",""
"aa-learning-trial","228","814260","0.0-11.0-2.0-1.19","6132","1","12","Female","approach_avoid_spark_v1","""event"",""trial"",""time""
""fullscreenenter"",""1"",""3272""
","
","
","""event"",""trial"",""time""
""fullscreenenter"",""1"",""3272""
","
","","","","","","890","images/truck4.png","","","learning","5","5","1","1","truck","vehicles","2","1","","good","[4]"
"html-keyboard-response","229","814763","0.0-11.0-2.0-0.20","6132","1","12","Female","approach_avoid_spark_v1","""event"",""trial"",""time""
""fullscreenenter"",""1"",""3272""
","
","
","""event"",""trial"",""time""
""fullscreenenter"",""1"",""3272""
","
","","","","","","null","<div style=""font-size:60px;"">+</div>","null","","fixation","","","","","","","","","","",""
"aa-learning-trial","230","817772","0.0-11.0-2.0-1.20","6132","1","12","Female","approach_avoid_spark_v1","""event"",""trial"",""time""
""fullscreenenter"",""1"",""3272""
","
","
","""event"",""trial"",""time""
""fullscreenenter"",""1"",""3272""
","
","","","","","","962.2999999523163","images/truck5.png","","","learning","-7","0","0","0","truck","vehicles","2","1","","good","[4]"
"html-keyboard-response","231","818275","0.0-11.0-2.0-0.21","6132","1","12","Female","approach_avoid_spark_v1","""event"",""trial"",""time""
""fullscreenenter"",""1"",""3272""
","
","
","""event"",""trial"",""time""
""fullscreenenter"",""1"",""3272""
","
","","","","","","null","<div style=""font-size:60px;"">+</div>","null","","fixation","","","","","","","","","","",""
"aa-learning-trial","232","821283","0.0-11.0-2.0-1.21","6132","1","12","Female","approach_avoid_spark_v1","""event"",""trial"",""time""
""fullscreenenter"",""1"",""3272""
","
","
","""event"",""trial"",""time""
""fullscreenenter"",""1"",""3272""
","
","","","","","","546.9000000953674","images/plane4.png","","","learning","4","4","1","1","plane","vehicles","2","1","","bad","[-6]"
"html-keyboard-response","233","821787","0.0-11.0-2.0-0.22","6132","1","12","Female","approach_avoid_spark_v1","""event"",""trial"",""time""
""fullscreenenter"",""1"",""3272""
","
","
","""event"",""trial"",""time""
""fullscreenenter"",""1"",""3272""
","
","","","","","","null","<div style=""font-size:60px;"">+</div>","null","","fixation","","","","","","","","","","",""
"aa-learning-trial","234","824795","0.0-11.0-2.0-1.22","6132","1","12","Female","approach_avoid_spark_v1","""event"",""trial"",""time""
""fullscreenenter"",""1"",""3272""
","
","
","""event"",""trial"",""time""
""fullscreenenter"",""1"",""3272""
","
","","","","","","674.6999998092651","images/boat6.png","","","learning","3","0","0","0","boat","vehicles","2","1","","neutral","0"
"html-keyboard-response","235","825298","0.0-11.0-2.0-0.23","6132","1","12","Female","approach_avoid_spark_v1","""event"",""trial"",""time""
""fullscreenenter"",""1"",""3272""
","
","
","""event"",""trial"",""time""
""fullscreenenter"",""1"",""3272""
","
","","","","","","null","<div style=""font-size:60px;"">+</div>","null","","fixation","","","","","","","","","","",""
"aa-learning-trial","236","828307","0.0-11.0-2.0-1.23","6132","1","12","Female","approach_avoid_spark_v1","""event"",""trial"",""time""
""fullscreenenter"",""1"",""3272""
","
","
","""event"",""trial"",""time""
""fullscreenenter"",""1"",""3272""
","
","","","","","","538.7000000476837","images/boat5.png","","","learning","-8","-8","1","1","boat","vehicles","2","1","","neutral","0"
