"trial_type","trial_index","time_elapsed","internal_node_id","subject_id","task_condition","age","gender","task_version","interactions","blur_events","focus_events","fullscreenenter_events","fullscreenexit_events","success","timeout","failed_images","failed_audio","failed_video","rt","stimulus","response","button_pressed","task_part","approach_reward","points","key_press","option_selected","stim_cat","task_block","block_condition","block_number","correct","cat_type","mean_cat_reward"
"pavlovia","0","5","0.0-0.0","8030","2","13","Female","approach_avoid_spark_v1","""event"",""trial"",""time""
""fullscreenenter"",""1"",""15784""
","
","
","""event"",""trial"",""time""
""fullscreenenter"",""1"",""15784""
","
","","","","","","","","","","","","","","","","","","","","",""
"fullscreen","1","16768","0.0-1.0","8030","2","13","Female","approach_avoid_spark_v1","""event"",""trial"",""time""
""fullscreenenter"",""1"",""15784""
","
","
","""event"",""trial"",""time""
""fullscreenenter"",""1"",""15784""
","
","true","","","","","","","","","","","","","","","","","","","",""
"preload","2","76117","0.0-2.0","8030","2","13","Female","approach_avoid_spark_v1","""event"",""trial"",""time""
""fullscreenenter"",""1"",""15784""
","
","
","""event"",""trial"",""time""
""fullscreenenter"",""1"",""15784""
","
","true","false","[]","[]","[]","","","","","","","","","","","","","","","",""
"audio-keyboard-response","3","81925","0.0-3.0","8030","2","13","Female","approach_avoid_spark_v1","""event"",""trial"",""time""
""fullscreenenter"",""1"",""15784""
","
","
","""event"",""trial"",""time""
""fullscreenenter"",""1"",""15784""
","
","","","","","","5333.333333333336","audio/beep_loop.wav"," ","","","","","","","","","","","","",""
"audio-button-response","4","84363","0.0-4.0","8030","2","13","Female","approach_avoid_spark_v1","""event"",""trial"",""time""
""fullscreenenter"",""1"",""15784""
","
","
","""event"",""trial"",""time""
""fullscreenenter"",""1"",""15784""
","
","","","","","","2432","audio/shark.wav","4","","","","","","","","","","","","",""
"audio-button-response","5","87119","0.0-5.0","8030","2","13","Female","approach_avoid_spark_v1","""event"",""trial"",""time""
""fullscreenenter"",""1"",""15784""
","
","
","""event"",""trial"",""time""
""fullscreenenter"",""1"",""15784""
","
","","","","","","1749","audio/turtle.wav","1","","","","","","","","","","","","",""
"preload","6","103497","0.0-6.0","8030","2","13","Female","approach_avoid_spark_v1","""event"",""trial"",""time""
""fullscreenenter"",""1"",""15784""
","
","
","""event"",""trial"",""time""
""fullscreenenter"",""1"",""15784""
","
","true","false","[]","[]","[]","","","","","","","","","","","","","","","",""
"html-keyboard-response","7","106407","0.0-7.0","8030","2","13","Female","approach_avoid_spark_v1","""event"",""trial"",""time""
""fullscreenenter"",""1"",""15784""
","
","
","""event"",""trial"",""time""
""fullscreenenter"",""1"",""15784""
","
","","","","","","2908.5999994277954","Welcome to the experiment. Press any key to begin and to advance the instructions."," ","","","","","","","","","","","","",""
"learning-instructions","8","115188","0.0-8.0-0.0-0.0","8030","2","13","Female","approach_avoid_spark_v1","""event"",""trial"",""time""
""fullscreenenter"",""1"",""15784""
","
","
","""event"",""trial"",""time""
""fullscreenenter"",""1"",""15784""
","
","","","","","","1829.8000001907349","<p> Welcome! Today you are going to play 6 different rounds of a decision-making game. </p><p> Use the mouse to click next to continue. </p>","","0","instructions","","","","","","","","","","",""
"learning-instructions","9","121229","0.0-8.0-0.0-0.1","8030","2","13","Female","approach_avoid_spark_v1","""event"",""trial"",""time""
""fullscreenenter"",""1"",""15784""
","
","
","""event"",""trial"",""time""
""fullscreenenter"",""1"",""15784""
","
","","","","","","3305.1000003814697","<p> You will start with a practice round to learn the rules. </p>","","0","instructions","","","","","","","","","","",""
"learning-instructions","10","126605","0.0-8.0-0.0-0.2","8030","2","13","Female","approach_avoid_spark_v1","""event"",""trial"",""time""
""fullscreenenter"",""1"",""15784""
","
","
","""event"",""trial"",""time""
""fullscreenenter"",""1"",""15784""
","
","","","","","","1918.8999996185303","<p> Your goal in this round is to give out sports equipment to kids. </p></div>","","0","instructions","","","","","","","","","","",""
"learning-instructions","11","135412","0.0-8.0-0.0-0.3","8030","2","13","Female","approach_avoid_spark_v1","""event"",""trial"",""time""
""fullscreenenter"",""1"",""15784""
","
","
","""event"",""trial"",""time""
""fullscreenenter"",""1"",""15784""
","
","","","","","","1253.3999996185303","<p> The kids only like some of the equipment.  </p><p> On each turn, you will see a piece of sports equipment.   </p><p> You need to decide whether to give it to the kids or not.  </p>","","0","instructions","","","","","","","","","","",""
"learning-instructions","12","141358","0.0-8.0-0.0-0.4","8030","2","13","Female","approach_avoid_spark_v1","""event"",""trial"",""time""
""fullscreenenter"",""1"",""15784""
","
","
","""event"",""trial"",""time""
""fullscreenenter"",""1"",""15784""
","
","","","","","","1183.5","<p> You can give them the equipment by pressing 1 and choose not to give it to them by pressing 0. </p><br><div class=""choice-instructions-grid""> <div class=""choice-option""><img src=""images/approach.png"" class=""choice-option-img"" stage=""instructions"" position=""0"" ><div class=""choice-option-text""> Press ""1."" </div></div><div class=""choice-option""><img src=""images/avoid.png"" class=""choice-option-img"" stage=""instructions"" position=""1"" ><div class=""choice-option-text""> Press ""0."" </div></div>","","0","instructions","","","","","","","","","","",""
"learning-instructions","13","150012","0.0-8.0-0.0-0.5","8030","2","13","Female","approach_avoid_spark_v1","""event"",""trial"",""time""
""fullscreenenter"",""1"",""15784""
","
","
","""event"",""trial"",""time""
""fullscreenenter"",""1"",""15784""
","
","","","","","","1262.1000003814697","<p> If you give them a piece of equipment they like, they will be happy! </p><p> But if you give them a piece of equipment they do not like, they will be sad. </p>","","0","instructions","","","","","","","","","","",""
"learning-instructions","14","161641","0.0-8.0-0.0-0.6","8030","2","13","Female","approach_avoid_spark_v1","""event"",""trial"",""time""
""fullscreenenter"",""1"",""15784""
","
","
","""event"",""trial"",""time""
""fullscreenenter"",""1"",""15784""
","
","","","","","","1114.3000001907349","<p> You will earn points based on how you make kids feel. </p><p> If you make them happy, you will WIN anywhere from 1 - 9 points, </p><p> but if you make them sad, you will LOSE anywhere from 1 - 9 points. </p>","","0","instructions","","","","","","","","","","",""
"learning-instructions","15","171595","0.0-8.0-0.0-0.7","8030","2","13","Female","approach_avoid_spark_v1","""event"",""trial"",""time""
""fullscreenenter"",""1"",""15784""
","
","
","""event"",""trial"",""time""
""fullscreenenter"",""1"",""15784""
","
","","","","","","402","<p> You will see how many points you won or lost in the center of the screen. </p><p> Here is what you would see if you won 6 points: </p><p style=""color:green;font-size:50px;font-weight:bolder"">6</p><p style=""color:green"">The text is GREEN because you WON points.</p>","","0","instructions","","","","","","","","","","",""
"learning-instructions","16","178319","0.0-8.0-0.0-0.8","8030","2","13","Female","approach_avoid_spark_v1","""event"",""trial"",""time""
""fullscreenenter"",""1"",""15784""
","
","
","""event"",""trial"",""time""
""fullscreenenter"",""1"",""15784""
","
","","","","","","1216.1999998092651","<p> And here is what you would see if you lost 4 points: </p><p style=""color:red;font-size:50px;font-weight:bolder"">-4</p><p style=""color:red"">The text is RED because you LOST points. </p>","","0","instructions","","","","","","","","","","",""
"learning-instructions","17","194436","0.0-8.0-0.0-0.9","8030","2","13","Female","approach_avoid_spark_v1","""event"",""trial"",""time""
""fullscreenenter"",""1"",""15784""
","
","
","""event"",""trial"",""time""
""fullscreenenter"",""1"",""15784""
","
","","","","","","1397.1999998092651","<p> Some of the equipment will make the kids VERY happy or sad. </p><p> These pieces of equipment will make you win or lose LOTS of points. </p><p> Other pieces of equipment will only make the kids a little happy or sad. </p><p> These pieces of equipment will make you win or lose small amounts of points. </p>","","0","instructions","","","","","","","","","","",""
"learning-instructions","18","205966","0.0-8.0-0.0-0.10","8030","2","13","Female","approach_avoid_spark_v1","""event"",""trial"",""time""
""fullscreenenter"",""1"",""15784""
","
","
","""event"",""trial"",""time""
""fullscreenenter"",""1"",""15784""
","
","","","","","","895.3000001907349","<p> If you choose not to give them the equipment, you will not win or lose any points. </p><p>  However, in the center of the screen, you will see the number of points you WOULD HAVE won or lost if you had given them the equipment. </p>","","0","instructions","","","","","","","","","","",""
"learning-instructions","19","228696","0.0-8.0-0.0-0.11","8030","2","13","Female","approach_avoid_spark_v1","""event"",""trial"",""time""
""fullscreenenter"",""1"",""15784""
","
","
","""event"",""trial"",""time""
""fullscreenenter"",""1"",""15784""
","
","","","","","","1204.4000005722046","<p> Here is what you might see if you did not give the equipment to the kids but it would have made them happy: </p><p style=""color:grey; font-size:50px; display: inline-block; border-spacing: 15px; border-width:3px; border-style:solid; border-color:red"">  &nbsp; 7 &nbsp; </p><p> Remember, in this case, you would not win or lose ANY points because you did not give them the equipment.  </p><p style=""color:grey"">The text is GREY because you earned ZERO points. </p><p style=""color:red"">However, choosing to give the kids the equipment would have made you win points. The box around the text is RED because you chose the worse option. </p>","","0","instructions","","","","","","","","","","",""
"learning-instructions","20","250636","0.0-8.0-0.0-0.12","8030","2","13","Female","approach_avoid_spark_v1","""event"",""trial"",""time""
""fullscreenenter"",""1"",""15784""
","
","
","""event"",""trial"",""time""
""fullscreenenter"",""1"",""15784""
","
","","","","","","872.3999996185303","<p> Here is what you might see if you did not give the equipment to the kids but it would have made them sad: </p><p style=""color:grey;font-size:50px; display: inline-block; border-spacing: 15px; border-width:3px; border-style:solid; border-color:green"">  &nbsp; -8 &nbsp; </p><p> Remember, in this case, you would not win or lose ANY points because you did not give them the equipment.  </p><p style=""color:grey"">The text is GREY because you earned ZERO points. </p><p  style=""color:green""> Choosing to give the kids the equipment would have made you lose points. The box around the text is GREEN because you chose the better option.</p>","","0","instructions","","","","","","","","","","",""
"learning-instructions","21","269265","0.0-8.0-0.0-0.13","8030","2","13","Female","approach_avoid_spark_v1","""event"",""trial"",""time""
""fullscreenenter"",""1"",""15784""
","
","
","""event"",""trial"",""time""
""fullscreenenter"",""1"",""15784""
","
","","","","","","9004.699999809265","<p> You will have 3 seconds to make each choice. Try to respond before time runs out! </p><p> You will lose 5 points each time you do not make a response. </p>","","0","instructions","","","","","","","","","","",""
"learning-instructions","22","277702","0.0-8.0-0.0-0.14","8030","2","13","Female","approach_avoid_spark_v1","""event"",""trial"",""time""
""fullscreenenter"",""1"",""15784""
","
","
","""event"",""trial"",""time""
""fullscreenenter"",""1"",""15784""
","
","","","","","","3020.5999994277954","<p> This is just a practice round, but in the real game, your bonus payment will depend on your total number of points.","","0","instructions","","","","","","","","","","",""
"learning-instructions","23","284925","0.0-8.0-0.0-0.15","8030","2","13","Female","approach_avoid_spark_v1","""event"",""trial"",""time""
""fullscreenenter"",""1"",""15784""
","
","
","""event"",""trial"",""time""
""fullscreenenter"",""1"",""15784""
","
","","","","","","1454","<p> Remember, you can give them the equipment by pressing 1 and choose not to give it to them by pressing 0. </p><br><div class=""choice-instructions-grid""> <div class=""choice-option""><img src=""images/approach.png"" class=""choice-option-img"" stage=""instructions"" position=""0"" ><div class=""choice-option-text""> Press ""1."" </div></div><div class=""choice-option""><img src=""images/avoid.png"" class=""choice-option-img"" stage=""instructions"" position=""1"" ><div class=""choice-option-text""> Press ""0."" </div></div>","","0","instructions","","","","","","","","","","",""
"html-button-response","24","286845","0.0-8.0-1.0","8030","2","13","Female","approach_avoid_spark_v1","""event"",""trial"",""time""
""fullscreenenter"",""1"",""15784""
","
","
","""event"",""trial"",""time""
""fullscreenenter"",""1"",""15784""
","
","","","","","","1803.8999996185303","<p> Ready to practice? </p>","0","","","","","","","","","","","","",""
"html-keyboard-response","25","287450","0.0-8.0-2.0-0.0","8030","2","13","Female","approach_avoid_spark_v1","""event"",""trial"",""time""
""fullscreenenter"",""1"",""15784""
","
","
","""event"",""trial"",""time""
""fullscreenenter"",""1"",""15784""
","
","","","","","","null","<div style=""font-size:60px;"">+</div>","null","","fixation","","","","","","","","","","",""
"aa-learning-trial","26","290454","0.0-8.0-2.0-1.0","8030","2","13","Female","approach_avoid_spark_v1","""event"",""trial"",""time""
""fullscreenenter"",""1"",""15784""
","
","
","""event"",""trial"",""time""
""fullscreenenter"",""1"",""15784""
","
","","","","","","null","images/ball1.png","","","learning","-5","-5","","null","practice","practice","practice","-1","","",""
"html-keyboard-response","27","290971","0.0-8.0-2.0-0.1","8030","2","13","Female","approach_avoid_spark_v1","""event"",""trial"",""time""
""fullscreenenter"",""1"",""15784""
","
","
","""event"",""trial"",""time""
""fullscreenenter"",""1"",""15784""
","
","","","","","","null","<div style=""font-size:60px;"">+</div>","null","","fixation","","","","","","","","","","",""
"aa-learning-trial","28","293986","0.0-8.0-2.0-1.1","8030","2","13","Female","approach_avoid_spark_v1","""event"",""trial"",""time""
""fullscreenenter"",""1"",""15784""
","
","
","""event"",""trial"",""time""
""fullscreenenter"",""1"",""15784""
","
","","","","","","null","images/racket3.png","","","learning","2","-5","","null","practice","practice","practice","-1","","",""
"html-keyboard-response","29","294501","0.0-8.0-2.0-0.2","8030","2","13","Female","approach_avoid_spark_v1","""event"",""trial"",""time""
""fullscreenenter"",""1"",""15784""
","
","
","""event"",""trial"",""time""
""fullscreenenter"",""1"",""15784""
","
","","","","","","null","<div style=""font-size:60px;"">+</div>","null","","fixation","","","","","","","","","","",""
"aa-learning-trial","30","297510","0.0-8.0-2.0-1.2","8030","2","13","Female","approach_avoid_spark_v1","""event"",""trial"",""time""
""fullscreenenter"",""1"",""15784""
","
","
","""event"",""trial"",""time""
""fullscreenenter"",""1"",""15784""
","
","","","","","","null","images/racket1.png","","","learning","-3","-5","","null","practice","practice","practice","-1","","",""
"html-keyboard-response","31","298020","0.0-8.0-2.0-0.3","8030","2","13","Female","approach_avoid_spark_v1","""event"",""trial"",""time""
""fullscreenenter"",""1"",""15784""
","
","
","""event"",""trial"",""time""
""fullscreenenter"",""1"",""15784""
","
","","","","","","null","<div style=""font-size:60px;"">+</div>","null","","fixation","","","","","","","","","","",""
"aa-learning-trial","32","301029","0.0-8.0-2.0-1.3","8030","2","13","Female","approach_avoid_spark_v1","""event"",""trial"",""time""
""fullscreenenter"",""1"",""15784""
","
","
","""event"",""trial"",""time""
""fullscreenenter"",""1"",""15784""
","
","","","","","","null","images/racket1.png","","","learning","-2","-5","","null","practice","practice","practice","-1","","",""
"html-keyboard-response","33","301530","0.0-8.0-2.0-0.4","8030","2","13","Female","approach_avoid_spark_v1","""event"",""trial"",""time""
""fullscreenenter"",""1"",""15784""
","
","
","""event"",""trial"",""time""
""fullscreenenter"",""1"",""15784""
","
","","","","","","null","<div style=""font-size:60px;"">+</div>","null","","fixation","","","","","","","","","","",""
"aa-learning-trial","34","304541","0.0-8.0-2.0-1.4","8030","2","13","Female","approach_avoid_spark_v1","""event"",""trial"",""time""
""fullscreenenter"",""1"",""15784""
","
","
","""event"",""trial"",""time""
""fullscreenenter"",""1"",""15784""
","
","","","","","","null","images/ball1.png","","","learning","7","-5","","null","practice","practice","practice","-1","","",""
"html-keyboard-response","35","305048","0.0-8.0-2.0-0.5","8030","2","13","Female","approach_avoid_spark_v1","""event"",""trial"",""time""
""fullscreenenter"",""1"",""15784""
","
","
","""event"",""trial"",""time""
""fullscreenenter"",""1"",""15784""
","
","","","","","","null","<div style=""font-size:60px;"">+</div>","null","","fixation","","","","","","","","","","",""
"aa-learning-trial","36","308050","0.0-8.0-2.0-1.5","8030","2","13","Female","approach_avoid_spark_v1","""event"",""trial"",""time""
""fullscreenenter"",""1"",""15784""
","
","
","""event"",""trial"",""time""
""fullscreenenter"",""1"",""15784""
","
","","","","","","null","images/racket1.png","","","learning","6","-5","","null","practice","practice","practice","-1","","",""
"html-keyboard-response","37","308552","0.0-8.0-2.0-0.6","8030","2","13","Female","approach_avoid_spark_v1","""event"",""trial"",""time""
""fullscreenenter"",""1"",""15784""
","
","
","""event"",""trial"",""time""
""fullscreenenter"",""1"",""15784""
","
","","","","","","null","<div style=""font-size:60px;"">+</div>","null","","fixation","","","","","","","","","","",""
"aa-learning-trial","38","311561","0.0-8.0-2.0-1.6","8030","2","13","Female","approach_avoid_spark_v1","""event"",""trial"",""time""
""fullscreenenter"",""1"",""15784""
","
","
","""event"",""trial"",""time""
""fullscreenenter"",""1"",""15784""
","
","","","","","","null","images/racket3.png","","","learning","7","-5","","null","practice","practice","practice","-1","","",""
"html-keyboard-response","39","312065","0.0-8.0-2.0-0.7","8030","2","13","Female","approach_avoid_spark_v1","""event"",""trial"",""time""
""fullscreenenter"",""1"",""15784""
","
","
","""event"",""trial"",""time""
""fullscreenenter"",""1"",""15784""
","
","","","","","","null","<div style=""font-size:60px;"">+</div>","null","","fixation","","","","","","","","","","",""
"aa-learning-trial","40","315067","0.0-8.0-2.0-1.7","8030","2","13","Female","approach_avoid_spark_v1","""event"",""trial"",""time""
""fullscreenenter"",""1"",""15784""
","
","
","""event"",""trial"",""time""
""fullscreenenter"",""1"",""15784""
","
","","","","","","null","images/ball2.png","","","learning","-8","-5","","null","practice","practice","practice","-1","","",""
"html-keyboard-response","41","315569","0.0-8.0-2.0-0.8","8030","2","13","Female","approach_avoid_spark_v1","""event"",""trial"",""time""
""fullscreenenter"",""1"",""15784""
","
","
","""event"",""trial"",""time""
""fullscreenenter"",""1"",""15784""
","
","","","","","","null","<div style=""font-size:60px;"">+</div>","null","","fixation","","","","","","","","","","",""
"aa-learning-trial","42","318571","0.0-8.0-2.0-1.8","8030","2","13","Female","approach_avoid_spark_v1","""event"",""trial"",""time""
""fullscreenenter"",""1"",""15784""
","
","
","""event"",""trial"",""time""
""fullscreenenter"",""1"",""15784""
","
","","","","","","null","images/ball2.png","","","learning","-6","-5","","null","practice","practice","practice","-1","","",""
"html-keyboard-response","43","319078","0.0-8.0-2.0-0.9","8030","2","13","Female","approach_avoid_spark_v1","""event"",""trial"",""time""
""fullscreenenter"",""1"",""15784""
","
","
","""event"",""trial"",""time""
""fullscreenenter"",""1"",""15784""
","
","","","","","","null","<div style=""font-size:60px;"">+</div>","null","","fixation","","","","","","","","","","",""
"aa-learning-trial","44","322080","0.0-8.0-2.0-1.9","8030","2","13","Female","approach_avoid_spark_v1","""event"",""trial"",""time""
""fullscreenenter"",""1"",""15784""
","
","
","""event"",""trial"",""time""
""fullscreenenter"",""1"",""15784""
","
","","","","","","null","images/ball4.png","","","learning","-8","-5","","null","practice","practice","practice","-1","","",""
"html-keyboard-response","45","322582","0.0-8.0-2.0-0.10","8030","2","13","Female","approach_avoid_spark_v1","""event"",""trial"",""time""
""fullscreenenter"",""1"",""15784""
","
","
","""event"",""trial"",""time""
""fullscreenenter"",""1"",""15784""
","
","","","","","","null","<div style=""font-size:60px;"">+</div>","null","","fixation","","","","","","","","","","",""
"aa-learning-trial","46","325586","0.0-8.0-2.0-1.10","8030","2","13","Female","approach_avoid_spark_v1","""event"",""trial"",""time""
""fullscreenenter"",""1"",""15784""
","
","
","""event"",""trial"",""time""
""fullscreenenter"",""1"",""15784""
","
","","","","","","null","images/racket3.png","","","learning","-8","-5","","null","practice","practice","practice","-1","","",""
"html-keyboard-response","47","326087","0.0-8.0-2.0-0.11","8030","2","13","Female","approach_avoid_spark_v1","""event"",""trial"",""time""
""fullscreenenter"",""1"",""15784""
","
","
","""event"",""trial"",""time""
""fullscreenenter"",""1"",""15784""
","
","","","","","","null","<div style=""font-size:60px;"">+</div>","null","","fixation","","","","","","","","","","",""
"aa-learning-trial","48","329090","0.0-8.0-2.0-1.11","8030","2","13","Female","approach_avoid_spark_v1","""event"",""trial"",""time""
""fullscreenenter"",""1"",""15784""
","
","
","""event"",""trial"",""time""
""fullscreenenter"",""1"",""15784""
","
","","","","","","null","images/ball3.png","","","learning","3","-5","","null","practice","practice","practice","-1","","",""
"html-button-response","49","338459","0.0-8.0-3.0","8030","2","13","Female","approach_avoid_spark_v1","""event"",""trial"",""time""
""fullscreenenter"",""1"",""15784""
","
","
","""event"",""trial"",""time""
""fullscreenenter"",""1"",""15784""
","
","","","","","","9367.300000190735","<p> You earned -60 points in the practice round! </p>","0","","break","","","","","","","","","","",""
"learning-instructions","50","347779","0.0-8.0-4.0-0.0","8030","2","13","Female","approach_avoid_spark_v1","""event"",""trial"",""time""
""fullscreenenter"",""1"",""15784""
","
","
","""event"",""trial"",""time""
""fullscreenenter"",""1"",""15784""
","
","","","","","","2876.3999996185303","<p> It's almost time to start the real game. </p><p> Before you start, we're going to ask you a few questions about how the game works. </p>","","0","instructions","","","","","","","","","","",""
"preload","51","352189","0.0-8.0-5.0","8030","2","13","Female","approach_avoid_spark_v1","""event"",""trial"",""time""
""fullscreenenter"",""1"",""15784""
","
","
","""event"",""trial"",""time""
""fullscreenenter"",""1"",""15784""
","
","true","false","[]","[]","[]","","","","","","","","","","","","","","","",""
"comp-q","52","358819","0.0-8.0-6.0-0.0","8030","2","13","Female","approach_avoid_spark_v1","""event"",""trial"",""time""
""fullscreenenter"",""1"",""15784""
","
","
","""event"",""trial"",""time""
""fullscreenenter"",""1"",""15784""
","
","","","","","","1628.5","<p> <b> True or False? </b> </p><p> If you see a number in GREY, that means you earned that many points. </p>","","1","comp_question","","","","","","","","","true","",""
"comp-q","53","375115","0.0-8.0-6.0-1.0","8030","2","13","Female","approach_avoid_spark_v1","""event"",""trial"",""time""
""fullscreenenter"",""1"",""15784""
","
","
","""event"",""trial"",""time""
""fullscreenenter"",""1"",""15784""
","
","","","","","","7929.299999237061","<p><b> That's right! </b> If you see a grey number, it means you earned ZERO points. <br> The grey numbers show the points you WOULD HAVE earned if you had made the other choice. </p>","","0","comp_answer","","","","","","","","","","",""
"comp-q","54","380961","0.0-8.0-7.0-0.0","8030","2","13","Female","approach_avoid_spark_v1","""event"",""trial"",""time""
""fullscreenenter"",""1"",""15784""
","
","
","""event"",""trial"",""time""
""fullscreenenter"",""1"",""15784""
","
","","","","","","1157.6000003814697","<p> <b> True or False? </b> </p><p> You will have as much time as you want to make each choice. </p>","","1","comp_question","","","","","","","","","true","",""
"comp-q","55","389082","0.0-8.0-7.0-1.0","8030","2","13","Female","approach_avoid_spark_v1","""event"",""trial"",""time""
""fullscreenenter"",""1"",""15784""
","
","
","""event"",""trial"",""time""
""fullscreenenter"",""1"",""15784""
","
","","","","","","4083.5","<p> <b> That's right! </b> You will only have 3 seconds to make each choice. </p>","","0","comp_answer","","","","","","","","","","",""
"comp-q","56","395808","0.0-8.0-8.0-0.0","8030","2","13","Female","approach_avoid_spark_v1","""event"",""trial"",""time""
""fullscreenenter"",""1"",""15784""
","
","
","""event"",""trial"",""time""
""fullscreenenter"",""1"",""15784""
","
","","","","","","2073.800000190735","<p> <b> True or False? </b> </p><p> You should use the '1' and '0' keys to make your choices. </p>","","0","comp_question","","","","","","","","","true","",""
"comp-q","57","402315","0.0-8.0-8.0-1.0","8030","2","13","Female","approach_avoid_spark_v1","""event"",""trial"",""time""
""fullscreenenter"",""1"",""15784""
","
","
","""event"",""trial"",""time""
""fullscreenenter"",""1"",""15784""
","
","","","","","","1893.1000003814697","<p> <b> That's right! </b> You should use the '1' and '0' keys to make each choice. </p>","","0","comp_answer","","","","","","","","","","",""
"learning-instructions","58","413371","0.0-8.0-9.0-0.0","8030","2","13","Female","approach_avoid_spark_v1","""event"",""trial"",""time""
""fullscreenenter"",""1"",""15784""
","
","
","""event"",""trial"",""time""
""fullscreenenter"",""1"",""15784""
","
","","","","","","4789","<p> It's now time to start the real game. </p>Do your best, because the points you earn in the next rounds will influence your bonus payment. </p>","","0","instructions","","","","","","","","","","",""
"preload","59","413497","0.0-9.0-0.0","8030","2","13","Female","approach_avoid_spark_v1","""event"",""trial"",""time""
""fullscreenenter"",""1"",""15784""
","
","
","""event"",""trial"",""time""
""fullscreenenter"",""1"",""15784""
","
","true","false","[]","[]","[]","","","","","","","","","","","","","","","",""
"learning-instructions","60","419862","0.0-9.0-1.0-0.0","8030","2","13","Female","approach_avoid_spark_v1","""event"",""trial"",""time""
""fullscreenenter"",""1"",""15784""
","
","
","""event"",""trial"",""time""
""fullscreenenter"",""1"",""15784""
","
","","","","","","2416","<p> Your goal in this round is to take care of lots of animals. </p></div>","","0","instructions","","","","","","","","","","",""
"learning-instructions","61","431023","0.0-9.0-1.0-0.1","8030","2","13","Female","approach_avoid_spark_v1","""event"",""trial"",""time""
""fullscreenenter"",""1"",""15784""
","
","
","""event"",""trial"",""time""
""fullscreenenter"",""1"",""15784""
","
","","","","","","1459.6000003814697","<p> Some animals want to be pet, while other animals want to be left alone.  </p><p> On each turn, you will see an animal.   </p><p> You need to decide whether to pet it or not.  </p>","","0","instructions","","","","","","","","","","",""
"learning-instructions","62","438574","0.0-9.0-1.0-0.2","8030","2","13","Female","approach_avoid_spark_v1","""event"",""trial"",""time""
""fullscreenenter"",""1"",""15784""
","
","
","""event"",""trial"",""time""
""fullscreenenter"",""1"",""15784""
","
","","","","","","2258","<p> You can pet the animal by pressing 1 and leave the animal alone by pressing 0. </p><br><div class=""choice-instructions-grid""> <div class=""choice-option""><img src=""images/approach.png"" class=""choice-option-img"" stage=""instructions"" position=""0"" ><div class=""choice-option-text""> Press ""1."" </div></div><div class=""choice-option""><img src=""images/avoid.png"" class=""choice-option-img"" stage=""instructions"" position=""1"" ><div class=""choice-option-text""> Press ""0."" </div></div>","","0","instructions","","","","","","","","","","",""
"learning-instructions","63","449745","0.0-9.0-1.0-0.3","8030","2","13","Female","approach_avoid_spark_v1","""event"",""trial"",""time""
""fullscreenenter"",""1"",""15784""
","
","
","""event"",""trial"",""time""
""fullscreenenter"",""1"",""15784""
","
","","","","","","1600.1999998092651","<p> If you pet an animal that wants to be pet, you will make it feel happy! </p><p> But if you pet an animal that wants to be left alone, you will make it feel angry. </p>","","0","instructions","","","","","","","","","","",""
"learning-instructions","64","464565","0.0-9.0-1.0-0.4","8030","2","13","Female","approach_avoid_spark_v1","""event"",""trial"",""time""
""fullscreenenter"",""1"",""15784""
","
","
","""event"",""trial"",""time""
""fullscreenenter"",""1"",""15784""
","
","","","","","","1262.9000005722046","<p> You will earn points based on how you made the animal feel. </p><p> If you made it feel happy, you will WIN anywhere from 1 - 9 points, </p><p> but if you made it feel angry, you will LOSE anywhere from 1 - 9 points. </p>","","0","instructions","","","","","","","","","","",""
"learning-instructions","65","473666","0.0-9.0-1.0-0.5","8030","2","13","Female","approach_avoid_spark_v1","""event"",""trial"",""time""
""fullscreenenter"",""1"",""15784""
","
","
","""event"",""trial"",""time""
""fullscreenenter"",""1"",""15784""
","
","","","","","","933.5999994277954","<p> You will see how many points you won or lost in the center of the screen. </p><p> Here is what you would see if you won 5 points: </p><p style=""color:green;font-size:50px;font-weight:bolder"">5</p>","","0","instructions","","","","","","","","","","",""
"learning-instructions","66","477767","0.0-9.0-1.0-0.6","8030","2","13","Female","approach_avoid_spark_v1","""event"",""trial"",""time""
""fullscreenenter"",""1"",""15784""
","
","
","""event"",""trial"",""time""
""fullscreenenter"",""1"",""15784""
","
","","","","","","416.1000003814697","<p> And here is what you would see if you lost 3 points: </p><p style=""color:red;font-size:50px;font-weight:bolder"">-3</p>","","0","instructions","","","","","","","","","","",""
"learning-instructions","67","492451","0.0-9.0-1.0-0.7","8030","2","13","Female","approach_avoid_spark_v1","""event"",""trial"",""time""
""fullscreenenter"",""1"",""15784""
","
","
","""event"",""trial"",""time""
""fullscreenenter"",""1"",""15784""
","
","","","","","","423.1000003814697","<p> Some animals will become very happy or very angry. </p><p> These animals will make you win or lose LOTS of points. </p><p> Other animals have less strong feelings. </p><p> These animals will make you win or lose small amounts of points. </p>","","0","instructions","","","","","","","","","","",""
"learning-instructions","68","507922","0.0-9.0-1.0-0.8","8030","2","13","Female","approach_avoid_spark_v1","""event"",""trial"",""time""
""fullscreenenter"",""1"",""15784""
","
","
","""event"",""trial"",""time""
""fullscreenenter"",""1"",""15784""
","
","","","","","","4182.400000572205","<p> If you choose to leave the animal alone, you will not win or lose any points. </p><p>  However, in the center of the screen, you will see the number of points you WOULD HAVE won or lost if you had pet the animal. </p>","","0","instructions","","","","","","","","","","",""
"learning-instructions","69","520729","0.0-9.0-1.0-0.9","8030","2","13","Female","approach_avoid_spark_v1","""event"",""trial"",""time""
""fullscreenenter"",""1"",""15784""
","
","
","""event"",""trial"",""time""
""fullscreenenter"",""1"",""15784""
","
","","","","","","947","<p> Here is what you might see if you did not pet the animal but the animal wanted to be pet: </p><p style=""color:grey; font-size:50px; display: inline-block; border-spacing: 15px; border-width:3px; border-style:solid; border-color:red"">  &nbsp; 6 &nbsp; </p><p> Remember, in this case, you would not win or lose ANY points because you did not pet the animal.  </p>","","0","instructions","","","","","","","","","","",""
"learning-instructions","70","533900","0.0-9.0-1.0-0.10","8030","2","13","Female","approach_avoid_spark_v1","""event"",""trial"",""time""
""fullscreenenter"",""1"",""15784""
","
","
","""event"",""trial"",""time""
""fullscreenenter"",""1"",""15784""
","
","","","","","","5903.199999809265","<p> Try to make the best choice for each animal because </p><p> at the end of the game, you will earn bonus money based on how many points you earned. </p>","","0","instructions","","","","","","","","","","",""
"learning-instructions","71","543416","0.0-9.0-1.0-0.11","8030","2","13","Female","approach_avoid_spark_v1","""event"",""trial"",""time""
""fullscreenenter"",""1"",""15784""
","
","
","""event"",""trial"",""time""
""fullscreenenter"",""1"",""15784""
","
","","","","","","1329.0999994277954","<p> You will have 3 seconds to make each choice. Try to respond before time runs out! </p><p> You will lose 5 points each time you do not make a response. </p>","","0","instructions","","","","","","","","","","",""
"html-keyboard-response","72","544036","0.0-9.0-2.0-0.0","8030","2","13","Female","approach_avoid_spark_v1","""event"",""trial"",""time""
""fullscreenenter"",""1"",""15784""
","
","
","""event"",""trial"",""time""
""fullscreenenter"",""1"",""15784""
","
","","","","","","null","<div style=""font-size:60px;"">+</div>","null","","fixation","","","","","","","","","","",""
"aa-learning-trial","73","547045","0.0-9.0-2.0-1.0","8030","2","13","Female","approach_avoid_spark_v1","""event"",""trial"",""time""
""fullscreenenter"",""1"",""15784""
","
","
","""event"",""trial"",""time""
""fullscreenenter"",""1"",""15784""
","
","","","","","","null","images/dog4.png","","","learning","-1","-5","","null","dog","pets","2","0","","neutral","0"
"html-keyboard-response","74","547550","0.0-9.0-2.0-0.1","8030","2","13","Female","approach_avoid_spark_v1","""event"",""trial"",""time""
""fullscreenenter"",""1"",""15784""
","
","
","""event"",""trial"",""time""
""fullscreenenter"",""1"",""15784""
","
","","","","","","null","<div style=""font-size:60px;"">+</div>","null","","fixation","","","","","","","","","","",""
"aa-learning-trial","75","550555","0.0-9.0-2.0-1.1","8030","2","13","Female","approach_avoid_spark_v1","""event"",""trial"",""time""
""fullscreenenter"",""1"",""15784""
","
","
","""event"",""trial"",""time""
""fullscreenenter"",""1"",""15784""
","
","","","","","","null","images/cat4.png","","","learning","7","-5","","null","cat","pets","2","0","","bad","[-4]"
"html-keyboard-response","76","551065","0.0-9.0-2.0-0.2","8030","2","13","Female","approach_avoid_spark_v1","""event"",""trial"",""time""
""fullscreenenter"",""1"",""15784""
","
","
","""event"",""trial"",""time""
""fullscreenenter"",""1"",""15784""
","
","","","","","","null","<div style=""font-size:60px;"">+</div>","null","","fixation","","","","","","","","","","",""
"aa-learning-trial","77","554070","0.0-9.0-2.0-1.2","8030","2","13","Female","approach_avoid_spark_v1","""event"",""trial"",""time""
""fullscreenenter"",""1"",""15784""
","
","
","""event"",""trial"",""time""
""fullscreenenter"",""1"",""15784""
","
","","","","","","null","images/cat7.png","","","learning","-7","-5","","null","cat","pets","2","0","","bad","[-4]"
"html-keyboard-response","78","554586","0.0-9.0-2.0-0.3","8030","2","13","Female","approach_avoid_spark_v1","""event"",""trial"",""time""
""fullscreenenter"",""1"",""15784""
","
","
","""event"",""trial"",""time""
""fullscreenenter"",""1"",""15784""
","
","","","","","","null","<div style=""font-size:60px;"">+</div>","null","","fixation","","","","","","","","","","",""
"aa-learning-trial","79","557604","0.0-9.0-2.0-1.3","8030","2","13","Female","approach_avoid_spark_v1","""event"",""trial"",""time""
""fullscreenenter"",""1"",""15784""
","
","
","""event"",""trial"",""time""
""fullscreenenter"",""1"",""15784""
","
","","","","","","null","images/rabbit6.png","","","learning","6","-5","","null","rabbit","pets","2","0","","good","[6]"
"html-keyboard-response","80","558109","0.0-9.0-2.0-0.4","8030","2","13","Female","approach_avoid_spark_v1","""event"",""trial"",""time""
""fullscreenenter"",""1"",""15784""
","
","
","""event"",""trial"",""time""
""fullscreenenter"",""1"",""15784""
","
","","","","","","null","<div style=""font-size:60px;"">+</div>","null","","fixation","","","","","","","","","","",""
"aa-learning-trial","81","561124","0.0-9.0-2.0-1.4","8030","2","13","Female","approach_avoid_spark_v1","""event"",""trial"",""time""
""fullscreenenter"",""1"",""15784""
","
","
","""event"",""trial"",""time""
""fullscreenenter"",""1"",""15784""
","
","","","","","","null","images/cat5.png","","","learning","-3","-5","","null","cat","pets","2","0","","bad","[-4]"
"html-keyboard-response","82","561634","0.0-9.0-2.0-0.5","8030","2","13","Female","approach_avoid_spark_v1","""event"",""trial"",""time""
""fullscreenenter"",""1"",""15784""
","
","
","""event"",""trial"",""time""
""fullscreenenter"",""1"",""15784""
","
","","","","","","null","<div style=""font-size:60px;"">+</div>","null","","fixation","","","","","","","","","","",""
"aa-learning-trial","83","564646","0.0-9.0-2.0-1.5","8030","2","13","Female","approach_avoid_spark_v1","""event"",""trial"",""time""
""fullscreenenter"",""1"",""15784""
","
","
","""event"",""trial"",""time""
""fullscreenenter"",""1"",""15784""
","
","","","","","","null","images/rabbit7.png","","","learning","-9","-5","","null","rabbit","pets","2","0","","good","[6]"
"html-keyboard-response","84","565148","0.0-9.0-2.0-0.6","8030","2","13","Female","approach_avoid_spark_v1","""event"",""trial"",""time""
""fullscreenenter"",""1"",""15784""
","
","
","""event"",""trial"",""time""
""fullscreenenter"",""1"",""15784""
","
","","","","","","null","<div style=""font-size:60px;"">+</div>","null","","fixation","","","","","","","","","","",""
"aa-learning-trial","85","568163","0.0-9.0-2.0-1.6","8030","2","13","Female","approach_avoid_spark_v1","""event"",""trial"",""time""
""fullscreenenter"",""1"",""15784""
","
","
","""event"",""trial"",""time""
""fullscreenenter"",""1"",""15784""
","
","","","","","","null","images/cat7.png","","","learning","-7","-5","","null","cat","pets","2","0","","bad","[-4]"
"html-keyboard-response","86","568664","0.0-9.0-2.0-0.7","8030","2","13","Female","approach_avoid_spark_v1","""event"",""trial"",""time""
""fullscreenenter"",""1"",""15784""
","
","
","""event"",""trial"",""time""
""fullscreenenter"",""1"",""15784""
","
","","","","","","null","<div style=""font-size:60px;"">+</div>","null","","fixation","","","","","","","","","","",""
"aa-learning-trial","87","571681","0.0-9.0-2.0-1.7","8030","2","13","Female","approach_avoid_spark_v1","""event"",""trial"",""time""
""fullscreenenter"",""1"",""15784""
","
","
","""event"",""trial"",""time""
""fullscreenenter"",""1"",""15784""
","
","","","","","","null","images/cat5.png","","","learning","-3","-5","","null","cat","pets","2","0","","bad","[-4]"
"html-keyboard-response","88","572182","0.0-9.0-2.0-0.8","8030","2","13","Female","approach_avoid_spark_v1","""event"",""trial"",""time""
""fullscreenenter"",""1"",""15784""
","
","
","""event"",""trial"",""time""
""fullscreenenter"",""1"",""15784""
","
","","","","","","null","<div style=""font-size:60px;"">+</div>","null","","fixation","","","","","","","","","","",""
"aa-learning-trial","89","575185","0.0-9.0-2.0-1.8","8030","2","13","Female","approach_avoid_spark_v1","""event"",""trial"",""time""
""fullscreenenter"",""1"",""15784""
","
","
","""event"",""trial"",""time""
""fullscreenenter"",""1"",""15784""
","
","","","","","","null","images/dog4.png","","","learning","-1","-5","","null","dog","pets","2","0","","neutral","0"
"html-keyboard-response","90","575686","0.0-9.0-2.0-0.9","8030","2","13","Female","approach_avoid_spark_v1","""event"",""trial"",""time""
""fullscreenenter"",""1"",""15784""
","
","
","""event"",""trial"",""time""
""fullscreenenter"",""1"",""15784""
","
","","","","","","null","<div style=""font-size:60px;"">+</div>","null","","fixation","","","","","","","","","","",""
"aa-learning-trial","91","578689","0.0-9.0-2.0-1.9","8030","2","13","Female","approach_avoid_spark_v1","""event"",""trial"",""time""
""fullscreenenter"",""1"",""15784""
","
","
","""event"",""trial"",""time""
""fullscreenenter"",""1"",""15784""
","
","","","","","","null","images/rabbit2.png","","","learning","-2","-5","","null","rabbit","pets","2","0","","good","[6]"
"html-keyboard-response","92","579190","0.0-9.0-2.0-0.10","8030","2","13","Female","approach_avoid_spark_v1","""event"",""trial"",""time""
""fullscreenenter"",""1"",""15784""
","
","
","""event"",""trial"",""time""
""fullscreenenter"",""1"",""15784""
","
","","","","","","null","<div style=""font-size:60px;"">+</div>","null","","fixation","","","","","","","","","","",""
"aa-learning-trial","93","582193","0.0-9.0-2.0-1.10","8030","2","13","Female","approach_avoid_spark_v1","""event"",""trial"",""time""
""fullscreenenter"",""1"",""15784""
","
","
","""event"",""trial"",""time""
""fullscreenenter"",""1"",""15784""
","
","","","","","","null","images/rabbit2.png","","","learning","-2","-5","","null","rabbit","pets","2","0","","good","[6]"
"html-keyboard-response","94","582694","0.0-9.0-2.0-0.11","8030","2","13","Female","approach_avoid_spark_v1","""event"",""trial"",""time""
""fullscreenenter"",""1"",""15784""
","
","
","""event"",""trial"",""time""
""fullscreenenter"",""1"",""15784""
","
","","","","","","null","<div style=""font-size:60px;"">+</div>","null","","fixation","","","","","","","","","","",""
"aa-learning-trial","95","585698","0.0-9.0-2.0-1.11","8030","2","13","Female","approach_avoid_spark_v1","""event"",""trial"",""time""
""fullscreenenter"",""1"",""15784""
","
","
","""event"",""trial"",""time""
""fullscreenenter"",""1"",""15784""
","
","","","","","","null","images/dog5.png","","","learning","-6","-5","","null","dog","pets","2","0","","neutral","0"
"html-keyboard-response","96","586200","0.0-9.0-2.0-0.12","8030","2","13","Female","approach_avoid_spark_v1","""event"",""trial"",""time""
""fullscreenenter"",""1"",""15784""
","
","
","""event"",""trial"",""time""
""fullscreenenter"",""1"",""15784""
","
","","","","","","null","<div style=""font-size:60px;"">+</div>","null","","fixation","","","","","","","","","","",""
"aa-learning-trial","97","589204","0.0-9.0-2.0-1.12","8030","2","13","Female","approach_avoid_spark_v1","""event"",""trial"",""time""
""fullscreenenter"",""1"",""15784""
","
","
","""event"",""trial"",""time""
""fullscreenenter"",""1"",""15784""
","
","","","","","","null","images/dog6.png","","","learning","5","-5","","null","dog","pets","2","0","","neutral","0"
"html-keyboard-response","98","589705","0.0-9.0-2.0-0.13","8030","2","13","Female","approach_avoid_spark_v1","""event"",""trial"",""time""
""fullscreenenter"",""1"",""15784""
","
","
","""event"",""trial"",""time""
""fullscreenenter"",""1"",""15784""
","
","","","","","","null","<div style=""font-size:60px;"">+</div>","null","","fixation","","","","","","","","","","",""
"aa-learning-trial","99","592706","0.0-9.0-2.0-1.13","8030","2","13","Female","approach_avoid_spark_v1","""event"",""trial"",""time""
""fullscreenenter"",""1"",""15784""
","
","
","""event"",""trial"",""time""
""fullscreenenter"",""1"",""15784""
","
","","","","","","null","images/rabbit7.png","","","learning","-9","-5","","null","rabbit","pets","2","0","","good","[6]"
"html-keyboard-response","100","593208","0.0-9.0-2.0-0.14","8030","2","13","Female","approach_avoid_spark_v1","""event"",""trial"",""time""
""fullscreenenter"",""1"",""15784""
","
","
","""event"",""trial"",""time""
""fullscreenenter"",""1"",""15784""
","
","","","","","","null","<div style=""font-size:60px;"">+</div>","null","","fixation","","","","","","","","","","",""
"aa-learning-trial","101","596211","0.0-9.0-2.0-1.14","8030","2","13","Female","approach_avoid_spark_v1","""event"",""trial"",""time""
""fullscreenenter"",""1"",""15784""
","
","
","""event"",""trial"",""time""
""fullscreenenter"",""1"",""15784""
","
","","","","","","null","images/dog5.png","","","learning","-6","-5","","null","dog","pets","2","0","","neutral","0"
"html-keyboard-response","102","596713","0.0-9.0-2.0-0.15","8030","2","13","Female","approach_avoid_spark_v1","""event"",""trial"",""time""
""fullscreenenter"",""1"",""15784""
","
","
","""event"",""trial"",""time""
""fullscreenenter"",""1"",""15784""
","
","","","","","","null","<div style=""font-size:60px;"">+</div>","null","","fixation","","","","","","","","","","",""
"aa-learning-trial","103","599715","0.0-9.0-2.0-1.15","8030","2","13","Female","approach_avoid_spark_v1","""event"",""trial"",""time""
""fullscreenenter"",""1"",""15784""
","
","
","""event"",""trial"",""time""
""fullscreenenter"",""1"",""15784""
","
","","","","","","null","images/cat2.png","","","learning","1","-5","","null","cat","pets","2","0","","bad","[-4]"
"html-keyboard-response","104","600216","0.0-9.0-2.0-0.16","8030","2","13","Female","approach_avoid_spark_v1","""event"",""trial"",""time""
""fullscreenenter"",""1"",""15784""
","
","
","""event"",""trial"",""time""
""fullscreenenter"",""1"",""15784""
","
","","","","","","null","<div style=""font-size:60px;"">+</div>","null","","fixation","","","","","","","","","","",""
"aa-learning-trial","105","603218","0.0-9.0-2.0-1.16","8030","2","13","Female","approach_avoid_spark_v1","""event"",""trial"",""time""
""fullscreenenter"",""1"",""15784""
","
","
","""event"",""trial"",""time""
""fullscreenenter"",""1"",""15784""
","
","","","","","","null","images/dog5.png","","","learning","-6","-5","","null","dog","pets","2","0","","neutral","0"
"html-keyboard-response","106","603720","0.0-9.0-2.0-0.17","8030","2","13","Female","approach_avoid_spark_v1","""event"",""trial"",""time""
""fullscreenenter"",""1"",""15784""
","
","
","""event"",""trial"",""time""
""fullscreenenter"",""1"",""15784""
","
","","","","","","null","<div style=""font-size:60px;"">+</div>","null","","fixation","","","","","","","","","","",""
"aa-learning-trial","107","606723","0.0-9.0-2.0-1.17","8030","2","13","Female","approach_avoid_spark_v1","""event"",""trial"",""time""
""fullscreenenter"",""1"",""15784""
","
","
","""event"",""trial"",""time""
""fullscreenenter"",""1"",""15784""
","
","","","","","","null","images/dog2.png","","","learning","-5","-5","","null","dog","pets","2","0","","neutral","0"
"html-keyboard-response","108","607223","0.0-9.0-2.0-0.18","8030","2","13","Female","approach_avoid_spark_v1","""event"",""trial"",""time""
""fullscreenenter"",""1"",""15784""
","
","
","""event"",""trial"",""time""
""fullscreenenter"",""1"",""15784""
","
","","","","","","null","<div style=""font-size:60px;"">+</div>","null","","fixation","","","","","","","","","","",""
"aa-learning-trial","109","610226","0.0-9.0-2.0-1.18","8030","2","13","Female","approach_avoid_spark_v1","""event"",""trial"",""time""
""fullscreenenter"",""1"",""15784""
","
","
","""event"",""trial"",""time""
""fullscreenenter"",""1"",""15784""
","
","","","","","","null","images/cat5.png","","","learning","-3","-5","","null","cat","pets","2","0","","bad","[-4]"
"html-keyboard-response","110","610728","0.0-9.0-2.0-0.19","8030","2","13","Female","approach_avoid_spark_v1","""event"",""trial"",""time""
""fullscreenenter"",""1"",""15784""
","
","
","""event"",""trial"",""time""
""fullscreenenter"",""1"",""15784""
","
","","","","","","null","<div style=""font-size:60px;"">+</div>","null","","fixation","","","","","","","","","","",""
"aa-learning-trial","111","613730","0.0-9.0-2.0-1.19","8030","2","13","Female","approach_avoid_spark_v1","""event"",""trial"",""time""
""fullscreenenter"",""1"",""15784""
","
","
","""event"",""trial"",""time""
""fullscreenenter"",""1"",""15784""
","
","","","","","","null","images/rabbit3.png","","","learning","3","-5","","null","rabbit","pets","2","0","","good","[6]"
"html-keyboard-response","112","614232","0.0-9.0-2.0-0.20","8030","2","13","Female","approach_avoid_spark_v1","""event"",""trial"",""time""
""fullscreenenter"",""1"",""15784""
","
","
","""event"",""trial"",""time""
""fullscreenenter"",""1"",""15784""
","
","","","","","","null","<div style=""font-size:60px;"">+</div>","null","","fixation","","","","","","","","","","",""
"aa-learning-trial","113","617235","0.0-9.0-2.0-1.20","8030","2","13","Female","approach_avoid_spark_v1","""event"",""trial"",""time""
""fullscreenenter"",""1"",""15784""
","
","
","""event"",""trial"",""time""
""fullscreenenter"",""1"",""15784""
","
","","","","","","null","images/rabbit7.png","","","learning","-9","-5","","null","rabbit","pets","2","0","","good","[6]"
"html-keyboard-response","114","617737","0.0-9.0-2.0-0.21","8030","2","13","Female","approach_avoid_spark_v1","""event"",""trial"",""time""
""fullscreenenter"",""1"",""15784""
","
","
","""event"",""trial"",""time""
""fullscreenenter"",""1"",""15784""
","
","","","","","","null","<div style=""font-size:60px;"">+</div>","null","","fixation","","","","","","","","","","",""
"aa-learning-trial","115","620739","0.0-9.0-2.0-1.21","8030","2","13","Female","approach_avoid_spark_v1","""event"",""trial"",""time""
""fullscreenenter"",""1"",""15784""
","
","
","""event"",""trial"",""time""
""fullscreenenter"",""1"",""15784""
","
","","","","","","null","images/rabbit2.png","","","learning","-2","-5","","null","rabbit","pets","2","0","","good","[6]"
"html-keyboard-response","116","621241","0.0-9.0-2.0-0.22","8030","2","13","Female","approach_avoid_spark_v1","""event"",""trial"",""time""
""fullscreenenter"",""1"",""15784""
","
","
","""event"",""trial"",""time""
""fullscreenenter"",""1"",""15784""
","
","","","","","","null","<div style=""font-size:60px;"">+</div>","null","","fixation","","","","","","","","","","",""
"aa-learning-trial","117","624245","0.0-9.0-2.0-1.22","8030","2","13","Female","approach_avoid_spark_v1","""event"",""trial"",""time""
""fullscreenenter"",""1"",""15784""
","
","
","""event"",""trial"",""time""
""fullscreenenter"",""1"",""15784""
","
","","","","","","null","images/cat4.png","","","learning","7","-5","","null","cat","pets","2","0","","bad","[-4]"
"html-keyboard-response","118","624746","0.0-9.0-2.0-0.23","8030","2","13","Female","approach_avoid_spark_v1","""event"",""trial"",""time""
""fullscreenenter"",""1"",""15784""
","
","
","""event"",""trial"",""time""
""fullscreenenter"",""1"",""15784""
","
","","","","","","null","<div style=""font-size:60px;"">+</div>","null","","fixation","","","","","","","","","","",""
"aa-learning-trial","119","627749","0.0-9.0-2.0-1.23","8030","2","13","Female","approach_avoid_spark_v1","""event"",""trial"",""time""
""fullscreenenter"",""1"",""15784""
","
","
","""event"",""trial"",""time""
""fullscreenenter"",""1"",""15784""
","
","","","","","","null","images/rabbit7.png","","","learning","-9","-5","","null","rabbit","pets","2","0","","good","[6]"
"html-keyboard-response","120","628250","0.0-9.0-2.0-0.24","8030","2","13","Female","approach_avoid_spark_v1","""event"",""trial"",""time""
""fullscreenenter"",""1"",""15784""
","
","
","""event"",""trial"",""time""
""fullscreenenter"",""1"",""15784""
","
","","","","","","null","<div style=""font-size:60px;"">+</div>","null","","fixation","","","","","","","","","","",""
"aa-learning-trial","121","631252","0.0-9.0-2.0-1.24","8030","2","13","Female","approach_avoid_spark_v1","""event"",""trial"",""time""
""fullscreenenter"",""1"",""15784""
","
","
","""event"",""trial"",""time""
""fullscreenenter"",""1"",""15784""
","
","","","","","","null","images/cat7.png","","","learning","-7","-5","","null","cat","pets","2","0","","bad","[-4]"
"html-keyboard-response","122","631754","0.0-9.0-2.0-0.25","8030","2","13","Female","approach_avoid_spark_v1","""event"",""trial"",""time""
""fullscreenenter"",""1"",""15784""
","
","
","""event"",""trial"",""time""
""fullscreenenter"",""1"",""15784""
","
","","","","","","null","<div style=""font-size:60px;"">+</div>","null","","fixation","","","","","","","","","","",""
"aa-learning-trial","123","634756","0.0-9.0-2.0-1.25","8030","2","13","Female","approach_avoid_spark_v1","""event"",""trial"",""time""
""fullscreenenter"",""1"",""15784""
","
","
","""event"",""trial"",""time""
""fullscreenenter"",""1"",""15784""
","
","","","","","","null","images/cat7.png","","","learning","-7","-5","","null","cat","pets","2","0","","bad","[-4]"
"html-keyboard-response","124","635258","0.0-9.0-2.0-0.26","8030","2","13","Female","approach_avoid_spark_v1","""event"",""trial"",""time""
""fullscreenenter"",""1"",""15784""
","
","
","""event"",""trial"",""time""
""fullscreenenter"",""1"",""15784""
","
","","","","","","null","<div style=""font-size:60px;"">+</div>","null","","fixation","","","","","","","","","","",""
"aa-learning-trial","125","638261","0.0-9.0-2.0-1.26","8030","2","13","Female","approach_avoid_spark_v1","""event"",""trial"",""time""
""fullscreenenter"",""1"",""15784""
","
","
","""event"",""trial"",""time""
""fullscreenenter"",""1"",""15784""
","
","","","","","","null","images/rabbit2.png","","","learning","-2","-5","","null","rabbit","pets","2","0","","good","[6]"
"html-keyboard-response","126","638762","0.0-9.0-2.0-0.27","8030","2","13","Female","approach_avoid_spark_v1","""event"",""trial"",""time""
""fullscreenenter"",""1"",""15784""
","
","
","""event"",""trial"",""time""
""fullscreenenter"",""1"",""15784""
","
","","","","","","null","<div style=""font-size:60px;"">+</div>","null","","fixation","","","","","","","","","","",""
"aa-learning-trial","127","641766","0.0-9.0-2.0-1.27","8030","2","13","Female","approach_avoid_spark_v1","""event"",""trial"",""time""
""fullscreenenter"",""1"",""15784""
","
","
","""event"",""trial"",""time""
""fullscreenenter"",""1"",""15784""
","
","","","","","","null","images/dog4.png","","","learning","-1","-5","","null","dog","pets","2","0","","neutral","0"
"html-keyboard-response","128","642268","0.0-9.0-2.0-0.28","8030","2","13","Female","approach_avoid_spark_v1","""event"",""trial"",""time""
""fullscreenenter"",""1"",""15784""
","
","
","""event"",""trial"",""time""
""fullscreenenter"",""1"",""15784""
","
","","","","","","null","<div style=""font-size:60px;"">+</div>","null","","fixation","","","","","","","","","","",""
"aa-learning-trial","129","645270","0.0-9.0-2.0-1.28","8030","2","13","Female","approach_avoid_spark_v1","""event"",""trial"",""time""
""fullscreenenter"",""1"",""15784""
","
","
","""event"",""trial"",""time""
""fullscreenenter"",""1"",""15784""
","
","","","","","","null","images/dog6.png","","","learning","5","-5","","null","dog","pets","2","0","","neutral","0"
"html-keyboard-response","130","645780","0.0-9.0-2.0-0.29","8030","2","13","Female","approach_avoid_spark_v1","""event"",""trial"",""time""
""fullscreenenter"",""1"",""15784""
","
","
","""event"",""trial"",""time""
""fullscreenenter"",""1"",""15784""
","
","","","","","","null","<div style=""font-size:60px;"">+</div>","null","","fixation","","","","","","","","","","",""
"aa-learning-trial","131","648782","0.0-9.0-2.0-1.29","8030","2","13","Female","approach_avoid_spark_v1","""event"",""trial"",""time""
""fullscreenenter"",""1"",""15784""
","
","
","""event"",""trial"",""time""
""fullscreenenter"",""1"",""15784""
","
","","","","","","null","images/cat4.png","","","learning","7","-5","","null","cat","pets","2","0","","bad","[-4]"
"html-keyboard-response","132","649284","0.0-9.0-2.0-0.30","8030","2","13","Female","approach_avoid_spark_v1","""event"",""trial"",""time""
""fullscreenenter"",""1"",""15784""
","
","
","""event"",""trial"",""time""
""fullscreenenter"",""1"",""15784""
","
","","","","","","null","<div style=""font-size:60px;"">+</div>","null","","fixation","","","","","","","","","","",""
"aa-learning-trial","133","652287","0.0-9.0-2.0-1.30","8030","2","13","Female","approach_avoid_spark_v1","""event"",""trial"",""time""
""fullscreenenter"",""1"",""15784""
","
","
","""event"",""trial"",""time""
""fullscreenenter"",""1"",""15784""
","
","","","","","","null","images/rabbit5.png","","","learning","-4","-5","","null","rabbit","pets","2","0","","good","[6]"
"html-keyboard-response","134","652787","0.0-9.0-2.0-0.31","8030","2","13","Female","approach_avoid_spark_v1","""event"",""trial"",""time""
""fullscreenenter"",""1"",""15784""
","
","
","""event"",""trial"",""time""
""fullscreenenter"",""1"",""15784""
","
","","","","","","null","<div style=""font-size:60px;"">+</div>","null","","fixation","","","","","","","","","","",""
"aa-learning-trial","135","655790","0.0-9.0-2.0-1.31","8030","2","13","Female","approach_avoid_spark_v1","""event"",""trial"",""time""
""fullscreenenter"",""1"",""15784""
","
","
","""event"",""trial"",""time""
""fullscreenenter"",""1"",""15784""
","
","","","","","","null","images/dog4.png","","","learning","-1","-5","","null","dog","pets","2","0","","neutral","0"
"html-keyboard-response","136","656292","0.0-9.0-2.0-0.32","8030","2","13","Female","approach_avoid_spark_v1","""event"",""trial"",""time""
""fullscreenenter"",""1"",""15784""
","
","
","""event"",""trial"",""time""
""fullscreenenter"",""1"",""15784""
","
","","","","","","null","<div style=""font-size:60px;"">+</div>","null","","fixation","","","","","","","","","","",""
"aa-learning-trial","137","659295","0.0-9.0-2.0-1.32","8030","2","13","Female","approach_avoid_spark_v1","""event"",""trial"",""time""
""fullscreenenter"",""1"",""15784""
","
","
","""event"",""trial"",""time""
""fullscreenenter"",""1"",""15784""
","
","","","","","","null","images/cat5.png","","","learning","-3","-5","","null","cat","pets","2","0","","bad","[-4]"
"html-keyboard-response","138","659796","0.0-9.0-2.0-0.33","8030","2","13","Female","approach_avoid_spark_v1","""event"",""trial"",""time""
""fullscreenenter"",""1"",""15784""
","
","
","""event"",""trial"",""time""
""fullscreenenter"",""1"",""15784""
","
","","","","","","null","<div style=""font-size:60px;"">+</div>","null","","fixation","","","","","","","","","","",""
"aa-learning-trial","139","662798","0.0-9.0-2.0-1.33","8030","2","13","Female","approach_avoid_spark_v1","""event"",""trial"",""time""
""fullscreenenter"",""1"",""15784""
","
","
","""event"",""trial"",""time""
""fullscreenenter"",""1"",""15784""
","
","","","","","","null","images/dog4.png","","","learning","-1","-5","","null","dog","pets","2","0","","neutral","0"
"html-keyboard-response","140","663300","0.0-9.0-2.0-0.34","8030","2","13","Female","approach_avoid_spark_v1","""event"",""trial"",""time""
""fullscreenenter"",""1"",""15784""
","
","
","""event"",""trial"",""time""
""fullscreenenter"",""1"",""15784""
","
","","","","","","null","<div style=""font-size:60px;"">+</div>","null","","fixation","","","","","","","","","","",""
"aa-learning-trial","141","666302","0.0-9.0-2.0-1.34","8030","2","13","Female","approach_avoid_spark_v1","""event"",""trial"",""time""
""fullscreenenter"",""1"",""15784""
","
","
","""event"",""trial"",""time""
""fullscreenenter"",""1"",""15784""
","
","","","","","","null","images/cat7.png","","","learning","-7","-5","","null","cat","pets","2","0","","bad","[-4]"
"html-keyboard-response","142","666804","0.0-9.0-2.0-0.35","8030","2","13","Female","approach_avoid_spark_v1","""event"",""trial"",""time""
""fullscreenenter"",""1"",""15784""
","
","
","""event"",""trial"",""time""
""fullscreenenter"",""1"",""15784""
","
","","","","","","null","<div style=""font-size:60px;"">+</div>","null","","fixation","","","","","","","","","","",""
"aa-learning-trial","143","669807","0.0-9.0-2.0-1.35","8030","2","13","Female","approach_avoid_spark_v1","""event"",""trial"",""time""
""fullscreenenter"",""1"",""15784""
","
","
","""event"",""trial"",""time""
""fullscreenenter"",""1"",""15784""
","
","","","","","","null","images/cat5.png","","","learning","-3","-5","","null","cat","pets","2","0","","bad","[-4]"
"html-keyboard-response","144","670308","0.0-9.0-2.0-0.36","8030","2","13","Female","approach_avoid_spark_v1","""event"",""trial"",""time""
""fullscreenenter"",""1"",""15784""
","
","
","""event"",""trial"",""time""
""fullscreenenter"",""1"",""15784""
","
","","","","","","null","<div style=""font-size:60px;"">+</div>","null","","fixation","","","","","","","","","","",""
"aa-learning-trial","145","673310","0.0-9.0-2.0-1.36","8030","2","13","Female","approach_avoid_spark_v1","""event"",""trial"",""time""
""fullscreenenter"",""1"",""15784""
","
","
","""event"",""trial"",""time""
""fullscreenenter"",""1"",""15784""
","
","","","","","","null","images/dog5.png","","","learning","-6","-5","","null","dog","pets","2","0","","neutral","0"
"html-keyboard-response","146","673812","0.0-9.0-2.0-0.37","8030","2","13","Female","approach_avoid_spark_v1","""event"",""trial"",""time""
""fullscreenenter"",""1"",""15784""
","
","
","""event"",""trial"",""time""
""fullscreenenter"",""1"",""15784""
","
","","","","","","null","<div style=""font-size:60px;"">+</div>","null","","fixation","","","","","","","","","","",""
"aa-learning-trial","147","676815","0.0-9.0-2.0-1.37","8030","2","13","Female","approach_avoid_spark_v1","""event"",""trial"",""time""
""fullscreenenter"",""1"",""15784""
","
","
","""event"",""trial"",""time""
""fullscreenenter"",""1"",""15784""
","
","","","","","","null","images/dog5.png","","","learning","-6","-5","","null","dog","pets","2","0","","neutral","0"
"html-keyboard-response","148","677317","0.0-9.0-2.0-0.38","8030","2","13","Female","approach_avoid_spark_v1","""event"",""trial"",""time""
""fullscreenenter"",""1"",""15784""
","
","
","""event"",""trial"",""time""
""fullscreenenter"",""1"",""15784""
","
","","","","","","null","<div style=""font-size:60px;"">+</div>","null","","fixation","","","","","","","","","","",""
"aa-learning-trial","149","680320","0.0-9.0-2.0-1.38","8030","2","13","Female","approach_avoid_spark_v1","""event"",""trial"",""time""
""fullscreenenter"",""1"",""15784""
","
","
","""event"",""trial"",""time""
""fullscreenenter"",""1"",""15784""
","
","","","","","","null","images/cat8.png","","","learning","4","-5","","null","cat","pets","2","0","","bad","[-4]"
"html-keyboard-response","150","680821","0.0-9.0-2.0-0.39","8030","2","13","Female","approach_avoid_spark_v1","""event"",""trial"",""time""
""fullscreenenter"",""1"",""15784""
","
","
","""event"",""trial"",""time""
""fullscreenenter"",""1"",""15784""
","
","","","","","","null","<div style=""font-size:60px;"">+</div>","null","","fixation","","","","","","","","","","",""
"aa-learning-trial","151","683825","0.0-9.0-2.0-1.39","8030","2","13","Female","approach_avoid_spark_v1","""event"",""trial"",""time""
""fullscreenenter"",""1"",""15784""
","
","
","""event"",""trial"",""time""
""fullscreenenter"",""1"",""15784""
","
","","","","","","null","images/cat5.png","","","learning","-3","-5","","null","cat","pets","2","0","","bad","[-4]"
"html-keyboard-response","152","684326","0.0-9.0-2.0-0.40","8030","2","13","Female","approach_avoid_spark_v1","""event"",""trial"",""time""
""fullscreenenter"",""1"",""15784""
","
","
","""event"",""trial"",""time""
""fullscreenenter"",""1"",""15784""
","
","","","","","","null","<div style=""font-size:60px;"">+</div>","null","","fixation","","","","","","","","","","",""
"aa-learning-trial","153","687328","0.0-9.0-2.0-1.40","8030","2","13","Female","approach_avoid_spark_v1","""event"",""trial"",""time""
""fullscreenenter"",""1"",""15784""
","
","
","""event"",""trial"",""time""
""fullscreenenter"",""1"",""15784""
","
","","","","","","null","images/cat7.png","","","learning","-7","-5","","null","cat","pets","2","0","","bad","[-4]"
"html-keyboard-response","154","687829","0.0-9.0-2.0-0.41","8030","2","13","Female","approach_avoid_spark_v1","""event"",""trial"",""time""
""fullscreenenter"",""1"",""15784""
","
","
","""event"",""trial"",""time""
""fullscreenenter"",""1"",""15784""
","
","","","","","","null","<div style=""font-size:60px;"">+</div>","null","","fixation","","","","","","","","","","",""
"aa-learning-trial","155","690832","0.0-9.0-2.0-1.41","8030","2","13","Female","approach_avoid_spark_v1","""event"",""trial"",""time""
""fullscreenenter"",""1"",""15784""
","
","
","""event"",""trial"",""time""
""fullscreenenter"",""1"",""15784""
","
","","","","","","null","images/rabbit6.png","","","learning","6","-5","","null","rabbit","pets","2","0","","good","[6]"
"html-keyboard-response","156","691333","0.0-9.0-2.0-0.42","8030","2","13","Female","approach_avoid_spark_v1","""event"",""trial"",""time""
""fullscreenenter"",""1"",""15784""
","
","
","""event"",""trial"",""time""
""fullscreenenter"",""1"",""15784""
","
","","","","","","null","<div style=""font-size:60px;"">+</div>","null","","fixation","","","","","","","","","","",""
"aa-learning-trial","157","694335","0.0-9.0-2.0-1.42","8030","2","13","Female","approach_avoid_spark_v1","""event"",""trial"",""time""
""fullscreenenter"",""1"",""15784""
","
","
","""event"",""trial"",""time""
""fullscreenenter"",""1"",""15784""
","
","","","","","","null","images/rabbit7.png","","","learning","-9","-5","","null","rabbit","pets","2","0","","good","[6]"
"html-keyboard-response","158","694836","0.0-9.0-2.0-0.43","8030","2","13","Female","approach_avoid_spark_v1","""event"",""trial"",""time""
""fullscreenenter"",""1"",""15784""
","
","
","""event"",""trial"",""time""
""fullscreenenter"",""1"",""15784""
","
","","","","","","null","<div style=""font-size:60px;"">+</div>","null","","fixation","","","","","","","","","","",""
"aa-learning-trial","159","697839","0.0-9.0-2.0-1.43","8030","2","13","Female","approach_avoid_spark_v1","""event"",""trial"",""time""
""fullscreenenter"",""1"",""15784""
","
","
","""event"",""trial"",""time""
""fullscreenenter"",""1"",""15784""
","
","","","","","","null","images/dog4.png","","","learning","-1","-5","","null","dog","pets","2","0","","neutral","0"
"html-keyboard-response","160","698341","0.0-9.0-2.0-0.44","8030","2","13","Female","approach_avoid_spark_v1","""event"",""trial"",""time""
""fullscreenenter"",""1"",""15784""
","
","
","""event"",""trial"",""time""
""fullscreenenter"",""1"",""15784""
","
","","","","","","null","<div style=""font-size:60px;"">+</div>","null","","fixation","","","","","","","","","","",""
"aa-learning-trial","161","701343","0.0-9.0-2.0-1.44","8030","2","13","Female","approach_avoid_spark_v1","""event"",""trial"",""time""
""fullscreenenter"",""1"",""15784""
","
","
","""event"",""trial"",""time""
""fullscreenenter"",""1"",""15784""
","
","","","","","","null","images/dog5.png","","","learning","-6","-5","","null","dog","pets","2","0","","neutral","0"
"html-keyboard-response","162","701845","0.0-9.0-2.0-0.45","8030","2","13","Female","approach_avoid_spark_v1","""event"",""trial"",""time""
""fullscreenenter"",""1"",""15784""
","
","
","""event"",""trial"",""time""
""fullscreenenter"",""1"",""15784""
","
","","","","","","null","<div style=""font-size:60px;"">+</div>","null","","fixation","","","","","","","","","","",""
"aa-learning-trial","163","704847","0.0-9.0-2.0-1.45","8030","2","13","Female","approach_avoid_spark_v1","""event"",""trial"",""time""
""fullscreenenter"",""1"",""15784""
","
","
","""event"",""trial"",""time""
""fullscreenenter"",""1"",""15784""
","
","","","","","","null","images/dog1.png","","","learning","9","-5","","null","dog","pets","2","0","","neutral","0"
"html-keyboard-response","164","705348","0.0-9.0-2.0-0.46","8030","2","13","Female","approach_avoid_spark_v1","""event"",""trial"",""time""
""fullscreenenter"",""1"",""15784""
","
","
","""event"",""trial"",""time""
""fullscreenenter"",""1"",""15784""
","
","","","","","","null","<div style=""font-size:60px;"">+</div>","null","","fixation","","","","","","","","","","",""
"aa-learning-trial","165","708351","0.0-9.0-2.0-1.46","8030","2","13","Female","approach_avoid_spark_v1","""event"",""trial"",""time""
""fullscreenenter"",""1"",""15784""
","
","
","""event"",""trial"",""time""
""fullscreenenter"",""1"",""15784""
","
","","","","","","null","images/rabbit6.png","","","learning","6","-5","","null","rabbit","pets","2","0","","good","[6]"
"html-keyboard-response","166","708853","0.0-9.0-2.0-0.47","8030","2","13","Female","approach_avoid_spark_v1","""event"",""trial"",""time""
""fullscreenenter"",""1"",""15784""
","
","
","""event"",""trial"",""time""
""fullscreenenter"",""1"",""15784""
","
","","","","","","null","<div style=""font-size:60px;"">+</div>","null","","fixation","","","","","","","","","","",""
"aa-learning-trial","167","711856","0.0-9.0-2.0-1.47","8030","2","13","Female","approach_avoid_spark_v1","""event"",""trial"",""time""
""fullscreenenter"",""1"",""15784""
","
","
","""event"",""trial"",""time""
""fullscreenenter"",""1"",""15784""
","
","","","","","","null","images/rabbit2.png","","","learning","-2","-5","","null","rabbit","pets","2","0","","good","[6]"
"html-keyboard-response","168","712358","0.0-9.0-2.0-0.48","8030","2","13","Female","approach_avoid_spark_v1","""event"",""trial"",""time""
""fullscreenenter"",""1"",""15784""
","
","
","""event"",""trial"",""time""
""fullscreenenter"",""1"",""15784""
","
","","","","","","null","<div style=""font-size:60px;"">+</div>","null","","fixation","","","","","","","","","","",""
"aa-learning-trial","169","715360","0.0-9.0-2.0-1.48","8030","2","13","Female","approach_avoid_spark_v1","""event"",""trial"",""time""
""fullscreenenter"",""1"",""15784""
","
","
","""event"",""trial"",""time""
""fullscreenenter"",""1"",""15784""
","
","","","","","","1686.6999998092651","images/dog6.png","","","learning","5","5","1","1","dog","pets","2","0","","neutral","0"
"html-keyboard-response","170","715861","0.0-9.0-2.0-0.49","8030","2","13","Female","approach_avoid_spark_v1","""event"",""trial"",""time""
""fullscreenenter"",""1"",""15784""
","
","
","""event"",""trial"",""time""
""fullscreenenter"",""1"",""15784""
","
","","","","","","null","<div style=""font-size:60px;"">+</div>","null","","fixation","","","","","","","","","","",""
"aa-learning-trial","171","718863","0.0-9.0-2.0-1.49","8030","2","13","Female","approach_avoid_spark_v1","""event"",""trial"",""time""
""fullscreenenter"",""1"",""15784""
","
","
","""event"",""trial"",""time""
""fullscreenenter"",""1"",""15784""
","
","","","","","","1066.3999996185303","images/rabbit7.png","","","learning","-9","0","0","0","rabbit","pets","2","0","","good","[6]"
"html-keyboard-response","172","719365","0.0-9.0-2.0-0.50","8030","2","13","Female","approach_avoid_spark_v1","""event"",""trial"",""time""
""fullscreenenter"",""1"",""15784""
","
","
","""event"",""trial"",""time""
""fullscreenenter"",""1"",""15784""
","
","","","","","","null","<div style=""font-size:60px;"">+</div>","null","","fixation","","","","","","","","","","",""
"aa-learning-trial","173","722367","0.0-9.0-2.0-1.50","8030","2","13","Female","approach_avoid_spark_v1","""event"",""trial"",""time""
""fullscreenenter"",""1"",""15784""
","
","
","""event"",""trial"",""time""
""fullscreenenter"",""1"",""15784""
","
","","","","","","954","images/rabbit2.png","","","learning","-2","0","0","0","rabbit","pets","2","0","","good","[6]"
"html-button-response","174","770041","0.0-9.0-3.0","8030","2","13","Female","approach_avoid_spark_v1","""event"",""trial"",""time""
""fullscreenenter"",""1"",""15784""
","
","
","""event"",""trial"",""time""
""fullscreenenter"",""1"",""15784""
","
","","","","","","47673.099999427795","<p> You have completed the round! <p> In this round, you earned -235 points! </p>","0","","break","","","","","","","","","","",""
"html-button-response","175","771790","0.0-10.0","8030","2","13","Female","approach_avoid_spark_v1","""event"",""trial"",""time""
""fullscreenenter"",""1"",""15784""
","
","
","""event"",""trial"",""time""
""fullscreenenter"",""1"",""15784""
","
","","","","","","1747.7999992370605","<p> Now it's time to play another round. </p>","0","","transition_screen","","","","","","","","","","",""
"preload","176","771906","0.0-11.0-0.0","8030","2","13","Female","approach_avoid_spark_v1","""event"",""trial"",""time""
""fullscreenenter"",""1"",""15784""
","
","
","""event"",""trial"",""time""
""fullscreenenter"",""1"",""15784""
","
","true","false","[]","[]","[]","","","","","","","","","","","","","","","",""
"learning-instructions","177","780483","0.0-11.0-1.0-0.0","8030","2","13","Female","approach_avoid_spark_v1","""event"",""trial"",""time""
""fullscreenenter"",""1"",""15784""
","
","
","""event"",""trial"",""time""
""fullscreenenter"",""1"",""15784""
","
","","","","","","2033.5999994277954","<p> Your goal in this round is to take your friend for rides in different vehicles. </p></div>","","0","instructions","","","","","","","","","","",""
"learning-instructions","178","791433","0.0-11.0-1.0-0.1","8030","2","13","Female","approach_avoid_spark_v1","""event"",""trial"",""time""
""fullscreenenter"",""1"",""15784""
","
","
","""event"",""trial"",""time""
""fullscreenenter"",""1"",""15784""
","
","","","","","","525.1999998092651","<p> Your friend enjoys riding in some vehicles but not in others.  </p><p> On each turn, you will see a vehicle.   </p><p> You need to decide whether to take your friend for a ride or not.  </p>","","0","instructions","","","","","","","","","","",""
"learning-instructions","179","808155","0.0-11.0-1.0-0.2","8030","2","13","Female","approach_avoid_spark_v1","""event"",""trial"",""time""
""fullscreenenter"",""1"",""15784""
","
","
","""event"",""trial"",""time""
""fullscreenenter"",""1"",""15784""
","
","","","","","","9822.199999809265","<p> You can take your friend for a ride in the vehicle by pressing 1 and skip the ride by pressing 0. </p><br><div class=""choice-instructions-grid""> <div class=""choice-option""><img src=""images/approach.png"" class=""choice-option-img"" stage=""instructions"" position=""0"" ><div class=""choice-option-text""> Press ""1."" </div></div><div class=""choice-option""><img src=""images/avoid.png"" class=""choice-option-img"" stage=""instructions"" position=""1"" ><div class=""choice-option-text""> Press ""0."" </div></div>","","0","instructions","","","","","","","","","","",""
"learning-instructions","180","820375","0.0-11.0-1.0-0.3","8030","2","13","Female","approach_avoid_spark_v1","""event"",""trial"",""time""
""fullscreenenter"",""1"",""15784""
","
","
","""event"",""trial"",""time""
""fullscreenenter"",""1"",""15784""
","
","","","","","","2437","<p> If you take them for a ride in a vehicle they like, they will be thrilled! </p><p> But if you take them for a ride in a vehicle they do not like, they will be upset. </p>","","0","instructions","","","","","","","","","","",""
"learning-instructions","181","834481","0.0-11.0-1.0-0.4","8030","2","13","Female","approach_avoid_spark_v1","""event"",""trial"",""time""
""fullscreenenter"",""1"",""15784""
","
","
","""event"",""trial"",""time""
""fullscreenenter"",""1"",""15784""
","
","","","","","","1940.6999998092651","<p> You will earn points based on how you made your friend feel. </p><p> If you made him thrilled, you will WIN anywhere from 1 - 9 points, </p><p> but if you made him upset, you will LOSE anywhere from 1 - 9 points. </p>","","0","instructions","","","","","","","","","","",""
"learning-instructions","182","842562","0.0-11.0-1.0-0.5","8030","2","13","Female","approach_avoid_spark_v1","""event"",""trial"",""time""
""fullscreenenter"",""1"",""15784""
","
","
","""event"",""trial"",""time""
""fullscreenenter"",""1"",""15784""
","
","","","","","","1435.1000003814697","<p> You will see how many points you won or lost in the center of the screen. </p><p> Here is what you would see if you won 5 points: </p><p style=""color:green;font-size:50px;font-weight:bolder"">5</p>","","0","instructions","","","","","","","","","","",""
"learning-instructions","183","850756","0.0-11.0-1.0-0.6","8030","2","13","Female","approach_avoid_spark_v1","""event"",""trial"",""time""
""fullscreenenter"",""1"",""15784""
","
","
","""event"",""trial"",""time""
""fullscreenenter"",""1"",""15784""
","
","","","","","","5361.60000038147","<p> And here is what you would see if you lost 3 points: </p><p style=""color:red;font-size:50px;font-weight:bolder"">-3</p>","","0","instructions","","","","","","","","","","",""
"learning-instructions","184","867926","0.0-11.0-1.0-0.7","8030","2","13","Female","approach_avoid_spark_v1","""event"",""trial"",""time""
""fullscreenenter"",""1"",""15784""
","
","
","""event"",""trial"",""time""
""fullscreenenter"",""1"",""15784""
","
","","","","","","1465.4000005722046","<p> Some vehicles will make your friend REALLY thrilled or upset. </p><p> These vehicles will make you win or lose LOTS of points. </p><p> Other vehicles will only make him feel a little thrilled or upset. </p><p> These vehicles will make you win or lose small amounts of points. </p>","","0","instructions","","","","","","","","","","",""
"learning-instructions","185","881420","0.0-11.0-1.0-0.8","8030","2","13","Female","approach_avoid_spark_v1","""event"",""trial"",""time""
""fullscreenenter"",""1"",""15784""
","
","
","""event"",""trial"",""time""
""fullscreenenter"",""1"",""15784""
","
","","","","","","1103.1999998092651","<p> If you choose to skip the ride, you will not win or lose any points. </p><p>  However, in the center of the screen, you will see the number of points you WOULD HAVE won or lost if you had taken your friend for a ride. </p>","","0","instructions","","","","","","","","","","",""
"learning-instructions","186","893528","0.0-11.0-1.0-0.9","8030","2","13","Female","approach_avoid_spark_v1","""event"",""trial"",""time""
""fullscreenenter"",""1"",""15784""
","
","
","""event"",""trial"",""time""
""fullscreenenter"",""1"",""15784""
","
","","","","","","763.1999998092651","<p> Here is what you might see if you did not take your friend for a ride but he would have enjoyed it: </p><p style=""color:grey; font-size:50px; display: inline-block; border-spacing: 15px; border-width:3px; border-style:solid; border-color:red"">  &nbsp; 6 &nbsp; </p><p> Remember, in this case, you would not win or lose ANY points because you skipped the ride.  </p>","","0","instructions","","","","","","","","","","",""
"learning-instructions","187","905357","0.0-11.0-1.0-0.10","8030","2","13","Female","approach_avoid_spark_v1","""event"",""trial"",""time""
""fullscreenenter"",""1"",""15784""
","
","
","""event"",""trial"",""time""
""fullscreenenter"",""1"",""15784""
","
","","","","","","3516.1000003814697","<p> Try to make the best choice for each vehicle because </p><p> at the end of the game, you will earn bonus money based on how many points you earned. </p>","","0","instructions","","","","","","","","","","",""
"learning-instructions","188","916115","0.0-11.0-1.0-0.11","8030","2","13","Female","approach_avoid_spark_v1","""event"",""trial"",""time""
""fullscreenenter"",""1"",""15784""
","
","
","""event"",""trial"",""time""
""fullscreenenter"",""1"",""15784""
","
","","","","","","2571.699999809265","<p> You will have 3 seconds to make each choice. Try to respond before time runs out! </p><p> You will lose 5 points each time you do not make a response. </p>","","0","instructions","","","","","","","","","","",""
"html-keyboard-response","189","916731","0.0-11.0-2.0-0.0","8030","2","13","Female","approach_avoid_spark_v1","""event"",""trial"",""time""
""fullscreenenter"",""1"",""15784""
","
","
","""event"",""trial"",""time""
""fullscreenenter"",""1"",""15784""
","
","","","","","","null","<div style=""font-size:60px;"">+</div>","null","","fixation","","","","","","","","","","",""
"aa-learning-trial","190","919747","0.0-11.0-2.0-1.0","8030","2","13","Female","approach_avoid_spark_v1","""event"",""trial"",""time""
""fullscreenenter"",""1"",""15784""
","
","
","""event"",""trial"",""time""
""fullscreenenter"",""1"",""15784""
","
","","","","","","null","images/boat4.png","","","learning","-2","-5","","null","boat","vehicles","1","1","","neutral","0"
"html-keyboard-response","191","920262","0.0-11.0-2.0-0.1","8030","2","13","Female","approach_avoid_spark_v1","""event"",""trial"",""time""
""fullscreenenter"",""1"",""15784""
","
","
","""event"",""trial"",""time""
""fullscreenenter"",""1"",""15784""
","
","","","","","","null","<div style=""font-size:60px;"">+</div>","null","","fixation","","","","","","","","","","",""
"aa-learning-trial","192","923269","0.0-11.0-2.0-1.1","8030","2","13","Female","approach_avoid_spark_v1","""event"",""trial"",""time""
""fullscreenenter"",""1"",""15784""
","
","
","""event"",""trial"",""time""
""fullscreenenter"",""1"",""15784""
","
","","","","","","2109.300000190735","images/boat2.png","","","learning","[-1]","-1","1","1","boat","vehicles","1","1","","neutral","0"
"html-keyboard-response","193","923775","0.0-11.0-2.0-0.2","8030","2","13","Female","approach_avoid_spark_v1","""event"",""trial"",""time""
""fullscreenenter"",""1"",""15784""
","
","
","""event"",""trial"",""time""
""fullscreenenter"",""1"",""15784""
","
","","","","","","null","<div style=""font-size:60px;"">+</div>","null","","fixation","","","","","","","","","","",""
"aa-learning-trial","194","926791","0.0-11.0-2.0-1.2","8030","2","13","Female","approach_avoid_spark_v1","""event"",""trial"",""time""
""fullscreenenter"",""1"",""15784""
","
","
","""event"",""trial"",""time""
""fullscreenenter"",""1"",""15784""
","
","","","","","","1857.3000001907349","images/plane5.png","","","learning","-4","0","0","0","plane","vehicles","1","1","","bad","[-3]"
"html-keyboard-response","195","927300","0.0-11.0-2.0-0.3","8030","2","13","Female","approach_avoid_spark_v1","""event"",""trial"",""time""
""fullscreenenter"",""1"",""15784""
","
","
","""event"",""trial"",""time""
""fullscreenenter"",""1"",""15784""
","
","","","","","","null","<div style=""font-size:60px;"">+</div>","null","","fixation","","","","","","","","","","",""
"aa-learning-trial","196","930309","0.0-11.0-2.0-1.3","8030","2","13","Female","approach_avoid_spark_v1","""event"",""trial"",""time""
""fullscreenenter"",""1"",""15784""
","
","
","""event"",""trial"",""time""
""fullscreenenter"",""1"",""15784""
","
","","","","","","1340.3000001907349","images/truck8.png","","","learning","5","0","0","0","truck","vehicles","1","1","","good","[4]"
"html-keyboard-response","197","930811","0.0-11.0-2.0-0.4","8030","2","13","Female","approach_avoid_spark_v1","""event"",""trial"",""time""
""fullscreenenter"",""1"",""15784""
","
","
","""event"",""trial"",""time""
""fullscreenenter"",""1"",""15784""
","
","","","","","","null","<div style=""font-size:60px;"">+</div>","null","","fixation","","","","","","","","","","",""
"aa-learning-trial","198","933818","0.0-11.0-2.0-1.4","8030","2","13","Female","approach_avoid_spark_v1","""event"",""trial"",""time""
""fullscreenenter"",""1"",""15784""
","
","
","""event"",""trial"",""time""
""fullscreenenter"",""1"",""15784""
","
","","","","","","1000.5","images/plane6.png","","","learning","-3","0","0","0","plane","vehicles","1","1","","bad","[-3]"
"html-keyboard-response","199","934331","0.0-11.0-2.0-0.5","8030","2","13","Female","approach_avoid_spark_v1","""event"",""trial"",""time""
""fullscreenenter"",""1"",""15784""
","
","
","""event"",""trial"",""time""
""fullscreenenter"",""1"",""15784""
","
","","","","","","null","<div style=""font-size:60px;"">+</div>","null","","fixation","","","","","","","","","","",""
"aa-learning-trial","200","937338","0.0-11.0-2.0-1.5","8030","2","13","Female","approach_avoid_spark_v1","""event"",""trial"",""time""
""fullscreenenter"",""1"",""15784""
","
","
","""event"",""trial"",""time""
""fullscreenenter"",""1"",""15784""
","
","","","","","","703.1000003814697","images/boat2.png","","","learning","2","2","1","1","boat","vehicles","1","1","","neutral","0"
"html-keyboard-response","201","937851","0.0-11.0-2.0-0.6","8030","2","13","Female","approach_avoid_spark_v1","""event"",""trial"",""time""
""fullscreenenter"",""1"",""15784""
","
","
","""event"",""trial"",""time""
""fullscreenenter"",""1"",""15784""
","
","","","","","","null","<div style=""font-size:60px;"">+</div>","null","","fixation","","","","","","","","","","",""
"aa-learning-trial","202","940866","0.0-11.0-2.0-1.6","8030","2","13","Female","approach_avoid_spark_v1","""event"",""trial"",""time""
""fullscreenenter"",""1"",""15784""
","
","
","""event"",""trial"",""time""
""fullscreenenter"",""1"",""15784""
","
","","","","","","916.8000001907349","images/truck3.png","","","learning","4","4","1","1","truck","vehicles","1","1","","good","[4]"
"html-keyboard-response","203","941374","0.0-11.0-2.0-0.7","8030","2","13","Female","approach_avoid_spark_v1","""event"",""trial"",""time""
""fullscreenenter"",""1"",""15784""
","
","
","""event"",""trial"",""time""
""fullscreenenter"",""1"",""15784""
","
","","","","","","null","<div style=""font-size:60px;"">+</div>","null","","fixation","","","","","","","","","","",""
"aa-learning-trial","204","944378","0.0-11.0-2.0-1.7","8030","2","13","Female","approach_avoid_spark_v1","""event"",""trial"",""time""
""fullscreenenter"",""1"",""15784""
","
","
","""event"",""trial"",""time""
""fullscreenenter"",""1"",""15784""
","
","","","","","","857.8000001907349","images/truck4.png","","","learning","5","5","1","1","truck","vehicles","1","1","","good","[4]"
"html-keyboard-response","205","944879","0.0-11.0-2.0-0.8","8030","2","13","Female","approach_avoid_spark_v1","""event"",""trial"",""time""
""fullscreenenter"",""1"",""15784""
","
","
","""event"",""trial"",""time""
""fullscreenenter"",""1"",""15784""
","
","","","","","","null","<div style=""font-size:60px;"">+</div>","null","","fixation","","","","","","","","","","",""
"aa-learning-trial","206","947884","0.0-11.0-2.0-1.8","8030","2","13","Female","approach_avoid_spark_v1","""event"",""trial"",""time""
""fullscreenenter"",""1"",""15784""
","
","
","""event"",""trial"",""time""
""fullscreenenter"",""1"",""15784""
","
","","","","","","810.3999996185303","images/truck4.png","","","learning","4","4","1","1","truck","vehicles","1","1","","good","[4]"
"html-keyboard-response","207","948386","0.0-11.0-2.0-0.9","8030","2","13","Female","approach_avoid_spark_v1","""event"",""trial"",""time""
""fullscreenenter"",""1"",""15784""
","
","
","""event"",""trial"",""time""
""fullscreenenter"",""1"",""15784""
","
","","","","","","null","<div style=""font-size:60px;"">+</div>","null","","fixation","","","","","","","","","","",""
"aa-learning-trial","208","951388","0.0-11.0-2.0-1.9","8030","2","13","Female","approach_avoid_spark_v1","""event"",""trial"",""time""
""fullscreenenter"",""1"",""15784""
","
","
","""event"",""trial"",""time""
""fullscreenenter"",""1"",""15784""
","
","","","","","","648.5999994277954","images/plane6.png","","","learning","-4","0","0","0","plane","vehicles","1","1","","bad","[-3]"
"html-keyboard-response","209","951890","0.0-11.0-2.0-0.10","8030","2","13","Female","approach_avoid_spark_v1","""event"",""trial"",""time""
""fullscreenenter"",""1"",""15784""
","
","
","""event"",""trial"",""time""
""fullscreenenter"",""1"",""15784""
","
","","","","","","null","<div style=""font-size:60px;"">+</div>","null","","fixation","","","","","","","","","","",""
"aa-learning-trial","210","954893","0.0-11.0-2.0-1.10","8030","2","13","Female","approach_avoid_spark_v1","""event"",""trial"",""time""
""fullscreenenter"",""1"",""15784""
","
","
","""event"",""trial"",""time""
""fullscreenenter"",""1"",""15784""
","
","","","","","","1010.3999996185303","images/boat4.png","","","learning","-2","-2","1","1","boat","vehicles","1","1","","neutral","0"
"html-keyboard-response","211","955394","0.0-11.0-2.0-0.11","8030","2","13","Female","approach_avoid_spark_v1","""event"",""trial"",""time""
""fullscreenenter"",""1"",""15784""
","
","
","""event"",""trial"",""time""
""fullscreenenter"",""1"",""15784""
","
","","","","","","null","<div style=""font-size:60px;"">+</div>","null","","fixation","","","","","","","","","","",""
"aa-learning-trial","212","958396","0.0-11.0-2.0-1.11","8030","2","13","Female","approach_avoid_spark_v1","""event"",""trial"",""time""
""fullscreenenter"",""1"",""15784""
","
","
","""event"",""trial"",""time""
""fullscreenenter"",""1"",""15784""
","
","","","","","","1058.6999998092651","images/truck8.png","","","learning","4","0","0","0","truck","vehicles","1","1","","good","[4]"
"html-keyboard-response","213","958898","0.0-11.0-2.0-0.12","8030","2","13","Female","approach_avoid_spark_v1","""event"",""trial"",""time""
""fullscreenenter"",""1"",""15784""
","
","
","""event"",""trial"",""time""
""fullscreenenter"",""1"",""15784""
","
","","","","","","null","<div style=""font-size:60px;"">+</div>","null","","fixation","","","","","","","","","","",""
"aa-learning-trial","214","961901","0.0-11.0-2.0-1.12","8030","2","13","Female","approach_avoid_spark_v1","""event"",""trial"",""time""
""fullscreenenter"",""1"",""15784""
","
","
","""event"",""trial"",""time""
""fullscreenenter"",""1"",""15784""
","
","","","","","","936","images/plane8.png","","","learning","-1","0","0","0","plane","vehicles","1","1","","bad","[-3]"
"html-keyboard-response","215","962404","0.0-11.0-2.0-0.13","8030","2","13","Female","approach_avoid_spark_v1","""event"",""trial"",""time""
""fullscreenenter"",""1"",""15784""
","
","
","""event"",""trial"",""time""
""fullscreenenter"",""1"",""15784""
","
","","","","","","null","<div style=""font-size:60px;"">+</div>","null","","fixation","","","","","","","","","","",""
"aa-learning-trial","216","965406","0.0-11.0-2.0-1.13","8030","2","13","Female","approach_avoid_spark_v1","""event"",""trial"",""time""
""fullscreenenter"",""1"",""15784""
","
","
","""event"",""trial"",""time""
""fullscreenenter"",""1"",""15784""
","
","","","","","","689.9000005722046","images/plane8.png","","","learning","-3","0","0","0","plane","vehicles","1","1","","bad","[-3]"
"html-keyboard-response","217","965908","0.0-11.0-2.0-0.14","8030","2","13","Female","approach_avoid_spark_v1","""event"",""trial"",""time""
""fullscreenenter"",""1"",""15784""
","
","
","""event"",""trial"",""time""
""fullscreenenter"",""1"",""15784""
","
","","","","","","null","<div style=""font-size:60px;"">+</div>","null","","fixation","","","","","","","","","","",""
"aa-learning-trial","218","968910","0.0-11.0-2.0-1.14","8030","2","13","Female","approach_avoid_spark_v1","""event"",""trial"",""time""
""fullscreenenter"",""1"",""15784""
","
","
","""event"",""trial"",""time""
""fullscreenenter"",""1"",""15784""
","
","","","","","","1015.8000001907349","images/boat3.png","","","learning","-3","-3","1","1","boat","vehicles","1","1","","neutral","0"
"html-keyboard-response","219","969412","0.0-11.0-2.0-0.15","8030","2","13","Female","approach_avoid_spark_v1","""event"",""trial"",""time""
""fullscreenenter"",""1"",""15784""
","
","
","""event"",""trial"",""time""
""fullscreenenter"",""1"",""15784""
","
","","","","","","null","<div style=""font-size:60px;"">+</div>","null","","fixation","","","","","","","","","","",""
"aa-learning-trial","220","972414","0.0-11.0-2.0-1.15","8030","2","13","Female","approach_avoid_spark_v1","""event"",""trial"",""time""
""fullscreenenter"",""1"",""15784""
","
","
","""event"",""trial"",""time""
""fullscreenenter"",""1"",""15784""
","
","","","","","","1556.3999996185303","images/boat2.png","","","learning","3","3","1","1","boat","vehicles","1","1","","neutral","0"
"html-keyboard-response","221","972915","0.0-11.0-2.0-0.16","8030","2","13","Female","approach_avoid_spark_v1","""event"",""trial"",""time""
""fullscreenenter"",""1"",""15784""
","
","
","""event"",""trial"",""time""
""fullscreenenter"",""1"",""15784""
","
","","","","","","null","<div style=""font-size:60px;"">+</div>","null","","fixation","","","","","","","","","","",""
"aa-learning-trial","222","975918","0.0-11.0-2.0-1.16","8030","2","13","Female","approach_avoid_spark_v1","""event"",""trial"",""time""
""fullscreenenter"",""1"",""15784""
","
","
","""event"",""trial"",""time""
""fullscreenenter"",""1"",""15784""
","
","","","","","","1022.1000003814697","images/plane7.png","","","learning","-3","0","0","0","plane","vehicles","1","1","","bad","[-3]"
"html-keyboard-response","223","976419","0.0-11.0-2.0-0.17","8030","2","13","Female","approach_avoid_spark_v1","""event"",""trial"",""time""
""fullscreenenter"",""1"",""15784""
","
","
","""event"",""trial"",""time""
""fullscreenenter"",""1"",""15784""
","
","","","","","","null","<div style=""font-size:60px;"">+</div>","null","","fixation","","","","","","","","","","",""
"aa-learning-trial","224","979421","0.0-11.0-2.0-1.17","8030","2","13","Female","approach_avoid_spark_v1","""event"",""trial"",""time""
""fullscreenenter"",""1"",""15784""
","
","
","""event"",""trial"",""time""
""fullscreenenter"",""1"",""15784""
","
","","","","","","869.5999994277954","images/truck4.png","","","learning","4","4","1","1","truck","vehicles","1","1","","good","[4]"
"html-keyboard-response","225","979923","0.0-11.0-2.0-0.18","8030","2","13","Female","approach_avoid_spark_v1","""event"",""trial"",""time""
""fullscreenenter"",""1"",""15784""
","
","
","""event"",""trial"",""time""
""fullscreenenter"",""1"",""15784""
","
","","","","","","null","<div style=""font-size:60px;"">+</div>","null","","fixation","","","","","","","","","","",""
"aa-learning-trial","226","982925","0.0-11.0-2.0-1.18","8030","2","13","Female","approach_avoid_spark_v1","""event"",""trial"",""time""
""fullscreenenter"",""1"",""15784""
","
","
","""event"",""trial"",""time""
""fullscreenenter"",""1"",""15784""
","
","","","","","","1169.7000007629395","images/truck6.png","","","learning","6","6","1","1","truck","vehicles","1","1","","good","[4]"
"html-keyboard-response","227","983426","0.0-11.0-2.0-0.19","8030","2","13","Female","approach_avoid_spark_v1","""event"",""trial"",""time""
""fullscreenenter"",""1"",""15784""
","
","
","""event"",""trial"",""time""
""fullscreenenter"",""1"",""15784""
","
","","","","","","null","<div style=""font-size:60px;"">+</div>","null","","fixation","","","","","","","","","","",""
"aa-learning-trial","228","986430","0.0-11.0-2.0-1.19","8030","2","13","Female","approach_avoid_spark_v1","""event"",""trial"",""time""
""fullscreenenter"",""1"",""15784""
","
","
","""event"",""trial"",""time""
""fullscreenenter"",""1"",""15784""
","
","","","","","","697.7000007629395","images/truck4.png","","","learning","5","5","1","1","truck","vehicles","1","1","","good","[4]"
"html-keyboard-response","229","986931","0.0-11.0-2.0-0.20","8030","2","13","Female","approach_avoid_spark_v1","""event"",""trial"",""time""
""fullscreenenter"",""1"",""15784""
","
","
","""event"",""trial"",""time""
""fullscreenenter"",""1"",""15784""
","
","","","","","","null","<div style=""font-size:60px;"">+</div>","null","","fixation","","","","","","","","","","",""
"aa-learning-trial","230","989934","0.0-11.0-2.0-1.20","8030","2","13","Female","approach_avoid_spark_v1","""event"",""trial"",""time""
""fullscreenenter"",""1"",""15784""
","
","
","""event"",""trial"",""time""
""fullscreenenter"",""1"",""15784""
","
","","","","","","1139.2000007629395","images/truck8.png","","","learning","7","0","0","0","truck","vehicles","1","1","","good","[4]"
"html-keyboard-response","231","990435","0.0-11.0-2.0-0.21","8030","2","13","Female","approach_avoid_spark_v1","""event"",""trial"",""time""
""fullscreenenter"",""1"",""15784""
","
","
","""event"",""trial"",""time""
""fullscreenenter"",""1"",""15784""
","
","","","","","","null","<div style=""font-size:60px;"">+</div>","null","","fixation","","","","","","","","","","",""
"aa-learning-trial","232","993438","0.0-11.0-2.0-1.21","8030","2","13","Female","approach_avoid_spark_v1","""event"",""trial"",""time""
""fullscreenenter"",""1"",""15784""
","
","
","""event"",""trial"",""time""
""fullscreenenter"",""1"",""15784""
","
","","","","","","712.2999992370605","images/plane8.png","","","learning","-4","0","0","0","plane","vehicles","1","1","","bad","[-3]"
"html-keyboard-response","233","993940","0.0-11.0-2.0-0.22","8030","2","13","Female","approach_avoid_spark_v1","""event"",""trial"",""time""
""fullscreenenter"",""1"",""15784""
","
","
","""event"",""trial"",""time""
""fullscreenenter"",""1"",""15784""
","
","","","","","","null","<div style=""font-size:60px;"">+</div>","null","","fixation","","","","","","","","","","",""
"aa-learning-trial","234","996942","0.0-11.0-2.0-1.22","8030","2","13","Female","approach_avoid_spark_v1","""event"",""trial"",""time""
""fullscreenenter"",""1"",""15784""
","
","
","""event"",""trial"",""time""
""fullscreenenter"",""1"",""15784""
","
","","","","","","583.1999998092651","images/plane8.png","","","learning","-2","0","0","0","plane","vehicles","1","1","","bad","[-3]"
"html-keyboard-response","235","997444","0.0-11.0-2.0-0.23","8030","2","13","Female","approach_avoid_spark_v1","""event"",""trial"",""time""
""fullscreenenter"",""1"",""15784""
","
","
","""event"",""trial"",""time""
""fullscreenenter"",""1"",""15784""
","
","","","","","","null","<div style=""font-size:60px;"">+</div>","null","","fixation","","","","","","","","","","",""
"aa-learning-trial","236","1000447","0.0-11.0-2.0-1.23","8030","2","13","Female","approach_avoid_spark_v1","""event"",""trial"",""time""
""fullscreenenter"",""1"",""15784""
","
","
","""event"",""trial"",""time""
""fullscreenenter"",""1"",""15784""
","
","","","","","","901","images/boat6.png","","","learning","-1","-1","1","1","boat","vehicles","1","1","","neutral","0"
