"trial_type","trial_index","time_elapsed","internal_node_id","subject_id","task_condition","age","gender","task_version","interactions","blur_events","focus_events","fullscreenenter_events","fullscreenexit_events","success","timeout","failed_images","failed_audio","failed_video","rt","stimulus","response","button_pressed","task_part","approach_reward","points","key_press","option_selected","stim_cat","task_block","block_condition","block_number","correct","cat_type","mean_cat_reward"
"pavlovia","0","7","0.0-0.0","3812","1","11","Male","approach_avoid_spark_v1","""event"",""trial"",""time""
""fullscreenenter"",""1"",""6124""
","
","
","""event"",""trial"",""time""
""fullscreenenter"",""1"",""6124""
","
","","","","","","","","","","","","","","","","","","","","",""
"fullscreen","1","7094","0.0-1.0","3812","1","11","Male","approach_avoid_spark_v1","""event"",""trial"",""time""
""fullscreenenter"",""1"",""6124""
","
","
","""event"",""trial"",""time""
""fullscreenenter"",""1"",""6124""
","
","true","","","","","","","","","","","","","","","","","","","",""
"preload","2","44511","0.0-2.0","3812","1","11","Male","approach_avoid_spark_v1","""event"",""trial"",""time""
""fullscreenenter"",""1"",""6124""
","
","
","""event"",""trial"",""time""
""fullscreenenter"",""1"",""6124""
","
","true","false","[]","[]","[]","","","","","","","","","","","","","","","",""
"audio-keyboard-response","3","48437","0.0-3.0","3812","1","11","Male","approach_avoid_spark_v1","""event"",""trial"",""time""
""fullscreenenter"",""1"",""6124""
","
","
","""event"",""trial"",""time""
""fullscreenenter"",""1"",""6124""
","
","","","","","","3567.9999999999977","audio/beep_loop.wav","audiovolumedown","","","","","","","","","","","","",""
"audio-button-response","4","63486","0.0-4.0","3812","1","11","Male","approach_avoid_spark_v1","""event"",""trial"",""time""
""fullscreenenter"",""1"",""6124""
","
","
","""event"",""trial"",""time""
""fullscreenenter"",""1"",""6124""
","
","","","","","","15040","audio/shark.wav","4","","","","","","","","","","","","",""
"audio-button-response","5","72063","0.0-5.0","3812","1","11","Male","approach_avoid_spark_v1","""event"",""trial"",""time""
""fullscreenenter"",""1"",""6124""
","
","
","""event"",""trial"",""time""
""fullscreenenter"",""1"",""6124""
","
","","","","","","7549","audio/turtle.wav","1","","","","","","","","","","","","",""
"preload","6","97747","0.0-6.0","3812","1","11","Male","approach_avoid_spark_v1","""event"",""trial"",""time""
""fullscreenenter"",""1"",""6124""
","
","
","""event"",""trial"",""time""
""fullscreenenter"",""1"",""6124""
","
","true","false","[]","[]","[]","","","","","","","","","","","","","","","",""
"html-keyboard-response","7","109917","0.0-7.0","3812","1","11","Male","approach_avoid_spark_v1","""event"",""trial"",""time""
""fullscreenenter"",""1"",""6124""
","
","
","""event"",""trial"",""time""
""fullscreenenter"",""1"",""6124""
","
","","","","","","12167.5","Welcome to the experiment. Press any key to begin and to advance the instructions."," ","","","","","","","","","","","","",""
"learning-instructions","8","120859","0.0-8.0-0.0-0.0","3812","1","11","Male","approach_avoid_spark_v1","""event"",""trial"",""time""
""fullscreenenter"",""1"",""6124""
","
","
","""event"",""trial"",""time""
""fullscreenenter"",""1"",""6124""
","
","","","","","","3713","<p> Welcome! Today you are going to play 6 different rounds of a decision-making game. </p><p> Use the mouse to click next to continue. </p>","","0","instructions","","","","","","","","","","",""
"learning-instructions","9","124435","0.0-8.0-0.0-0.1","3812","1","11","Male","approach_avoid_spark_v1","""event"",""trial"",""time""
""fullscreenenter"",""1"",""6124""
","
","
","""event"",""trial"",""time""
""fullscreenenter"",""1"",""6124""
","
","","","","","","829.0999999046326","<p> You will start with a practice round to learn the rules. </p>","","0","instructions","","","","","","","","","","",""
"learning-instructions","10","130716","0.0-8.0-0.0-0.2","3812","1","11","Male","approach_avoid_spark_v1","""event"",""trial"",""time""
""fullscreenenter"",""1"",""6124""
","
","
","""event"",""trial"",""time""
""fullscreenenter"",""1"",""6124""
","
","","","","","","2810.9000000953674","<p> Your goal in this round is to give out sports equipment to kids. </p></div>","","0","instructions","","","","","","","","","","",""
"learning-instructions","11","139797","0.0-8.0-0.0-0.3","3812","1","11","Male","approach_avoid_spark_v1","""event"",""trial"",""time""
""fullscreenenter"",""1"",""6124""
","
","
","""event"",""trial"",""time""
""fullscreenenter"",""1"",""6124""
","
","","","","","","1512.2000000476837","<p> The kids only like some of the equipment.  </p><p> On each turn, you will see a piece of sports equipment.   </p><p> You need to decide whether to give it to the kids or not.  </p>","","0","instructions","","","","","","","","","","",""
"learning-instructions","12","145199","0.0-8.0-0.0-0.4","3812","1","11","Male","approach_avoid_spark_v1","""event"",""trial"",""time""
""fullscreenenter"",""1"",""6124""
","
","
","""event"",""trial"",""time""
""fullscreenenter"",""1"",""6124""
","
","","","","","","652.8999998569489","<p> You can give them the equipment by pressing 1 and choose not to give it to them by pressing 0. </p><br><div class=""choice-instructions-grid""> <div class=""choice-option""><img src=""images/approach.png"" class=""choice-option-img"" stage=""instructions"" position=""0"" ><div class=""choice-option-text""> Press ""1."" </div></div><div class=""choice-option""><img src=""images/avoid.png"" class=""choice-option-img"" stage=""instructions"" position=""1"" ><div class=""choice-option-text""> Press ""0."" </div></div>","","0","instructions","","","","","","","","","","",""
"learning-instructions","13","155835","0.0-8.0-0.0-0.5","3812","1","11","Male","approach_avoid_spark_v1","""event"",""trial"",""time""
""fullscreenenter"",""1"",""6124""
","
","
","""event"",""trial"",""time""
""fullscreenenter"",""1"",""6124""
","
","","","","","","3250.399999856949","<p> If you give them a piece of equipment they like, they will be happy! </p><p> But if you give them a piece of equipment they do not like, they will be sad. </p>","","0","instructions","","","","","","","","","","",""
"learning-instructions","14","171006","0.0-8.0-0.0-0.6","3812","1","11","Male","approach_avoid_spark_v1","""event"",""trial"",""time""
""fullscreenenter"",""1"",""6124""
","
","
","""event"",""trial"",""time""
""fullscreenenter"",""1"",""6124""
","
","","","","","","4649.5","<p> You will earn points based on how you make kids feel. </p><p> If you make them happy, you will WIN anywhere from 1 - 9 points, </p><p> but if you make them sad, you will LOSE anywhere from 1 - 9 points. </p>","","0","instructions","","","","","","","","","","",""
"learning-instructions","15","184042","0.0-8.0-0.0-0.7","3812","1","11","Male","approach_avoid_spark_v1","""event"",""trial"",""time""
""fullscreenenter"",""1"",""6124""
","
","
","""event"",""trial"",""time""
""fullscreenenter"",""1"",""6124""
","
","","","","","","3466.899999856949","<p> You will see how many points you won or lost in the center of the screen. </p><p> Here is what you would see if you won 6 points: </p><p style=""color:green;font-size:50px;font-weight:bolder"">6</p><p style=""color:green"">The text is GREEN because you WON points.</p>","","0","instructions","","","","","","","","","","",""
"learning-instructions","16","190338","0.0-8.0-0.0-0.8","3812","1","11","Male","approach_avoid_spark_v1","""event"",""trial"",""time""
""fullscreenenter"",""1"",""6124""
","
","
","""event"",""trial"",""time""
""fullscreenenter"",""1"",""6124""
","
","","","","","","792.6000001430511","<p> And here is what you would see if you lost 4 points: </p><p style=""color:red;font-size:50px;font-weight:bolder"">-4</p><p style=""color:red"">The text is RED because you LOST points. </p>","","0","instructions","","","","","","","","","","",""
"learning-instructions","17","206677","0.0-8.0-0.0-0.9","3812","1","11","Male","approach_avoid_spark_v1","""event"",""trial"",""time""
""fullscreenenter"",""1"",""6124""
","
","
","""event"",""trial"",""time""
""fullscreenenter"",""1"",""6124""
","
","","","","","","1612.7000000476837","<p> Some of the equipment will make the kids VERY happy or sad. </p><p> These pieces of equipment will make you win or lose LOTS of points. </p><p> Other pieces of equipment will only make the kids a little happy or sad. </p><p> These pieces of equipment will make you win or lose small amounts of points. </p>","","0","instructions","","","","","","","","","","",""
"learning-instructions","18","222615","0.0-8.0-0.0-0.10","3812","1","11","Male","approach_avoid_spark_v1","""event"",""trial"",""time""
""fullscreenenter"",""1"",""6124""
","
","
","""event"",""trial"",""time""
""fullscreenenter"",""1"",""6124""
","
","","","","","","5310.599999904633","<p> If you choose not to give them the equipment, you will not win or lose any points. </p><p>  However, in the center of the screen, you will see the number of points you WOULD HAVE won or lost if you had given them the equipment. </p>","","0","instructions","","","","","","","","","","",""
"learning-instructions","19","247423","0.0-8.0-0.0-0.11","3812","1","11","Male","approach_avoid_spark_v1","""event"",""trial"",""time""
""fullscreenenter"",""1"",""6124""
","
","
","""event"",""trial"",""time""
""fullscreenenter"",""1"",""6124""
","
","","","","","","3278.399999856949","<p> Here is what you might see if you did not give the equipment to the kids but it would have made them happy: </p><p style=""color:grey; font-size:50px; display: inline-block; border-spacing: 15px; border-width:3px; border-style:solid; border-color:red"">  &nbsp; 7 &nbsp; </p><p> Remember, in this case, you would not win or lose ANY points because you did not give them the equipment.  </p><p style=""color:grey"">The text is GREY because you earned ZERO points. </p><p style=""color:red"">However, choosing to give the kids the equipment would have made you win points. The box around the text is RED because you chose the worse option. </p>","","0","instructions","","","","","","","","","","",""
"learning-instructions","20","271145","0.0-8.0-0.0-0.12","3812","1","11","Male","approach_avoid_spark_v1","""event"",""trial"",""time""
""fullscreenenter"",""1"",""6124""
","
","
","""event"",""trial"",""time""
""fullscreenenter"",""1"",""6124""
","
","","","","","","2638.2999999523163","<p> Here is what you might see if you did not give the equipment to the kids but it would have made them sad: </p><p style=""color:grey;font-size:50px; display: inline-block; border-spacing: 15px; border-width:3px; border-style:solid; border-color:green"">  &nbsp; -8 &nbsp; </p><p> Remember, in this case, you would not win or lose ANY points because you did not give them the equipment.  </p><p style=""color:grey"">The text is GREY because you earned ZERO points. </p><p  style=""color:green""> Choosing to give the kids the equipment would have made you lose points. The box around the text is GREEN because you chose the better option.</p>","","0","instructions","","","","","","","","","","",""
"learning-instructions","21","283098","0.0-8.0-0.0-0.13","3812","1","11","Male","approach_avoid_spark_v1","""event"",""trial"",""time""
""fullscreenenter"",""1"",""6124""
","
","
","""event"",""trial"",""time""
""fullscreenenter"",""1"",""6124""
","
","","","","","","1861.0999999046326","<p> You will have 3 seconds to make each choice. Try to respond before time runs out! </p><p> You will lose 5 points each time you do not make a response. </p>","","0","instructions","","","","","","","","","","",""
"learning-instructions","22","289646","0.0-8.0-0.0-0.14","3812","1","11","Male","approach_avoid_spark_v1","""event"",""trial"",""time""
""fullscreenenter"",""1"",""6124""
","
","
","""event"",""trial"",""time""
""fullscreenenter"",""1"",""6124""
","
","","","","","","1118.8000001907349","<p> This is just a practice round, but in the real game, your bonus payment will depend on your total number of points.","","0","instructions","","","","","","","","","","",""
"learning-instructions","23","298565","0.0-8.0-0.0-0.15","3812","1","11","Male","approach_avoid_spark_v1","""event"",""trial"",""time""
""fullscreenenter"",""1"",""6124""
","
","
","""event"",""trial"",""time""
""fullscreenenter"",""1"",""6124""
","
","","","","","","3148.0999999046326","<p> Remember, you can give them the equipment by pressing 1 and choose not to give it to them by pressing 0. </p><br><div class=""choice-instructions-grid""> <div class=""choice-option""><img src=""images/approach.png"" class=""choice-option-img"" stage=""instructions"" position=""0"" ><div class=""choice-option-text""> Press ""1."" </div></div><div class=""choice-option""><img src=""images/avoid.png"" class=""choice-option-img"" stage=""instructions"" position=""1"" ><div class=""choice-option-text""> Press ""0."" </div></div>","","0","instructions","","","","","","","","","","",""
"html-button-response","24","300488","0.0-8.0-1.0","3812","1","11","Male","approach_avoid_spark_v1","""event"",""trial"",""time""
""fullscreenenter"",""1"",""6124""
","
","
","""event"",""trial"",""time""
""fullscreenenter"",""1"",""6124""
","
","","","","","","1800.5","<p> Ready to practice? </p>","0","","","","","","","","","","","","",""
"html-keyboard-response","25","301104","0.0-8.0-2.0-0.0","3812","1","11","Male","approach_avoid_spark_v1","""event"",""trial"",""time""
""fullscreenenter"",""1"",""6124""
","
","
","""event"",""trial"",""time""
""fullscreenenter"",""1"",""6124""
","
","","","","","","null","<div style=""font-size:60px;"">+</div>","null","","fixation","","","","","","","","","","",""
"aa-learning-trial","26","304120","0.0-8.0-2.0-1.0","3812","1","11","Male","approach_avoid_spark_v1","""event"",""trial"",""time""
""fullscreenenter"",""1"",""6124""
","
","
","""event"",""trial"",""time""
""fullscreenenter"",""1"",""6124""
","
","","","","","","2636.4000000953674","images/ball4.png","","","learning","-1","-1","1","1","practice","practice","practice","-1","","",""
"html-keyboard-response","27","304635","0.0-8.0-2.0-0.1","3812","1","11","Male","approach_avoid_spark_v1","""event"",""trial"",""time""
""fullscreenenter"",""1"",""6124""
","
","
","""event"",""trial"",""time""
""fullscreenenter"",""1"",""6124""
","
","","","","","","null","<div style=""font-size:60px;"">+</div>","null","","fixation","","","","","","","","","","",""
"aa-learning-trial","28","307653","0.0-8.0-2.0-1.1","3812","1","11","Male","approach_avoid_spark_v1","""event"",""trial"",""time""
""fullscreenenter"",""1"",""6124""
","
","
","""event"",""trial"",""time""
""fullscreenenter"",""1"",""6124""
","
","","","","","","1212.6000001430511","images/racket1.png","","","learning","8","0","0","0","practice","practice","practice","-1","","",""
"html-keyboard-response","29","308168","0.0-8.0-2.0-0.2","3812","1","11","Male","approach_avoid_spark_v1","""event"",""trial"",""time""
""fullscreenenter"",""1"",""6124""
","
","
","""event"",""trial"",""time""
""fullscreenenter"",""1"",""6124""
","
","","","","","","null","<div style=""font-size:60px;"">+</div>","null","","fixation","","","","","","","","","","",""
"aa-learning-trial","30","311177","0.0-8.0-2.0-1.2","3812","1","11","Male","approach_avoid_spark_v1","""event"",""trial"",""time""
""fullscreenenter"",""1"",""6124""
","
","
","""event"",""trial"",""time""
""fullscreenenter"",""1"",""6124""
","
","","","","","","914.8000001907349","images/racket1.png","","","learning","-3","0","0","0","practice","practice","practice","-1","","",""
"html-keyboard-response","31","311690","0.0-8.0-2.0-0.3","3812","1","11","Male","approach_avoid_spark_v1","""event"",""trial"",""time""
""fullscreenenter"",""1"",""6124""
","
","
","""event"",""trial"",""time""
""fullscreenenter"",""1"",""6124""
","
","","","","","","null","<div style=""font-size:60px;"">+</div>","null","","fixation","","","","","","","","","","",""
"aa-learning-trial","32","314700","0.0-8.0-2.0-1.3","3812","1","11","Male","approach_avoid_spark_v1","""event"",""trial"",""time""
""fullscreenenter"",""1"",""6124""
","
","
","""event"",""trial"",""time""
""fullscreenenter"",""1"",""6124""
","
","","","","","","2230.7000000476837","images/racket1.png","","","learning","-7","-7","1","1","practice","practice","practice","-1","","",""
"html-keyboard-response","33","315220","0.0-8.0-2.0-0.4","3812","1","11","Male","approach_avoid_spark_v1","""event"",""trial"",""time""
""fullscreenenter"",""1"",""6124""
","
","
","""event"",""trial"",""time""
""fullscreenenter"",""1"",""6124""
","
","","","","","","null","<div style=""font-size:60px;"">+</div>","null","","fixation","","","","","","","","","","",""
"aa-learning-trial","34","318239","0.0-8.0-2.0-1.4","3812","1","11","Male","approach_avoid_spark_v1","""event"",""trial"",""time""
""fullscreenenter"",""1"",""6124""
","
","
","""event"",""trial"",""time""
""fullscreenenter"",""1"",""6124""
","
","","","","","","1317.1000001430511","images/ball3.png","","","learning","-5","-5","1","1","practice","practice","practice","-1","","",""
"html-keyboard-response","35","318748","0.0-8.0-2.0-0.5","3812","1","11","Male","approach_avoid_spark_v1","""event"",""trial"",""time""
""fullscreenenter"",""1"",""6124""
","
","
","""event"",""trial"",""time""
""fullscreenenter"",""1"",""6124""
","
","","","","","","null","<div style=""font-size:60px;"">+</div>","null","","fixation","","","","","","","","","","",""
"aa-learning-trial","36","321764","0.0-8.0-2.0-1.5","3812","1","11","Male","approach_avoid_spark_v1","""event"",""trial"",""time""
""fullscreenenter"",""1"",""6124""
","
","
","""event"",""trial"",""time""
""fullscreenenter"",""1"",""6124""
","
","","","","","","485.5","images/ball3.png","","","learning","-1","0","0","0","practice","practice","practice","-1","","",""
"html-keyboard-response","37","322270","0.0-8.0-2.0-0.6","3812","1","11","Male","approach_avoid_spark_v1","""event"",""trial"",""time""
""fullscreenenter"",""1"",""6124""
","
","
","""event"",""trial"",""time""
""fullscreenenter"",""1"",""6124""
","
","","","","","","null","<div style=""font-size:60px;"">+</div>","null","","fixation","","","","","","","","","","",""
"aa-learning-trial","38","325278","0.0-8.0-2.0-1.6","3812","1","11","Male","approach_avoid_spark_v1","""event"",""trial"",""time""
""fullscreenenter"",""1"",""6124""
","
","
","""event"",""trial"",""time""
""fullscreenenter"",""1"",""6124""
","
","","","","","","726.7999999523163","images/ball1.png","","","learning","-8","0","0","0","practice","practice","practice","-1","","",""
"html-keyboard-response","39","325782","0.0-8.0-2.0-0.7","3812","1","11","Male","approach_avoid_spark_v1","""event"",""trial"",""time""
""fullscreenenter"",""1"",""6124""
","
","
","""event"",""trial"",""time""
""fullscreenenter"",""1"",""6124""
","
","","","","","","null","<div style=""font-size:60px;"">+</div>","null","","fixation","","","","","","","","","","",""
"aa-learning-trial","40","328793","0.0-8.0-2.0-1.7","3812","1","11","Male","approach_avoid_spark_v1","""event"",""trial"",""time""
""fullscreenenter"",""1"",""6124""
","
","
","""event"",""trial"",""time""
""fullscreenenter"",""1"",""6124""
","
","","","","","","596.7000000476837","images/ball3.png","","","learning","6","0","0","0","practice","practice","practice","-1","","",""
"html-keyboard-response","41","329308","0.0-8.0-2.0-0.8","3812","1","11","Male","approach_avoid_spark_v1","""event"",""trial"",""time""
""fullscreenenter"",""1"",""6124""
","
","
","""event"",""trial"",""time""
""fullscreenenter"",""1"",""6124""
","
","","","","","","null","<div style=""font-size:60px;"">+</div>","null","","fixation","","","","","","","","","","",""
"aa-learning-trial","42","332322","0.0-8.0-2.0-1.8","3812","1","11","Male","approach_avoid_spark_v1","""event"",""trial"",""time""
""fullscreenenter"",""1"",""6124""
","
","
","""event"",""trial"",""time""
""fullscreenenter"",""1"",""6124""
","
","","","","","","769.5","images/racket1.png","","","learning","-6","-6","1","1","practice","practice","practice","-1","","",""
"html-keyboard-response","43","332840","0.0-8.0-2.0-0.9","3812","1","11","Male","approach_avoid_spark_v1","""event"",""trial"",""time""
""fullscreenenter"",""1"",""6124""
","
","
","""event"",""trial"",""time""
""fullscreenenter"",""1"",""6124""
","
","","","","","","null","<div style=""font-size:60px;"">+</div>","null","","fixation","","","","","","","","","","",""
"aa-learning-trial","44","335852","0.0-8.0-2.0-1.9","3812","1","11","Male","approach_avoid_spark_v1","""event"",""trial"",""time""
""fullscreenenter"",""1"",""6124""
","
","
","""event"",""trial"",""time""
""fullscreenenter"",""1"",""6124""
","
","","","","","","2119.0999999046326","images/racket1.png","","","learning","-8","0","0","0","practice","practice","practice","-1","","",""
"html-keyboard-response","45","336358","0.0-8.0-2.0-0.10","3812","1","11","Male","approach_avoid_spark_v1","""event"",""trial"",""time""
""fullscreenenter"",""1"",""6124""
","
","
","""event"",""trial"",""time""
""fullscreenenter"",""1"",""6124""
","
","","","","","","null","<div style=""font-size:60px;"">+</div>","null","","fixation","","","","","","","","","","",""
"aa-learning-trial","46","339370","0.0-8.0-2.0-1.10","3812","1","11","Male","approach_avoid_spark_v1","""event"",""trial"",""time""
""fullscreenenter"",""1"",""6124""
","
","
","""event"",""trial"",""time""
""fullscreenenter"",""1"",""6124""
","
","","","","","","1106","images/ball3.png","","","learning","1","0","0","0","practice","practice","practice","-1","","",""
"html-keyboard-response","47","339879","0.0-8.0-2.0-0.11","3812","1","11","Male","approach_avoid_spark_v1","""event"",""trial"",""time""
""fullscreenenter"",""1"",""6124""
","
","
","""event"",""trial"",""time""
""fullscreenenter"",""1"",""6124""
","
","","","","","","null","<div style=""font-size:60px;"">+</div>","null","","fixation","","","","","","","","","","",""
"aa-learning-trial","48","342891","0.0-8.0-2.0-1.11","3812","1","11","Male","approach_avoid_spark_v1","""event"",""trial"",""time""
""fullscreenenter"",""1"",""6124""
","
","
","""event"",""trial"",""time""
""fullscreenenter"",""1"",""6124""
","
","","","","","","328.60000014305115","images/ball4.png","","","learning","-1","-1","1","1","practice","practice","practice","-1","","",""
"html-button-response","49","346544","0.0-8.0-3.0","3812","1","11","Male","approach_avoid_spark_v1","""event"",""trial"",""time""
""fullscreenenter"",""1"",""6124""
","
","
","""event"",""trial"",""time""
""fullscreenenter"",""1"",""6124""
","
","","","","","","3647.7999999523163","<p> You earned -20 points in the practice round! </p>","0","","break","","","","","","","","","","",""
"learning-instructions","50","355100","0.0-8.0-4.0-0.0","3812","1","11","Male","approach_avoid_spark_v1","""event"",""trial"",""time""
""fullscreenenter"",""1"",""6124""
","
","
","""event"",""trial"",""time""
""fullscreenenter"",""1"",""6124""
","
","","","","","","2258.0999999046326","<p> It's almost time to start the real game. </p><p> Before you start, we're going to ask you a few questions about how the game works. </p>","","0","instructions","","","","","","","","","","",""
"preload","51","365652","0.0-8.0-5.0","3812","1","11","Male","approach_avoid_spark_v1","""event"",""trial"",""time""
""fullscreenenter"",""1"",""6124""
","
","
","""event"",""trial"",""time""
""fullscreenenter"",""1"",""6124""
","
","true","false","[]","[]","[]","","","","","","","","","","","","","","","",""
"comp-q","52","372755","0.0-8.0-6.0-0.0","3812","1","11","Male","approach_avoid_spark_v1","""event"",""trial"",""time""
""fullscreenenter"",""1"",""6124""
","
","
","""event"",""trial"",""time""
""fullscreenenter"",""1"",""6124""
","
","","","","","","2102.5999999046326","<p> <b> True or False? </b> </p><p> If you see a number in GREY, that means you earned that many points. </p>","","1","comp_question","","","","","","","","","true","",""
"comp-q","53","381999","0.0-8.0-6.0-1.0","3812","1","11","Male","approach_avoid_spark_v1","""event"",""trial"",""time""
""fullscreenenter"",""1"",""6124""
","
","
","""event"",""trial"",""time""
""fullscreenenter"",""1"",""6124""
","
","","","","","","867.8999998569489","<p><b> That's right! </b> If you see a grey number, it means you earned ZERO points. <br> The grey numbers show the points you WOULD HAVE earned if you had made the other choice. </p>","","0","comp_answer","","","","","","","","","","",""
"comp-q","54","387269","0.0-8.0-7.0-0.0","3812","1","11","Male","approach_avoid_spark_v1","""event"",""trial"",""time""
""fullscreenenter"",""1"",""6124""
","
","
","""event"",""trial"",""time""
""fullscreenenter"",""1"",""6124""
","
","","","","","","567.0999999046326","<p> <b> True or False? </b> </p><p> You will have as much time as you want to make each choice. </p>","","1","comp_question","","","","","","","","","true","",""
"comp-q","55","393074","0.0-8.0-7.0-1.0","3812","1","11","Male","approach_avoid_spark_v1","""event"",""trial"",""time""
""fullscreenenter"",""1"",""6124""
","
","
","""event"",""trial"",""time""
""fullscreenenter"",""1"",""6124""
","
","","","","","","1753.2999999523163","<p> <b> That's right! </b> You will only have 3 seconds to make each choice. </p>","","0","comp_answer","","","","","","","","","","",""
"comp-q","56","398532","0.0-8.0-8.0-0.0","3812","1","11","Male","approach_avoid_spark_v1","""event"",""trial"",""time""
""fullscreenenter"",""1"",""6124""
","
","
","""event"",""trial"",""time""
""fullscreenenter"",""1"",""6124""
","
","","","","","","780.5999999046326","<p> <b> True or False? </b> </p><p> You should use the '1' and '0' keys to make your choices. </p>","","0","comp_question","","","","","","","","","true","",""
"comp-q","57","404517","0.0-8.0-8.0-1.0","3812","1","11","Male","approach_avoid_spark_v1","""event"",""trial"",""time""
""fullscreenenter"",""1"",""6124""
","
","
","""event"",""trial"",""time""
""fullscreenenter"",""1"",""6124""
","
","","","","","","1356.3999998569489","<p> <b> That's right! </b> You should use the '1' and '0' keys to make each choice. </p>","","0","comp_answer","","","","","","","","","","",""
"learning-instructions","58","412415","0.0-8.0-9.0-0.0","3812","1","11","Male","approach_avoid_spark_v1","""event"",""trial"",""time""
""fullscreenenter"",""1"",""6124""
","
","
","""event"",""trial"",""time""
""fullscreenenter"",""1"",""6124""
","
","","","","","","1613.4000000953674","<p> It's now time to start the real game. </p>Do your best, because the points you earn in the next rounds will influence your bonus payment. </p>","","0","instructions","","","","","","","","","","",""
"preload","59","412577","0.0-9.0-0.0","3812","1","11","Male","approach_avoid_spark_v1","""event"",""trial"",""time""
""fullscreenenter"",""1"",""6124""
","
","
","""event"",""trial"",""time""
""fullscreenenter"",""1"",""6124""
","
","true","false","[]","[]","[]","","","","","","","","","","","","","","","",""
"learning-instructions","60","419052","0.0-9.0-1.0-0.0","3812","1","11","Male","approach_avoid_spark_v1","""event"",""trial"",""time""
""fullscreenenter"",""1"",""6124""
","
","
","""event"",""trial"",""time""
""fullscreenenter"",""1"",""6124""
","
","","","","","","740.7000000476837","<p> Your goal in this round is to take your friend for rides in different vehicles. </p></div>","","0","instructions","","","","","","","","","","",""
"learning-instructions","61","432428","0.0-9.0-1.0-0.1","3812","1","11","Male","approach_avoid_spark_v1","""event"",""trial"",""time""
""fullscreenenter"",""1"",""6124""
","
","
","""event"",""trial"",""time""
""fullscreenenter"",""1"",""6124""
","
","","","","","","1615.8999998569489","<p> Your friend enjoys riding in some vehicles but not in others.  </p><p> On each turn, you will see a vehicle.   </p><p> You need to decide whether to take your friend for a ride or not.  </p>","","0","instructions","","","","","","","","","","",""
"learning-instructions","62","442185","0.0-9.0-1.0-0.2","3812","1","11","Male","approach_avoid_spark_v1","""event"",""trial"",""time""
""fullscreenenter"",""1"",""6124""
","
","
","""event"",""trial"",""time""
""fullscreenenter"",""1"",""6124""
","
","","","","","","1843.6000001430511","<p> You can take your friend for a ride in the vehicle by pressing 1 and skip the ride by pressing 0. </p><br><div class=""choice-instructions-grid""> <div class=""choice-option""><img src=""images/approach.png"" class=""choice-option-img"" stage=""instructions"" position=""0"" ><div class=""choice-option-text""> Press ""1."" </div></div><div class=""choice-option""><img src=""images/avoid.png"" class=""choice-option-img"" stage=""instructions"" position=""1"" ><div class=""choice-option-text""> Press ""0."" </div></div>","","0","instructions","","","","","","","","","","",""
"learning-instructions","63","453648","0.0-9.0-1.0-0.3","3812","1","11","Male","approach_avoid_spark_v1","""event"",""trial"",""time""
""fullscreenenter"",""1"",""6124""
","
","
","""event"",""trial"",""time""
""fullscreenenter"",""1"",""6124""
","
","","","","","","916.5999999046326","<p> If you take them for a ride in a vehicle they like, they will be thrilled! </p><p> But if you take them for a ride in a vehicle they do not like, they will be upset. </p>","","0","instructions","","","","","","","","","","",""
"learning-instructions","64","467723","0.0-9.0-1.0-0.4","3812","1","11","Male","approach_avoid_spark_v1","""event"",""trial"",""time""
""fullscreenenter"",""1"",""6124""
","
","
","""event"",""trial"",""time""
""fullscreenenter"",""1"",""6124""
","
","","","","","","482.09999990463257","<p> You will earn points based on how you made your friend feel. </p><p> If you made him thrilled, you will WIN anywhere from 1 - 9 points, </p><p> but if you made him upset, you will LOSE anywhere from 1 - 9 points. </p>","","0","instructions","","","","","","","","","","",""
"learning-instructions","65","476801","0.0-9.0-1.0-0.5","3812","1","11","Male","approach_avoid_spark_v1","""event"",""trial"",""time""
""fullscreenenter"",""1"",""6124""
","
","
","""event"",""trial"",""time""
""fullscreenenter"",""1"",""6124""
","
","","","","","","489.30000019073486","<p> You will see how many points you won or lost in the center of the screen. </p><p> Here is what you would see if you won 5 points: </p><p style=""color:green;font-size:50px;font-weight:bolder"">5</p>","","0","instructions","","","","","","","","","","",""
"learning-instructions","66","483652","0.0-9.0-1.0-0.6","3812","1","11","Male","approach_avoid_spark_v1","""event"",""trial"",""time""
""fullscreenenter"",""1"",""6124""
","
","
","""event"",""trial"",""time""
""fullscreenenter"",""1"",""6124""
","
","","","","","","2521.399999856949","<p> And here is what you would see if you lost 3 points: </p><p style=""color:red;font-size:50px;font-weight:bolder"">-3</p>","","0","instructions","","","","","","","","","","",""
"learning-instructions","67","504803","0.0-9.0-1.0-0.7","3812","1","11","Male","approach_avoid_spark_v1","""event"",""trial"",""time""
""fullscreenenter"",""1"",""6124""
","
","
","""event"",""trial"",""time""
""fullscreenenter"",""1"",""6124""
","
","","","","","","1623.3000001907349","<p> Some vehicles will make your friend REALLY thrilled or upset. </p><p> These vehicles will make you win or lose LOTS of points. </p><p> Other vehicles will only make him feel a little thrilled or upset. </p><p> These vehicles will make you win or lose small amounts of points. </p>","","0","instructions","","","","","","","","","","",""
"learning-instructions","68","519202","0.0-9.0-1.0-0.8","3812","1","11","Male","approach_avoid_spark_v1","""event"",""trial"",""time""
""fullscreenenter"",""1"",""6124""
","
","
","""event"",""trial"",""time""
""fullscreenenter"",""1"",""6124""
","
","","","","","","892.2000000476837","<p> If you choose to skip the ride, you will not win or lose any points. </p><p>  However, in the center of the screen, you will see the number of points you WOULD HAVE won or lost if you had taken your friend for a ride. </p>","","0","instructions","","","","","","","","","","",""
"learning-instructions","69","533062","0.0-9.0-1.0-0.9","3812","1","11","Male","approach_avoid_spark_v1","""event"",""trial"",""time""
""fullscreenenter"",""1"",""6124""
","
","
","""event"",""trial"",""time""
""fullscreenenter"",""1"",""6124""
","
","","","","","","1241.3999998569489","<p> Here is what you might see if you did not take your friend for a ride but he would have enjoyed it: </p><p style=""color:grey; font-size:50px; display: inline-block; border-spacing: 15px; border-width:3px; border-style:solid; border-color:red"">  &nbsp; 6 &nbsp; </p><p> Remember, in this case, you would not win or lose ANY points because you skipped the ride.  </p>","","0","instructions","","","","","","","","","","",""
"learning-instructions","70","551543","0.0-9.0-1.0-0.10","3812","1","11","Male","approach_avoid_spark_v1","""event"",""trial"",""time""
""fullscreenenter"",""1"",""6124""
","
","
","""event"",""trial"",""time""
""fullscreenenter"",""1"",""6124""
","
","","","","","","8853.799999952316","<p> Try to make the best choice for each vehicle because </p><p> at the end of the game, you will earn bonus money based on how many points you earned. </p>","","0","instructions","","","","","","","","","","",""
"learning-instructions","71","561850","0.0-9.0-1.0-0.11","3812","1","11","Male","approach_avoid_spark_v1","""event"",""trial"",""time""
""fullscreenenter"",""1"",""6124""
","
","
","""event"",""trial"",""time""
""fullscreenenter"",""1"",""6124""
","
","","","","","","2100.7999999523163","<p> You will have 3 seconds to make each choice. Try to respond before time runs out! </p><p> You will lose 5 points each time you do not make a response. </p>","","0","instructions","","","","","","","","","","",""
"html-keyboard-response","72","562480","0.0-9.0-2.0-0.0","3812","1","11","Male","approach_avoid_spark_v1","""event"",""trial"",""time""
""fullscreenenter"",""1"",""6124""
","
","
","""event"",""trial"",""time""
""fullscreenenter"",""1"",""6124""
","
","","","","","","null","<div style=""font-size:60px;"">+</div>","null","","fixation","","","","","","","","","","",""
"aa-learning-trial","73","565495","0.0-9.0-2.0-1.0","3812","1","11","Male","approach_avoid_spark_v1","""event"",""trial"",""time""
""fullscreenenter"",""1"",""6124""
","
","
","""event"",""trial"",""time""
""fullscreenenter"",""1"",""6124""
","
","","","","","","2165.2999999523163","images/train7.png","","","learning","1","0","0","0","train","vehicles","1","0","","neutral","0"
"html-keyboard-response","74","566012","0.0-9.0-2.0-0.1","3812","1","11","Male","approach_avoid_spark_v1","""event"",""trial"",""time""
""fullscreenenter"",""1"",""6124""
","
","
","""event"",""trial"",""time""
""fullscreenenter"",""1"",""6124""
","
","","","","","","null","<div style=""font-size:60px;"">+</div>","null","","fixation","","","","","","","","","","",""
"aa-learning-trial","75","569020","0.0-9.0-2.0-1.1","3812","1","11","Male","approach_avoid_spark_v1","""event"",""trial"",""time""
""fullscreenenter"",""1"",""6124""
","
","
","""event"",""trial"",""time""
""fullscreenenter"",""1"",""6124""
","
","","","","","","2349.2000000476837","images/plane3.png","","","learning","4","4","1","1","plane","vehicles","1","0","","good","[4]"
"html-keyboard-response","76","569538","0.0-9.0-2.0-0.2","3812","1","11","Male","approach_avoid_spark_v1","""event"",""trial"",""time""
""fullscreenenter"",""1"",""6124""
","
","
","""event"",""trial"",""time""
""fullscreenenter"",""1"",""6124""
","
","","","","","","null","<div style=""font-size:60px;"">+</div>","null","","fixation","","","","","","","","","","",""
"aa-learning-trial","77","572564","0.0-9.0-2.0-1.2","3812","1","11","Male","approach_avoid_spark_v1","""event"",""trial"",""time""
""fullscreenenter"",""1"",""6124""
","
","
","""event"",""trial"",""time""
""fullscreenenter"",""1"",""6124""
","
","","","","","","959.7999999523163","images/boat8.png","","","learning","-8","-8","1","1","boat","vehicles","1","0","","bad","[-5]"
"html-keyboard-response","78","573076","0.0-9.0-2.0-0.3","3812","1","11","Male","approach_avoid_spark_v1","""event"",""trial"",""time""
""fullscreenenter"",""1"",""6124""
","
","
","""event"",""trial"",""time""
""fullscreenenter"",""1"",""6124""
","
","","","","","","null","<div style=""font-size:60px;"">+</div>","null","","fixation","","","","","","","","","","",""
"aa-learning-trial","79","576084","0.0-9.0-2.0-1.3","3812","1","11","Male","approach_avoid_spark_v1","""event"",""trial"",""time""
""fullscreenenter"",""1"",""6124""
","
","
","""event"",""trial"",""time""
""fullscreenenter"",""1"",""6124""
","
","","","","","","1990.5","images/boat8.png","","","learning","-6","-6","1","1","boat","vehicles","1","0","","bad","[-5]"
"html-keyboard-response","80","576593","0.0-9.0-2.0-0.4","3812","1","11","Male","approach_avoid_spark_v1","""event"",""trial"",""time""
""fullscreenenter"",""1"",""6124""
","
","
","""event"",""trial"",""time""
""fullscreenenter"",""1"",""6124""
","
","","","","","","null","<div style=""font-size:60px;"">+</div>","null","","fixation","","","","","","","","","","",""
"aa-learning-trial","81","579602","0.0-9.0-2.0-1.4","3812","1","11","Male","approach_avoid_spark_v1","""event"",""trial"",""time""
""fullscreenenter"",""1"",""6124""
","
","
","""event"",""trial"",""time""
""fullscreenenter"",""1"",""6124""
","
","","","","","","2067.0999999046326","images/boat3.png","","","learning","-5","-5","1","1","boat","vehicles","1","0","","bad","[-5]"
"html-keyboard-response","82","580119","0.0-9.0-2.0-0.5","3812","1","11","Male","approach_avoid_spark_v1","""event"",""trial"",""time""
""fullscreenenter"",""1"",""6124""
","
","
","""event"",""trial"",""time""
""fullscreenenter"",""1"",""6124""
","
","","","","","","null","<div style=""font-size:60px;"">+</div>","null","","fixation","","","","","","","","","","",""
"aa-learning-trial","83","583126","0.0-9.0-2.0-1.5","3812","1","11","Male","approach_avoid_spark_v1","""event"",""trial"",""time""
""fullscreenenter"",""1"",""6124""
","
","
","""event"",""trial"",""time""
""fullscreenenter"",""1"",""6124""
","
","","","","","","1356.3999998569489","images/plane3.png","","","learning","5","0","0","0","plane","vehicles","1","0","","good","[4]"
"html-keyboard-response","84","583648","0.0-9.0-2.0-0.6","3812","1","11","Male","approach_avoid_spark_v1","""event"",""trial"",""time""
""fullscreenenter"",""1"",""6124""
","
","
","""event"",""trial"",""time""
""fullscreenenter"",""1"",""6124""
","
","","","","","","null","<div style=""font-size:60px;"">+</div>","null","","fixation","","","","","","","","","","",""
"aa-learning-trial","85","586674","0.0-9.0-2.0-1.6","3812","1","11","Male","approach_avoid_spark_v1","""event"",""trial"",""time""
""fullscreenenter"",""1"",""6124""
","
","
","""event"",""trial"",""time""
""fullscreenenter"",""1"",""6124""
","
","","","","","","1591.1000001430511","images/train6.png","","","learning","1","0","0","0","train","vehicles","1","0","","neutral","0"
"html-keyboard-response","86","587193","0.0-9.0-2.0-0.7","3812","1","11","Male","approach_avoid_spark_v1","""event"",""trial"",""time""
""fullscreenenter"",""1"",""6124""
","
","
","""event"",""trial"",""time""
""fullscreenenter"",""1"",""6124""
","
","","","","","","null","<div style=""font-size:60px;"">+</div>","null","","fixation","","","","","","","","","","",""
"aa-learning-trial","87","590209","0.0-9.0-2.0-1.7","3812","1","11","Male","approach_avoid_spark_v1","""event"",""trial"",""time""
""fullscreenenter"",""1"",""6124""
","
","
","""event"",""trial"",""time""
""fullscreenenter"",""1"",""6124""
","
","","","","","","702.5999999046326","images/plane7.png","","","learning","3","3","1","1","plane","vehicles","1","0","","good","[4]"
"html-keyboard-response","88","590733","0.0-9.0-2.0-0.8","3812","1","11","Male","approach_avoid_spark_v1","""event"",""trial"",""time""
""fullscreenenter"",""1"",""6124""
","
","
","""event"",""trial"",""time""
""fullscreenenter"",""1"",""6124""
","
","","","","","","null","<div style=""font-size:60px;"">+</div>","null","","fixation","","","","","","","","","","",""
"aa-learning-trial","89","593756","0.0-9.0-2.0-1.8","3812","1","11","Male","approach_avoid_spark_v1","""event"",""trial"",""time""
""fullscreenenter"",""1"",""6124""
","
","
","""event"",""trial"",""time""
""fullscreenenter"",""1"",""6124""
","
","","","","","","1457.2999999523163","images/boat1.png","","","learning","-3","0","0","0","boat","vehicles","1","0","","bad","[-5]"
"html-keyboard-response","90","594271","0.0-9.0-2.0-0.9","3812","1","11","Male","approach_avoid_spark_v1","""event"",""trial"",""time""
""fullscreenenter"",""1"",""6124""
","
","
","""event"",""trial"",""time""
""fullscreenenter"",""1"",""6124""
","
","","","","","","null","<div style=""font-size:60px;"">+</div>","null","","fixation","","","","","","","","","","",""
"aa-learning-trial","91","597283","0.0-9.0-2.0-1.9","3812","1","11","Male","approach_avoid_spark_v1","""event"",""trial"",""time""
""fullscreenenter"",""1"",""6124""
","
","
","""event"",""trial"",""time""
""fullscreenenter"",""1"",""6124""
","
","","","","","","1979.0999999046326","images/train7.png","","","learning","-1","0","0","0","train","vehicles","1","0","","neutral","0"
"html-keyboard-response","92","597794","0.0-9.0-2.0-0.10","3812","1","11","Male","approach_avoid_spark_v1","""event"",""trial"",""time""
""fullscreenenter"",""1"",""6124""
","
","
","""event"",""trial"",""time""
""fullscreenenter"",""1"",""6124""
","
","","","","","","null","<div style=""font-size:60px;"">+</div>","null","","fixation","","","","","","","","","","",""
"aa-learning-trial","93","600807","0.0-9.0-2.0-1.10","3812","1","11","Male","approach_avoid_spark_v1","""event"",""trial"",""time""
""fullscreenenter"",""1"",""6124""
","
","
","""event"",""trial"",""time""
""fullscreenenter"",""1"",""6124""
","
","","","","","","1400.5","images/boat3.png","","","learning","-8","-8","1","1","boat","vehicles","1","0","","bad","[-5]"
"html-keyboard-response","94","601333","0.0-9.0-2.0-0.11","3812","1","11","Male","approach_avoid_spark_v1","""event"",""trial"",""time""
""fullscreenenter"",""1"",""6124""
","
","
","""event"",""trial"",""time""
""fullscreenenter"",""1"",""6124""
","
","","","","","","null","<div style=""font-size:60px;"">+</div>","null","","fixation","","","","","","","","","","",""
"aa-learning-trial","95","604345","0.0-9.0-2.0-1.11","3812","1","11","Male","approach_avoid_spark_v1","""event"",""trial"",""time""
""fullscreenenter"",""1"",""6124""
","
","
","""event"",""trial"",""time""
""fullscreenenter"",""1"",""6124""
","
","","","","","","2831.5999999046326","images/train6.png","","","learning","-3","0","0","0","train","vehicles","1","0","","neutral","0"
"html-keyboard-response","96","604856","0.0-9.0-2.0-0.12","3812","1","11","Male","approach_avoid_spark_v1","""event"",""trial"",""time""
""fullscreenenter"",""1"",""6124""
","
","
","""event"",""trial"",""time""
""fullscreenenter"",""1"",""6124""
","
","","","","","","null","<div style=""font-size:60px;"">+</div>","null","","fixation","","","","","","","","","","",""
"aa-learning-trial","97","607872","0.0-9.0-2.0-1.12","3812","1","11","Male","approach_avoid_spark_v1","""event"",""trial"",""time""
""fullscreenenter"",""1"",""6124""
","
","
","""event"",""trial"",""time""
""fullscreenenter"",""1"",""6124""
","
","","","","","","1192","images/train3.png","","","learning","[1]","0","0","0","train","vehicles","1","0","","neutral","0"
"html-keyboard-response","98","608381","0.0-9.0-2.0-0.13","3812","1","11","Male","approach_avoid_spark_v1","""event"",""trial"",""time""
""fullscreenenter"",""1"",""6124""
","
","
","""event"",""trial"",""time""
""fullscreenenter"",""1"",""6124""
","
","","","","","","null","<div style=""font-size:60px;"">+</div>","null","","fixation","","","","","","","","","","",""
"aa-learning-trial","99","611392","0.0-9.0-2.0-1.13","3812","1","11","Male","approach_avoid_spark_v1","""event"",""trial"",""time""
""fullscreenenter"",""1"",""6124""
","
","
","""event"",""trial"",""time""
""fullscreenenter"",""1"",""6124""
","
","","","","","","2081.600000143051","images/plane4.png","","","learning","2","2","1","1","plane","vehicles","1","0","","good","[4]"
"html-keyboard-response","100","611905","0.0-9.0-2.0-0.14","3812","1","11","Male","approach_avoid_spark_v1","""event"",""trial"",""time""
""fullscreenenter"",""1"",""6124""
","
","
","""event"",""trial"",""time""
""fullscreenenter"",""1"",""6124""
","
","","","","","","null","<div style=""font-size:60px;"">+</div>","null","","fixation","","","","","","","","","","",""
"aa-learning-trial","101","614917","0.0-9.0-2.0-1.14","3812","1","11","Male","approach_avoid_spark_v1","""event"",""trial"",""time""
""fullscreenenter"",""1"",""6124""
","
","
","""event"",""trial"",""time""
""fullscreenenter"",""1"",""6124""
","
","","","","","","1677.1999998092651","images/plane7.png","","","learning","5","5","1","1","plane","vehicles","1","0","","good","[4]"
"html-keyboard-response","102","615422","0.0-9.0-2.0-0.15","3812","1","11","Male","approach_avoid_spark_v1","""event"",""trial"",""time""
""fullscreenenter"",""1"",""6124""
","
","
","""event"",""trial"",""time""
""fullscreenenter"",""1"",""6124""
","
","","","","","","null","<div style=""font-size:60px;"">+</div>","null","","fixation","","","","","","","","","","",""
"aa-learning-trial","103","618432","0.0-9.0-2.0-1.15","3812","1","11","Male","approach_avoid_spark_v1","""event"",""trial"",""time""
""fullscreenenter"",""1"",""6124""
","
","
","""event"",""trial"",""time""
""fullscreenenter"",""1"",""6124""
","
","","","","","","1003.5","images/plane7.png","","","learning","4","0","0","0","plane","vehicles","1","0","","good","[4]"
"html-keyboard-response","104","618941","0.0-9.0-2.0-0.16","3812","1","11","Male","approach_avoid_spark_v1","""event"",""trial"",""time""
""fullscreenenter"",""1"",""6124""
","
","
","""event"",""trial"",""time""
""fullscreenenter"",""1"",""6124""
","
","","","","","","null","<div style=""font-size:60px;"">+</div>","null","","fixation","","","","","","","","","","",""
"aa-learning-trial","105","621951","0.0-9.0-2.0-1.16","3812","1","11","Male","approach_avoid_spark_v1","""event"",""trial"",""time""
""fullscreenenter"",""1"",""6124""
","
","
","""event"",""trial"",""time""
""fullscreenenter"",""1"",""6124""
","
","","","","","","809.4000000953674","images/boat7.png","","","learning","-7","-7","1","1","boat","vehicles","1","0","","bad","[-5]"
"html-keyboard-response","106","622465","0.0-9.0-2.0-0.17","3812","1","11","Male","approach_avoid_spark_v1","""event"",""trial"",""time""
""fullscreenenter"",""1"",""6124""
","
","
","""event"",""trial"",""time""
""fullscreenenter"",""1"",""6124""
","
","","","","","","null","<div style=""font-size:60px;"">+</div>","null","","fixation","","","","","","","","","","",""
"aa-learning-trial","107","625474","0.0-9.0-2.0-1.17","3812","1","11","Male","approach_avoid_spark_v1","""event"",""trial"",""time""
""fullscreenenter"",""1"",""6124""
","
","
","""event"",""trial"",""time""
""fullscreenenter"",""1"",""6124""
","
","","","","","","1044.3999998569489","images/plane4.png","","","learning","1","1","1","1","plane","vehicles","1","0","","good","[4]"
"html-keyboard-response","108","625991","0.0-9.0-2.0-0.18","3812","1","11","Male","approach_avoid_spark_v1","""event"",""trial"",""time""
""fullscreenenter"",""1"",""6124""
","
","
","""event"",""trial"",""time""
""fullscreenenter"",""1"",""6124""
","
","","","","","","null","<div style=""font-size:60px;"">+</div>","null","","fixation","","","","","","","","","","",""
"aa-learning-trial","109","629001","0.0-9.0-2.0-1.18","3812","1","11","Male","approach_avoid_spark_v1","""event"",""trial"",""time""
""fullscreenenter"",""1"",""6124""
","
","
","""event"",""trial"",""time""
""fullscreenenter"",""1"",""6124""
","
","","","","","","807.3000001907349","images/plane3.png","","","learning","4","0","0","0","plane","vehicles","1","0","","good","[4]"
"html-keyboard-response","110","629512","0.0-9.0-2.0-0.19","3812","1","11","Male","approach_avoid_spark_v1","""event"",""trial"",""time""
""fullscreenenter"",""1"",""6124""
","
","
","""event"",""trial"",""time""
""fullscreenenter"",""1"",""6124""
","
","","","","","","null","<div style=""font-size:60px;"">+</div>","null","","fixation","","","","","","","","","","",""
"aa-learning-trial","111","632524","0.0-9.0-2.0-1.19","3812","1","11","Male","approach_avoid_spark_v1","""event"",""trial"",""time""
""fullscreenenter"",""1"",""6124""
","
","
","""event"",""trial"",""time""
""fullscreenenter"",""1"",""6124""
","
","","","","","","1405.3000001907349","images/plane6.png","","","learning","4","0","0","0","plane","vehicles","1","0","","good","[4]"
"html-keyboard-response","112","633035","0.0-9.0-2.0-0.20","3812","1","11","Male","approach_avoid_spark_v1","""event"",""trial"",""time""
""fullscreenenter"",""1"",""6124""
","
","
","""event"",""trial"",""time""
""fullscreenenter"",""1"",""6124""
","
","","","","","","null","<div style=""font-size:60px;"">+</div>","null","","fixation","","","","","","","","","","",""
"aa-learning-trial","113","636059","0.0-9.0-2.0-1.20","3812","1","11","Male","approach_avoid_spark_v1","""event"",""trial"",""time""
""fullscreenenter"",""1"",""6124""
","
","
","""event"",""trial"",""time""
""fullscreenenter"",""1"",""6124""
","
","","","","","","1051.8000001907349","images/boat3.png","","","learning","-3","-3","1","1","boat","vehicles","1","0","","bad","[-5]"
"html-keyboard-response","114","636568","0.0-9.0-2.0-0.21","3812","1","11","Male","approach_avoid_spark_v1","""event"",""trial"",""time""
""fullscreenenter"",""1"",""6124""
","
","
","""event"",""trial"",""time""
""fullscreenenter"",""1"",""6124""
","
","","","","","","null","<div style=""font-size:60px;"">+</div>","null","","fixation","","","","","","","","","","",""
"aa-learning-trial","115","639580","0.0-9.0-2.0-1.21","3812","1","11","Male","approach_avoid_spark_v1","""event"",""trial"",""time""
""fullscreenenter"",""1"",""6124""
","
","
","""event"",""trial"",""time""
""fullscreenenter"",""1"",""6124""
","
","","","","","","770","images/boat3.png","","","learning","-4","-4","1","1","boat","vehicles","1","0","","bad","[-5]"
"html-keyboard-response","116","640098","0.0-9.0-2.0-0.22","3812","1","11","Male","approach_avoid_spark_v1","""event"",""trial"",""time""
""fullscreenenter"",""1"",""6124""
","
","
","""event"",""trial"",""time""
""fullscreenenter"",""1"",""6124""
","
","","","","","","null","<div style=""font-size:60px;"">+</div>","null","","fixation","","","","","","","","","","",""
"aa-learning-trial","117","643120","0.0-9.0-2.0-1.22","3812","1","11","Male","approach_avoid_spark_v1","""event"",""trial"",""time""
""fullscreenenter"",""1"",""6124""
","
","
","""event"",""trial"",""time""
""fullscreenenter"",""1"",""6124""
","
","","","","","","704.7000000476837","images/train3.png","","","learning","2","0","0","0","train","vehicles","1","0","","neutral","0"
"html-keyboard-response","118","643628","0.0-9.0-2.0-0.23","3812","1","11","Male","approach_avoid_spark_v1","""event"",""trial"",""time""
""fullscreenenter"",""1"",""6124""
","
","
","""event"",""trial"",""time""
""fullscreenenter"",""1"",""6124""
","
","","","","","","null","<div style=""font-size:60px;"">+</div>","null","","fixation","","","","","","","","","","",""
"aa-learning-trial","119","646638","0.0-9.0-2.0-1.23","3812","1","11","Male","approach_avoid_spark_v1","""event"",""trial"",""time""
""fullscreenenter"",""1"",""6124""
","
","
","""event"",""trial"",""time""
""fullscreenenter"",""1"",""6124""
","
","","","","","","509.39999985694885","images/train7.png","","","learning","-1","-1","1","1","train","vehicles","1","0","","neutral","0"
"html-keyboard-response","120","647149","0.0-9.0-2.0-0.24","3812","1","11","Male","approach_avoid_spark_v1","""event"",""trial"",""time""
""fullscreenenter"",""1"",""6124""
","
","
","""event"",""trial"",""time""
""fullscreenenter"",""1"",""6124""
","
","","","","","","null","<div style=""font-size:60px;"">+</div>","null","","fixation","","","","","","","","","","",""
"aa-learning-trial","121","650159","0.0-9.0-2.0-1.24","3812","1","11","Male","approach_avoid_spark_v1","""event"",""trial"",""time""
""fullscreenenter"",""1"",""6124""
","
","
","""event"",""trial"",""time""
""fullscreenenter"",""1"",""6124""
","
","","","","","","770.5999999046326","images/train7.png","","","learning","3","0","0","0","train","vehicles","1","0","","neutral","0"
"html-keyboard-response","122","650666","0.0-9.0-2.0-0.25","3812","1","11","Male","approach_avoid_spark_v1","""event"",""trial"",""time""
""fullscreenenter"",""1"",""6124""
","
","
","""event"",""trial"",""time""
""fullscreenenter"",""1"",""6124""
","
","","","","","","null","<div style=""font-size:60px;"">+</div>","null","","fixation","","","","","","","","","","",""
"aa-learning-trial","123","653681","0.0-9.0-2.0-1.25","3812","1","11","Male","approach_avoid_spark_v1","""event"",""trial"",""time""
""fullscreenenter"",""1"",""6124""
","
","
","""event"",""trial"",""time""
""fullscreenenter"",""1"",""6124""
","
","","","","","","1103.8999998569489","images/train3.png","","","learning","-1","-1","1","1","train","vehicles","1","0","","neutral","0"
"html-keyboard-response","124","654199","0.0-9.0-2.0-0.26","3812","1","11","Male","approach_avoid_spark_v1","""event"",""trial"",""time""
""fullscreenenter"",""1"",""6124""
","
","
","""event"",""trial"",""time""
""fullscreenenter"",""1"",""6124""
","
","","","","","","null","<div style=""font-size:60px;"">+</div>","null","","fixation","","","","","","","","","","",""
"aa-learning-trial","125","657209","0.0-9.0-2.0-1.26","3812","1","11","Male","approach_avoid_spark_v1","""event"",""trial"",""time""
""fullscreenenter"",""1"",""6124""
","
","
","""event"",""trial"",""time""
""fullscreenenter"",""1"",""6124""
","
","","","","","","959.6000001430511","images/plane7.png","","","learning","4","0","0","0","plane","vehicles","1","0","","good","[4]"
"html-keyboard-response","126","657723","0.0-9.0-2.0-0.27","3812","1","11","Male","approach_avoid_spark_v1","""event"",""trial"",""time""
""fullscreenenter"",""1"",""6124""
","
","
","""event"",""trial"",""time""
""fullscreenenter"",""1"",""6124""
","
","","","","","","null","<div style=""font-size:60px;"">+</div>","null","","fixation","","","","","","","","","","",""
"aa-learning-trial","127","660736","0.0-9.0-2.0-1.27","3812","1","11","Male","approach_avoid_spark_v1","""event"",""trial"",""time""
""fullscreenenter"",""1"",""6124""
","
","
","""event"",""trial"",""time""
""fullscreenenter"",""1"",""6124""
","
","","","","","","1333.7000000476837","images/plane7.png","","","learning","4","4","1","1","plane","vehicles","1","0","","good","[4]"
"html-keyboard-response","128","661257","0.0-9.0-2.0-0.28","3812","1","11","Male","approach_avoid_spark_v1","""event"",""trial"",""time""
""fullscreenenter"",""1"",""6124""
","
","
","""event"",""trial"",""time""
""fullscreenenter"",""1"",""6124""
","
","","","","","","null","<div style=""font-size:60px;"">+</div>","null","","fixation","","","","","","","","","","",""
"aa-learning-trial","129","664274","0.0-9.0-2.0-1.28","3812","1","11","Male","approach_avoid_spark_v1","""event"",""trial"",""time""
""fullscreenenter"",""1"",""6124""
","
","
","""event"",""trial"",""time""
""fullscreenenter"",""1"",""6124""
","
","","","","","","2082.899999856949","images/plane3.png","","","learning","5","5","1","1","plane","vehicles","1","0","","good","[4]"
"html-keyboard-response","130","664782","0.0-9.0-2.0-0.29","3812","1","11","Male","approach_avoid_spark_v1","""event"",""trial"",""time""
""fullscreenenter"",""1"",""6124""
","
","
","""event"",""trial"",""time""
""fullscreenenter"",""1"",""6124""
","
","","","","","","null","<div style=""font-size:60px;"">+</div>","null","","fixation","","","","","","","","","","",""
"aa-learning-trial","131","667804","0.0-9.0-2.0-1.29","3812","1","11","Male","approach_avoid_spark_v1","""event"",""trial"",""time""
""fullscreenenter"",""1"",""6124""
","
","
","""event"",""trial"",""time""
""fullscreenenter"",""1"",""6124""
","
","","","","","","1631.2999999523163","images/boat3.png","","","learning","-3","0","0","0","boat","vehicles","1","0","","bad","[-5]"
"html-keyboard-response","132","668317","0.0-9.0-2.0-0.30","3812","1","11","Male","approach_avoid_spark_v1","""event"",""trial"",""time""
""fullscreenenter"",""1"",""6124""
","
","
","""event"",""trial"",""time""
""fullscreenenter"",""1"",""6124""
","
","","","","","","null","<div style=""font-size:60px;"">+</div>","null","","fixation","","","","","","","","","","",""
"aa-learning-trial","133","671333","0.0-9.0-2.0-1.30","3812","1","11","Male","approach_avoid_spark_v1","""event"",""trial"",""time""
""fullscreenenter"",""1"",""6124""
","
","
","""event"",""trial"",""time""
""fullscreenenter"",""1"",""6124""
","
","","","","","","2694.7999999523163","images/train6.png","","","learning","[-1]","0","0","0","train","vehicles","1","0","","neutral","0"
"html-keyboard-response","134","671842","0.0-9.0-2.0-0.31","3812","1","11","Male","approach_avoid_spark_v1","""event"",""trial"",""time""
""fullscreenenter"",""1"",""6124""
","
","
","""event"",""trial"",""time""
""fullscreenenter"",""1"",""6124""
","
","","","","","","null","<div style=""font-size:60px;"">+</div>","null","","fixation","","","","","","","","","","",""
"aa-learning-trial","135","674853","0.0-9.0-2.0-1.31","3812","1","11","Male","approach_avoid_spark_v1","""event"",""trial"",""time""
""fullscreenenter"",""1"",""6124""
","
","
","""event"",""trial"",""time""
""fullscreenenter"",""1"",""6124""
","
","","","","","","1014.2000000476837","images/train7.png","","","learning","[1]","1","1","1","train","vehicles","1","0","","neutral","0"
"html-keyboard-response","136","675358","0.0-9.0-2.0-0.32","3812","1","11","Male","approach_avoid_spark_v1","""event"",""trial"",""time""
""fullscreenenter"",""1"",""6124""
","
","
","""event"",""trial"",""time""
""fullscreenenter"",""1"",""6124""
","
","","","","","","null","<div style=""font-size:60px;"">+</div>","null","","fixation","","","","","","","","","","",""
"aa-learning-trial","137","678369","0.0-9.0-2.0-1.32","3812","1","11","Male","approach_avoid_spark_v1","""event"",""trial"",""time""
""fullscreenenter"",""1"",""6124""
","
","
","""event"",""trial"",""time""
""fullscreenenter"",""1"",""6124""
","
","","","","","","525.7000000476837","images/boat8.png","","","learning","-5","0","0","0","boat","vehicles","1","0","","bad","[-5]"
"html-keyboard-response","138","678882","0.0-9.0-2.0-0.33","3812","1","11","Male","approach_avoid_spark_v1","""event"",""trial"",""time""
""fullscreenenter"",""1"",""6124""
","
","
","""event"",""trial"",""time""
""fullscreenenter"",""1"",""6124""
","
","","","","","","null","<div style=""font-size:60px;"">+</div>","null","","fixation","","","","","","","","","","",""
"aa-learning-trial","139","681888","0.0-9.0-2.0-1.33","3812","1","11","Male","approach_avoid_spark_v1","""event"",""trial"",""time""
""fullscreenenter"",""1"",""6124""
","
","
","""event"",""trial"",""time""
""fullscreenenter"",""1"",""6124""
","
","","","","","","616.9000000953674","images/boat8.png","","","learning","-3","-3","1","1","boat","vehicles","1","0","","bad","[-5]"
"html-keyboard-response","140","682400","0.0-9.0-2.0-0.34","3812","1","11","Male","approach_avoid_spark_v1","""event"",""trial"",""time""
""fullscreenenter"",""1"",""6124""
","
","
","""event"",""trial"",""time""
""fullscreenenter"",""1"",""6124""
","
","","","","","","null","<div style=""font-size:60px;"">+</div>","null","","fixation","","","","","","","","","","",""
"aa-learning-trial","141","685421","0.0-9.0-2.0-1.34","3812","1","11","Male","approach_avoid_spark_v1","""event"",""trial"",""time""
""fullscreenenter"",""1"",""6124""
","
","
","""event"",""trial"",""time""
""fullscreenenter"",""1"",""6124""
","
","","","","","","689.7999999523163","images/boat4.png","","","learning","-5","0","0","0","boat","vehicles","1","0","","bad","[-5]"
"html-keyboard-response","142","685929","0.0-9.0-2.0-0.35","3812","1","11","Male","approach_avoid_spark_v1","""event"",""trial"",""time""
""fullscreenenter"",""1"",""6124""
","
","
","""event"",""trial"",""time""
""fullscreenenter"",""1"",""6124""
","
","","","","","","null","<div style=""font-size:60px;"">+</div>","null","","fixation","","","","","","","","","","",""
"aa-learning-trial","143","688947","0.0-9.0-2.0-1.35","3812","1","11","Male","approach_avoid_spark_v1","""event"",""trial"",""time""
""fullscreenenter"",""1"",""6124""
","
","
","""event"",""trial"",""time""
""fullscreenenter"",""1"",""6124""
","
","","","","","","618","images/plane3.png","","","learning","4","4","1","1","plane","vehicles","1","0","","good","[4]"
"html-keyboard-response","144","689458","0.0-9.0-2.0-0.36","3812","1","11","Male","approach_avoid_spark_v1","""event"",""trial"",""time""
""fullscreenenter"",""1"",""6124""
","
","
","""event"",""trial"",""time""
""fullscreenenter"",""1"",""6124""
","
","","","","","","null","<div style=""font-size:60px;"">+</div>","null","","fixation","","","","","","","","","","",""
"aa-learning-trial","145","692470","0.0-9.0-2.0-1.36","3812","1","11","Male","approach_avoid_spark_v1","""event"",""trial"",""time""
""fullscreenenter"",""1"",""6124""
","
","
","""event"",""trial"",""time""
""fullscreenenter"",""1"",""6124""
","
","","","","","","522.2000000476837","images/train6.png","","","learning","2","0","0","0","train","vehicles","1","0","","neutral","0"
"html-keyboard-response","146","692976","0.0-9.0-2.0-0.37","3812","1","11","Male","approach_avoid_spark_v1","""event"",""trial"",""time""
""fullscreenenter"",""1"",""6124""
","
","
","""event"",""trial"",""time""
""fullscreenenter"",""1"",""6124""
","
","","","","","","null","<div style=""font-size:60px;"">+</div>","null","","fixation","","","","","","","","","","",""
"aa-learning-trial","147","695988","0.0-9.0-2.0-1.37","3812","1","11","Male","approach_avoid_spark_v1","""event"",""trial"",""time""
""fullscreenenter"",""1"",""6124""
","
","
","""event"",""trial"",""time""
""fullscreenenter"",""1"",""6124""
","
","","","","","","404.5","images/plane1.png","","","learning","4","4","1","1","plane","vehicles","1","0","","good","[4]"
"html-keyboard-response","148","696497","0.0-9.0-2.0-0.38","3812","1","11","Male","approach_avoid_spark_v1","""event"",""trial"",""time""
""fullscreenenter"",""1"",""6124""
","
","
","""event"",""trial"",""time""
""fullscreenenter"",""1"",""6124""
","
","","","","","","null","<div style=""font-size:60px;"">+</div>","null","","fixation","","","","","","","","","","",""
"aa-learning-trial","149","699519","0.0-9.0-2.0-1.38","3812","1","11","Male","approach_avoid_spark_v1","""event"",""trial"",""time""
""fullscreenenter"",""1"",""6124""
","
","
","""event"",""trial"",""time""
""fullscreenenter"",""1"",""6124""
","
","","","","","","946.3000001907349","images/plane4.png","","","learning","5","5","1","1","plane","vehicles","1","0","","good","[4]"
"html-keyboard-response","150","700023","0.0-9.0-2.0-0.39","3812","1","11","Male","approach_avoid_spark_v1","""event"",""trial"",""time""
""fullscreenenter"",""1"",""6124""
","
","
","""event"",""trial"",""time""
""fullscreenenter"",""1"",""6124""
","
","","","","","","null","<div style=""font-size:60px;"">+</div>","null","","fixation","","","","","","","","","","",""
"aa-learning-trial","151","703030","0.0-9.0-2.0-1.39","3812","1","11","Male","approach_avoid_spark_v1","""event"",""trial"",""time""
""fullscreenenter"",""1"",""6124""
","
","
","""event"",""trial"",""time""
""fullscreenenter"",""1"",""6124""
","
","","","","","","2644.899999856949","images/plane7.png","","","learning","5","5","1","1","plane","vehicles","1","0","","good","[4]"
"html-keyboard-response","152","703538","0.0-9.0-2.0-0.40","3812","1","11","Male","approach_avoid_spark_v1","""event"",""trial"",""time""
""fullscreenenter"",""1"",""6124""
","
","
","""event"",""trial"",""time""
""fullscreenenter"",""1"",""6124""
","
","","","","","","null","<div style=""font-size:60px;"">+</div>","null","","fixation","","","","","","","","","","",""
"aa-learning-trial","153","706543","0.0-9.0-2.0-1.40","3812","1","11","Male","approach_avoid_spark_v1","""event"",""trial"",""time""
""fullscreenenter"",""1"",""6124""
","
","
","""event"",""trial"",""time""
""fullscreenenter"",""1"",""6124""
","
","","","","","","2489.9000000953674","images/boat1.png","","","learning","-7","0","0","0","boat","vehicles","1","0","","bad","[-5]"
"html-keyboard-response","154","707052","0.0-9.0-2.0-0.41","3812","1","11","Male","approach_avoid_spark_v1","""event"",""trial"",""time""
""fullscreenenter"",""1"",""6124""
","
","
","""event"",""trial"",""time""
""fullscreenenter"",""1"",""6124""
","
","","","","","","null","<div style=""font-size:60px;"">+</div>","null","","fixation","","","","","","","","","","",""
"aa-learning-trial","155","710056","0.0-9.0-2.0-1.41","3812","1","11","Male","approach_avoid_spark_v1","""event"",""trial"",""time""
""fullscreenenter"",""1"",""6124""
","
","
","""event"",""trial"",""time""
""fullscreenenter"",""1"",""6124""
","
","","","","","","1483.5999999046326","images/boat1.png","","","learning","-5","-5","1","1","boat","vehicles","1","0","","bad","[-5]"
"html-keyboard-response","156","710566","0.0-9.0-2.0-0.42","3812","1","11","Male","approach_avoid_spark_v1","""event"",""trial"",""time""
""fullscreenenter"",""1"",""6124""
","
","
","""event"",""trial"",""time""
""fullscreenenter"",""1"",""6124""
","
","","","","","","null","<div style=""font-size:60px;"">+</div>","null","","fixation","","","","","","","","","","",""
"aa-learning-trial","157","713588","0.0-9.0-2.0-1.42","3812","1","11","Male","approach_avoid_spark_v1","""event"",""trial"",""time""
""fullscreenenter"",""1"",""6124""
","
","
","""event"",""trial"",""time""
""fullscreenenter"",""1"",""6124""
","
","","","","","","999.2999999523163","images/boat3.png","","","learning","-5","0","0","0","boat","vehicles","1","0","","bad","[-5]"
"html-keyboard-response","158","714093","0.0-9.0-2.0-0.43","3812","1","11","Male","approach_avoid_spark_v1","""event"",""trial"",""time""
""fullscreenenter"",""1"",""6124""
","
","
","""event"",""trial"",""time""
""fullscreenenter"",""1"",""6124""
","
","","","","","","null","<div style=""font-size:60px;"">+</div>","null","","fixation","","","","","","","","","","",""
"aa-learning-trial","159","717104","0.0-9.0-2.0-1.43","3812","1","11","Male","approach_avoid_spark_v1","""event"",""trial"",""time""
""fullscreenenter"",""1"",""6124""
","
","
","""event"",""trial"",""time""
""fullscreenenter"",""1"",""6124""
","
","","","","","","679.5","images/train2.png","","","learning","1","1","1","1","train","vehicles","1","0","","neutral","0"
"html-keyboard-response","160","717623","0.0-9.0-2.0-0.44","3812","1","11","Male","approach_avoid_spark_v1","""event"",""trial"",""time""
""fullscreenenter"",""1"",""6124""
","
","
","""event"",""trial"",""time""
""fullscreenenter"",""1"",""6124""
","
","","","","","","null","<div style=""font-size:60px;"">+</div>","null","","fixation","","","","","","","","","","",""
"aa-learning-trial","161","720632","0.0-9.0-2.0-1.44","3812","1","11","Male","approach_avoid_spark_v1","""event"",""trial"",""time""
""fullscreenenter"",""1"",""6124""
","
","
","""event"",""trial"",""time""
""fullscreenenter"",""1"",""6124""
","
","","","","","","613.2000000476837","images/train6.png","","","learning","[-1]","-1","1","1","train","vehicles","1","0","","neutral","0"
"html-keyboard-response","162","721143","0.0-9.0-2.0-0.45","3812","1","11","Male","approach_avoid_spark_v1","""event"",""trial"",""time""
""fullscreenenter"",""1"",""6124""
","
","
","""event"",""trial"",""time""
""fullscreenenter"",""1"",""6124""
","
","","","","","","null","<div style=""font-size:60px;"">+</div>","null","","fixation","","","","","","","","","","",""
"aa-learning-trial","163","724152","0.0-9.0-2.0-1.45","3812","1","11","Male","approach_avoid_spark_v1","""event"",""trial"",""time""
""fullscreenenter"",""1"",""6124""
","
","
","""event"",""trial"",""time""
""fullscreenenter"",""1"",""6124""
","
","","","","","","475.5","images/plane3.png","","","learning","5","0","0","0","plane","vehicles","1","0","","good","[4]"
"html-keyboard-response","164","724662","0.0-9.0-2.0-0.46","3812","1","11","Male","approach_avoid_spark_v1","""event"",""trial"",""time""
""fullscreenenter"",""1"",""6124""
","
","
","""event"",""trial"",""time""
""fullscreenenter"",""1"",""6124""
","
","","","","","","null","<div style=""font-size:60px;"">+</div>","null","","fixation","","","","","","","","","","",""
"aa-learning-trial","165","727679","0.0-9.0-2.0-1.46","3812","1","11","Male","approach_avoid_spark_v1","""event"",""trial"",""time""
""fullscreenenter"",""1"",""6124""
","
","
","""event"",""trial"",""time""
""fullscreenenter"",""1"",""6124""
","
","","","","","","380.7999999523163","images/boat8.png","","","learning","-2","-2","1","1","boat","vehicles","1","0","","bad","[-5]"
"html-keyboard-response","166","728182","0.0-9.0-2.0-0.47","3812","1","11","Male","approach_avoid_spark_v1","""event"",""trial"",""time""
""fullscreenenter"",""1"",""6124""
","
","
","""event"",""trial"",""time""
""fullscreenenter"",""1"",""6124""
","
","","","","","","null","<div style=""font-size:60px;"">+</div>","null","","fixation","","","","","","","","","","",""
"aa-learning-trial","167","731191","0.0-9.0-2.0-1.47","3812","1","11","Male","approach_avoid_spark_v1","""event"",""trial"",""time""
""fullscreenenter"",""1"",""6124""
","
","
","""event"",""trial"",""time""
""fullscreenenter"",""1"",""6124""
","
","","","","","","895.5999999046326","images/train6.png","","","learning","[1]","0","0","0","train","vehicles","1","0","","neutral","0"
"html-keyboard-response","168","731711","0.0-9.0-2.0-0.48","3812","1","11","Male","approach_avoid_spark_v1","""event"",""trial"",""time""
""fullscreenenter"",""1"",""6124""
","
","
","""event"",""trial"",""time""
""fullscreenenter"",""1"",""6124""
","
","","","","","","null","<div style=""font-size:60px;"">+</div>","null","","fixation","","","","","","","","","","",""
"aa-learning-trial","169","734723","0.0-9.0-2.0-1.48","3812","1","11","Male","approach_avoid_spark_v1","""event"",""trial"",""time""
""fullscreenenter"",""1"",""6124""
","
","
","""event"",""trial"",""time""
""fullscreenenter"",""1"",""6124""
","
","","","","","","445.5","images/boat8.png","","","learning","-7","-7","1","1","boat","vehicles","1","0","","bad","[-5]"
"html-keyboard-response","170","735230","0.0-9.0-2.0-0.49","3812","1","11","Male","approach_avoid_spark_v1","""event"",""trial"",""time""
""fullscreenenter"",""1"",""6124""
","
","
","""event"",""trial"",""time""
""fullscreenenter"",""1"",""6124""
","
","","","","","","null","<div style=""font-size:60px;"">+</div>","null","","fixation","","","","","","","","","","",""
"aa-learning-trial","171","738238","0.0-9.0-2.0-1.49","3812","1","11","Male","approach_avoid_spark_v1","""event"",""trial"",""time""
""fullscreenenter"",""1"",""6124""
","
","
","""event"",""trial"",""time""
""fullscreenenter"",""1"",""6124""
","
","","","","","","2514.7999999523163","images/train5.png","","","learning","1","0","0","0","train","vehicles","1","0","","neutral","0"
"html-keyboard-response","172","738744","0.0-9.0-2.0-0.50","3812","1","11","Male","approach_avoid_spark_v1","""event"",""trial"",""time""
""fullscreenenter"",""1"",""6124""
","
","
","""event"",""trial"",""time""
""fullscreenenter"",""1"",""6124""
","
","","","","","","null","<div style=""font-size:60px;"">+</div>","null","","fixation","","","","","","","","","","",""
"aa-learning-trial","173","741758","0.0-9.0-2.0-1.50","3812","1","11","Male","approach_avoid_spark_v1","""event"",""trial"",""time""
""fullscreenenter"",""1"",""6124""
","
","
","""event"",""trial"",""time""
""fullscreenenter"",""1"",""6124""
","
","","","","","","960.3999998569489","images/train7.png","","","learning","-1","-1","1","1","train","vehicles","1","0","","neutral","0"
"html-button-response","174","748853","0.0-9.0-3.0","3812","1","11","Male","approach_avoid_spark_v1","""event"",""trial"",""time""
""fullscreenenter"",""1"",""6124""
","
","
","""event"",""trial"",""time""
""fullscreenenter"",""1"",""6124""
","
","","","","","","7092","<p> You have completed the round! <p> In this round, you earned -18 points! </p>","0","","break","","","","","","","","","","",""
"html-button-response","175","750443","0.0-10.0","3812","1","11","Male","approach_avoid_spark_v1","""event"",""trial"",""time""
""fullscreenenter"",""1"",""6124""
","
","
","""event"",""trial"",""time""
""fullscreenenter"",""1"",""6124""
","
","","","","","","1586.7000000476837","<p> Now it's time to play another round. </p>","0","","transition_screen","","","","","","","","","","",""
"preload","176","750598","0.0-11.0-0.0","3812","1","11","Male","approach_avoid_spark_v1","""event"",""trial"",""time""
""fullscreenenter"",""1"",""6124""
","
","
","""event"",""trial"",""time""
""fullscreenenter"",""1"",""6124""
","
","true","false","[]","[]","[]","","","","","","","","","","","","","","","",""
"learning-instructions","177","761103","0.0-11.0-1.0-0.0","3812","1","11","Male","approach_avoid_spark_v1","""event"",""trial"",""time""
""fullscreenenter"",""1"",""6124""
","
","
","""event"",""trial"",""time""
""fullscreenenter"",""1"",""6124""
","
","","","","","","4395.700000047684","<p> Your goal in this round is to decorate your friend's new house with furniture. </p></div>","","0","instructions","","","","","","","","","","",""
"learning-instructions","178","773860","0.0-11.0-1.0-0.1","3812","1","11","Male","approach_avoid_spark_v1","""event"",""trial"",""time""
""fullscreenenter"",""1"",""6124""
","
","
","""event"",""trial"",""time""
""fullscreenenter"",""1"",""6124""
","
","","","","","","1313.2000000476837","<p> Your friend likes some pieces of furniture but not others.  </p><p> On each turn, you will see a piece of furniture.   </p><p> You need to decide whether to put it in your friend's house or not.  </p>","","0","instructions","","","","","","","","","","",""
"learning-instructions","179","781069","0.0-11.0-1.0-0.2","3812","1","11","Male","approach_avoid_spark_v1","""event"",""trial"",""time""
""fullscreenenter"",""1"",""6124""
","
","
","""event"",""trial"",""time""
""fullscreenenter"",""1"",""6124""
","
","","","","","","591.3999998569489","<p> You can put the furniture in her house by pressing 1 and deliver it elsewhere by pressing 0. </p><br><div class=""choice-instructions-grid""> <div class=""choice-option""><img src=""images/approach.png"" class=""choice-option-img"" stage=""instructions"" position=""0"" ><div class=""choice-option-text""> Press ""1."" </div></div><div class=""choice-option""><img src=""images/avoid.png"" class=""choice-option-img"" stage=""instructions"" position=""1"" ><div class=""choice-option-text""> Press ""0."" </div></div>","","0","instructions","","","","","","","","","","",""
"learning-instructions","180","793803","0.0-11.0-1.0-0.3","3812","1","11","Male","approach_avoid_spark_v1","""event"",""trial"",""time""
""fullscreenenter"",""1"",""6124""
","
","
","""event"",""trial"",""time""
""fullscreenenter"",""1"",""6124""
","
","","","","","","2745.7999999523163","<p> If you decorate your friend's house with furniture she likes, she will be happy! </p><p> But if you give her furniture that she does not like, she will be annoyed. </p>","","0","instructions","","","","","","","","","","",""
"learning-instructions","181","808698","0.0-11.0-1.0-0.4","3812","1","11","Male","approach_avoid_spark_v1","""event"",""trial"",""time""
""fullscreenenter"",""1"",""6124""
","
","
","""event"",""trial"",""time""
""fullscreenenter"",""1"",""6124""
","
","","","","","","510.5","<p> You will earn points based on how you made your friend feel. </p><p> If you made her happy, you will WIN anywhere from 1 - 9 points, </p><p> but if you made her annoyed you will LOSE anywhere from 1 - 9 points. </p>","","0","instructions","","","","","","","","","","",""
"learning-instructions","182","815654","0.0-11.0-1.0-0.5","3812","1","11","Male","approach_avoid_spark_v1","""event"",""trial"",""time""
""fullscreenenter"",""1"",""6124""
","
","
","""event"",""trial"",""time""
""fullscreenenter"",""1"",""6124""
","
","","","","","","287.40000009536743","<p> You will see how many points you won or lost in the center of the screen. </p><p> Here is what you would see if you won 5 points: </p><p style=""color:green;font-size:50px;font-weight:bolder"">5</p>","","0","instructions","","","","","","","","","","",""
"learning-instructions","183","820065","0.0-11.0-1.0-0.6","3812","1","11","Male","approach_avoid_spark_v1","""event"",""trial"",""time""
""fullscreenenter"",""1"",""6124""
","
","
","""event"",""trial"",""time""
""fullscreenenter"",""1"",""6124""
","
","","","","","","1567.7000000476837","<p> And here is what you would see if you lost 3 points: </p><p style=""color:red;font-size:50px;font-weight:bolder"">-3</p>","","0","instructions","","","","","","","","","","",""
"learning-instructions","184","842832","0.0-11.0-1.0-0.7","3812","1","11","Male","approach_avoid_spark_v1","""event"",""trial"",""time""
""fullscreenenter"",""1"",""6124""
","
","
","""event"",""trial"",""time""
""fullscreenenter"",""1"",""6124""
","
","","","","","","425.5","<p> Some pieces of furniture will make her feel very happy or very annoyed. </p><p> These pieces of furniture will make you win or lose LOTS of points. </p><p> Other pieces of furniture will only make her feel a little happy or a little annoyed. </p><p> These pieces of furniture will make you win or lose small amounts of points. </p>","","0","instructions","","","","","","","","","","",""
"learning-instructions","185","858214","0.0-11.0-1.0-0.8","3812","1","11","Male","approach_avoid_spark_v1","""event"",""trial"",""time""
""fullscreenenter"",""1"",""6124""
","
","
","""event"",""trial"",""time""
""fullscreenenter"",""1"",""6124""
","
","","","","","","578.1000001430511","<p> If you choose to deliver a piece of furniture elsewhere, you will not win or lose any points. </p><p>  However, in the center of the screen, you will see the number of points you WOULD HAVE won or lost if you had given the furniture to your friend. </p>","","0","instructions","","","","","","","","","","",""
"learning-instructions","186","873489","0.0-11.0-1.0-0.9","3812","1","11","Male","approach_avoid_spark_v1","""event"",""trial"",""time""
""fullscreenenter"",""1"",""6124""
","
","
","""event"",""trial"",""time""
""fullscreenenter"",""1"",""6124""
","
","","","","","","1252.2999999523163","<p> Here is what you might see if you did not give a piece of furniture to your friend that would have made her happy: </p><p style=""color:grey; font-size:50px; display: inline-block; border-spacing: 15px; border-width:3px; border-style:solid; border-color:red"">  &nbsp; 6 &nbsp; </p><p> Remember, in this case, you would not win or lose ANY points because you did not give her the furniture.  </p>","","0","instructions","","","","","","","","","","",""
"learning-instructions","187","889577","0.0-11.0-1.0-0.10","3812","1","11","Male","approach_avoid_spark_v1","""event"",""trial"",""time""
""fullscreenenter"",""1"",""6124""
","
","
","""event"",""trial"",""time""
""fullscreenenter"",""1"",""6124""
","
","","","","","","7080.199999809265","<p> Try to make the best choice for each piece of furniture because </p><p> at the end of the game, you will earn bonus money based on how many points you earned. </p>","","0","instructions","","","","","","","","","","",""
"learning-instructions","188","899683","0.0-11.0-1.0-0.11","3812","1","11","Male","approach_avoid_spark_v1","""event"",""trial"",""time""
""fullscreenenter"",""1"",""6124""
","
","
","""event"",""trial"",""time""
""fullscreenenter"",""1"",""6124""
","
","","","","","","1897.4000000953674","<p> You will have 3 seconds to make each choice. Try to respond before time runs out! </p><p> You will lose 5 points each time you do not make a response. </p>","","0","instructions","","","","","","","","","","",""
"html-keyboard-response","189","900305","0.0-11.0-2.0-0.0","3812","1","11","Male","approach_avoid_spark_v1","""event"",""trial"",""time""
""fullscreenenter"",""1"",""6124""
","
","
","""event"",""trial"",""time""
""fullscreenenter"",""1"",""6124""
","
","","","","","","null","<div style=""font-size:60px;"">+</div>","null","","fixation","","","","","","","","","","",""
"aa-learning-trial","190","903322","0.0-11.0-2.0-1.0","3812","1","11","Male","approach_avoid_spark_v1","""event"",""trial"",""time""
""fullscreenenter"",""1"",""6124""
","
","
","""event"",""trial"",""time""
""fullscreenenter"",""1"",""6124""
","
","","","","","","2188.899999856949","images/chair6.png","","","learning","-2","-2","1","1","chair","furniture","2","1","","neutral","0"
"html-keyboard-response","191","903842","0.0-11.0-2.0-0.1","3812","1","11","Male","approach_avoid_spark_v1","""event"",""trial"",""time""
""fullscreenenter"",""1"",""6124""
","
","
","""event"",""trial"",""time""
""fullscreenenter"",""1"",""6124""
","
","","","","","","null","<div style=""font-size:60px;"">+</div>","null","","fixation","","","","","","","","","","",""
"aa-learning-trial","192","906860","0.0-11.0-2.0-1.1","3812","1","11","Male","approach_avoid_spark_v1","""event"",""trial"",""time""
""fullscreenenter"",""1"",""6124""
","
","
","""event"",""trial"",""time""
""fullscreenenter"",""1"",""6124""
","
","","","","","","2283.5","images/chair6.png","","","learning","-2","0","0","0","chair","furniture","2","1","","neutral","0"
"html-keyboard-response","193","907379","0.0-11.0-2.0-0.2","3812","1","11","Male","approach_avoid_spark_v1","""event"",""trial"",""time""
""fullscreenenter"",""1"",""6124""
","
","
","""event"",""trial"",""time""
""fullscreenenter"",""1"",""6124""
","
","","","","","","null","<div style=""font-size:60px;"">+</div>","null","","fixation","","","","","","","","","","",""
"aa-learning-trial","194","910403","0.0-11.0-2.0-1.2","3812","1","11","Male","approach_avoid_spark_v1","""event"",""trial"",""time""
""fullscreenenter"",""1"",""6124""
","
","
","""event"",""trial"",""time""
""fullscreenenter"",""1"",""6124""
","
","","","","","","2035.7999999523163","images/bed5.png","","","learning","-9","0","0","0","bed","furniture","2","1","","good","[4]"
"html-keyboard-response","195","910921","0.0-11.0-2.0-0.3","3812","1","11","Male","approach_avoid_spark_v1","""event"",""trial"",""time""
""fullscreenenter"",""1"",""6124""
","
","
","""event"",""trial"",""time""
""fullscreenenter"",""1"",""6124""
","
","","","","","","null","<div style=""font-size:60px;"">+</div>","null","","fixation","","","","","","","","","","",""
"aa-learning-trial","196","913939","0.0-11.0-2.0-1.3","3812","1","11","Male","approach_avoid_spark_v1","""event"",""trial"",""time""
""fullscreenenter"",""1"",""6124""
","
","
","""event"",""trial"",""time""
""fullscreenenter"",""1"",""6124""
","
","","","","","","null","images/chair4.png","","","learning","3","-5","","null","chair","furniture","2","1","","neutral","0"
"html-keyboard-response","197","914446","0.0-11.0-2.0-0.4","3812","1","11","Male","approach_avoid_spark_v1","""event"",""trial"",""time""
""fullscreenenter"",""1"",""6124""
","
","
","""event"",""trial"",""time""
""fullscreenenter"",""1"",""6124""
","
","","","","","","null","<div style=""font-size:60px;"">+</div>","null","","fixation","","","","","","","","","","",""
"aa-learning-trial","198","917463","0.0-11.0-2.0-1.4","3812","1","11","Male","approach_avoid_spark_v1","""event"",""trial"",""time""
""fullscreenenter"",""1"",""6124""
","
","
","""event"",""trial"",""time""
""fullscreenenter"",""1"",""6124""
","
","","","","","","1159.7999999523163","images/sofa4.png","","","learning","6","6","1","1","sofa","furniture","2","1","","bad","[-6]"
"html-keyboard-response","199","917976","0.0-11.0-2.0-0.5","3812","1","11","Male","approach_avoid_spark_v1","""event"",""trial"",""time""
""fullscreenenter"",""1"",""6124""
","
","
","""event"",""trial"",""time""
""fullscreenenter"",""1"",""6124""
","
","","","","","","null","<div style=""font-size:60px;"">+</div>","null","","fixation","","","","","","","","","","",""
"aa-learning-trial","200","920983","0.0-11.0-2.0-1.5","3812","1","11","Male","approach_avoid_spark_v1","""event"",""trial"",""time""
""fullscreenenter"",""1"",""6124""
","
","
","""event"",""trial"",""time""
""fullscreenenter"",""1"",""6124""
","
","","","","","","2017.5999999046326","images/sofa3.png","","","learning","-6","0","0","0","sofa","furniture","2","1","","bad","[-6]"
"html-keyboard-response","201","921496","0.0-11.0-2.0-0.6","3812","1","11","Male","approach_avoid_spark_v1","""event"",""trial"",""time""
""fullscreenenter"",""1"",""6124""
","
","
","""event"",""trial"",""time""
""fullscreenenter"",""1"",""6124""
","
","","","","","","null","<div style=""font-size:60px;"">+</div>","null","","fixation","","","","","","","","","","",""
"aa-learning-trial","202","924514","0.0-11.0-2.0-1.6","3812","1","11","Male","approach_avoid_spark_v1","""event"",""trial"",""time""
""fullscreenenter"",""1"",""6124""
","
","
","""event"",""trial"",""time""
""fullscreenenter"",""1"",""6124""
","
","","","","","","1299","images/chair4.png","","","learning","3","3","1","1","chair","furniture","2","1","","neutral","0"
"html-keyboard-response","203","925033","0.0-11.0-2.0-0.7","3812","1","11","Male","approach_avoid_spark_v1","""event"",""trial"",""time""
""fullscreenenter"",""1"",""6124""
","
","
","""event"",""trial"",""time""
""fullscreenenter"",""1"",""6124""
","
","","","","","","null","<div style=""font-size:60px;"">+</div>","null","","fixation","","","","","","","","","","",""
"aa-learning-trial","204","928049","0.0-11.0-2.0-1.7","3812","1","11","Male","approach_avoid_spark_v1","""event"",""trial"",""time""
""fullscreenenter"",""1"",""6124""
","
","
","""event"",""trial"",""time""
""fullscreenenter"",""1"",""6124""
","
","","","","","","2291.600000143051","images/bed8.png","","","learning","-3","-3","1","1","bed","furniture","2","1","","good","[4]"
"html-keyboard-response","205","928562","0.0-11.0-2.0-0.8","3812","1","11","Male","approach_avoid_spark_v1","""event"",""trial"",""time""
""fullscreenenter"",""1"",""6124""
","
","
","""event"",""trial"",""time""
""fullscreenenter"",""1"",""6124""
","
","","","","","","null","<div style=""font-size:60px;"">+</div>","null","","fixation","","","","","","","","","","",""
"aa-learning-trial","206","931573","0.0-11.0-2.0-1.8","3812","1","11","Male","approach_avoid_spark_v1","""event"",""trial"",""time""
""fullscreenenter"",""1"",""6124""
","
","
","""event"",""trial"",""time""
""fullscreenenter"",""1"",""6124""
","
","","","","","","2289.0999999046326","images/bed5.png","","","learning","-9","-9","1","1","bed","furniture","2","1","","good","[4]"
"html-keyboard-response","207","932082","0.0-11.0-2.0-0.9","3812","1","11","Male","approach_avoid_spark_v1","""event"",""trial"",""time""
""fullscreenenter"",""1"",""6124""
","
","
","""event"",""trial"",""time""
""fullscreenenter"",""1"",""6124""
","
","","","","","","null","<div style=""font-size:60px;"">+</div>","null","","fixation","","","","","","","","","","",""
"aa-learning-trial","208","935099","0.0-11.0-2.0-1.9","3812","1","11","Male","approach_avoid_spark_v1","""event"",""trial"",""time""
""fullscreenenter"",""1"",""6124""
","
","
","""event"",""trial"",""time""
""fullscreenenter"",""1"",""6124""
","
","","","","","","636.6000001430511","images/chair8.png","","","learning","8","0","0","0","chair","furniture","2","1","","neutral","0"
"html-keyboard-response","209","935610","0.0-11.0-2.0-0.10","3812","1","11","Male","approach_avoid_spark_v1","""event"",""trial"",""time""
""fullscreenenter"",""1"",""6124""
","
","
","""event"",""trial"",""time""
""fullscreenenter"",""1"",""6124""
","
","","","","","","null","<div style=""font-size:60px;"">+</div>","null","","fixation","","","","","","","","","","",""
"aa-learning-trial","210","938623","0.0-11.0-2.0-1.10","3812","1","11","Male","approach_avoid_spark_v1","""event"",""trial"",""time""
""fullscreenenter"",""1"",""6124""
","
","
","""event"",""trial"",""time""
""fullscreenenter"",""1"",""6124""
","
","","","","","","1054.0999999046326","images/sofa4.png","","","learning","6","6","1","1","sofa","furniture","2","1","","bad","[-6]"
"html-keyboard-response","211","939134","0.0-11.0-2.0-0.11","3812","1","11","Male","approach_avoid_spark_v1","""event"",""trial"",""time""
""fullscreenenter"",""1"",""6124""
","
","
","""event"",""trial"",""time""
""fullscreenenter"",""1"",""6124""
","
","","","","","","null","<div style=""font-size:60px;"">+</div>","null","","fixation","","","","","","","","","","",""
"aa-learning-trial","212","942144","0.0-11.0-2.0-1.11","3812","1","11","Male","approach_avoid_spark_v1","""event"",""trial"",""time""
""fullscreenenter"",""1"",""6124""
","
","
","""event"",""trial"",""time""
""fullscreenenter"",""1"",""6124""
","
","","","","","","1945","images/sofa8.png","","","learning","-1","-1","1","1","sofa","furniture","2","1","","bad","[-6]"
"html-keyboard-response","213","942653","0.0-11.0-2.0-0.12","3812","1","11","Male","approach_avoid_spark_v1","""event"",""trial"",""time""
""fullscreenenter"",""1"",""6124""
","
","
","""event"",""trial"",""time""
""fullscreenenter"",""1"",""6124""
","
","","","","","","null","<div style=""font-size:60px;"">+</div>","null","","fixation","","","","","","","","","","",""
"aa-learning-trial","214","945660","0.0-11.0-2.0-1.12","3812","1","11","Male","approach_avoid_spark_v1","""event"",""trial"",""time""
""fullscreenenter"",""1"",""6124""
","
","
","""event"",""trial"",""time""
""fullscreenenter"",""1"",""6124""
","
","","","","","","2681.7999999523163","images/bed8.png","","","learning","-3","0","0","0","bed","furniture","2","1","","good","[4]"
"html-keyboard-response","215","946168","0.0-11.0-2.0-0.13","3812","1","11","Male","approach_avoid_spark_v1","""event"",""trial"",""time""
""fullscreenenter"",""1"",""6124""
","
","
","""event"",""trial"",""time""
""fullscreenenter"",""1"",""6124""
","
","","","","","","null","<div style=""font-size:60px;"">+</div>","null","","fixation","","","","","","","","","","",""
"aa-learning-trial","216","949176","0.0-11.0-2.0-1.13","3812","1","11","Male","approach_avoid_spark_v1","""event"",""trial"",""time""
""fullscreenenter"",""1"",""6124""
","
","
","""event"",""trial"",""time""
""fullscreenenter"",""1"",""6124""
","
","","","","","","2013.8999998569489","images/sofa3.png","","","learning","-6","-6","1","1","sofa","furniture","2","1","","bad","[-6]"
"html-keyboard-response","217","949685","0.0-11.0-2.0-0.14","3812","1","11","Male","approach_avoid_spark_v1","""event"",""trial"",""time""
""fullscreenenter"",""1"",""6124""
","
","
","""event"",""trial"",""time""
""fullscreenenter"",""1"",""6124""
","
","","","","","","null","<div style=""font-size:60px;"">+</div>","null","","fixation","","","","","","","","","","",""
"aa-learning-trial","218","952692","0.0-11.0-2.0-1.14","3812","1","11","Male","approach_avoid_spark_v1","""event"",""trial"",""time""
""fullscreenenter"",""1"",""6124""
","
","
","""event"",""trial"",""time""
""fullscreenenter"",""1"",""6124""
","
","","","","","","1164.7999999523163","images/bed7.png","","","learning","2","0","0","0","bed","furniture","2","1","","good","[4]"
"html-keyboard-response","219","953200","0.0-11.0-2.0-0.15","3812","1","11","Male","approach_avoid_spark_v1","""event"",""trial"",""time""
""fullscreenenter"",""1"",""6124""
","
","
","""event"",""trial"",""time""
""fullscreenenter"",""1"",""6124""
","
","","","","","","null","<div style=""font-size:60px;"">+</div>","null","","fixation","","","","","","","","","","",""
"aa-learning-trial","220","956226","0.0-11.0-2.0-1.15","3812","1","11","Male","approach_avoid_spark_v1","""event"",""trial"",""time""
""fullscreenenter"",""1"",""6124""
","
","
","""event"",""trial"",""time""
""fullscreenenter"",""1"",""6124""
","
","","","","","","1115.7999999523163","images/bed5.png","","","learning","-9","-9","1","1","bed","furniture","2","1","","good","[4]"
"html-keyboard-response","221","956732","0.0-11.0-2.0-0.16","3812","1","11","Male","approach_avoid_spark_v1","""event"",""trial"",""time""
""fullscreenenter"",""1"",""6124""
","
","
","""event"",""trial"",""time""
""fullscreenenter"",""1"",""6124""
","
","","","","","","null","<div style=""font-size:60px;"">+</div>","null","","fixation","","","","","","","","","","",""
"aa-learning-trial","222","959742","0.0-11.0-2.0-1.16","3812","1","11","Male","approach_avoid_spark_v1","""event"",""trial"",""time""
""fullscreenenter"",""1"",""6124""
","
","
","""event"",""trial"",""time""
""fullscreenenter"",""1"",""6124""
","
","","","","","","1331.5999999046326","images/sofa5.png","","","learning","-4","-4","1","1","sofa","furniture","2","1","","bad","[-6]"
"html-keyboard-response","223","960262","0.0-11.0-2.0-0.17","3812","1","11","Male","approach_avoid_spark_v1","""event"",""trial"",""time""
""fullscreenenter"",""1"",""6124""
","
","
","""event"",""trial"",""time""
""fullscreenenter"",""1"",""6124""
","
","","","","","","null","<div style=""font-size:60px;"">+</div>","null","","fixation","","","","","","","","","","",""
"aa-learning-trial","224","963269","0.0-11.0-2.0-1.17","3812","1","11","Male","approach_avoid_spark_v1","""event"",""trial"",""time""
""fullscreenenter"",""1"",""6124""
","
","
","""event"",""trial"",""time""
""fullscreenenter"",""1"",""6124""
","
","","","","","","453.7999999523163","images/bed8.png","","","learning","-3","0","0","0","bed","furniture","2","1","","good","[4]"
"html-keyboard-response","225","963780","0.0-11.0-2.0-0.18","3812","1","11","Male","approach_avoid_spark_v1","""event"",""trial"",""time""
""fullscreenenter"",""1"",""6124""
","
","
","""event"",""trial"",""time""
""fullscreenenter"",""1"",""6124""
","
","","","","","","null","<div style=""font-size:60px;"">+</div>","null","","fixation","","","","","","","","","","",""
"aa-learning-trial","226","966788","0.0-11.0-2.0-1.18","3812","1","11","Male","approach_avoid_spark_v1","""event"",""trial"",""time""
""fullscreenenter"",""1"",""6124""
","
","
","""event"",""trial"",""time""
""fullscreenenter"",""1"",""6124""
","
","","","","","","1033.2999999523163","images/sofa3.png","","","learning","-6","-6","1","1","sofa","furniture","2","1","","bad","[-6]"
"html-keyboard-response","227","967291","0.0-11.0-2.0-0.19","3812","1","11","Male","approach_avoid_spark_v1","""event"",""trial"",""time""
""fullscreenenter"",""1"",""6124""
","
","
","""event"",""trial"",""time""
""fullscreenenter"",""1"",""6124""
","
","","","","","","null","<div style=""font-size:60px;"">+</div>","null","","fixation","","","","","","","","","","",""
"aa-learning-trial","228","970301","0.0-11.0-2.0-1.19","3812","1","11","Male","approach_avoid_spark_v1","""event"",""trial"",""time""
""fullscreenenter"",""1"",""6124""
","
","
","""event"",""trial"",""time""
""fullscreenenter"",""1"",""6124""
","
","","","","","","1194.0999999046326","images/sofa4.png","","","learning","6","6","1","1","sofa","furniture","2","1","","bad","[-6]"
"html-keyboard-response","229","970812","0.0-11.0-2.0-0.20","3812","1","11","Male","approach_avoid_spark_v1","""event"",""trial"",""time""
""fullscreenenter"",""1"",""6124""
","
","
","""event"",""trial"",""time""
""fullscreenenter"",""1"",""6124""
","
","","","","","","null","<div style=""font-size:60px;"">+</div>","null","","fixation","","","","","","","","","","",""
"aa-learning-trial","230","973829","0.0-11.0-2.0-1.20","3812","1","11","Male","approach_avoid_spark_v1","""event"",""trial"",""time""
""fullscreenenter"",""1"",""6124""
","
","
","""event"",""trial"",""time""
""fullscreenenter"",""1"",""6124""
","
","","","","","","1150.5999999046326","images/sofa4.png","","","learning","6","0","0","0","sofa","furniture","2","1","","bad","[-6]"
"html-keyboard-response","231","974343","0.0-11.0-2.0-0.21","3812","1","11","Male","approach_avoid_spark_v1","""event"",""trial"",""time""
""fullscreenenter"",""1"",""6124""
","
","
","""event"",""trial"",""time""
""fullscreenenter"",""1"",""6124""
","
","","","","","","null","<div style=""font-size:60px;"">+</div>","null","","fixation","","","","","","","","","","",""
"aa-learning-trial","232","977358","0.0-11.0-2.0-1.21","3812","1","11","Male","approach_avoid_spark_v1","""event"",""trial"",""time""
""fullscreenenter"",""1"",""6124""
","
","
","""event"",""trial"",""time""
""fullscreenenter"",""1"",""6124""
","
","","","","","","717.9000000953674","images/chair4.png","","","learning","3","3","1","1","chair","furniture","2","1","","neutral","0"
"html-keyboard-response","233","977882","0.0-11.0-2.0-0.22","3812","1","11","Male","approach_avoid_spark_v1","""event"",""trial"",""time""
""fullscreenenter"",""1"",""6124""
","
","
","""event"",""trial"",""time""
""fullscreenenter"",""1"",""6124""
","
","","","","","","null","<div style=""font-size:60px;"">+</div>","null","","fixation","","","","","","","","","","",""
"aa-learning-trial","234","980892","0.0-11.0-2.0-1.22","3812","1","11","Male","approach_avoid_spark_v1","""event"",""trial"",""time""
""fullscreenenter"",""1"",""6124""
","
","
","""event"",""trial"",""time""
""fullscreenenter"",""1"",""6124""
","
","","","","","","null","images/bed8.png","","","learning","-3","-5","","null","bed","furniture","2","1","","good","[4]"
"html-keyboard-response","235","981405","0.0-11.0-2.0-0.23","3812","1","11","Male","approach_avoid_spark_v1","""event"",""trial"",""time""
""fullscreenenter"",""1"",""6124""
","
","
","""event"",""trial"",""time""
""fullscreenenter"",""1"",""6124""
","
","","","","","","null","<div style=""font-size:60px;"">+</div>","null","","fixation","","","","","","","","","","",""
"aa-learning-trial","236","984418","0.0-11.0-2.0-1.23","3812","1","11","Male","approach_avoid_spark_v1","""event"",""trial"",""time""
""fullscreenenter"",""1"",""6124""
","
","
","""event"",""trial"",""time""
""fullscreenenter"",""1"",""6124""
","
