"trial_type","trial_index","time_elapsed","internal_node_id","subject_id","task_condition","age","gender","task_version","interactions","blur_events","focus_events","fullscreenenter_events","fullscreenexit_events","success","timeout","failed_images","failed_audio","failed_video","rt","stimulus","response","button_pressed","task_part","approach_reward","points","key_press","option_selected","stim_cat","task_block","block_condition","block_number","correct","cat_type","mean_cat_reward"
"pavlovia","0","4","0.0-0.0","4857","1","15","Female","approach_avoid_spark_v1","""event"",""trial"",""time""
""fullscreenenter"",""1"",""2820""
","
","
","""event"",""trial"",""time""
""fullscreenenter"",""1"",""2820""
","
","","","","","","","","","","","","","","","","","","","","",""
"fullscreen","1","3814","0.0-1.0","4857","1","15","Female","approach_avoid_spark_v1","""event"",""trial"",""time""
""fullscreenenter"",""1"",""2820""
","
","
","""event"",""trial"",""time""
""fullscreenenter"",""1"",""2820""
","
","true","","","","","","","","","","","","","","","","","","","",""
"preload","2","11253","0.0-2.0","4857","1","15","Female","approach_avoid_spark_v1","""event"",""trial"",""time""
""fullscreenenter"",""1"",""2820""
","
","
","""event"",""trial"",""time""
""fullscreenenter"",""1"",""2820""
","
","true","false","[]","[]","[]","","","","","","","","","","","","","","","",""
"audio-keyboard-response","3","40453","0.0-3.0","4857","1","15","Female","approach_avoid_spark_v1","""event"",""trial"",""time""
""fullscreenenter"",""1"",""2820""
","
","
","""event"",""trial"",""time""
""fullscreenenter"",""1"",""2820""
","
","","","","","","29048","audio/beep_loop.wav"," ","","","","","","","","","","","","",""
"audio-button-response","4","44502","0.0-4.0","4857","1","15","Female","approach_avoid_spark_v1","""event"",""trial"",""time""
""fullscreenenter"",""1"",""2820""
","
","
","""event"",""trial"",""time""
""fullscreenenter"",""1"",""2820""
","
","","","","","","4040","audio/shark.wav","0","","","","","","","","","","","","",""
"audio-button-response","5","49129","0.0-5.0","4857","1","15","Female","approach_avoid_spark_v1","""event"",""trial"",""time""
""fullscreenenter"",""1"",""2820""
","
","
","""event"",""trial"",""time""
""fullscreenenter"",""1"",""2820""
","
","","","","","","3619","audio/turtle.wav","0","","","","","","","","","","","","",""
"preload","6","53521","0.0-6.0","4857","1","15","Female","approach_avoid_spark_v1","""event"",""trial"",""time""
""fullscreenenter"",""1"",""2820""
","
","
","""event"",""trial"",""time""
""fullscreenenter"",""1"",""2820""
","
","true","false","[]","[]","[]","","","","","","","","","","","","","","","",""
"html-keyboard-response","7","55436","0.0-7.0","4857","1","15","Female","approach_avoid_spark_v1","""event"",""trial"",""time""
""fullscreenenter"",""1"",""2820""
","
","
","""event"",""trial"",""time""
""fullscreenenter"",""1"",""2820""
","
","","","","","","1913.6999999284744","Welcome to the experiment. Press any key to begin and to advance the instructions."," ","","","","","","","","","","","","",""
"learning-instructions","8","67033","0.0-8.0-0.0-0.0","4857","1","15","Female","approach_avoid_spark_v1","""event"",""trial"",""time""
""fullscreenenter"",""1"",""2820""
","
","
","""event"",""trial"",""time""
""fullscreenenter"",""1"",""2820""
","
","","","","","","4635.600000023842","<p> Welcome! Today you are going to play 6 different rounds of a decision-making game. </p><p> Use the mouse to click next to continue. </p>","","0","instructions","","","","","","","","","","",""
"learning-instructions","9","70755","0.0-8.0-0.0-0.1","4857","1","15","Female","approach_avoid_spark_v1","""event"",""trial"",""time""
""fullscreenenter"",""1"",""2820""
","
","
","""event"",""trial"",""time""
""fullscreenenter"",""1"",""2820""
","
","","","","","","977.8000000715256","<p> You will start with a practice round to learn the rules. </p>","","0","instructions","","","","","","","","","","",""
"learning-instructions","10","76326","0.0-8.0-0.0-0.2","4857","1","15","Female","approach_avoid_spark_v1","""event"",""trial"",""time""
""fullscreenenter"",""1"",""2820""
","
","
","""event"",""trial"",""time""
""fullscreenenter"",""1"",""2820""
","
","","","","","","2118.7999999523163","<p> Your goal in this round is to give out sports equipment to kids. </p></div>","","0","instructions","","","","","","","","","","",""
"learning-instructions","11","85878","0.0-8.0-0.0-0.3","4857","1","15","Female","approach_avoid_spark_v1","""event"",""trial"",""time""
""fullscreenenter"",""1"",""2820""
","
","
","""event"",""trial"",""time""
""fullscreenenter"",""1"",""2820""
","
","","","","","","1991.6999999284744","<p> The kids only like some of the equipment.  </p><p> On each turn, you will see a piece of sports equipment.   </p><p> You need to decide whether to give it to the kids or not.  </p>","","0","instructions","","","","","","","","","","",""
"learning-instructions","12","92927","0.0-8.0-0.0-0.4","4857","1","15","Female","approach_avoid_spark_v1","""event"",""trial"",""time""
""fullscreenenter"",""1"",""2820""
","
","
","""event"",""trial"",""time""
""fullscreenenter"",""1"",""2820""
","
","","","","","","2289.5999999046326","<p> You can give them the equipment by pressing 1 and choose not to give it to them by pressing 0. </p><br><div class=""choice-instructions-grid""> <div class=""choice-option""><img src=""images/approach.png"" class=""choice-option-img"" stage=""instructions"" position=""0"" ><div class=""choice-option-text""> Press ""1."" </div></div><div class=""choice-option""><img src=""images/avoid.png"" class=""choice-option-img"" stage=""instructions"" position=""1"" ><div class=""choice-option-text""> Press ""0."" </div></div>","","0","instructions","","","","","","","","","","",""
"learning-instructions","13","101062","0.0-8.0-0.0-0.5","4857","1","15","Female","approach_avoid_spark_v1","""event"",""trial"",""time""
""fullscreenenter"",""1"",""2820""
","
","
","""event"",""trial"",""time""
""fullscreenenter"",""1"",""2820""
","
","","","","","","755.5","<p> If you give them a piece of equipment they like, they will be happy! </p><p> But if you give them a piece of equipment they do not like, they will be sad. </p>","","0","instructions","","","","","","","","","","",""
"learning-instructions","14","112291","0.0-8.0-0.0-0.6","4857","1","15","Female","approach_avoid_spark_v1","""event"",""trial"",""time""
""fullscreenenter"",""1"",""2820""
","
","
","""event"",""trial"",""time""
""fullscreenenter"",""1"",""2820""
","
","","","","","","704.3999999761581","<p> You will earn points based on how you make kids feel. </p><p> If you make them happy, you will WIN anywhere from 1 - 9 points, </p><p> but if you make them sad, you will LOSE anywhere from 1 - 9 points. </p>","","0","instructions","","","","","","","","","","",""
"learning-instructions","15","122932","0.0-8.0-0.0-0.7","4857","1","15","Female","approach_avoid_spark_v1","""event"",""trial"",""time""
""fullscreenenter"",""1"",""2820""
","
","
","""event"",""trial"",""time""
""fullscreenenter"",""1"",""2820""
","
","","","","","","1080.2999999523163","<p> You will see how many points you won or lost in the center of the screen. </p><p> Here is what you would see if you won 6 points: </p><p style=""color:green;font-size:50px;font-weight:bolder"">6</p><p style=""color:green"">The text is GREEN because you WON points.</p>","","0","instructions","","","","","","","","","","",""
"learning-instructions","16","129653","0.0-8.0-0.0-0.8","4857","1","15","Female","approach_avoid_spark_v1","""event"",""trial"",""time""
""fullscreenenter"",""1"",""2820""
","
","
","""event"",""trial"",""time""
""fullscreenenter"",""1"",""2820""
","
","","","","","","1202.1000000238419","<p> And here is what you would see if you lost 4 points: </p><p style=""color:red;font-size:50px;font-weight:bolder"">-4</p><p style=""color:red"">The text is RED because you LOST points. </p>","","0","instructions","","","","","","","","","","",""
"learning-instructions","17","144847","0.0-8.0-0.0-0.9","4857","1","15","Female","approach_avoid_spark_v1","""event"",""trial"",""time""
""fullscreenenter"",""1"",""2820""
","
","
","""event"",""trial"",""time""
""fullscreenenter"",""1"",""2820""
","
","","","","","","485.6999999284744","<p> Some of the equipment will make the kids VERY happy or sad. </p><p> These pieces of equipment will make you win or lose LOTS of points. </p><p> Other pieces of equipment will only make the kids a little happy or sad. </p><p> These pieces of equipment will make you win or lose small amounts of points. </p>","","0","instructions","","","","","","","","","","",""
"learning-instructions","18","157834","0.0-8.0-0.0-0.10","4857","1","15","Female","approach_avoid_spark_v1","""event"",""trial"",""time""
""fullscreenenter"",""1"",""2820""
","
","
","""event"",""trial"",""time""
""fullscreenenter"",""1"",""2820""
","
","","","","","","2363.2999999523163","<p> If you choose not to give them the equipment, you will not win or lose any points. </p><p>  However, in the center of the screen, you will see the number of points you WOULD HAVE won or lost if you had given them the equipment. </p>","","0","instructions","","","","","","","","","","",""
"learning-instructions","19","180019","0.0-8.0-0.0-0.11","4857","1","15","Female","approach_avoid_spark_v1","""event"",""trial"",""time""
""fullscreenenter"",""1"",""2820""
","
","
","""event"",""trial"",""time""
""fullscreenenter"",""1"",""2820""
","
","","","","","","638.0999999046326","<p> Here is what you might see if you did not give the equipment to the kids but it would have made them happy: </p><p style=""color:grey; font-size:50px; display: inline-block; border-spacing: 15px; border-width:3px; border-style:solid; border-color:red"">  &nbsp; 7 &nbsp; </p><p> Remember, in this case, you would not win or lose ANY points because you did not give them the equipment.  </p><p style=""color:grey"">The text is GREY because you earned ZERO points. </p><p style=""color:red"">However, choosing to give the kids the equipment would have made you win points. The box around the text is RED because you chose the worse option. </p>","","0","instructions","","","","","","","","","","",""
"learning-instructions","20","202399","0.0-8.0-0.0-0.12","4857","1","15","Female","approach_avoid_spark_v1","""event"",""trial"",""time""
""fullscreenenter"",""1"",""2820""
","
","
","""event"",""trial"",""time""
""fullscreenenter"",""1"",""2820""
","
","","","","","","1283","<p> Here is what you might see if you did not give the equipment to the kids but it would have made them sad: </p><p style=""color:grey;font-size:50px; display: inline-block; border-spacing: 15px; border-width:3px; border-style:solid; border-color:green"">  &nbsp; -8 &nbsp; </p><p> Remember, in this case, you would not win or lose ANY points because you did not give them the equipment.  </p><p style=""color:grey"">The text is GREY because you earned ZERO points. </p><p  style=""color:green""> Choosing to give the kids the equipment would have made you lose points. The box around the text is GREEN because you chose the better option.</p>","","0","instructions","","","","","","","","","","",""
"learning-instructions","21","211848","0.0-8.0-0.0-0.13","4857","1","15","Female","approach_avoid_spark_v1","""event"",""trial"",""time""
""fullscreenenter"",""1"",""2820""
","
","
","""event"",""trial"",""time""
""fullscreenenter"",""1"",""2820""
","
","","","","","","610.2999999523163","<p> You will have 3 seconds to make each choice. Try to respond before time runs out! </p><p> You will lose 5 points each time you do not make a response. </p>","","0","instructions","","","","","","","","","","",""
"learning-instructions","22","218028","0.0-8.0-0.0-0.14","4857","1","15","Female","approach_avoid_spark_v1","""event"",""trial"",""time""
""fullscreenenter"",""1"",""2820""
","
","
","""event"",""trial"",""time""
""fullscreenenter"",""1"",""2820""
","
","","","","","","761.1999999284744","<p> This is just a practice round, but in the real game, your bonus payment will depend on your total number of points.","","0","instructions","","","","","","","","","","",""
"learning-instructions","23","225437","0.0-8.0-0.0-0.15","4857","1","15","Female","approach_avoid_spark_v1","""event"",""trial"",""time""
""fullscreenenter"",""1"",""2820""
","
","
","""event"",""trial"",""time""
""fullscreenenter"",""1"",""2820""
","
","","","","","","1639.2000000476837","<p> Remember, you can give them the equipment by pressing 1 and choose not to give it to them by pressing 0. </p><br><div class=""choice-instructions-grid""> <div class=""choice-option""><img src=""images/approach.png"" class=""choice-option-img"" stage=""instructions"" position=""0"" ><div class=""choice-option-text""> Press ""1."" </div></div><div class=""choice-option""><img src=""images/avoid.png"" class=""choice-option-img"" stage=""instructions"" position=""1"" ><div class=""choice-option-text""> Press ""0."" </div></div>","","0","instructions","","","","","","","","","","",""
"html-button-response","24","231111","0.0-8.0-1.0","4857","1","15","Female","approach_avoid_spark_v1","""event"",""trial"",""time""
""fullscreenenter"",""1"",""2820""
","
","
","""event"",""trial"",""time""
""fullscreenenter"",""1"",""2820""
","
","","","","","","5565.800000071526","<p> Ready to practice? </p>","0","","","","","","","","","","","","",""
"html-keyboard-response","25","231729","0.0-8.0-2.0-0.0","4857","1","15","Female","approach_avoid_spark_v1","""event"",""trial"",""time""
""fullscreenenter"",""1"",""2820""
","
","
","""event"",""trial"",""time""
""fullscreenenter"",""1"",""2820""
","
","","","","","","null","<div style=""font-size:60px;"">+</div>","null","","fixation","","","","","","","","","","",""
"aa-learning-trial","26","234744","0.0-8.0-2.0-1.0","4857","1","15","Female","approach_avoid_spark_v1","""event"",""trial"",""time""
""fullscreenenter"",""1"",""2820""
","
","
","""event"",""trial"",""time""
""fullscreenenter"",""1"",""2820""
","
","","","","","","1571.2999999523163","images/racket2.png","","","learning","4","4","1","1","practice","practice","practice","-1","","",""
"html-keyboard-response","27","235258","0.0-8.0-2.0-0.1","4857","1","15","Female","approach_avoid_spark_v1","""event"",""trial"",""time""
""fullscreenenter"",""1"",""2820""
","
","
","""event"",""trial"",""time""
""fullscreenenter"",""1"",""2820""
","
","","","","","","null","<div style=""font-size:60px;"">+</div>","null","","fixation","","","","","","","","","","",""
"aa-learning-trial","28","238271","0.0-8.0-2.0-1.1","4857","1","15","Female","approach_avoid_spark_v1","""event"",""trial"",""time""
""fullscreenenter"",""1"",""2820""
","
","
","""event"",""trial"",""time""
""fullscreenenter"",""1"",""2820""
","
","","","","","","1769.7000000476837","images/ball3.png","","","learning","7","7","1","1","practice","practice","practice","-1","","",""
"html-keyboard-response","29","238790","0.0-8.0-2.0-0.2","4857","1","15","Female","approach_avoid_spark_v1","""event"",""trial"",""time""
""fullscreenenter"",""1"",""2820""
","
","
","""event"",""trial"",""time""
""fullscreenenter"",""1"",""2820""
","
","","","","","","null","<div style=""font-size:60px;"">+</div>","null","","fixation","","","","","","","","","","",""
"aa-learning-trial","30","241794","0.0-8.0-2.0-1.2","4857","1","15","Female","approach_avoid_spark_v1","""event"",""trial"",""time""
""fullscreenenter"",""1"",""2820""
","
","
","""event"",""trial"",""time""
""fullscreenenter"",""1"",""2820""
","
","","","","","","1405.8999999761581","images/ball4.png","","","learning","-1","-1","1","1","practice","practice","practice","-1","","",""
"html-keyboard-response","31","242312","0.0-8.0-2.0-0.3","4857","1","15","Female","approach_avoid_spark_v1","""event"",""trial"",""time""
""fullscreenenter"",""1"",""2820""
","
","
","""event"",""trial"",""time""
""fullscreenenter"",""1"",""2820""
","
","","","","","","null","<div style=""font-size:60px;"">+</div>","null","","fixation","","","","","","","","","","",""
"aa-learning-trial","32","245330","0.0-8.0-2.0-1.3","4857","1","15","Female","approach_avoid_spark_v1","""event"",""trial"",""time""
""fullscreenenter"",""1"",""2820""
","
","
","""event"",""trial"",""time""
""fullscreenenter"",""1"",""2820""
","
","","","","","","952.5","images/racket2.png","","","learning","5","5","1","1","practice","practice","practice","-1","","",""
"html-keyboard-response","33","245841","0.0-8.0-2.0-0.4","4857","1","15","Female","approach_avoid_spark_v1","""event"",""trial"",""time""
""fullscreenenter"",""1"",""2820""
","
","
","""event"",""trial"",""time""
""fullscreenenter"",""1"",""2820""
","
","","","","","","null","<div style=""font-size:60px;"">+</div>","null","","fixation","","","","","","","","","","",""
"aa-learning-trial","34","248867","0.0-8.0-2.0-1.4","4857","1","15","Female","approach_avoid_spark_v1","""event"",""trial"",""time""
""fullscreenenter"",""1"",""2820""
","
","
","""event"",""trial"",""time""
""fullscreenenter"",""1"",""2820""
","
","","","","","","866.6999999284744","images/racket3.png","","","learning","-9","-9","1","1","practice","practice","practice","-1","","",""
"html-keyboard-response","35","249385","0.0-8.0-2.0-0.5","4857","1","15","Female","approach_avoid_spark_v1","""event"",""trial"",""time""
""fullscreenenter"",""1"",""2820""
","
","
","""event"",""trial"",""time""
""fullscreenenter"",""1"",""2820""
","
","","","","","","null","<div style=""font-size:60px;"">+</div>","null","","fixation","","","","","","","","","","",""
"aa-learning-trial","36","252409","0.0-8.0-2.0-1.5","4857","1","15","Female","approach_avoid_spark_v1","""event"",""trial"",""time""
""fullscreenenter"",""1"",""2820""
","
","
","""event"",""trial"",""time""
""fullscreenenter"",""1"",""2820""
","
","","","","","","1215.5","images/racket3.png","","","learning","-9","0","0","0","practice","practice","practice","-1","","",""
"html-keyboard-response","37","252919","0.0-8.0-2.0-0.6","4857","1","15","Female","approach_avoid_spark_v1","""event"",""trial"",""time""
""fullscreenenter"",""1"",""2820""
","
","
","""event"",""trial"",""time""
""fullscreenenter"",""1"",""2820""
","
","","","","","","null","<div style=""font-size:60px;"">+</div>","null","","fixation","","","","","","","","","","",""
"aa-learning-trial","38","255943","0.0-8.0-2.0-1.6","4857","1","15","Female","approach_avoid_spark_v1","""event"",""trial"",""time""
""fullscreenenter"",""1"",""2820""
","
","
","""event"",""trial"",""time""
""fullscreenenter"",""1"",""2820""
","
","","","","","","2017","images/ball2.png","","","learning","-2","0","0","0","practice","practice","practice","-1","","",""
"html-keyboard-response","39","256456","0.0-8.0-2.0-0.7","4857","1","15","Female","approach_avoid_spark_v1","""event"",""trial"",""time""
""fullscreenenter"",""1"",""2820""
","
","
","""event"",""trial"",""time""
""fullscreenenter"",""1"",""2820""
","
","","","","","","null","<div style=""font-size:60px;"">+</div>","null","","fixation","","","","","","","","","","",""
"aa-learning-trial","40","259480","0.0-8.0-2.0-1.7","4857","1","15","Female","approach_avoid_spark_v1","""event"",""trial"",""time""
""fullscreenenter"",""1"",""2820""
","
","
","""event"",""trial"",""time""
""fullscreenenter"",""1"",""2820""
","
","","","","","","1071.2999999523163","images/ball1.png","","","learning","6","6","1","1","practice","practice","practice","-1","","",""
"html-keyboard-response","41","259988","0.0-8.0-2.0-0.8","4857","1","15","Female","approach_avoid_spark_v1","""event"",""trial"",""time""
""fullscreenenter"",""1"",""2820""
","
","
","""event"",""trial"",""time""
""fullscreenenter"",""1"",""2820""
","
","","","","","","null","<div style=""font-size:60px;"">+</div>","null","","fixation","","","","","","","","","","",""
"aa-learning-trial","42","262996","0.0-8.0-2.0-1.8","4857","1","15","Female","approach_avoid_spark_v1","""event"",""trial"",""time""
""fullscreenenter"",""1"",""2820""
","
","
","""event"",""trial"",""time""
""fullscreenenter"",""1"",""2820""
","
","","","","","","840.6000000238419","images/racket1.png","","","learning","4","4","1","1","practice","practice","practice","-1","","",""
"html-keyboard-response","43","263510","0.0-8.0-2.0-0.9","4857","1","15","Female","approach_avoid_spark_v1","""event"",""trial"",""time""
""fullscreenenter"",""1"",""2820""
","
","
","""event"",""trial"",""time""
""fullscreenenter"",""1"",""2820""
","
","","","","","","null","<div style=""font-size:60px;"">+</div>","null","","fixation","","","","","","","","","","",""
"aa-learning-trial","44","266526","0.0-8.0-2.0-1.9","4857","1","15","Female","approach_avoid_spark_v1","""event"",""trial"",""time""
""fullscreenenter"",""1"",""2820""
","
","
","""event"",""trial"",""time""
""fullscreenenter"",""1"",""2820""
","
","","","","","","901.5999999046326","images/racket2.png","","","learning","-7","-7","1","1","practice","practice","practice","-1","","",""
"html-keyboard-response","45","267029","0.0-8.0-2.0-0.10","4857","1","15","Female","approach_avoid_spark_v1","""event"",""trial"",""time""
""fullscreenenter"",""1"",""2820""
","
","
","""event"",""trial"",""time""
""fullscreenenter"",""1"",""2820""
","
","","","","","","null","<div style=""font-size:60px;"">+</div>","null","","fixation","","","","","","","","","","",""
"aa-learning-trial","46","270035","0.0-8.0-2.0-1.10","4857","1","15","Female","approach_avoid_spark_v1","""event"",""trial"",""time""
""fullscreenenter"",""1"",""2820""
","
","
","""event"",""trial"",""time""
""fullscreenenter"",""1"",""2820""
","
","","","","","","965.5","images/ball2.png","","","learning","-2","0","0","0","practice","practice","practice","-1","","",""
"html-keyboard-response","47","270543","0.0-8.0-2.0-0.11","4857","1","15","Female","approach_avoid_spark_v1","""event"",""trial"",""time""
""fullscreenenter"",""1"",""2820""
","
","
","""event"",""trial"",""time""
""fullscreenenter"",""1"",""2820""
","
","","","","","","null","<div style=""font-size:60px;"">+</div>","null","","fixation","","","","","","","","","","",""
"aa-learning-trial","48","273554","0.0-8.0-2.0-1.11","4857","1","15","Female","approach_avoid_spark_v1","""event"",""trial"",""time""
""fullscreenenter"",""1"",""2820""
","
","
","""event"",""trial"",""time""
""fullscreenenter"",""1"",""2820""
","
","","","","","","596.8999999761581","images/ball2.png","","","learning","7","0","0","0","practice","practice","practice","-1","","",""
"html-button-response","49","275491","0.0-8.0-3.0","4857","1","15","Female","approach_avoid_spark_v1","""event"",""trial"",""time""
""fullscreenenter"",""1"",""2820""
","
","
","""event"",""trial"",""time""
""fullscreenenter"",""1"",""2820""
","
","","","","","","1934.6999999284744","<p> You earned 9 points in the practice round! </p>","0","","break","","","","","","","","","","",""
"learning-instructions","50","283273","0.0-8.0-4.0-0.0","4857","1","15","Female","approach_avoid_spark_v1","""event"",""trial"",""time""
""fullscreenenter"",""1"",""2820""
","
","
","""event"",""trial"",""time""
""fullscreenenter"",""1"",""2820""
","
","","","","","","1102.1000000238419","<p> It's almost time to start the real game. </p><p> Before you start, we're going to ask you a few questions about how the game works. </p>","","0","instructions","","","","","","","","","","",""
"preload","51","284563","0.0-8.0-5.0","4857","1","15","Female","approach_avoid_spark_v1","""event"",""trial"",""time""
""fullscreenenter"",""1"",""2820""
","
","
","""event"",""trial"",""time""
""fullscreenenter"",""1"",""2820""
","
","true","false","[]","[]","[]","","","","","","","","","","","","","","","",""
"comp-q","52","290912","0.0-8.0-6.0-0.0","4857","1","15","Female","approach_avoid_spark_v1","""event"",""trial"",""time""
""fullscreenenter"",""1"",""2820""
","
","
","""event"",""trial"",""time""
""fullscreenenter"",""1"",""2820""
","
","","","","","","1350.8999999761581","<p> <b> True or False? </b> </p><p> If you see a number in GREY, that means you earned that many points. </p>","","1","comp_question","","","","","","","","","true","",""
"comp-q","53","300420","0.0-8.0-6.0-1.0","4857","1","15","Female","approach_avoid_spark_v1","""event"",""trial"",""time""
""fullscreenenter"",""1"",""2820""
","
","
","""event"",""trial"",""time""
""fullscreenenter"",""1"",""2820""
","
","","","","","","1128.6999999284744","<p><b> That's right! </b> If you see a grey number, it means you earned ZERO points. <br> The grey numbers show the points you WOULD HAVE earned if you had made the other choice. </p>","","0","comp_answer","","","","","","","","","","",""
"comp-q","54","306132","0.0-8.0-7.0-0.0","4857","1","15","Female","approach_avoid_spark_v1","""event"",""trial"",""time""
""fullscreenenter"",""1"",""2820""
","
","
","""event"",""trial"",""time""
""fullscreenenter"",""1"",""2820""
","
","","","","","","1001.3999999761581","<p> <b> True or False? </b> </p><p> You will have as much time as you want to make each choice. </p>","","1","comp_question","","","","","","","","","true","",""
"comp-q","55","311418","0.0-8.0-7.0-1.0","4857","1","15","Female","approach_avoid_spark_v1","""event"",""trial"",""time""
""fullscreenenter"",""1"",""2820""
","
","
","""event"",""trial"",""time""
""fullscreenenter"",""1"",""2820""
","
","","","","","","1245.7000000476837","<p> <b> That's right! </b> You will only have 3 seconds to make each choice. </p>","","0","comp_answer","","","","","","","","","","",""
"comp-q","56","316931","0.0-8.0-8.0-0.0","4857","1","15","Female","approach_avoid_spark_v1","""event"",""trial"",""time""
""fullscreenenter"",""1"",""2820""
","
","
","""event"",""trial"",""time""
""fullscreenenter"",""1"",""2820""
","
","","","","","","849.6999999284744","<p> <b> True or False? </b> </p><p> You should use the '1' and '0' keys to make your choices. </p>","","0","comp_question","","","","","","","","","true","",""
"comp-q","57","322634","0.0-8.0-8.0-1.0","4857","1","15","Female","approach_avoid_spark_v1","""event"",""trial"",""time""
""fullscreenenter"",""1"",""2820""
","
","
","""event"",""trial"",""time""
""fullscreenenter"",""1"",""2820""
","
","","","","","","1080.3000000715256","<p> <b> That's right! </b> You should use the '1' and '0' keys to make each choice. </p>","","0","comp_answer","","","","","","","","","","",""
"learning-instructions","58","330253","0.0-8.0-9.0-0.0","4857","1","15","Female","approach_avoid_spark_v1","""event"",""trial"",""time""
""fullscreenenter"",""1"",""2820""
","
","
","""event"",""trial"",""time""
""fullscreenenter"",""1"",""2820""
","
","","","","","","1340.5","<p> It's now time to start the real game. </p>Do your best, because the points you earn in the next rounds will influence your bonus payment. </p>","","0","instructions","","","","","","","","","","",""
"preload","59","330384","0.0-9.0-0.0","4857","1","15","Female","approach_avoid_spark_v1","""event"",""trial"",""time""
""fullscreenenter"",""1"",""2820""
","
","
","""event"",""trial"",""time""
""fullscreenenter"",""1"",""2820""
","
","true","false","[]","[]","[]","","","","","","","","","","","","","","","",""
"learning-instructions","60","336313","0.0-9.0-1.0-0.0","4857","1","15","Female","approach_avoid_spark_v1","""event"",""trial"",""time""
""fullscreenenter"",""1"",""2820""
","
","
","""event"",""trial"",""time""
""fullscreenenter"",""1"",""2820""
","
","","","","","","990.6999999284744","<p> Your goal in this round is to take your friend for rides in different vehicles. </p></div>","","0","instructions","","","","","","","","","","",""
"learning-instructions","61","347212","0.0-9.0-1.0-0.1","4857","1","15","Female","approach_avoid_spark_v1","""event"",""trial"",""time""
""fullscreenenter"",""1"",""2820""
","
","
","""event"",""trial"",""time""
""fullscreenenter"",""1"",""2820""
","
","","","","","","799.5","<p> Your friend enjoys riding in some vehicles but not in others.  </p><p> On each turn, you will see a vehicle.   </p><p> You need to decide whether to take your friend for a ride or not.  </p>","","0","instructions","","","","","","","","","","",""
"learning-instructions","62","354256","0.0-9.0-1.0-0.2","4857","1","15","Female","approach_avoid_spark_v1","""event"",""trial"",""time""
""fullscreenenter"",""1"",""2820""
","
","
","""event"",""trial"",""time""
""fullscreenenter"",""1"",""2820""
","
","","","","","","663.7000000476837","<p> You can take your friend for a ride in the vehicle by pressing 1 and skip the ride by pressing 0. </p><br><div class=""choice-instructions-grid""> <div class=""choice-option""><img src=""images/approach.png"" class=""choice-option-img"" stage=""instructions"" position=""0"" ><div class=""choice-option-text""> Press ""1."" </div></div><div class=""choice-option""><img src=""images/avoid.png"" class=""choice-option-img"" stage=""instructions"" position=""1"" ><div class=""choice-option-text""> Press ""0."" </div></div>","","0","instructions","","","","","","","","","","",""
"learning-instructions","63","363243","0.0-9.0-1.0-0.3","4857","1","15","Female","approach_avoid_spark_v1","""event"",""trial"",""time""
""fullscreenenter"",""1"",""2820""
","
","
","""event"",""trial"",""time""
""fullscreenenter"",""1"",""2820""
","
","","","","","","299.90000009536743","<p> If you take them for a ride in a vehicle they like, they will be thrilled! </p><p> But if you take them for a ride in a vehicle they do not like, they will be upset. </p>","","0","instructions","","","","","","","","","","",""
"learning-instructions","64","375303","0.0-9.0-1.0-0.4","4857","1","15","Female","approach_avoid_spark_v1","""event"",""trial"",""time""
""fullscreenenter"",""1"",""2820""
","
","
","""event"",""trial"",""time""
""fullscreenenter"",""1"",""2820""
","
","","","","","","300.7000000476837","<p> You will earn points based on how you made your friend feel. </p><p> If you made him thrilled, you will WIN anywhere from 1 - 9 points, </p><p> but if you made him upset, you will LOSE anywhere from 1 - 9 points. </p>","","0","instructions","","","","","","","","","","",""
"learning-instructions","65","383331","0.0-9.0-1.0-0.5","4857","1","15","Female","approach_avoid_spark_v1","""event"",""trial"",""time""
""fullscreenenter"",""1"",""2820""
","
","
","""event"",""trial"",""time""
""fullscreenenter"",""1"",""2820""
","
","","","","","","669.3999999761581","<p> You will see how many points you won or lost in the center of the screen. </p><p> Here is what you would see if you won 5 points: </p><p style=""color:green;font-size:50px;font-weight:bolder"">5</p>","","0","instructions","","","","","","","","","","",""
"learning-instructions","66","388841","0.0-9.0-1.0-0.6","4857","1","15","Female","approach_avoid_spark_v1","""event"",""trial"",""time""
""fullscreenenter"",""1"",""2820""
","
","
","""event"",""trial"",""time""
""fullscreenenter"",""1"",""2820""
","
","","","","","","2100.2999999523163","<p> And here is what you would see if you lost 3 points: </p><p style=""color:red;font-size:50px;font-weight:bolder"">-3</p>","","0","instructions","","","","","","","","","","",""
"learning-instructions","67","404579","0.0-9.0-1.0-0.7","4857","1","15","Female","approach_avoid_spark_v1","""event"",""trial"",""time""
""fullscreenenter"",""1"",""2820""
","
","
","""event"",""trial"",""time""
""fullscreenenter"",""1"",""2820""
","
","","","","","","578.2999999523163","<p> Some vehicles will make your friend REALLY thrilled or upset. </p><p> These vehicles will make you win or lose LOTS of points. </p><p> Other vehicles will only make him feel a little thrilled or upset. </p><p> These vehicles will make you win or lose small amounts of points. </p>","","0","instructions","","","","","","","","","","",""
"learning-instructions","68","417531","0.0-9.0-1.0-0.8","4857","1","15","Female","approach_avoid_spark_v1","""event"",""trial"",""time""
""fullscreenenter"",""1"",""2820""
","
","
","""event"",""trial"",""time""
""fullscreenenter"",""1"",""2820""
","
","","","","","","1300.6000000238419","<p> If you choose to skip the ride, you will not win or lose any points. </p><p>  However, in the center of the screen, you will see the number of points you WOULD HAVE won or lost if you had taken your friend for a ride. </p>","","0","instructions","","","","","","","","","","",""
"learning-instructions","69","435502","0.0-9.0-1.0-0.9","4857","1","15","Female","approach_avoid_spark_v1","""event"",""trial"",""time""
""fullscreenenter"",""1"",""2820""
","
","
","""event"",""trial"",""time""
""fullscreenenter"",""1"",""2820""
","
","","","","","","7140.600000023842","<p> Here is what you might see if you did not take your friend for a ride but he would have enjoyed it: </p><p style=""color:grey; font-size:50px; display: inline-block; border-spacing: 15px; border-width:3px; border-style:solid; border-color:red"">  &nbsp; 6 &nbsp; </p><p> Remember, in this case, you would not win or lose ANY points because you skipped the ride.  </p>","","0","instructions","","","","","","","","","","",""
"learning-instructions","70","443269","0.0-9.0-1.0-0.10","4857","1","15","Female","approach_avoid_spark_v1","""event"",""trial"",""time""
""fullscreenenter"",""1"",""2820""
","
","
","""event"",""trial"",""time""
""fullscreenenter"",""1"",""2820""
","
","","","","","","318.5","<p> Try to make the best choice for each vehicle because </p><p> at the end of the game, you will earn bonus money based on how many points you earned. </p>","","0","instructions","","","","","","","","","","",""
"learning-instructions","71","451939","0.0-9.0-1.0-0.11","4857","1","15","Female","approach_avoid_spark_v1","""event"",""trial"",""time""
""fullscreenenter"",""1"",""2820""
","
","
","""event"",""trial"",""time""
""fullscreenenter"",""1"",""2820""
","
","","","","","","457.5","<p> You will have 3 seconds to make each choice. Try to respond before time runs out! </p><p> You will lose 5 points each time you do not make a response. </p>","","0","instructions","","","","","","","","","","",""
"html-keyboard-response","72","452560","0.0-9.0-2.0-0.0","4857","1","15","Female","approach_avoid_spark_v1","""event"",""trial"",""time""
""fullscreenenter"",""1"",""2820""
","
","
","""event"",""trial"",""time""
""fullscreenenter"",""1"",""2820""
","
","","","","","","null","<div style=""font-size:60px;"">+</div>","null","","fixation","","","","","","","","","","",""
"aa-learning-trial","73","455580","0.0-9.0-2.0-1.0","4857","1","15","Female","approach_avoid_spark_v1","""event"",""trial"",""time""
""fullscreenenter"",""1"",""2820""
","
","
","""event"",""trial"",""time""
""fullscreenenter"",""1"",""2820""
","
","","","","","","1274","images/truck7.png","","","learning","-4","0","0","0","truck","vehicles","1","0","","bad","[-3]"
"html-keyboard-response","74","456101","0.0-9.0-2.0-0.1","4857","1","15","Female","approach_avoid_spark_v1","""event"",""trial"",""time""
""fullscreenenter"",""1"",""2820""
","
","
","""event"",""trial"",""time""
""fullscreenenter"",""1"",""2820""
","
","","","","","","null","<div style=""font-size:60px;"">+</div>","null","","fixation","","","","","","","","","","",""
"aa-learning-trial","75","459110","0.0-9.0-2.0-1.1","4857","1","15","Female","approach_avoid_spark_v1","""event"",""trial"",""time""
""fullscreenenter"",""1"",""2820""
","
","
","""event"",""trial"",""time""
""fullscreenenter"",""1"",""2820""
","
","","","","","","1244.8000000715256","images/boat8.png","","","learning","2","2","1","1","boat","vehicles","1","0","","neutral","0"
"html-keyboard-response","76","459625","0.0-9.0-2.0-0.2","4857","1","15","Female","approach_avoid_spark_v1","""event"",""trial"",""time""
""fullscreenenter"",""1"",""2820""
","
","
","""event"",""trial"",""time""
""fullscreenenter"",""1"",""2820""
","
","","","","","","null","<div style=""font-size:60px;"">+</div>","null","","fixation","","","","","","","","","","",""
"aa-learning-trial","77","462643","0.0-9.0-2.0-1.2","4857","1","15","Female","approach_avoid_spark_v1","""event"",""trial"",""time""
""fullscreenenter"",""1"",""2820""
","
","
","""event"",""trial"",""time""
""fullscreenenter"",""1"",""2820""
","
","","","","","","696.3000000715256","images/boat7.png","","","learning","[1]","1","1","1","boat","vehicles","1","0","","neutral","0"
"html-keyboard-response","78","463158","0.0-9.0-2.0-0.3","4857","1","15","Female","approach_avoid_spark_v1","""event"",""trial"",""time""
""fullscreenenter"",""1"",""2820""
","
","
","""event"",""trial"",""time""
""fullscreenenter"",""1"",""2820""
","
","","","","","","null","<div style=""font-size:60px;"">+</div>","null","","fixation","","","","","","","","","","",""
"aa-learning-trial","79","466186","0.0-9.0-2.0-1.3","4857","1","15","Female","approach_avoid_spark_v1","""event"",""trial"",""time""
""fullscreenenter"",""1"",""2820""
","
","
","""event"",""trial"",""time""
""fullscreenenter"",""1"",""2820""
","
","","","","","","672.8999999761581","images/train4.png","","","learning","3","3","1","1","train","vehicles","1","0","","good","[3]"
"html-keyboard-response","80","466698","0.0-9.0-2.0-0.4","4857","1","15","Female","approach_avoid_spark_v1","""event"",""trial"",""time""
""fullscreenenter"",""1"",""2820""
","
","
","""event"",""trial"",""time""
""fullscreenenter"",""1"",""2820""
","
","","","","","","null","<div style=""font-size:60px;"">+</div>","null","","fixation","","","","","","","","","","",""
"aa-learning-trial","81","469721","0.0-9.0-2.0-1.4","4857","1","15","Female","approach_avoid_spark_v1","""event"",""trial"",""time""
""fullscreenenter"",""1"",""2820""
","
","
","""event"",""trial"",""time""
""fullscreenenter"",""1"",""2820""
","
","","","","","","1005.3999999761581","images/train5.png","","","learning","5","5","1","1","train","vehicles","1","0","","good","[3]"
"html-keyboard-response","82","470235","0.0-9.0-2.0-0.5","4857","1","15","Female","approach_avoid_spark_v1","""event"",""trial"",""time""
""fullscreenenter"",""1"",""2820""
","
","
","""event"",""trial"",""time""
""fullscreenenter"",""1"",""2820""
","
","","","","","","null","<div style=""font-size:60px;"">+</div>","null","","fixation","","","","","","","","","","",""
"aa-learning-trial","83","473244","0.0-9.0-2.0-1.5","4857","1","15","Female","approach_avoid_spark_v1","""event"",""trial"",""time""
""fullscreenenter"",""1"",""2820""
","
","
","""event"",""trial"",""time""
""fullscreenenter"",""1"",""2820""
","
","","","","","","1111.7999999523163","images/truck1.png","","","learning","-3","0","0","0","truck","vehicles","1","0","","bad","[-3]"
"html-keyboard-response","84","473767","0.0-9.0-2.0-0.6","4857","1","15","Female","approach_avoid_spark_v1","""event"",""trial"",""time""
""fullscreenenter"",""1"",""2820""
","
","
","""event"",""trial"",""time""
""fullscreenenter"",""1"",""2820""
","
","","","","","","null","<div style=""font-size:60px;"">+</div>","null","","fixation","","","","","","","","","","",""
"aa-learning-trial","85","476780","0.0-9.0-2.0-1.6","4857","1","15","Female","approach_avoid_spark_v1","""event"",""trial"",""time""
""fullscreenenter"",""1"",""2820""
","
","
","""event"",""trial"",""time""
""fullscreenenter"",""1"",""2820""
","
","","","","","","679","images/truck1.png","","","learning","-4","0","0","0","truck","vehicles","1","0","","bad","[-3]"
"html-keyboard-response","86","477298","0.0-9.0-2.0-0.7","4857","1","15","Female","approach_avoid_spark_v1","""event"",""trial"",""time""
""fullscreenenter"",""1"",""2820""
","
","
","""event"",""trial"",""time""
""fullscreenenter"",""1"",""2820""
","
","","","","","","null","<div style=""font-size:60px;"">+</div>","null","","fixation","","","","","","","","","","",""
"aa-learning-trial","87","480307","0.0-9.0-2.0-1.7","4857","1","15","Female","approach_avoid_spark_v1","""event"",""trial"",""time""
""fullscreenenter"",""1"",""2820""
","
","
","""event"",""trial"",""time""
""fullscreenenter"",""1"",""2820""
","
","","","","","","841.9000000953674","images/boat8.png","","","learning","2","2","1","1","boat","vehicles","1","0","","neutral","0"
"html-keyboard-response","88","480811","0.0-9.0-2.0-0.8","4857","1","15","Female","approach_avoid_spark_v1","""event"",""trial"",""time""
""fullscreenenter"",""1"",""2820""
","
","
","""event"",""trial"",""time""
""fullscreenenter"",""1"",""2820""
","
","","","","","","null","<div style=""font-size:60px;"">+</div>","null","","fixation","","","","","","","","","","",""
"aa-learning-trial","89","483818","0.0-9.0-2.0-1.8","4857","1","15","Female","approach_avoid_spark_v1","""event"",""trial"",""time""
""fullscreenenter"",""1"",""2820""
","
","
","""event"",""trial"",""time""
""fullscreenenter"",""1"",""2820""
","
","","","","","","881.3999999761581","images/truck3.png","","","learning","-4","0","0","0","truck","vehicles","1","0","","bad","[-3]"
"html-keyboard-response","90","484329","0.0-9.0-2.0-0.9","4857","1","15","Female","approach_avoid_spark_v1","""event"",""trial"",""time""
""fullscreenenter"",""1"",""2820""
","
","
","""event"",""trial"",""time""
""fullscreenenter"",""1"",""2820""
","
","","","","","","null","<div style=""font-size:60px;"">+</div>","null","","fixation","","","","","","","","","","",""
"aa-learning-trial","91","487338","0.0-9.0-2.0-1.9","4857","1","15","Female","approach_avoid_spark_v1","""event"",""trial"",""time""
""fullscreenenter"",""1"",""2820""
","
","
","""event"",""trial"",""time""
""fullscreenenter"",""1"",""2820""
","
","","","","","","908.6000000238419","images/truck7.png","","","learning","-3","-3","1","1","truck","vehicles","1","0","","bad","[-3]"
"html-keyboard-response","92","487847","0.0-9.0-2.0-0.10","4857","1","15","Female","approach_avoid_spark_v1","""event"",""trial"",""time""
""fullscreenenter"",""1"",""2820""
","
","
","""event"",""trial"",""time""
""fullscreenenter"",""1"",""2820""
","
","","","","","","null","<div style=""font-size:60px;"">+</div>","null","","fixation","","","","","","","","","","",""
"aa-learning-trial","93","490863","0.0-9.0-2.0-1.10","4857","1","15","Female","approach_avoid_spark_v1","""event"",""trial"",""time""
""fullscreenenter"",""1"",""2820""
","
","
","""event"",""trial"",""time""
""fullscreenenter"",""1"",""2820""
","
","","","","","","1145.5","images/train7.png","","","learning","3","3","1","1","train","vehicles","1","0","","good","[3]"
"html-keyboard-response","94","491371","0.0-9.0-2.0-0.11","4857","1","15","Female","approach_avoid_spark_v1","""event"",""trial"",""time""
""fullscreenenter"",""1"",""2820""
","
","
","""event"",""trial"",""time""
""fullscreenenter"",""1"",""2820""
","
","","","","","","null","<div style=""font-size:60px;"">+</div>","null","","fixation","","","","","","","","","","",""
"aa-learning-trial","95","494379","0.0-9.0-2.0-1.11","4857","1","15","Female","approach_avoid_spark_v1","""event"",""trial"",""time""
""fullscreenenter"",""1"",""2820""
","
","
","""event"",""trial"",""time""
""fullscreenenter"",""1"",""2820""
","
","","","","","","511","images/train5.png","","","learning","3","3","1","1","train","vehicles","1","0","","good","[3]"
"html-keyboard-response","96","494887","0.0-9.0-2.0-0.12","4857","1","15","Female","approach_avoid_spark_v1","""event"",""trial"",""time""
""fullscreenenter"",""1"",""2820""
","
","
","""event"",""trial"",""time""
""fullscreenenter"",""1"",""2820""
","
","","","","","","null","<div style=""font-size:60px;"">+</div>","null","","fixation","","","","","","","","","","",""
"aa-learning-trial","97","497902","0.0-9.0-2.0-1.12","4857","1","15","Female","approach_avoid_spark_v1","""event"",""trial"",""time""
""fullscreenenter"",""1"",""2820""
","
","
","""event"",""trial"",""time""
""fullscreenenter"",""1"",""2820""
","
","","","","","","1022.6999999284744","images/boat3.png","","","learning","-4","-4","1","1","boat","vehicles","1","0","","neutral","0"
"html-keyboard-response","98","498413","0.0-9.0-2.0-0.13","4857","1","15","Female","approach_avoid_spark_v1","""event"",""trial"",""time""
""fullscreenenter"",""1"",""2820""
","
","
","""event"",""trial"",""time""
""fullscreenenter"",""1"",""2820""
","
","","","","","","null","<div style=""font-size:60px;"">+</div>","null","","fixation","","","","","","","","","","",""
"aa-learning-trial","99","501424","0.0-9.0-2.0-1.13","4857","1","15","Female","approach_avoid_spark_v1","""event"",""trial"",""time""
""fullscreenenter"",""1"",""2820""
","
","
","""event"",""trial"",""time""
""fullscreenenter"",""1"",""2820""
","
","","","","","","766.6999999284744","images/boat3.png","","","learning","[1]","0","0","0","boat","vehicles","1","0","","neutral","0"
"html-keyboard-response","100","501929","0.0-9.0-2.0-0.14","4857","1","15","Female","approach_avoid_spark_v1","""event"",""trial"",""time""
""fullscreenenter"",""1"",""2820""
","
","
","""event"",""trial"",""time""
""fullscreenenter"",""1"",""2820""
","
","","","","","","null","<div style=""font-size:60px;"">+</div>","null","","fixation","","","","","","","","","","",""
"aa-learning-trial","101","504947","0.0-9.0-2.0-1.14","4857","1","15","Female","approach_avoid_spark_v1","""event"",""trial"",""time""
""fullscreenenter"",""1"",""2820""
","
","
","""event"",""trial"",""time""
""fullscreenenter"",""1"",""2820""
","
","","","","","","1224.8999999761581","images/train4.png","","","learning","1","1","1","1","train","vehicles","1","0","","good","[3]"
"html-keyboard-response","102","505449","0.0-9.0-2.0-0.15","4857","1","15","Female","approach_avoid_spark_v1","""event"",""trial"",""time""
""fullscreenenter"",""1"",""2820""
","
","
","""event"",""trial"",""time""
""fullscreenenter"",""1"",""2820""
","
","","","","","","null","<div style=""font-size:60px;"">+</div>","null","","fixation","","","","","","","","","","",""
"aa-learning-trial","103","508461","0.0-9.0-2.0-1.15","4857","1","15","Female","approach_avoid_spark_v1","""event"",""trial"",""time""
""fullscreenenter"",""1"",""2820""
","
","
","""event"",""trial"",""time""
""fullscreenenter"",""1"",""2820""
","
","","","","","","1628.2999999523163","images/boat8.png","","","learning","-1","-1","1","1","boat","vehicles","1","0","","neutral","0"
"html-keyboard-response","104","508973","0.0-9.0-2.0-0.16","4857","1","15","Female","approach_avoid_spark_v1","""event"",""trial"",""time""
""fullscreenenter"",""1"",""2820""
","
","
","""event"",""trial"",""time""
""fullscreenenter"",""1"",""2820""
","
","","","","","","null","<div style=""font-size:60px;"">+</div>","null","","fixation","","","","","","","","","","",""
"aa-learning-trial","105","511980","0.0-9.0-2.0-1.16","4857","1","15","Female","approach_avoid_spark_v1","""event"",""trial"",""time""
""fullscreenenter"",""1"",""2820""
","
","
","""event"",""trial"",""time""
""fullscreenenter"",""1"",""2820""
","
","","","","","","970.1000000238419","images/truck3.png","","","learning","-1","0","0","0","truck","vehicles","1","0","","bad","[-3]"
"html-keyboard-response","106","512494","0.0-9.0-2.0-0.17","4857","1","15","Female","approach_avoid_spark_v1","""event"",""trial"",""time""
""fullscreenenter"",""1"",""2820""
","
","
","""event"",""trial"",""time""
""fullscreenenter"",""1"",""2820""
","
","","","","","","null","<div style=""font-size:60px;"">+</div>","null","","fixation","","","","","","","","","","",""
"aa-learning-trial","107","515511","0.0-9.0-2.0-1.17","4857","1","15","Female","approach_avoid_spark_v1","""event"",""trial"",""time""
""fullscreenenter"",""1"",""2820""
","
","
","""event"",""trial"",""time""
""fullscreenenter"",""1"",""2820""
","
","","","","","","559.2000000476837","images/truck7.png","","","learning","2","0","0","0","truck","vehicles","1","0","","bad","[-3]"
"html-keyboard-response","108","516019","0.0-9.0-2.0-0.18","4857","1","15","Female","approach_avoid_spark_v1","""event"",""trial"",""time""
""fullscreenenter"",""1"",""2820""
","
","
","""event"",""trial"",""time""
""fullscreenenter"",""1"",""2820""
","
","","","","","","null","<div style=""font-size:60px;"">+</div>","null","","fixation","","","","","","","","","","",""
"aa-learning-trial","109","519026","0.0-9.0-2.0-1.18","4857","1","15","Female","approach_avoid_spark_v1","""event"",""trial"",""time""
""fullscreenenter"",""1"",""2820""
","
","
","""event"",""trial"",""time""
""fullscreenenter"",""1"",""2820""
","
","","","","","","1210.4000000953674","images/boat5.png","","","learning","1","0","0","0","boat","vehicles","1","0","","neutral","0"
"html-keyboard-response","110","519533","0.0-9.0-2.0-0.19","4857","1","15","Female","approach_avoid_spark_v1","""event"",""trial"",""time""
""fullscreenenter"",""1"",""2820""
","
","
","""event"",""trial"",""time""
""fullscreenenter"",""1"",""2820""
","
","","","","","","null","<div style=""font-size:60px;"">+</div>","null","","fixation","","","","","","","","","","",""
"aa-learning-trial","111","522540","0.0-9.0-2.0-1.19","4857","1","15","Female","approach_avoid_spark_v1","""event"",""trial"",""time""
""fullscreenenter"",""1"",""2820""
","
","
","""event"",""trial"",""time""
""fullscreenenter"",""1"",""2820""
","
","","","","","","743.7000000476837","images/train4.png","","","learning","2","2","1","1","train","vehicles","1","0","","good","[3]"
"html-keyboard-response","112","523051","0.0-9.0-2.0-0.20","4857","1","15","Female","approach_avoid_spark_v1","""event"",""trial"",""time""
""fullscreenenter"",""1"",""2820""
","
","
","""event"",""trial"",""time""
""fullscreenenter"",""1"",""2820""
","
","","","","","","null","<div style=""font-size:60px;"">+</div>","null","","fixation","","","","","","","","","","",""
"aa-learning-trial","113","526060","0.0-9.0-2.0-1.20","4857","1","15","Female","approach_avoid_spark_v1","""event"",""trial"",""time""
""fullscreenenter"",""1"",""2820""
","
","
","""event"",""trial"",""time""
""fullscreenenter"",""1"",""2820""
","
","","","","","","588.2999999523163","images/train4.png","","","learning","4","4","1","1","train","vehicles","1","0","","good","[3]"
"html-keyboard-response","114","526569","0.0-9.0-2.0-0.21","4857","1","15","Female","approach_avoid_spark_v1","""event"",""trial"",""time""
""fullscreenenter"",""1"",""2820""
","
","
","""event"",""trial"",""time""
""fullscreenenter"",""1"",""2820""
","
","","","","","","null","<div style=""font-size:60px;"">+</div>","null","","fixation","","","","","","","","","","",""
"aa-learning-trial","115","529578","0.0-9.0-2.0-1.21","4857","1","15","Female","approach_avoid_spark_v1","""event"",""trial"",""time""
""fullscreenenter"",""1"",""2820""
","
","
","""event"",""trial"",""time""
""fullscreenenter"",""1"",""2820""
","
","","","","","","713.1999999284744","images/boat3.png","","","learning","[1]","0","0","0","boat","vehicles","1","0","","neutral","0"
"html-keyboard-response","116","530082","0.0-9.0-2.0-0.22","4857","1","15","Female","approach_avoid_spark_v1","""event"",""trial"",""time""
""fullscreenenter"",""1"",""2820""
","
","
","""event"",""trial"",""time""
""fullscreenenter"",""1"",""2820""
","
","","","","","","null","<div style=""font-size:60px;"">+</div>","null","","fixation","","","","","","","","","","",""
"aa-learning-trial","117","533104","0.0-9.0-2.0-1.22","4857","1","15","Female","approach_avoid_spark_v1","""event"",""trial"",""time""
""fullscreenenter"",""1"",""2820""
","
","
","""event"",""trial"",""time""
""fullscreenenter"",""1"",""2820""
","
","","","","","","604.3999999761581","images/boat3.png","","","learning","[1]","1","1","1","boat","vehicles","1","0","","neutral","0"
"html-keyboard-response","118","533615","0.0-9.0-2.0-0.23","4857","1","15","Female","approach_avoid_spark_v1","""event"",""trial"",""time""
""fullscreenenter"",""1"",""2820""
","
","
","""event"",""trial"",""time""
""fullscreenenter"",""1"",""2820""
","
","","","","","","null","<div style=""font-size:60px;"">+</div>","null","","fixation","","","","","","","","","","",""
"aa-learning-trial","119","536630","0.0-9.0-2.0-1.23","4857","1","15","Female","approach_avoid_spark_v1","""event"",""trial"",""time""
""fullscreenenter"",""1"",""2820""
","
","
","""event"",""trial"",""time""
""fullscreenenter"",""1"",""2820""
","
","","","","","","710.5","images/train5.png","","","learning","2","0","0","0","train","vehicles","1","0","","good","[3]"
"html-keyboard-response","120","537143","0.0-9.0-2.0-0.24","4857","1","15","Female","approach_avoid_spark_v1","""event"",""trial"",""time""
""fullscreenenter"",""1"",""2820""
","
","
","""event"",""trial"",""time""
""fullscreenenter"",""1"",""2820""
","
","","","","","","null","<div style=""font-size:60px;"">+</div>","null","","fixation","","","","","","","","","","",""
"aa-learning-trial","121","540161","0.0-9.0-2.0-1.24","4857","1","15","Female","approach_avoid_spark_v1","""event"",""trial"",""time""
""fullscreenenter"",""1"",""2820""
","
","
","""event"",""trial"",""time""
""fullscreenenter"",""1"",""2820""
","
","","","","","","754.6000000238419","images/truck7.png","","","learning","-4","0","0","0","truck","vehicles","1","0","","bad","[-3]"
"html-keyboard-response","122","540680","0.0-9.0-2.0-0.25","4857","1","15","Female","approach_avoid_spark_v1","""event"",""trial"",""time""
""fullscreenenter"",""1"",""2820""
","
","
","""event"",""trial"",""time""
""fullscreenenter"",""1"",""2820""
","
","","","","","","null","<div style=""font-size:60px;"">+</div>","null","","fixation","","","","","","","","","","",""
"aa-learning-trial","123","543696","0.0-9.0-2.0-1.25","4857","1","15","Female","approach_avoid_spark_v1","""event"",""trial"",""time""
""fullscreenenter"",""1"",""2820""
","
","
","""event"",""trial"",""time""
""fullscreenenter"",""1"",""2820""
","
","","","","","","764.6000000238419","images/truck1.png","","","learning","-1","0","0","0","truck","vehicles","1","0","","bad","[-3]"
"html-keyboard-response","124","544206","0.0-9.0-2.0-0.26","4857","1","15","Female","approach_avoid_spark_v1","""event"",""trial"",""time""
""fullscreenenter"",""1"",""2820""
","
","
","""event"",""trial"",""time""
""fullscreenenter"",""1"",""2820""
","
","","","","","","null","<div style=""font-size:60px;"">+</div>","null","","fixation","","","","","","","","","","",""
"aa-learning-trial","125","547221","0.0-9.0-2.0-1.26","4857","1","15","Female","approach_avoid_spark_v1","""event"",""trial"",""time""
""fullscreenenter"",""1"",""2820""
","
","
","""event"",""trial"",""time""
""fullscreenenter"",""1"",""2820""
","
","","","","","","1576.8999999761581","images/train3.png","","","learning","5","0","0","0","train","vehicles","1","0","","good","[3]"
"html-keyboard-response","126","547732","0.0-9.0-2.0-0.27","4857","1","15","Female","approach_avoid_spark_v1","""event"",""trial"",""time""
""fullscreenenter"",""1"",""2820""
","
","
","""event"",""trial"",""time""
""fullscreenenter"",""1"",""2820""
","
","","","","","","null","<div style=""font-size:60px;"">+</div>","null","","fixation","","","","","","","","","","",""
"aa-learning-trial","127","550745","0.0-9.0-2.0-1.27","4857","1","15","Female","approach_avoid_spark_v1","""event"",""trial"",""time""
""fullscreenenter"",""1"",""2820""
","
","
","""event"",""trial"",""time""
""fullscreenenter"",""1"",""2820""
","
","","","","","","671.8000000715256","images/train4.png","","","learning","5","5","1","1","train","vehicles","1","0","","good","[3]"
"html-keyboard-response","128","551252","0.0-9.0-2.0-0.28","4857","1","15","Female","approach_avoid_spark_v1","""event"",""trial"",""time""
""fullscreenenter"",""1"",""2820""
","
","
","""event"",""trial"",""time""
""fullscreenenter"",""1"",""2820""
","
","","","","","","null","<div style=""font-size:60px;"">+</div>","null","","fixation","","","","","","","","","","",""
"aa-learning-trial","129","554262","0.0-9.0-2.0-1.28","4857","1","15","Female","approach_avoid_spark_v1","""event"",""trial"",""time""
""fullscreenenter"",""1"",""2820""
","
","
","""event"",""trial"",""time""
""fullscreenenter"",""1"",""2820""
","
","","","","","","549.1000000238419","images/train5.png","","","learning","4","4","1","1","train","vehicles","1","0","","good","[3]"
"html-keyboard-response","130","554774","0.0-9.0-2.0-0.29","4857","1","15","Female","approach_avoid_spark_v1","""event"",""trial"",""time""
""fullscreenenter"",""1"",""2820""
","
","
","""event"",""trial"",""time""
""fullscreenenter"",""1"",""2820""
","
","","","","","","null","<div style=""font-size:60px;"">+</div>","null","","fixation","","","","","","","","","","",""
"aa-learning-trial","131","557789","0.0-9.0-2.0-1.29","4857","1","15","Female","approach_avoid_spark_v1","""event"",""trial"",""time""
""fullscreenenter"",""1"",""2820""
","
","
","""event"",""trial"",""time""
""fullscreenenter"",""1"",""2820""
","
","","","","","","652.7000000476837","images/truck1.png","","","learning","-5","0","0","0","truck","vehicles","1","0","","bad","[-3]"
"html-keyboard-response","132","558304","0.0-9.0-2.0-0.30","4857","1","15","Female","approach_avoid_spark_v1","""event"",""trial"",""time""
""fullscreenenter"",""1"",""2820""
","
","
","""event"",""trial"",""time""
""fullscreenenter"",""1"",""2820""
","
","","","","","","null","<div style=""font-size:60px;"">+</div>","null","","fixation","","","","","","","","","","",""
"aa-learning-trial","133","561317","0.0-9.0-2.0-1.30","4857","1","15","Female","approach_avoid_spark_v1","""event"",""trial"",""time""
""fullscreenenter"",""1"",""2820""
","
","
","""event"",""trial"",""time""
""fullscreenenter"",""1"",""2820""
","
","","","","","","901.1999999284744","images/boat3.png","","","learning","2","0","0","0","boat","vehicles","1","0","","neutral","0"
"html-keyboard-response","134","561830","0.0-9.0-2.0-0.31","4857","1","15","Female","approach_avoid_spark_v1","""event"",""trial"",""time""
""fullscreenenter"",""1"",""2820""
","
","
","""event"",""trial"",""time""
""fullscreenenter"",""1"",""2820""
","
","","","","","","null","<div style=""font-size:60px;"">+</div>","null","","fixation","","","","","","","","","","",""
"aa-learning-trial","135","564846","0.0-9.0-2.0-1.31","4857","1","15","Female","approach_avoid_spark_v1","""event"",""trial"",""time""
""fullscreenenter"",""1"",""2820""
","
","
","""event"",""trial"",""time""
""fullscreenenter"",""1"",""2820""
","
","","","","","","546.1000000238419","images/boat7.png","","","learning","1","1","1","1","boat","vehicles","1","0","","neutral","0"
"html-keyboard-response","136","565350","0.0-9.0-2.0-0.32","4857","1","15","Female","approach_avoid_spark_v1","""event"",""trial"",""time""
""fullscreenenter"",""1"",""2820""
","
","
","""event"",""trial"",""time""
""fullscreenenter"",""1"",""2820""
","
","","","","","","null","<div style=""font-size:60px;"">+</div>","null","","fixation","","","","","","","","","","",""
"aa-learning-trial","137","568367","0.0-9.0-2.0-1.32","4857","1","15","Female","approach_avoid_spark_v1","""event"",""trial"",""time""
""fullscreenenter"",""1"",""2820""
","
","
","""event"",""trial"",""time""
""fullscreenenter"",""1"",""2820""
","
","","","","","","515.8999999761581","images/boat3.png","","","learning","2","2","1","1","boat","vehicles","1","0","","neutral","0"
"html-keyboard-response","138","568876","0.0-9.0-2.0-0.33","4857","1","15","Female","approach_avoid_spark_v1","""event"",""trial"",""time""
""fullscreenenter"",""1"",""2820""
","
","
","""event"",""trial"",""time""
""fullscreenenter"",""1"",""2820""
","
","","","","","","null","<div style=""font-size:60px;"">+</div>","null","","fixation","","","","","","","","","","",""
"aa-learning-trial","139","571890","0.0-9.0-2.0-1.33","4857","1","15","Female","approach_avoid_spark_v1","""event"",""trial"",""time""
""fullscreenenter"",""1"",""2820""
","
","
","""event"",""trial"",""time""
""fullscreenenter"",""1"",""2820""
","
","","","","","","1238.3999999761581","images/boat7.png","","","learning","2","2","1","1","boat","vehicles","1","0","","neutral","0"
"html-keyboard-response","140","572397","0.0-9.0-2.0-0.34","4857","1","15","Female","approach_avoid_spark_v1","""event"",""trial"",""time""
""fullscreenenter"",""1"",""2820""
","
","
","""event"",""trial"",""time""
""fullscreenenter"",""1"",""2820""
","
","","","","","","null","<div style=""font-size:60px;"">+</div>","null","","fixation","","","","","","","","","","",""
"aa-learning-trial","141","575413","0.0-9.0-2.0-1.34","4857","1","15","Female","approach_avoid_spark_v1","""event"",""trial"",""time""
""fullscreenenter"",""1"",""2820""
","
","
","""event"",""trial"",""time""
""fullscreenenter"",""1"",""2820""
","
","","","","","","709.2000000476837","images/train4.png","","","learning","3","3","1","1","train","vehicles","1","0","","good","[3]"
"html-keyboard-response","142","575929","0.0-9.0-2.0-0.35","4857","1","15","Female","approach_avoid_spark_v1","""event"",""trial"",""time""
""fullscreenenter"",""1"",""2820""
","
","
","""event"",""trial"",""time""
""fullscreenenter"",""1"",""2820""
","
","","","","","","null","<div style=""font-size:60px;"">+</div>","null","","fixation","","","","","","","","","","",""
"aa-learning-trial","143","578938","0.0-9.0-2.0-1.35","4857","1","15","Female","approach_avoid_spark_v1","""event"",""trial"",""time""
""fullscreenenter"",""1"",""2820""
","
","
","""event"",""trial"",""time""
""fullscreenenter"",""1"",""2820""
","
","","","","","","726.5999999046326","images/truck6.png","","","learning","-3","0","0","0","truck","vehicles","1","0","","bad","[-3]"
"html-keyboard-response","144","579449","0.0-9.0-2.0-0.36","4857","1","15","Female","approach_avoid_spark_v1","""event"",""trial"",""time""
""fullscreenenter"",""1"",""2820""
","
","
","""event"",""trial"",""time""
""fullscreenenter"",""1"",""2820""
","
","","","","","","null","<div style=""font-size:60px;"">+</div>","null","","fixation","","","","","","","","","","",""
"aa-learning-trial","145","582464","0.0-9.0-2.0-1.36","4857","1","15","Female","approach_avoid_spark_v1","""event"",""trial"",""time""
""fullscreenenter"",""1"",""2820""
","
","
","""event"",""trial"",""time""
""fullscreenenter"",""1"",""2820""
","
","","","","","","971.2000000476837","images/truck7.png","","","learning","-2","0","0","0","truck","vehicles","1","0","","bad","[-3]"
"html-keyboard-response","146","582975","0.0-9.0-2.0-0.37","4857","1","15","Female","approach_avoid_spark_v1","""event"",""trial"",""time""
""fullscreenenter"",""1"",""2820""
","
","
","""event"",""trial"",""time""
""fullscreenenter"",""1"",""2820""
","
","","","","","","null","<div style=""font-size:60px;"">+</div>","null","","fixation","","","","","","","","","","",""
"aa-learning-trial","147","585988","0.0-9.0-2.0-1.37","4857","1","15","Female","approach_avoid_spark_v1","""event"",""trial"",""time""
""fullscreenenter"",""1"",""2820""
","
","
","""event"",""trial"",""time""
""fullscreenenter"",""1"",""2820""
","
","","","","","","775.3000000715256","images/train2.png","","","learning","5","5","1","1","train","vehicles","1","0","","good","[3]"
"html-keyboard-response","148","586495","0.0-9.0-2.0-0.38","4857","1","15","Female","approach_avoid_spark_v1","""event"",""trial"",""time""
""fullscreenenter"",""1"",""2820""
","
","
","""event"",""trial"",""time""
""fullscreenenter"",""1"",""2820""
","
","","","","","","null","<div style=""font-size:60px;"">+</div>","null","","fixation","","","","","","","","","","",""
"aa-learning-trial","149","589509","0.0-9.0-2.0-1.38","4857","1","15","Female","approach_avoid_spark_v1","""event"",""trial"",""time""
""fullscreenenter"",""1"",""2820""
","
","
","""event"",""trial"",""time""
""fullscreenenter"",""1"",""2820""
","
","","","","","","631.6999999284744","images/train5.png","","","learning","3","3","1","1","train","vehicles","1","0","","good","[3]"
"html-keyboard-response","150","590025","0.0-9.0-2.0-0.39","4857","1","15","Female","approach_avoid_spark_v1","""event"",""trial"",""time""
""fullscreenenter"",""1"",""2820""
","
","
","""event"",""trial"",""time""
""fullscreenenter"",""1"",""2820""
","
","","","","","","null","<div style=""font-size:60px;"">+</div>","null","","fixation","","","","","","","","","","",""
"aa-learning-trial","151","593037","0.0-9.0-2.0-1.39","4857","1","15","Female","approach_avoid_spark_v1","""event"",""trial"",""time""
""fullscreenenter"",""1"",""2820""
","
","
","""event"",""trial"",""time""
""fullscreenenter"",""1"",""2820""
","
","","","","","","619.7999999523163","images/train7.png","","","learning","2","2","1","1","train","vehicles","1","0","","good","[3]"
"html-keyboard-response","152","593545","0.0-9.0-2.0-0.40","4857","1","15","Female","approach_avoid_spark_v1","""event"",""trial"",""time""
""fullscreenenter"",""1"",""2820""
","
","
","""event"",""trial"",""time""
""fullscreenenter"",""1"",""2820""
","
","","","","","","null","<div style=""font-size:60px;"">+</div>","null","","fixation","","","","","","","","","","",""
"aa-learning-trial","153","596560","0.0-9.0-2.0-1.40","4857","1","15","Female","approach_avoid_spark_v1","""event"",""trial"",""time""
""fullscreenenter"",""1"",""2820""
","
","
","""event"",""trial"",""time""
""fullscreenenter"",""1"",""2820""
","
","","","","","","631.3999999761581","images/truck1.png","","","learning","-4","0","0","0","truck","vehicles","1","0","","bad","[-3]"
"html-keyboard-response","154","597072","0.0-9.0-2.0-0.41","4857","1","15","Female","approach_avoid_spark_v1","""event"",""trial"",""time""
""fullscreenenter"",""1"",""2820""
","
","
","""event"",""trial"",""time""
""fullscreenenter"",""1"",""2820""
","
","","","","","","null","<div style=""font-size:60px;"">+</div>","null","","fixation","","","","","","","","","","",""
"aa-learning-trial","155","600083","0.0-9.0-2.0-1.41","4857","1","15","Female","approach_avoid_spark_v1","""event"",""trial"",""time""
""fullscreenenter"",""1"",""2820""
","
","
","""event"",""trial"",""time""
""fullscreenenter"",""1"",""2820""
","
","","","","","","713.7999999523163","images/truck3.png","","","learning","-1","0","0","0","truck","vehicles","1","0","","bad","[-3]"
"html-keyboard-response","156","600589","0.0-9.0-2.0-0.42","4857","1","15","Female","approach_avoid_spark_v1","""event"",""trial"",""time""
""fullscreenenter"",""1"",""2820""
","
","
","""event"",""trial"",""time""
""fullscreenenter"",""1"",""2820""
","
","","","","","","null","<div style=""font-size:60px;"">+</div>","null","","fixation","","","","","","","","","","",""
"aa-learning-trial","157","603599","0.0-9.0-2.0-1.42","4857","1","15","Female","approach_avoid_spark_v1","""event"",""trial"",""time""
""fullscreenenter"",""1"",""2820""
","
","
","""event"",""trial"",""time""
""fullscreenenter"",""1"",""2820""
","
","","","","","","1195.4000000953674","images/boat8.png","","","learning","[-1]","-1","1","1","boat","vehicles","1","0","","neutral","0"
"html-keyboard-response","158","604110","0.0-9.0-2.0-0.43","4857","1","15","Female","approach_avoid_spark_v1","""event"",""trial"",""time""
""fullscreenenter"",""1"",""2820""
","
","
","""event"",""trial"",""time""
""fullscreenenter"",""1"",""2820""
","
","","","","","","null","<div style=""font-size:60px;"">+</div>","null","","fixation","","","","","","","","","","",""
"aa-learning-trial","159","607124","0.0-9.0-2.0-1.43","4857","1","15","Female","approach_avoid_spark_v1","""event"",""trial"",""time""
""fullscreenenter"",""1"",""2820""
","
","
","""event"",""trial"",""time""
""fullscreenenter"",""1"",""2820""
","
","","","","","","547.6999999284744","images/train7.png","","","learning","5","5","1","1","train","vehicles","1","0","","good","[3]"
"html-keyboard-response","160","607639","0.0-9.0-2.0-0.44","4857","1","15","Female","approach_avoid_spark_v1","""event"",""trial"",""time""
""fullscreenenter"",""1"",""2820""
","
","
","""event"",""trial"",""time""
""fullscreenenter"",""1"",""2820""
","
","","","","","","null","<div style=""font-size:60px;"">+</div>","null","","fixation","","","","","","","","","","",""
"aa-learning-trial","161","610655","0.0-9.0-2.0-1.44","4857","1","15","Female","approach_avoid_spark_v1","""event"",""trial"",""time""
""fullscreenenter"",""1"",""2820""
","
","
","""event"",""trial"",""time""
""fullscreenenter"",""1"",""2820""
","
","","","","","","597.3000000715256","images/train5.png","","","learning","3","3","1","1","train","vehicles","1","0","","good","[3]"
"html-keyboard-response","162","611162","0.0-9.0-2.0-0.45","4857","1","15","Female","approach_avoid_spark_v1","""event"",""trial"",""time""
""fullscreenenter"",""1"",""2820""
","
","
","""event"",""trial"",""time""
""fullscreenenter"",""1"",""2820""
","
","","","","","","null","<div style=""font-size:60px;"">+</div>","null","","fixation","","","","","","","","","","",""
"aa-learning-trial","163","614174","0.0-9.0-2.0-1.45","4857","1","15","Female","approach_avoid_spark_v1","""event"",""trial"",""time""
""fullscreenenter"",""1"",""2820""
","
","
","""event"",""trial"",""time""
""fullscreenenter"",""1"",""2820""
","
","","","","","","597.3000000715256","images/boat1.png","","","learning","-1","-1","1","1","boat","vehicles","1","0","","neutral","0"
"html-keyboard-response","164","614687","0.0-9.0-2.0-0.46","4857","1","15","Female","approach_avoid_spark_v1","""event"",""trial"",""time""
""fullscreenenter"",""1"",""2820""
","
","
","""event"",""trial"",""time""
""fullscreenenter"",""1"",""2820""
","
","","","","","","null","<div style=""font-size:60px;"">+</div>","null","","fixation","","","","","","","","","","",""
"aa-learning-trial","165","617701","0.0-9.0-2.0-1.46","4857","1","15","Female","approach_avoid_spark_v1","""event"",""trial"",""time""
""fullscreenenter"",""1"",""2820""
","
","
","""event"",""trial"",""time""
""fullscreenenter"",""1"",""2820""
","
","","","","","","1067.8999999761581","images/truck4.png","","","learning","-4","0","0","0","truck","vehicles","1","0","","bad","[-3]"
"html-keyboard-response","166","618214","0.0-9.0-2.0-0.47","4857","1","15","Female","approach_avoid_spark_v1","""event"",""trial"",""time""
""fullscreenenter"",""1"",""2820""
","
","
","""event"",""trial"",""time""
""fullscreenenter"",""1"",""2820""
","
","","","","","","null","<div style=""font-size:60px;"">+</div>","null","","fixation","","","","","","","","","","",""
"aa-learning-trial","167","621228","0.0-9.0-2.0-1.47","4857","1","15","Female","approach_avoid_spark_v1","""event"",""trial"",""time""
""fullscreenenter"",""1"",""2820""
","
","
","""event"",""trial"",""time""
""fullscreenenter"",""1"",""2820""
","
","","","","","","1081","images/boat8.png","","","learning","1","1","1","1","boat","vehicles","1","0","","neutral","0"
"html-keyboard-response","168","621737","0.0-9.0-2.0-0.48","4857","1","15","Female","approach_avoid_spark_v1","""event"",""trial"",""time""
""fullscreenenter"",""1"",""2820""
","
","
","""event"",""trial"",""time""
""fullscreenenter"",""1"",""2820""
","
","","","","","","null","<div style=""font-size:60px;"">+</div>","null","","fixation","","","","","","","","","","",""
"aa-learning-trial","169","624747","0.0-9.0-2.0-1.48","4857","1","15","Female","approach_avoid_spark_v1","""event"",""trial"",""time""
""fullscreenenter"",""1"",""2820""
","
","
","""event"",""trial"",""time""
""fullscreenenter"",""1"",""2820""
","
","","","","","","688","images/truck7.png","","","learning","-4","0","0","0","truck","vehicles","1","0","","bad","[-3]"
"html-keyboard-response","170","625251","0.0-9.0-2.0-0.49","4857","1","15","Female","approach_avoid_spark_v1","""event"",""trial"",""time""
""fullscreenenter"",""1"",""2820""
","
","
","""event"",""trial"",""time""
""fullscreenenter"",""1"",""2820""
","
","","","","","","null","<div style=""font-size:60px;"">+</div>","null","","fixation","","","","","","","","","","",""
"aa-learning-trial","171","628262","0.0-9.0-2.0-1.49","4857","1","15","Female","approach_avoid_spark_v1","""event"",""trial"",""time""
""fullscreenenter"",""1"",""2820""
","
","
","""event"",""trial"",""time""
""fullscreenenter"",""1"",""2820""
","
","","","","","","761.1999999284744","images/boat8.png","","","learning","2","2","1","1","boat","vehicles","1","0","","neutral","0"
"html-keyboard-response","172","628776","0.0-9.0-2.0-0.50","4857","1","15","Female","approach_avoid_spark_v1","""event"",""trial"",""time""
""fullscreenenter"",""1"",""2820""
","
","
","""event"",""trial"",""time""
""fullscreenenter"",""1"",""2820""
","
","","","","","","null","<div style=""font-size:60px;"">+</div>","null","","fixation","","","","","","","","","","",""
"aa-learning-trial","173","631793","0.0-9.0-2.0-1.50","4857","1","15","Female","approach_avoid_spark_v1","""event"",""trial"",""time""
""fullscreenenter"",""1"",""2820""
","
","
","""event"",""trial"",""time""
""fullscreenenter"",""1"",""2820""
","
","","","","","","592.2000000476837","images/truck1.png","","","learning","-3","0","0","0","truck","vehicles","1","0","","bad","[-3]"
"html-button-response","174","635997","0.0-9.0-3.0","4857","1","15","Female","approach_avoid_spark_v1","""event"",""trial"",""time""
""fullscreenenter"",""1"",""2820""
","
","
","""event"",""trial"",""time""
""fullscreenenter"",""1"",""2820""
","
","","","","","","4201.699999928474","<p> You have completed the round! <p> In this round, you earned 55 points! </p>","0","","break","","","","","","","","","","",""
"html-button-response","175","637554","0.0-10.0","4857","1","15","Female","approach_avoid_spark_v1","""event"",""trial"",""time""
""fullscreenenter"",""1"",""2820""
","
","
","""event"",""trial"",""time""
""fullscreenenter"",""1"",""2820""
","
","","","","","","1555.2999999523163","<p> Now it's time to play another round. </p>","0","","transition_screen","","","","","","","","","","",""
"preload","176","637687","0.0-11.0-0.0","4857","1","15","Female","approach_avoid_spark_v1","""event"",""trial"",""time""
""fullscreenenter"",""1"",""2820""
","
","
","""event"",""trial"",""time""
""fullscreenenter"",""1"",""2820""
","
","true","false","[]","[]","[]","","","","","","","","","","","","","","","",""
"learning-instructions","177","645387","0.0-11.0-1.0-0.0","4857","1","15","Female","approach_avoid_spark_v1","""event"",""trial"",""time""
""fullscreenenter"",""1"",""2820""
","
","
","""event"",""trial"",""time""
""fullscreenenter"",""1"",""2820""
","
","","","","","","2417.5","<p> Your goal in this round is to decorate your friend's new house with furniture. </p></div>","","0","instructions","","","","","","","","","","",""
"learning-instructions","178","655478","0.0-11.0-1.0-0.1","4857","1","15","Female","approach_avoid_spark_v1","""event"",""trial"",""time""
""fullscreenenter"",""1"",""2820""
","
","
","""event"",""trial"",""time""
""fullscreenenter"",""1"",""2820""
","
","","","","","","617.8999999761581","<p> Your friend likes some pieces of furniture but not others.  </p><p> On each turn, you will see a piece of furniture.   </p><p> You need to decide whether to put it in your friend's house or not.  </p>","","0","instructions","","","","","","","","","","",""
"learning-instructions","179","661422","0.0-11.0-1.0-0.2","4857","1","15","Female","approach_avoid_spark_v1","""event"",""trial"",""time""
""fullscreenenter"",""1"",""2820""
","
","
","""event"",""trial"",""time""
""fullscreenenter"",""1"",""2820""
","
","","","","","","241.20000004768372","<p> You can put the furniture in her house by pressing 1 and deliver it elsewhere by pressing 0. </p><br><div class=""choice-instructions-grid""> <div class=""choice-option""><img src=""images/approach.png"" class=""choice-option-img"" stage=""instructions"" position=""0"" ><div class=""choice-option-text""> Press ""1."" </div></div><div class=""choice-option""><img src=""images/avoid.png"" class=""choice-option-img"" stage=""instructions"" position=""1"" ><div class=""choice-option-text""> Press ""0."" </div></div>","","0","instructions","","","","","","","","","","",""
"learning-instructions","180","670791","0.0-11.0-1.0-0.3","4857","1","15","Female","approach_avoid_spark_v1","""event"",""trial"",""time""
""fullscreenenter"",""1"",""2820""
","
","
","""event"",""trial"",""time""
""fullscreenenter"",""1"",""2820""
","
","","","","","","660.7999999523163","<p> If you decorate your friend's house with furniture she likes, she will be happy! </p><p> But if you give her furniture that she does not like, she will be annoyed. </p>","","0","instructions","","","","","","","","","","",""
"learning-instructions","181","683598","0.0-11.0-1.0-0.4","4857","1","15","Female","approach_avoid_spark_v1","""event"",""trial"",""time""
""fullscreenenter"",""1"",""2820""
","
","
","""event"",""trial"",""time""
""fullscreenenter"",""1"",""2820""
","
","","","","","","958.8999999761581","<p> You will earn points based on how you made your friend feel. </p><p> If you made her happy, you will WIN anywhere from 1 - 9 points, </p><p> but if you made her annoyed you will LOSE anywhere from 1 - 9 points. </p>","","0","instructions","","","","","","","","","","",""
"learning-instructions","182","691077","0.0-11.0-1.0-0.5","4857","1","15","Female","approach_avoid_spark_v1","""event"",""trial"",""time""
""fullscreenenter"",""1"",""2820""
","
","
","""event"",""trial"",""time""
""fullscreenenter"",""1"",""2820""
","
","","","","","","819.7000000476837","<p> You will see how many points you won or lost in the center of the screen. </p><p> Here is what you would see if you won 5 points: </p><p style=""color:green;font-size:50px;font-weight:bolder"">5</p>","","0","instructions","","","","","","","","","","",""
"learning-instructions","183","694543","0.0-11.0-1.0-0.6","4857","1","15","Female","approach_avoid_spark_v1","""event"",""trial"",""time""
""fullscreenenter"",""1"",""2820""
","
","
","""event"",""trial"",""time""
""fullscreenenter"",""1"",""2820""
","
","","","","","","626.7000000476837","<p> And here is what you would see if you lost 3 points: </p><p style=""color:red;font-size:50px;font-weight:bolder"">-3</p>","","0","instructions","","","","","","","","","","",""
"learning-instructions","184","712102","0.0-11.0-1.0-0.7","4857","1","15","Female","approach_avoid_spark_v1","""event"",""trial"",""time""
""fullscreenenter"",""1"",""2820""
","
","
","""event"",""trial"",""time""
""fullscreenenter"",""1"",""2820""
","
","","","","","","645.2999999523163","<p> Some pieces of furniture will make her feel very happy or very annoyed. </p><p> These pieces of furniture will make you win or lose LOTS of points. </p><p> Other pieces of furniture will only make her feel a little happy or a little annoyed. </p><p> These pieces of furniture will make you win or lose small amounts of points. </p>","","0","instructions","","","","","","","","","","",""
"learning-instructions","185","735795","0.0-11.0-1.0-0.8","4857","1","15","Female","approach_avoid_spark_v1","""event"",""trial"",""time""
""fullscreenenter"",""1"",""2820""
","
","
","""event"",""trial"",""time""
""fullscreenenter"",""1"",""2820""
","
","","","","","","11176.699999928474","<p> If you choose to deliver a piece of furniture elsewhere, you will not win or lose any points. </p><p>  However, in the center of the screen, you will see the number of points you WOULD HAVE won or lost if you had given the furniture to your friend. </p>","","0","instructions","","","","","","","","","","",""
"learning-instructions","186","747662","0.0-11.0-1.0-0.9","4857","1","15","Female","approach_avoid_spark_v1","""event"",""trial"",""time""
""fullscreenenter"",""1"",""2820""
","
","
","""event"",""trial"",""time""
""fullscreenenter"",""1"",""2820""
","
","","","","","","525.1000000238419","<p> Here is what you might see if you did not give a piece of furniture to your friend that would have made her happy: </p><p style=""color:grey; font-size:50px; display: inline-block; border-spacing: 15px; border-width:3px; border-style:solid; border-color:red"">  &nbsp; 6 &nbsp; </p><p> Remember, in this case, you would not win or lose ANY points because you did not give her the furniture.  </p>","","0","instructions","","","","","","","","","","",""
"learning-instructions","187","755849","0.0-11.0-1.0-0.10","4857","1","15","Female","approach_avoid_spark_v1","""event"",""trial"",""time""
""fullscreenenter"",""1"",""2820""
","
","
","""event"",""trial"",""time""
""fullscreenenter"",""1"",""2820""
","
","","","","","","908.8999999761581","<p> Try to make the best choice for each piece of furniture because </p><p> at the end of the game, you will earn bonus money based on how many points you earned. </p>","","0","instructions","","","","","","","","","","",""
"learning-instructions","188","764496","0.0-11.0-1.0-0.11","4857","1","15","Female","approach_avoid_spark_v1","""event"",""trial"",""time""
""fullscreenenter"",""1"",""2820""
","
","
","""event"",""trial"",""time""
""fullscreenenter"",""1"",""2820""
","
","","","","","","446.5","<p> You will have 3 seconds to make each choice. Try to respond before time runs out! </p><p> You will lose 5 points each time you do not make a response. </p>","","0","instructions","","","","","","","","","","",""
"html-keyboard-response","189","765123","0.0-11.0-2.0-0.0","4857","1","15","Female","approach_avoid_spark_v1","""event"",""trial"",""time""
""fullscreenenter"",""1"",""2820""
","
","
","""event"",""trial"",""time""
""fullscreenenter"",""1"",""2820""
","
","","","","","","null","<div style=""font-size:60px;"">+</div>","null","","fixation","","","","","","","","","","",""
"aa-learning-trial","190","768143","0.0-11.0-2.0-1.0","4857","1","15","Female","approach_avoid_spark_v1","""event"",""trial"",""time""
""fullscreenenter"",""1"",""2820""
","
","
","""event"",""trial"",""time""
""fullscreenenter"",""1"",""2820""
","
","","","","","","1014.7999999523163","images/chair7.png","","","learning","8","8","1","1","chair","furniture","2","1","","neutral","0"
"html-keyboard-response","191","768657","0.0-11.0-2.0-0.1","4857","1","15","Female","approach_avoid_spark_v1","""event"",""trial"",""time""
""fullscreenenter"",""1"",""2820""
","
","
","""event"",""trial"",""time""
""fullscreenenter"",""1"",""2820""
","
","","","","","","null","<div style=""font-size:60px;"">+</div>","null","","fixation","","","","","","","","","","",""
"aa-learning-trial","192","771682","0.0-11.0-2.0-1.1","4857","1","15","Female","approach_avoid_spark_v1","""event"",""trial"",""time""
""fullscreenenter"",""1"",""2820""
","
","
","""event"",""trial"",""time""
""fullscreenenter"",""1"",""2820""
","
","","","","","","596.2000000476837","images/sofa7.png","","","learning","-8","-8","1","1","sofa","furniture","2","1","","bad","[-4]"
"html-keyboard-response","193","772188","0.0-11.0-2.0-0.2","4857","1","15","Female","approach_avoid_spark_v1","""event"",""trial"",""time""
""fullscreenenter"",""1"",""2820""
","
","
","""event"",""trial"",""time""
""fullscreenenter"",""1"",""2820""
","
","","","","","","null","<div style=""font-size:60px;"">+</div>","null","","fixation","","","","","","","","","","",""
"aa-learning-trial","194","775210","0.0-11.0-2.0-1.2","4857","1","15","Female","approach_avoid_spark_v1","""event"",""trial"",""time""
""fullscreenenter"",""1"",""2820""
","
","
","""event"",""trial"",""time""
""fullscreenenter"",""1"",""2820""
","
","","","","","","517.2999999523163","images/bed7.png","","","learning","9","9","1","1","bed","furniture","2","1","","good","[4]"
"html-keyboard-response","195","775721","0.0-11.0-2.0-0.3","4857","1","15","Female","approach_avoid_spark_v1","""event"",""trial"",""time""
""fullscreenenter"",""1"",""2820""
","
","
","""event"",""trial"",""time""
""fullscreenenter"",""1"",""2820""
","
","","","","","","null","<div style=""font-size:60px;"">+</div>","null","","fixation","","","","","","","","","","",""
"aa-learning-trial","196","778733","0.0-11.0-2.0-1.3","4857","1","15","Female","approach_avoid_spark_v1","""event"",""trial"",""time""
""fullscreenenter"",""1"",""2820""
","
","
","""event"",""trial"",""time""
""fullscreenenter"",""1"",""2820""
","
","","","","","","1191.5","images/bed6.png","","","learning","-9","-9","1","1","bed","furniture","2","1","","good","[4]"
"html-keyboard-response","197","779246","0.0-11.0-2.0-0.4","4857","1","15","Female","approach_avoid_spark_v1","""event"",""trial"",""time""
""fullscreenenter"",""1"",""2820""
","
","
","""event"",""trial"",""time""
""fullscreenenter"",""1"",""2820""
","
","","","","","","null","<div style=""font-size:60px;"">+</div>","null","","fixation","","","","","","","","","","",""
"aa-learning-trial","198","782252","0.0-11.0-2.0-1.4","4857","1","15","Female","approach_avoid_spark_v1","""event"",""trial"",""time""
""fullscreenenter"",""1"",""2820""
","
","
","""event"",""trial"",""time""
""fullscreenenter"",""1"",""2820""
","
","","","","","","811.2000000476837","images/chair6.png","","","learning","2","2","1","1","chair","furniture","2","1","","neutral","0"
"html-keyboard-response","199","782770","0.0-11.0-2.0-0.5","4857","1","15","Female","approach_avoid_spark_v1","""event"",""trial"",""time""
""fullscreenenter"",""1"",""2820""
","
","
","""event"",""trial"",""time""
""fullscreenenter"",""1"",""2820""
","
","","","","","","null","<div style=""font-size:60px;"">+</div>","null","","fixation","","","","","","","","","","",""
"aa-learning-trial","200","785785","0.0-11.0-2.0-1.5","4857","1","15","Female","approach_avoid_spark_v1","""event"",""trial"",""time""
""fullscreenenter"",""1"",""2820""
","
","
","""event"",""trial"",""time""
""fullscreenenter"",""1"",""2820""
","
","","","","","","875.2000000476837","images/sofa6.png","","","learning","-1","0","0","0","sofa","furniture","2","1","","bad","[-4]"
"html-keyboard-response","201","786293","0.0-11.0-2.0-0.6","4857","1","15","Female","approach_avoid_spark_v1","""event"",""trial"",""time""
""fullscreenenter"",""1"",""2820""
","
","
","""event"",""trial"",""time""
""fullscreenenter"",""1"",""2820""
","
","","","","","","null","<div style=""font-size:60px;"">+</div>","null","","fixation","","","","","","","","","","",""
"aa-learning-trial","202","789307","0.0-11.0-2.0-1.6","4857","1","15","Female","approach_avoid_spark_v1","""event"",""trial"",""time""
""fullscreenenter"",""1"",""2820""
","
","
","""event"",""trial"",""time""
""fullscreenenter"",""1"",""2820""
","
","","","","","","895.3000000715256","images/chair6.png","","","learning","2","2","1","1","chair","furniture","2","1","","neutral","0"
"html-keyboard-response","203","789811","0.0-11.0-2.0-0.7","4857","1","15","Female","approach_avoid_spark_v1","""event"",""trial"",""time""
""fullscreenenter"",""1"",""2820""
","
","
","""event"",""trial"",""time""
""fullscreenenter"",""1"",""2820""
","
","","","","","","null","<div style=""font-size:60px;"">+</div>","null","","fixation","","","","","","","","","","",""
"aa-learning-trial","204","792822","0.0-11.0-2.0-1.7","4857","1","15","Female","approach_avoid_spark_v1","""event"",""trial"",""time""
""fullscreenenter"",""1"",""2820""
","
","
","""event"",""trial"",""time""
""fullscreenenter"",""1"",""2820""
","
","","","","","","824","images/sofa5.png","","","learning","7","0","0","0","sofa","furniture","2","1","","bad","[-4]"
"html-keyboard-response","205","793343","0.0-11.0-2.0-0.8","4857","1","15","Female","approach_avoid_spark_v1","""event"",""trial"",""time""
""fullscreenenter"",""1"",""2820""
","
","
","""event"",""trial"",""time""
""fullscreenenter"",""1"",""2820""
","
","","","","","","null","<div style=""font-size:60px;"">+</div>","null","","fixation","","","","","","","","","","",""
"aa-learning-trial","206","796349","0.0-11.0-2.0-1.8","4857","1","15","Female","approach_avoid_spark_v1","""event"",""trial"",""time""
""fullscreenenter"",""1"",""2820""
","
","
","""event"",""trial"",""time""
""fullscreenenter"",""1"",""2820""
","
","","","","","","772.2000000476837","images/chair8.png","","","learning","-4","-4","1","1","chair","furniture","2","1","","neutral","0"
"html-keyboard-response","207","796860","0.0-11.0-2.0-0.9","4857","1","15","Female","approach_avoid_spark_v1","""event"",""trial"",""time""
""fullscreenenter"",""1"",""2820""
","
","
","""event"",""trial"",""time""
""fullscreenenter"",""1"",""2820""
","
","","","","","","null","<div style=""font-size:60px;"">+</div>","null","","fixation","","","","","","","","","","",""
"aa-learning-trial","208","799869","0.0-11.0-2.0-1.9","4857","1","15","Female","approach_avoid_spark_v1","""event"",""trial"",""time""
""fullscreenenter"",""1"",""2820""
","
","
","""event"",""trial"",""time""
""fullscreenenter"",""1"",""2820""
","
","","","","","","882.5","images/chair8.png","","","learning","-4","-4","1","1","chair","furniture","2","1","","neutral","0"
"html-keyboard-response","209","800379","0.0-11.0-2.0-0.10","4857","1","15","Female","approach_avoid_spark_v1","""event"",""trial"",""time""
""fullscreenenter"",""1"",""2820""
","
","
","""event"",""trial"",""time""
""fullscreenenter"",""1"",""2820""
","
","","","","","","null","<div style=""font-size:60px;"">+</div>","null","","fixation","","","","","","","","","","",""
"aa-learning-trial","210","803390","0.0-11.0-2.0-1.10","4857","1","15","Female","approach_avoid_spark_v1","""event"",""trial"",""time""
""fullscreenenter"",""1"",""2820""
","
","
","""event"",""trial"",""time""
""fullscreenenter"",""1"",""2820""
","
","","","","","","551.3999999761581","images/bed4.png","","","learning","5","0","0","0","bed","furniture","2","1","","good","[4]"
"html-keyboard-response","211","803901","0.0-11.0-2.0-0.11","4857","1","15","Female","approach_avoid_spark_v1","""event"",""trial"",""time""
""fullscreenenter"",""1"",""2820""
","
","
","""event"",""trial"",""time""
""fullscreenenter"",""1"",""2820""
","
","","","","","","null","<div style=""font-size:60px;"">+</div>","null","","fixation","","","","","","","","","","",""
"aa-learning-trial","212","806910","0.0-11.0-2.0-1.11","4857","1","15","Female","approach_avoid_spark_v1","""event"",""trial"",""time""
""fullscreenenter"",""1"",""2820""
","
","
","""event"",""trial"",""time""
""fullscreenenter"",""1"",""2820""
","
","","","","","","1918.6999999284744","images/sofa7.png","","","learning","-8","-8","1","1","sofa","furniture","2","1","","bad","[-4]"
"html-keyboard-response","213","807434","0.0-11.0-2.0-0.12","4857","1","15","Female","approach_avoid_spark_v1","""event"",""trial"",""time""
""fullscreenenter"",""1"",""2820""
","
","
","""event"",""trial"",""time""
""fullscreenenter"",""1"",""2820""
","
","","","","","","null","<div style=""font-size:60px;"">+</div>","null","","fixation","","","","","","","","","","",""
"aa-learning-trial","214","810444","0.0-11.0-2.0-1.12","4857","1","15","Female","approach_avoid_spark_v1","""event"",""trial"",""time""
""fullscreenenter"",""1"",""2820""
","
","
","""event"",""trial"",""time""
""fullscreenenter"",""1"",""2820""
","
","","","","","","1015.5","images/sofa6.png","","","learning","-1","0","0","0","sofa","furniture","2","1","","bad","[-4]"
"html-keyboard-response","215","810955","0.0-11.0-2.0-0.13","4857","1","15","Female","approach_avoid_spark_v1","""event"",""trial"",""time""
""fullscreenenter"",""1"",""2820""
","
","
","""event"",""trial"",""time""
""fullscreenenter"",""1"",""2820""
","
","","","","","","null","<div style=""font-size:60px;"">+</div>","null","","fixation","","","","","","","","","","",""
"aa-learning-trial","216","813975","0.0-11.0-2.0-1.13","4857","1","15","Female","approach_avoid_spark_v1","""event"",""trial"",""time""
""fullscreenenter"",""1"",""2820""
","
","
","""event"",""trial"",""time""
""fullscreenenter"",""1"",""2820""
","
","","","","","","965.6000000238419","images/bed4.png","","","learning","5","5","1","1","bed","furniture","2","1","","good","[4]"
"html-keyboard-response","217","814486","0.0-11.0-2.0-0.14","4857","1","15","Female","approach_avoid_spark_v1","""event"",""trial"",""time""
""fullscreenenter"",""1"",""2820""
","
","
","""event"",""trial"",""time""
""fullscreenenter"",""1"",""2820""
","
","","","","","","null","<div style=""font-size:60px;"">+</div>","null","","fixation","","","","","","","","","","",""
"aa-learning-trial","218","817498","0.0-11.0-2.0-1.14","4857","1","15","Female","approach_avoid_spark_v1","""event"",""trial"",""time""
""fullscreenenter"",""1"",""2820""
","
","
","""event"",""trial"",""time""
""fullscreenenter"",""1"",""2820""
","
","","","","","","1279.6000000238419","images/bed7.png","","","learning","9","0","0","0","bed","furniture","2","1","","good","[4]"
"html-keyboard-response","219","818006","0.0-11.0-2.0-0.15","4857","1","15","Female","approach_avoid_spark_v1","""event"",""trial"",""time""
""fullscreenenter"",""1"",""2820""
","
","
","""event"",""trial"",""time""
""fullscreenenter"",""1"",""2820""
","
","","","","","","null","<div style=""font-size:60px;"">+</div>","null","","fixation","","","","","","","","","","",""
"aa-learning-trial","220","821018","0.0-11.0-2.0-1.15","4857","1","15","Female","approach_avoid_spark_v1","""event"",""trial"",""time""
""fullscreenenter"",""1"",""2820""
","
","
","""event"",""trial"",""time""
""fullscreenenter"",""1"",""2820""
","
","","","","","","762.3000000715256","images/chair8.png","","","learning","-4","-4","1","1","chair","furniture","2","1","","neutral","0"
"html-keyboard-response","221","821527","0.0-11.0-2.0-0.16","4857","1","15","Female","approach_avoid_spark_v1","""event"",""trial"",""time""
""fullscreenenter"",""1"",""2820""
","
","
","""event"",""trial"",""time""
""fullscreenenter"",""1"",""2820""
","
","","","","","","null","<div style=""font-size:60px;"">+</div>","null","","fixation","","","","","","","","","","",""
"aa-learning-trial","222","824541","0.0-11.0-2.0-1.16","4857","1","15","Female","approach_avoid_spark_v1","""event"",""trial"",""time""
""fullscreenenter"",""1"",""2820""
","
","
","""event"",""trial"",""time""
""fullscreenenter"",""1"",""2820""
","
","","","","","","814.3999999761581","images/sofa7.png","","","learning","-8","0","0","0","sofa","furniture","2","1","","bad","[-4]"
"html-keyboard-response","223","825052","0.0-11.0-2.0-0.17","4857","1","15","Female","approach_avoid_spark_v1","""event"",""trial"",""time""
""fullscreenenter"",""1"",""2820""
","
","
","""event"",""trial"",""time""
""fullscreenenter"",""1"",""2820""
","
","","","","","","null","<div style=""font-size:60px;"">+</div>","null","","fixation","","","","","","","","","","",""
"aa-learning-trial","224","828061","0.0-11.0-2.0-1.17","4857","1","15","Female","approach_avoid_spark_v1","""event"",""trial"",""time""
""fullscreenenter"",""1"",""2820""
","
","
","""event"",""trial"",""time""
""fullscreenenter"",""1"",""2820""
","
","","","","","","643.3999999761581","images/sofa7.png","","","learning","-8","0","0","0","sofa","furniture","2","1","","bad","[-4]"
"html-keyboard-response","225","828569","0.0-11.0-2.0-0.18","4857","1","15","Female","approach_avoid_spark_v1","""event"",""trial"",""time""
""fullscreenenter"",""1"",""2820""
","
","
","""event"",""trial"",""time""
""fullscreenenter"",""1"",""2820""
","
","","","","","","null","<div style=""font-size:60px;"">+</div>","null","","fixation","","","","","","","","","","",""
"aa-learning-trial","226","831584","0.0-11.0-2.0-1.18","4857","1","15","Female","approach_avoid_spark_v1","""event"",""trial"",""time""
""fullscreenenter"",""1"",""2820""
","
","
","""event"",""trial"",""time""
""fullscreenenter"",""1"",""2820""
","
","","","","","","911.1000000238419","images/sofa6.png","","","learning","-1","0","0","0","sofa","furniture","2","1","","bad","[-4]"
"html-keyboard-response","227","832092","0.0-11.0-2.0-0.19","4857","1","15","Female","approach_avoid_spark_v1","""event"",""trial"",""time""
""fullscreenenter"",""1"",""2820""
","
","
","""event"",""trial"",""time""
""fullscreenenter"",""1"",""2820""
","
","","","","","","null","<div style=""font-size:60px;"">+</div>","null","","fixation","","","","","","","","","","",""
"aa-learning-trial","228","835104","0.0-11.0-2.0-1.19","4857","1","15","Female","approach_avoid_spark_v1","""event"",""trial"",""time""
""fullscreenenter"",""1"",""2820""
","
","
","""event"",""trial"",""time""
""fullscreenenter"",""1"",""2820""
","
","","","","","","900","images/bed7.png","","","learning","9","9","1","1","bed","furniture","2","1","","good","[4]"
"html-keyboard-response","229","835613","0.0-11.0-2.0-0.20","4857","1","15","Female","approach_avoid_spark_v1","""event"",""trial"",""time""
""fullscreenenter"",""1"",""2820""
","
","
","""event"",""trial"",""time""
""fullscreenenter"",""1"",""2820""
","
","","","","","","null","<div style=""font-size:60px;"">+</div>","null","","fixation","","","","","","","","","","",""
"aa-learning-trial","230","838622","0.0-11.0-2.0-1.20","4857","1","15","Female","approach_avoid_spark_v1","""event"",""trial"",""time""
""fullscreenenter"",""1"",""2820""
","
","
","""event"",""trial"",""time""
""fullscreenenter"",""1"",""2820""
","
","","","","","","743.1000000238419","images/sofa7.png","","","learning","-8","0","0","0","sofa","furniture","2","1","","bad","[-4]"
"html-keyboard-response","231","839135","0.0-11.0-2.0-0.21","4857","1","15","Female","approach_avoid_spark_v1","""event"",""trial"",""time""
""fullscreenenter"",""1"",""2820""
","
","
","""event"",""trial"",""time""
""fullscreenenter"",""1"",""2820""
","
","","","","","","null","<div style=""font-size:60px;"">+</div>","null","","fixation","","","","","","","","","","",""
"aa-learning-trial","232","842141","0.0-11.0-2.0-1.21","4857","1","15","Female","approach_avoid_spark_v1","""event"",""trial"",""time""
""fullscreenenter"",""1"",""2820""
","
","
","""event"",""trial"",""time""
""fullscreenenter"",""1"",""2820""
","
","","","","","","1245","images/bed8.png","","","learning","1","0","0","0","bed","furniture","2","1","","good","[4]"
"html-keyboard-response","233","842648","0.0-11.0-2.0-0.22","4857","1","15","Female","approach_avoid_spark_v1","""event"",""trial"",""time""
""fullscreenenter"",""1"",""2820""
","
","
","""event"",""trial"",""time""
""fullscreenenter"",""1"",""2820""
","
","","","","","","null","<div style=""font-size:60px;"">+</div>","null","","fixation","","","","","","","","","","",""
"aa-learning-trial","234","845673","0.0-11.0-2.0-1.22","4857","1","15","Female","approach_avoid_spark_v1","""event"",""trial"",""time""
""fullscreenenter"",""1"",""2820""
","
","
","""event"",""trial"",""time""
""fullscreenenter"",""1"",""2820""
","
","","","","","","1346.5","images/sofa2.png","","","learning","-5","0","0","0","sofa","furniture","2","1","","bad","[-4]"
"html-keyboard-response","235","846192","0.0-11.0-2.0-0.23","4857","1","15","Female","approach_avoid_spark_v1","""event"",""trial"",""time""
""fullscreenenter"",""1"",""2820""
","
","
","""event"",""trial"",""time""
""fullscreenenter"",""1"",""2820""
","
