"trial_type","trial_index","time_elapsed","internal_node_id","subject_id","task_condition","age","gender","task_version","interactions","blur_events","focus_events","fullscreenenter_events","fullscreenexit_events","success","timeout","failed_images","failed_audio","failed_video","rt","stimulus","response","button_pressed","task_part","approach_reward","points","key_press","option_selected","stim_cat","task_block","block_condition","block_number","correct","cat_type","mean_cat_reward"
"pavlovia","0","4","0.0-0.0","4495","2","14","Male","approach_avoid_spark_v1","""event"",""trial"",""time""
""fullscreenenter"",""1"",""2125""
","
","
","""event"",""trial"",""time""
""fullscreenenter"",""1"",""2125""
","
","","","","","","","","","","","","","","","","","","","","",""
"fullscreen","1","3107","0.0-1.0","4495","2","14","Male","approach_avoid_spark_v1","""event"",""trial"",""time""
""fullscreenenter"",""1"",""2125""
","
","
","""event"",""trial"",""time""
""fullscreenenter"",""1"",""2125""
","
","true","","","","","","","","","","","","","","","","","","","",""
"preload","2","5504","0.0-2.0","4495","2","14","Male","approach_avoid_spark_v1","""event"",""trial"",""time""
""fullscreenenter"",""1"",""2125""
","
","
","""event"",""trial"",""time""
""fullscreenenter"",""1"",""2125""
","
","true","false","[]","[]","[]","","","","","","","","","","","","","","","",""
"audio-keyboard-response","3","7988","0.0-3.0","4495","2","14","Male","approach_avoid_spark_v1","""event"",""trial"",""time""
""fullscreenenter"",""1"",""2125""
","
","
","""event"",""trial"",""time""
""fullscreenenter"",""1"",""2125""
","
","","","","","","2480","audio/beep_loop.wav"," ","","","","","","","","","","","","",""
"audio-button-response","4","9414","0.0-4.0","4495","2","14","Male","approach_avoid_spark_v1","""event"",""trial"",""time""
""fullscreenenter"",""1"",""2125""
","
","
","""event"",""trial"",""time""
""fullscreenenter"",""1"",""2125""
","
","","","","","","1429","audio/shark.wav","4","","","","","","","","","","","","",""
"audio-button-response","5","11740","0.0-5.0","4495","2","14","Male","approach_avoid_spark_v1","""event"",""trial"",""time""
""fullscreenenter"",""1"",""2125""
","
","
","""event"",""trial"",""time""
""fullscreenenter"",""1"",""2125""
","
","","","","","","1320","audio/turtle.wav","1","","","","","","","","","","","","",""
"preload","6","14370","0.0-6.0","4495","2","14","Male","approach_avoid_spark_v1","""event"",""trial"",""time""
""fullscreenenter"",""1"",""2125""
","
","
","""event"",""trial"",""time""
""fullscreenenter"",""1"",""2125""
","
","true","false","[]","[]","[]","","","","","","","","","","","","","","","",""
"html-keyboard-response","7","24403","0.0-7.0","4495","2","14","Male","approach_avoid_spark_v1","""event"",""trial"",""time""
""fullscreenenter"",""1"",""2125""
","
","
","""event"",""trial"",""time""
""fullscreenenter"",""1"",""2125""
","
","","","","","","10031","Welcome to the experiment. Press any key to begin and to advance the instructions.","a","","","","","","","","","","","","",""
"learning-instructions","8","32861","0.0-8.0-0.0-0.0","4495","2","14","Male","approach_avoid_spark_v1","""event"",""trial"",""time""
""fullscreenenter"",""1"",""2125""
","
","
","""event"",""trial"",""time""
""fullscreenenter"",""1"",""2125""
","
","","","","","","1500.7999999523163","<p> Welcome! Today you are going to play 6 different rounds of a decision-making game. </p><p> Use the mouse to click next to continue. </p>","","0","instructions","","","","","","","","","","",""
"learning-instructions","9","38588","0.0-8.0-0.0-0.1","4495","2","14","Male","approach_avoid_spark_v1","""event"",""trial"",""time""
""fullscreenenter"",""1"",""2125""
","
","
","""event"",""trial"",""time""
""fullscreenenter"",""1"",""2125""
","
","","","","","","2987.7000000476837","<p> You will start with a practice round to learn the rules. </p>","","0","instructions","","","","","","","","","","",""
"learning-instructions","10","44860","0.0-8.0-0.0-0.2","4495","2","14","Male","approach_avoid_spark_v1","""event"",""trial"",""time""
""fullscreenenter"",""1"",""2125""
","
","
","""event"",""trial"",""time""
""fullscreenenter"",""1"",""2125""
","
","","","","","","2818.800000190735","<p> Your goal in this round is to give out sports equipment to kids. </p></div>","","0","instructions","","","","","","","","","","",""
"learning-instructions","11","52941","0.0-8.0-0.0-0.3","4495","2","14","Male","approach_avoid_spark_v1","""event"",""trial"",""time""
""fullscreenenter"",""1"",""2125""
","
","
","""event"",""trial"",""time""
""fullscreenenter"",""1"",""2125""
","
","","","","","","520.2000000476837","<p> The kids only like some of the equipment.  </p><p> On each turn, you will see a piece of sports equipment.   </p><p> You need to decide whether to give it to the kids or not.  </p>","","0","instructions","","","","","","","","","","",""
"learning-instructions","12","59091","0.0-8.0-0.0-0.4","4495","2","14","Male","approach_avoid_spark_v1","""event"",""trial"",""time""
""fullscreenenter"",""1"",""2125""
","
","
","""event"",""trial"",""time""
""fullscreenenter"",""1"",""2125""
","
","","","","","","1390.5999999046326","<p> You can give them the equipment by pressing 1 and choose not to give it to them by pressing 0. </p><br><div class=""choice-instructions-grid""> <div class=""choice-option""><img src=""images/approach.png"" class=""choice-option-img"" stage=""instructions"" position=""0"" ><div class=""choice-option-text""> Press ""1."" </div></div><div class=""choice-option""><img src=""images/avoid.png"" class=""choice-option-img"" stage=""instructions"" position=""1"" ><div class=""choice-option-text""> Press ""0."" </div></div>","","0","instructions","","","","","","","","","","",""
"learning-instructions","13","68845","0.0-8.0-0.0-0.5","4495","2","14","Male","approach_avoid_spark_v1","""event"",""trial"",""time""
""fullscreenenter"",""1"",""2125""
","
","
","""event"",""trial"",""time""
""fullscreenenter"",""1"",""2125""
","
","","","","","","2364.4000000953674","<p> If you give them a piece of equipment they like, they will be happy! </p><p> But if you give them a piece of equipment they do not like, they will be sad. </p>","","0","instructions","","","","","","","","","","",""
"learning-instructions","14","80021","0.0-8.0-0.0-0.6","4495","2","14","Male","approach_avoid_spark_v1","""event"",""trial"",""time""
""fullscreenenter"",""1"",""2125""
","
","
","""event"",""trial"",""time""
""fullscreenenter"",""1"",""2125""
","
","","","","","","670","<p> You will earn points based on how you make kids feel. </p><p> If you make them happy, you will WIN anywhere from 1 - 9 points, </p><p> but if you make them sad, you will LOSE anywhere from 1 - 9 points. </p>","","0","instructions","","","","","","","","","","",""
"learning-instructions","15","91197","0.0-8.0-0.0-0.7","4495","2","14","Male","approach_avoid_spark_v1","""event"",""trial"",""time""
""fullscreenenter"",""1"",""2125""
","
","
","""event"",""trial"",""time""
""fullscreenenter"",""1"",""2125""
","
","","","","","","1616.2000000476837","<p> You will see how many points you won or lost in the center of the screen. </p><p> Here is what you would see if you won 6 points: </p><p style=""color:green;font-size:50px;font-weight:bolder"">6</p><p style=""color:green"">The text is GREEN because you WON points.</p>","","0","instructions","","","","","","","","","","",""
"learning-instructions","16","96995","0.0-8.0-0.0-0.8","4495","2","14","Male","approach_avoid_spark_v1","""event"",""trial"",""time""
""fullscreenenter"",""1"",""2125""
","
","
","""event"",""trial"",""time""
""fullscreenenter"",""1"",""2125""
","
","","","","","","295.60000014305115","<p> And here is what you would see if you lost 4 points: </p><p style=""color:red;font-size:50px;font-weight:bolder"">-4</p><p style=""color:red"">The text is RED because you LOST points. </p>","","0","instructions","","","","","","","","","","",""
"learning-instructions","17","112004","0.0-8.0-0.0-0.9","4495","2","14","Male","approach_avoid_spark_v1","""event"",""trial"",""time""
""fullscreenenter"",""1"",""2125""
","
","
","""event"",""trial"",""time""
""fullscreenenter"",""1"",""2125""
","
","","","","","","294.59999990463257","<p> Some of the equipment will make the kids VERY happy or sad. </p><p> These pieces of equipment will make you win or lose LOTS of points. </p><p> Other pieces of equipment will only make the kids a little happy or sad. </p><p> These pieces of equipment will make you win or lose small amounts of points. </p>","","0","instructions","","","","","","","","","","",""
"learning-instructions","18","123108","0.0-8.0-0.0-0.10","4495","2","14","Male","approach_avoid_spark_v1","""event"",""trial"",""time""
""fullscreenenter"",""1"",""2125""
","
","
","""event"",""trial"",""time""
""fullscreenenter"",""1"",""2125""
","
","","","","","","477.90000009536743","<p> If you choose not to give them the equipment, you will not win or lose any points. </p><p>  However, in the center of the screen, you will see the number of points you WOULD HAVE won or lost if you had given them the equipment. </p>","","0","instructions","","","","","","","","","","",""
"learning-instructions","19","145076","0.0-8.0-0.0-0.11","4495","2","14","Male","approach_avoid_spark_v1","""event"",""trial"",""time""
""fullscreenenter"",""1"",""2125""
","
","
","""event"",""trial"",""time""
""fullscreenenter"",""1"",""2125""
","
","","","","","","446.10000014305115","<p> Here is what you might see if you did not give the equipment to the kids but it would have made them happy: </p><p style=""color:grey; font-size:50px; display: inline-block; border-spacing: 15px; border-width:3px; border-style:solid; border-color:red"">  &nbsp; 7 &nbsp; </p><p> Remember, in this case, you would not win or lose ANY points because you did not give them the equipment.  </p><p style=""color:grey"">The text is GREY because you earned ZERO points. </p><p style=""color:red"">However, choosing to give the kids the equipment would have made you win points. The box around the text is RED because you chose the worse option. </p>","","0","instructions","","","","","","","","","","",""
"learning-instructions","20","168419","0.0-8.0-0.0-0.12","4495","2","14","Male","approach_avoid_spark_v1","""event"",""trial"",""time""
""fullscreenenter"",""1"",""2125""
","
","
","""event"",""trial"",""time""
""fullscreenenter"",""1"",""2125""
","
","","","","","","2268.699999809265","<p> Here is what you might see if you did not give the equipment to the kids but it would have made them sad: </p><p style=""color:grey;font-size:50px; display: inline-block; border-spacing: 15px; border-width:3px; border-style:solid; border-color:green"">  &nbsp; -8 &nbsp; </p><p> Remember, in this case, you would not win or lose ANY points because you did not give them the equipment.  </p><p style=""color:grey"">The text is GREY because you earned ZERO points. </p><p  style=""color:green""> Choosing to give the kids the equipment would have made you lose points. The box around the text is GREEN because you chose the better option.</p>","","0","instructions","","","","","","","","","","",""
"learning-instructions","21","178172","0.0-8.0-0.0-0.13","4495","2","14","Male","approach_avoid_spark_v1","""event"",""trial"",""time""
""fullscreenenter"",""1"",""2125""
","
","
","""event"",""trial"",""time""
""fullscreenenter"",""1"",""2125""
","
","","","","","","872.4000000953674","<p> You will have 3 seconds to make each choice. Try to respond before time runs out! </p><p> You will lose 5 points each time you do not make a response. </p>","","0","instructions","","","","","","","","","","",""
"learning-instructions","22","184644","0.0-8.0-0.0-0.14","4495","2","14","Male","approach_avoid_spark_v1","""event"",""trial"",""time""
""fullscreenenter"",""1"",""2125""
","
","
","""event"",""trial"",""time""
""fullscreenenter"",""1"",""2125""
","
","","","","","","1054.2999999523163","<p> This is just a practice round, but in the real game, your bonus payment will depend on your total number of points.","","0","instructions","","","","","","","","","","",""
"learning-instructions","23","192595","0.0-8.0-0.0-0.15","4495","2","14","Male","approach_avoid_spark_v1","""event"",""trial"",""time""
""fullscreenenter"",""1"",""2125""
","
","
","""event"",""trial"",""time""
""fullscreenenter"",""1"",""2125""
","
","","","","","","2174.2999999523163","<p> Remember, you can give them the equipment by pressing 1 and choose not to give it to them by pressing 0. </p><br><div class=""choice-instructions-grid""> <div class=""choice-option""><img src=""images/approach.png"" class=""choice-option-img"" stage=""instructions"" position=""0"" ><div class=""choice-option-text""> Press ""1."" </div></div><div class=""choice-option""><img src=""images/avoid.png"" class=""choice-option-img"" stage=""instructions"" position=""1"" ><div class=""choice-option-text""> Press ""0."" </div></div>","","0","instructions","","","","","","","","","","",""
"html-button-response","24","193772","0.0-8.0-1.0","4495","2","14","Male","approach_avoid_spark_v1","""event"",""trial"",""time""
""fullscreenenter"",""1"",""2125""
","
","
","""event"",""trial"",""time""
""fullscreenenter"",""1"",""2125""
","
","","","","","","1064.7999999523163","<p> Ready to practice? </p>","0","","","","","","","","","","","","",""
"html-keyboard-response","25","194403","0.0-8.0-2.0-0.0","4495","2","14","Male","approach_avoid_spark_v1","""event"",""trial"",""time""
""fullscreenenter"",""1"",""2125""
","
","
","""event"",""trial"",""time""
""fullscreenenter"",""1"",""2125""
","
","","","","","","null","<div style=""font-size:60px;"">+</div>","null","","fixation","","","","","","","","","","",""
"aa-learning-trial","26","197412","0.0-8.0-2.0-1.0","4495","2","14","Male","approach_avoid_spark_v1","""event"",""trial"",""time""
""fullscreenenter"",""1"",""2125""
","
","
","""event"",""trial"",""time""
""fullscreenenter"",""1"",""2125""
","
","","","","","","2453.2999999523163","images/racket4.png","","","learning","6","6","1","1","practice","practice","practice","-1","","",""
"html-keyboard-response","27","197917","0.0-8.0-2.0-0.1","4495","2","14","Male","approach_avoid_spark_v1","""event"",""trial"",""time""
""fullscreenenter"",""1"",""2125""
","
","
","""event"",""trial"",""time""
""fullscreenenter"",""1"",""2125""
","
","","","","","","null","<div style=""font-size:60px;"">+</div>","null","","fixation","","","","","","","","","","",""
"aa-learning-trial","28","200922","0.0-8.0-2.0-1.1","4495","2","14","Male","approach_avoid_spark_v1","""event"",""trial"",""time""
""fullscreenenter"",""1"",""2125""
","
","
","""event"",""trial"",""time""
""fullscreenenter"",""1"",""2125""
","
","","","","","","2162","images/ball1.png","","","learning","8","8","1","1","practice","practice","practice","-1","","",""
"html-keyboard-response","29","201435","0.0-8.0-2.0-0.2","4495","2","14","Male","approach_avoid_spark_v1","""event"",""trial"",""time""
""fullscreenenter"",""1"",""2125""
","
","
","""event"",""trial"",""time""
""fullscreenenter"",""1"",""2125""
","
","","","","","","null","<div style=""font-size:60px;"">+</div>","null","","fixation","","","","","","","","","","",""
"aa-learning-trial","30","204446","0.0-8.0-2.0-1.2","4495","2","14","Male","approach_avoid_spark_v1","""event"",""trial"",""time""
""fullscreenenter"",""1"",""2125""
","
","
","""event"",""trial"",""time""
""fullscreenenter"",""1"",""2125""
","
","","","","","","2001.6000001430511","images/ball2.png","","","learning","4","4","1","1","practice","practice","practice","-1","","",""
"html-keyboard-response","31","204958","0.0-8.0-2.0-0.3","4495","2","14","Male","approach_avoid_spark_v1","""event"",""trial"",""time""
""fullscreenenter"",""1"",""2125""
","
","
","""event"",""trial"",""time""
""fullscreenenter"",""1"",""2125""
","
","","","","","","null","<div style=""font-size:60px;"">+</div>","null","","fixation","","","","","","","","","","",""
"aa-learning-trial","32","207979","0.0-8.0-2.0-1.3","4495","2","14","Male","approach_avoid_spark_v1","""event"",""trial"",""time""
""fullscreenenter"",""1"",""2125""
","
","
","""event"",""trial"",""time""
""fullscreenenter"",""1"",""2125""
","
","","","","","","1360","images/racket1.png","","","learning","-8","0","0","0","practice","practice","practice","-1","","",""
"html-keyboard-response","33","208499","0.0-8.0-2.0-0.4","4495","2","14","Male","approach_avoid_spark_v1","""event"",""trial"",""time""
""fullscreenenter"",""1"",""2125""
","
","
","""event"",""trial"",""time""
""fullscreenenter"",""1"",""2125""
","
","","","","","","null","<div style=""font-size:60px;"">+</div>","null","","fixation","","","","","","","","","","",""
"aa-learning-trial","34","211523","0.0-8.0-2.0-1.4","4495","2","14","Male","approach_avoid_spark_v1","""event"",""trial"",""time""
""fullscreenenter"",""1"",""2125""
","
","
","""event"",""trial"",""time""
""fullscreenenter"",""1"",""2125""
","
","","","","","","1154.7000000476837","images/ball2.png","","","learning","-1","-1","1","1","practice","practice","practice","-1","","",""
"html-keyboard-response","35","212036","0.0-8.0-2.0-0.5","4495","2","14","Male","approach_avoid_spark_v1","""event"",""trial"",""time""
""fullscreenenter"",""1"",""2125""
","
","
","""event"",""trial"",""time""
""fullscreenenter"",""1"",""2125""
","
","","","","","","null","<div style=""font-size:60px;"">+</div>","null","","fixation","","","","","","","","","","",""
"aa-learning-trial","36","215053","0.0-8.0-2.0-1.5","4495","2","14","Male","approach_avoid_spark_v1","""event"",""trial"",""time""
""fullscreenenter"",""1"",""2125""
","
","
","""event"",""trial"",""time""
""fullscreenenter"",""1"",""2125""
","
","","","","","","1119.5","images/ball2.png","","","learning","-3","0","0","0","practice","practice","practice","-1","","",""
"html-keyboard-response","37","215563","0.0-8.0-2.0-0.6","4495","2","14","Male","approach_avoid_spark_v1","""event"",""trial"",""time""
""fullscreenenter"",""1"",""2125""
","
","
","""event"",""trial"",""time""
""fullscreenenter"",""1"",""2125""
","
","","","","","","null","<div style=""font-size:60px;"">+</div>","null","","fixation","","","","","","","","","","",""
"aa-learning-trial","38","218573","0.0-8.0-2.0-1.6","4495","2","14","Male","approach_avoid_spark_v1","""event"",""trial"",""time""
""fullscreenenter"",""1"",""2125""
","
","
","""event"",""trial"",""time""
""fullscreenenter"",""1"",""2125""
","
","","","","","","2610.7000000476837","images/racket1.png","","","learning","-4","0","0","0","practice","practice","practice","-1","","",""
"html-keyboard-response","39","219085","0.0-8.0-2.0-0.7","4495","2","14","Male","approach_avoid_spark_v1","""event"",""trial"",""time""
""fullscreenenter"",""1"",""2125""
","
","
","""event"",""trial"",""time""
""fullscreenenter"",""1"",""2125""
","
","","","","","","null","<div style=""font-size:60px;"">+</div>","null","","fixation","","","","","","","","","","",""
"aa-learning-trial","40","222092","0.0-8.0-2.0-1.7","4495","2","14","Male","approach_avoid_spark_v1","""event"",""trial"",""time""
""fullscreenenter"",""1"",""2125""
","
","
","""event"",""trial"",""time""
""fullscreenenter"",""1"",""2125""
","
","","","","","","1044.2999999523163","images/ball4.png","","","learning","-5","-5","1","1","practice","practice","practice","-1","","",""
"html-keyboard-response","41","222596","0.0-8.0-2.0-0.8","4495","2","14","Male","approach_avoid_spark_v1","""event"",""trial"",""time""
""fullscreenenter"",""1"",""2125""
","
","
","""event"",""trial"",""time""
""fullscreenenter"",""1"",""2125""
","
","","","","","","null","<div style=""font-size:60px;"">+</div>","null","","fixation","","","","","","","","","","",""
"aa-learning-trial","42","225604","0.0-8.0-2.0-1.8","4495","2","14","Male","approach_avoid_spark_v1","""event"",""trial"",""time""
""fullscreenenter"",""1"",""2125""
","
","
","""event"",""trial"",""time""
""fullscreenenter"",""1"",""2125""
","
","","","","","","1596.2000000476837","images/ball2.png","","","learning","8","0","0","0","practice","practice","practice","-1","","",""
"html-keyboard-response","43","226108","0.0-8.0-2.0-0.9","4495","2","14","Male","approach_avoid_spark_v1","""event"",""trial"",""time""
""fullscreenenter"",""1"",""2125""
","
","
","""event"",""trial"",""time""
""fullscreenenter"",""1"",""2125""
","
","","","","","","null","<div style=""font-size:60px;"">+</div>","null","","fixation","","","","","","","","","","",""
"aa-learning-trial","44","229116","0.0-8.0-2.0-1.9","4495","2","14","Male","approach_avoid_spark_v1","""event"",""trial"",""time""
""fullscreenenter"",""1"",""2125""
","
","
","""event"",""trial"",""time""
""fullscreenenter"",""1"",""2125""
","
","","","","","","1092.5","images/ball1.png","","","learning","8","8","1","1","practice","practice","practice","-1","","",""
"html-keyboard-response","45","229619","0.0-8.0-2.0-0.10","4495","2","14","Male","approach_avoid_spark_v1","""event"",""trial"",""time""
""fullscreenenter"",""1"",""2125""
","
","
","""event"",""trial"",""time""
""fullscreenenter"",""1"",""2125""
","
","","","","","","null","<div style=""font-size:60px;"">+</div>","null","","fixation","","","","","","","","","","",""
"aa-learning-trial","46","232626","0.0-8.0-2.0-1.10","4495","2","14","Male","approach_avoid_spark_v1","""event"",""trial"",""time""
""fullscreenenter"",""1"",""2125""
","
","
","""event"",""trial"",""time""
""fullscreenenter"",""1"",""2125""
","
","","","","","","1206.0999999046326","images/racket1.png","","","learning","-5","-5","1","1","practice","practice","practice","-1","","",""
"html-keyboard-response","47","233131","0.0-8.0-2.0-0.11","4495","2","14","Male","approach_avoid_spark_v1","""event"",""trial"",""time""
""fullscreenenter"",""1"",""2125""
","
","
","""event"",""trial"",""time""
""fullscreenenter"",""1"",""2125""
","
","","","","","","null","<div style=""font-size:60px;"">+</div>","null","","fixation","","","","","","","","","","",""
"aa-learning-trial","48","236139","0.0-8.0-2.0-1.11","4495","2","14","Male","approach_avoid_spark_v1","""event"",""trial"",""time""
""fullscreenenter"",""1"",""2125""
","
","
","""event"",""trial"",""time""
""fullscreenenter"",""1"",""2125""
","
","","","","","","1579.4000000953674","images/racket4.png","","","learning","7","0","0","0","practice","practice","practice","-1","","",""
"html-button-response","49","240126","0.0-8.0-3.0","4495","2","14","Male","approach_avoid_spark_v1","""event"",""trial"",""time""
""fullscreenenter"",""1"",""2125""
","
","
","""event"",""trial"",""time""
""fullscreenenter"",""1"",""2125""
","
","","","","","","3985.4000000953674","<p> You earned 15 points in the practice round! </p>","0","","break","","","","","","","","","","",""
"learning-instructions","50","249435","0.0-8.0-4.0-0.0","4495","2","14","Male","approach_avoid_spark_v1","""event"",""trial"",""time""
""fullscreenenter"",""1"",""2125""
","
","
","""event"",""trial"",""time""
""fullscreenenter"",""1"",""2125""
","
","","","","","","2453.5999999046326","<p> It's almost time to start the real game. </p><p> Before you start, we're going to ask you a few questions about how the game works. </p>","","0","instructions","","","","","","","","","","",""
"preload","51","250730","0.0-8.0-5.0","4495","2","14","Male","approach_avoid_spark_v1","""event"",""trial"",""time""
""fullscreenenter"",""1"",""2125""
","
","
","""event"",""trial"",""time""
""fullscreenenter"",""1"",""2125""
","
","true","false","[]","[]","[]","","","","","","","","","","","","","","","",""
"comp-q","52","256932","0.0-8.0-6.0-0.0","4495","2","14","Male","approach_avoid_spark_v1","""event"",""trial"",""time""
""fullscreenenter"",""1"",""2125""
","
","
","""event"",""trial"",""time""
""fullscreenenter"",""1"",""2125""
","
","","","","","","1199.7000000476837","<p> <b> True or False? </b> </p><p> If you see a number in GREY, that means you earned that many points. </p>","","0","comp_question","","","","","","","","","false","",""
"comp-q","53","267307","0.0-8.0-6.0-1.0","4495","2","14","Male","approach_avoid_spark_v1","""event"",""trial"",""time""
""fullscreenenter"",""1"",""2125""
","
","
","""event"",""trial"",""time""
""fullscreenenter"",""1"",""2125""
","
","","","","","","1565.2999999523163","<p><b> Incorrect. </b> If you see a grey number, it means you earned ZERO points. <br> The grey numbers show the points you WOULD HAVE earned if you had made the other choice. </p>","","0","comp_answer","","","","","","","","","","",""
"comp-q","54","273003","0.0-8.0-6.1-0.1","4495","2","14","Male","approach_avoid_spark_v1","""event"",""trial"",""time""
""fullscreenenter"",""1"",""2125""
","
","
","""event"",""trial"",""time""
""fullscreenenter"",""1"",""2125""
","
","","","","","","581.0999999046326","<p> <b> True or False? </b> </p><p> If you see a number in GREY, that means you earned that many points. </p>","","1","comp_question","","","","","","","","","true","",""
"comp-q","55","282052","0.0-8.0-6.1-1.1","4495","2","14","Male","approach_avoid_spark_v1","""event"",""trial"",""time""
""fullscreenenter"",""1"",""2125""
","
","
","""event"",""trial"",""time""
""fullscreenenter"",""1"",""2125""
","
","","","","","","670.5999999046326","<p><b> That's right! </b> If you see a grey number, it means you earned ZERO points. <br> The grey numbers show the points you WOULD HAVE earned if you had made the other choice. </p>","","0","comp_answer","","","","","","","","","","",""
"comp-q","56","287243","0.0-8.0-7.0-0.0","4495","2","14","Male","approach_avoid_spark_v1","""event"",""trial"",""time""
""fullscreenenter"",""1"",""2125""
","
","
","""event"",""trial"",""time""
""fullscreenenter"",""1"",""2125""
","
","","","","","","491.39999985694885","<p> <b> True or False? </b> </p><p> You will have as much time as you want to make each choice. </p>","","1","comp_question","","","","","","","","","true","",""
"comp-q","57","292908","0.0-8.0-7.0-1.0","4495","2","14","Male","approach_avoid_spark_v1","""event"",""trial"",""time""
""fullscreenenter"",""1"",""2125""
","
","
","""event"",""trial"",""time""
""fullscreenenter"",""1"",""2125""
","
","","","","","","1626.2000000476837","<p> <b> That's right! </b> You will only have 3 seconds to make each choice. </p>","","0","comp_answer","","","","","","","","","","",""
"comp-q","58","298068","0.0-8.0-8.0-0.0","4495","2","14","Male","approach_avoid_spark_v1","""event"",""trial"",""time""
""fullscreenenter"",""1"",""2125""
","
","
","""event"",""trial"",""time""
""fullscreenenter"",""1"",""2125""
","
","","","","","","496.09999990463257","<p> <b> True or False? </b> </p><p> You should use the '1' and '0' keys to make your choices. </p>","","0","comp_question","","","","","","","","","true","",""
"comp-q","59","304260","0.0-8.0-8.0-1.0","4495","2","14","Male","approach_avoid_spark_v1","""event"",""trial"",""time""
""fullscreenenter"",""1"",""2125""
","
","
","""event"",""trial"",""time""
""fullscreenenter"",""1"",""2125""
","
","","","","","","1567.8999998569489","<p> <b> That's right! </b> You should use the '1' and '0' keys to make each choice. </p>","","0","comp_answer","","","","","","","","","","",""
"learning-instructions","60","312004","0.0-8.0-9.0-0.0","4495","2","14","Male","approach_avoid_spark_v1","""event"",""trial"",""time""
""fullscreenenter"",""1"",""2125""
","
","
","""event"",""trial"",""time""
""fullscreenenter"",""1"",""2125""
","
","","","","","","1471.7000000476837","<p> It's now time to start the real game. </p>Do your best, because the points you earn in the next rounds will influence your bonus payment. </p>","","0","instructions","","","","","","","","","","",""
"preload","61","312120","0.0-9.0-0.0","4495","2","14","Male","approach_avoid_spark_v1","""event"",""trial"",""time""
""fullscreenenter"",""1"",""2125""
","
","
","""event"",""trial"",""time""
""fullscreenenter"",""1"",""2125""
","
","true","false","[]","[]","[]","","","","","","","","","","","","","","","",""
"learning-instructions","62","317427","0.0-9.0-1.0-0.0","4495","2","14","Male","approach_avoid_spark_v1","""event"",""trial"",""time""
""fullscreenenter"",""1"",""2125""
","
","
","""event"",""trial"",""time""
""fullscreenenter"",""1"",""2125""
","
","","","","","","1905.7999999523163","<p> Your goal in this round is to eat tasty fruit. </p></div>","","0","instructions","","","","","","","","","","",""
"learning-instructions","63","327819","0.0-9.0-1.0-0.1","4495","2","14","Male","approach_avoid_spark_v1","""event"",""trial"",""time""
""fullscreenenter"",""1"",""2125""
","
","
","""event"",""trial"",""time""
""fullscreenenter"",""1"",""2125""
","
","","","","","","957.5","<p> Some of the fruits you will see are tasty. Others are rotten on the inside.  </p><p> On each turn, you will see a fruit.   </p><p> You need to decide whether to eat it or not.  </p>","","0","instructions","","","","","","","","","","",""
"learning-instructions","64","334333","0.0-9.0-1.0-0.2","4495","2","14","Male","approach_avoid_spark_v1","""event"",""trial"",""time""
""fullscreenenter"",""1"",""2125""
","
","
","""event"",""trial"",""time""
""fullscreenenter"",""1"",""2125""
","
","","","","","","1560.2999999523163","<p> You can eat the fruit by pressing 1 and choose not to eat it by pressing 0. </p><br><div class=""choice-instructions-grid""> <div class=""choice-option""><img src=""images/approach.png"" class=""choice-option-img"" stage=""instructions"" position=""0"" ><div class=""choice-option-text""> Press ""1."" </div></div><div class=""choice-option""><img src=""images/avoid.png"" class=""choice-option-img"" stage=""instructions"" position=""1"" ><div class=""choice-option-text""> Press ""0."" </div></div>","","0","instructions","","","","","","","","","","",""
"learning-instructions","65","342547","0.0-9.0-1.0-0.3","4495","2","14","Male","approach_avoid_spark_v1","""event"",""trial"",""time""
""fullscreenenter"",""1"",""2125""
","
","
","""event"",""trial"",""time""
""fullscreenenter"",""1"",""2125""
","
","","","","","","1084.9000000953674","<p> If you eat the fruit and it was tasty, you will win points! </p><p> But if you eat the fruit and it was rotten, you will lose points. </p>","","0","instructions","","","","","","","","","","",""
"learning-instructions","66","354917","0.0-9.0-1.0-0.4","4495","2","14","Male","approach_avoid_spark_v1","""event"",""trial"",""time""
""fullscreenenter"",""1"",""2125""
","
","
","""event"",""trial"",""time""
""fullscreenenter"",""1"",""2125""
","
","","","","","","1125","<p> You will earn points based on how tasty or rotten the fruit was. </p><p> If it was tasty, you will WIN anywhere from 1 - 9 points, </p><p> but if it was rotten, you will LOSE anywhere from 1 - 9 points. </p>","","0","instructions","","","","","","","","","","",""
"learning-instructions","67","362879","0.0-9.0-1.0-0.5","4495","2","14","Male","approach_avoid_spark_v1","""event"",""trial"",""time""
""fullscreenenter"",""1"",""2125""
","
","
","""event"",""trial"",""time""
""fullscreenenter"",""1"",""2125""
","
","","","","","","657.2000000476837","<p> You will see how many points you won or lost in the center of the screen. </p><p> Here is what you would see if you earned 5 points: </p><p style=""color:green;font-size:50px;font-weight:bolder"">5</p>","","0","instructions","","","","","","","","","","",""
"learning-instructions","68","366830","0.0-9.0-1.0-0.6","4495","2","14","Male","approach_avoid_spark_v1","""event"",""trial"",""time""
""fullscreenenter"",""1"",""2125""
","
","
","""event"",""trial"",""time""
""fullscreenenter"",""1"",""2125""
","
","","","","","","638.1000001430511","<p> And here is what you would see if you lost 3 points: </p><p style=""color:red;font-size:50px;font-weight:bolder"">-3</p>","","0","instructions","","","","","","","","","","",""
"learning-instructions","69","382605","0.0-9.0-1.0-0.7","4495","2","14","Male","approach_avoid_spark_v1","""event"",""trial"",""time""
""fullscreenenter"",""1"",""2125""
","
","
","""event"",""trial"",""time""
""fullscreenenter"",""1"",""2125""
","
","","","","","","1893.2999999523163","<p> Some fruit is very tasty or very rotten. </p><p> These fruits will make you win or lose LOTS of points. </p><p> Other fruits are only kind of tasty or kind of rotten. </p><p> These fruits will make you win or lose small amounts of points. </p>","","0","instructions","","","","","","","","","","",""
"learning-instructions","70","397956","0.0-9.0-1.0-0.8","4495","2","14","Male","approach_avoid_spark_v1","""event"",""trial"",""time""
""fullscreenenter"",""1"",""2125""
","
","
","""event"",""trial"",""time""
""fullscreenenter"",""1"",""2125""
","
","","","","","","4964.599999904633","<p> If you choose to not eat the fruit, you will not win or lose any points. </p><p>  However, in the center of the screen, you will see the number of points you WOULD HAVE earned if you had eaten the fruit. </p>","","0","instructions","","","","","","","","","","",""
"learning-instructions","71","410931","0.0-9.0-1.0-0.9","4495","2","14","Male","approach_avoid_spark_v1","""event"",""trial"",""time""
""fullscreenenter"",""1"",""2125""
","
","
","""event"",""trial"",""time""
""fullscreenenter"",""1"",""2125""
","
","","","","","","2969.7000000476837","<p> Here is what you might see if you did not eat the fruit but the fruit was tasty: </p><p style=""color:grey; font-size:50px; display: inline-block; border-spacing: 15px; border-width:3px; border-style:solid; border-color:red"">  &nbsp; 6 &nbsp; </p><p> Remember, in this case, you would not win or lose ANY points because you did not eat the fruit.  </p>","","0","instructions","","","","","","","","","","",""
"learning-instructions","72","419988","0.0-9.0-1.0-0.10","4495","2","14","Male","approach_avoid_spark_v1","""event"",""trial"",""time""
""fullscreenenter"",""1"",""2125""
","
","
","""event"",""trial"",""time""
""fullscreenenter"",""1"",""2125""
","
","","","","","","865.7999999523163","<p> Try to make the best choice for each fruit because </p><p> at the end of the game, you will earn bonus money based on how many points you earned. </p>","","0","instructions","","","","","","","","","","",""
"learning-instructions","73","428945","0.0-9.0-1.0-0.11","4495","2","14","Male","approach_avoid_spark_v1","""event"",""trial"",""time""
""fullscreenenter"",""1"",""2125""
","
","
","""event"",""trial"",""time""
""fullscreenenter"",""1"",""2125""
","
","","","","","","753.5","<p> You will have 3 seconds to make each choice. Try to respond before time runs out! </p><p> You will lose 5 points each time you do not make a response. </p>","","0","instructions","","","","","","","","","","",""
"html-keyboard-response","74","429563","0.0-9.0-2.0-0.0","4495","2","14","Male","approach_avoid_spark_v1","""event"",""trial"",""time""
""fullscreenenter"",""1"",""2125""
","
","
","""event"",""trial"",""time""
""fullscreenenter"",""1"",""2125""
","
","","","","","","null","<div style=""font-size:60px;"">+</div>","null","","fixation","","","","","","","","","","",""
"aa-learning-trial","75","432572","0.0-9.0-2.0-1.0","4495","2","14","Male","approach_avoid_spark_v1","""event"",""trial"",""time""
""fullscreenenter"",""1"",""2125""
","
","
","""event"",""trial"",""time""
""fullscreenenter"",""1"",""2125""
","
","","","","","","1448.0999999046326","images/apple6.png","","","learning","5","5","1","1","apple","fruit","2","0","","good","[6]"
"html-keyboard-response","76","433074","0.0-9.0-2.0-0.1","4495","2","14","Male","approach_avoid_spark_v1","""event"",""trial"",""time""
""fullscreenenter"",""1"",""2125""
","
","
","""event"",""trial"",""time""
""fullscreenenter"",""1"",""2125""
","
","","","","","","null","<div style=""font-size:60px;"">+</div>","null","","fixation","","","","","","","","","","",""
"aa-learning-trial","77","436076","0.0-9.0-2.0-1.1","4495","2","14","Male","approach_avoid_spark_v1","""event"",""trial"",""time""
""fullscreenenter"",""1"",""2125""
","
","
","""event"",""trial"",""time""
""fullscreenenter"",""1"",""2125""
","
","","","","","","754.4000000953674","images/apple6.png","","","learning","5","5","1","1","apple","fruit","2","0","","good","[6]"
"html-keyboard-response","78","436589","0.0-9.0-2.0-0.2","4495","2","14","Male","approach_avoid_spark_v1","""event"",""trial"",""time""
""fullscreenenter"",""1"",""2125""
","
","
","""event"",""trial"",""time""
""fullscreenenter"",""1"",""2125""
","
","","","","","","null","<div style=""font-size:60px;"">+</div>","null","","fixation","","","","","","","","","","",""
"aa-learning-trial","79","439610","0.0-9.0-2.0-1.2","4495","2","14","Male","approach_avoid_spark_v1","""event"",""trial"",""time""
""fullscreenenter"",""1"",""2125""
","
","
","""event"",""trial"",""time""
""fullscreenenter"",""1"",""2125""
","
","","","","","","1190","images/banana6.png","","","learning","1","1","1","1","banana","fruit","2","0","","neutral","0"
"html-keyboard-response","80","440117","0.0-9.0-2.0-0.3","4495","2","14","Male","approach_avoid_spark_v1","""event"",""trial"",""time""
""fullscreenenter"",""1"",""2125""
","
","
","""event"",""trial"",""time""
""fullscreenenter"",""1"",""2125""
","
","","","","","","null","<div style=""font-size:60px;"">+</div>","null","","fixation","","","","","","","","","","",""
"aa-learning-trial","81","443130","0.0-9.0-2.0-1.3","4495","2","14","Male","approach_avoid_spark_v1","""event"",""trial"",""time""
""fullscreenenter"",""1"",""2125""
","
","
","""event"",""trial"",""time""
""fullscreenenter"",""1"",""2125""
","
","","","","","","1431.5","images/banana7.png","","","learning","9","9","1","1","banana","fruit","2","0","","neutral","0"
"html-keyboard-response","82","443639","0.0-9.0-2.0-0.4","4495","2","14","Male","approach_avoid_spark_v1","""event"",""trial"",""time""
""fullscreenenter"",""1"",""2125""
","
","
","""event"",""trial"",""time""
""fullscreenenter"",""1"",""2125""
","
","","","","","","null","<div style=""font-size:60px;"">+</div>","null","","fixation","","","","","","","","","","",""
"aa-learning-trial","83","446649","0.0-9.0-2.0-1.4","4495","2","14","Male","approach_avoid_spark_v1","""event"",""trial"",""time""
""fullscreenenter"",""1"",""2125""
","
","
","""event"",""trial"",""time""
""fullscreenenter"",""1"",""2125""
","
","","","","","","598.1000001430511","images/banana4.png","","","learning","4","4","1","1","banana","fruit","2","0","","neutral","0"
"html-keyboard-response","84","447171","0.0-9.0-2.0-0.5","4495","2","14","Male","approach_avoid_spark_v1","""event"",""trial"",""time""
""fullscreenenter"",""1"",""2125""
","
","
","""event"",""trial"",""time""
""fullscreenenter"",""1"",""2125""
","
","","","","","","null","<div style=""font-size:60px;"">+</div>","null","","fixation","","","","","","","","","","",""
"aa-learning-trial","85","450194","0.0-9.0-2.0-1.5","4495","2","14","Male","approach_avoid_spark_v1","""event"",""trial"",""time""
""fullscreenenter"",""1"",""2125""
","
","
","""event"",""trial"",""time""
""fullscreenenter"",""1"",""2125""
","
","","","","","","806.9000000953674","images/banana6.png","","","learning","1","1","1","1","banana","fruit","2","0","","neutral","0"
"html-keyboard-response","86","450702","0.0-9.0-2.0-0.6","4495","2","14","Male","approach_avoid_spark_v1","""event"",""trial"",""time""
""fullscreenenter"",""1"",""2125""
","
","
","""event"",""trial"",""time""
""fullscreenenter"",""1"",""2125""
","
","","","","","","null","<div style=""font-size:60px;"">+</div>","null","","fixation","","","","","","","","","","",""
"aa-learning-trial","87","453722","0.0-9.0-2.0-1.6","4495","2","14","Male","approach_avoid_spark_v1","""event"",""trial"",""time""
""fullscreenenter"",""1"",""2125""
","
","
","""event"",""trial"",""time""
""fullscreenenter"",""1"",""2125""
","
","","","","","","915.7999999523163","images/banana4.png","","","learning","4","4","1","1","banana","fruit","2","0","","neutral","0"
"html-keyboard-response","88","454243","0.0-9.0-2.0-0.7","4495","2","14","Male","approach_avoid_spark_v1","""event"",""trial"",""time""
""fullscreenenter"",""1"",""2125""
","
","
","""event"",""trial"",""time""
""fullscreenenter"",""1"",""2125""
","
","","","","","","null","<div style=""font-size:60px;"">+</div>","null","","fixation","","","","","","","","","","",""
"aa-learning-trial","89","457264","0.0-9.0-2.0-1.7","4495","2","14","Male","approach_avoid_spark_v1","""event"",""trial"",""time""
""fullscreenenter"",""1"",""2125""
","
","
","""event"",""trial"",""time""
""fullscreenenter"",""1"",""2125""
","
","","","","","","1705.2999999523163","images/orange1.png","","","learning","-8","-8","1","1","orange","fruit","2","0","","bad","[-5]"
"html-keyboard-response","90","457783","0.0-9.0-2.0-0.8","4495","2","14","Male","approach_avoid_spark_v1","""event"",""trial"",""time""
""fullscreenenter"",""1"",""2125""
","
","
","""event"",""trial"",""time""
""fullscreenenter"",""1"",""2125""
","
","","","","","","null","<div style=""font-size:60px;"">+</div>","null","","fixation","","","","","","","","","","",""
"aa-learning-trial","91","460787","0.0-9.0-2.0-1.8","4495","2","14","Male","approach_avoid_spark_v1","""event"",""trial"",""time""
""fullscreenenter"",""1"",""2125""
","
","
","""event"",""trial"",""time""
""fullscreenenter"",""1"",""2125""
","
","","","","","","2018.2999999523163","images/apple7.png","","","learning","7","7","1","1","apple","fruit","2","0","","good","[6]"
"html-keyboard-response","92","461291","0.0-9.0-2.0-0.9","4495","2","14","Male","approach_avoid_spark_v1","""event"",""trial"",""time""
""fullscreenenter"",""1"",""2125""
","
","
","""event"",""trial"",""time""
""fullscreenenter"",""1"",""2125""
","
","","","","","","null","<div style=""font-size:60px;"">+</div>","null","","fixation","","","","","","","","","","",""
"aa-learning-trial","93","464300","0.0-9.0-2.0-1.9","4495","2","14","Male","approach_avoid_spark_v1","""event"",""trial"",""time""
""fullscreenenter"",""1"",""2125""
","
","
","""event"",""trial"",""time""
""fullscreenenter"",""1"",""2125""
","
","","","","","","977.8000001907349","images/orange2.png","","","learning","2","-5","2","","orange","fruit","2","0","","bad","[-5]"
"html-keyboard-response","94","464805","0.0-9.0-2.0-0.10","4495","2","14","Male","approach_avoid_spark_v1","""event"",""trial"",""time""
""fullscreenenter"",""1"",""2125""
","
","
","""event"",""trial"",""time""
""fullscreenenter"",""1"",""2125""
","
","","","","","","null","<div style=""font-size:60px;"">+</div>","null","","fixation","","","","","","","","","","",""
"aa-learning-trial","95","467812","0.0-9.0-2.0-1.10","4495","2","14","Male","approach_avoid_spark_v1","""event"",""trial"",""time""
""fullscreenenter"",""1"",""2125""
","
","
","""event"",""trial"",""time""
""fullscreenenter"",""1"",""2125""
","
","","","","","","542.7000000476837","images/orange1.png","","","learning","-8","0","0","0","orange","fruit","2","0","","bad","[-5]"
"html-keyboard-response","96","468315","0.0-9.0-2.0-0.11","4495","2","14","Male","approach_avoid_spark_v1","""event"",""trial"",""time""
""fullscreenenter"",""1"",""2125""
","
","
","""event"",""trial"",""time""
""fullscreenenter"",""1"",""2125""
","
","","","","","","null","<div style=""font-size:60px;"">+</div>","null","","fixation","","","","","","","","","","",""
"aa-learning-trial","97","471324","0.0-9.0-2.0-1.11","4495","2","14","Male","approach_avoid_spark_v1","""event"",""trial"",""time""
""fullscreenenter"",""1"",""2125""
","
","
","""event"",""trial"",""time""
""fullscreenenter"",""1"",""2125""
","
","","","","","","613.4000000953674","images/orange4.png","","","learning","3","0","0","0","orange","fruit","2","0","","bad","[-5]"
"html-keyboard-response","98","471829","0.0-9.0-2.0-0.12","4495","2","14","Male","approach_avoid_spark_v1","""event"",""trial"",""time""
""fullscreenenter"",""1"",""2125""
","
","
","""event"",""trial"",""time""
""fullscreenenter"",""1"",""2125""
","
","","","","","","null","<div style=""font-size:60px;"">+</div>","null","","fixation","","","","","","","","","","",""
"aa-learning-trial","99","474835","0.0-9.0-2.0-1.12","4495","2","14","Male","approach_avoid_spark_v1","""event"",""trial"",""time""
""fullscreenenter"",""1"",""2125""
","
","
","""event"",""trial"",""time""
""fullscreenenter"",""1"",""2125""
","
","","","","","","1423.2999999523163","images/apple5.png","","","learning","-1","-1","1","1","apple","fruit","2","0","","good","[6]"
"html-keyboard-response","100","475339","0.0-9.0-2.0-0.13","4495","2","14","Male","approach_avoid_spark_v1","""event"",""trial"",""time""
""fullscreenenter"",""1"",""2125""
","
","
","""event"",""trial"",""time""
""fullscreenenter"",""1"",""2125""
","
","","","","","","null","<div style=""font-size:60px;"">+</div>","null","","fixation","","","","","","","","","","",""
"aa-learning-trial","101","478348","0.0-9.0-2.0-1.13","4495","2","14","Male","approach_avoid_spark_v1","""event"",""trial"",""time""
""fullscreenenter"",""1"",""2125""
","
","
","""event"",""trial"",""time""
""fullscreenenter"",""1"",""2125""
","
","","","","","","1032.6000001430511","images/apple7.png","","","learning","7","7","1","1","apple","fruit","2","0","","good","[6]"
"html-keyboard-response","102","478851","0.0-9.0-2.0-0.14","4495","2","14","Male","approach_avoid_spark_v1","""event"",""trial"",""time""
""fullscreenenter"",""1"",""2125""
","
","
","""event"",""trial"",""time""
""fullscreenenter"",""1"",""2125""
","
","","","","","","null","<div style=""font-size:60px;"">+</div>","null","","fixation","","","","","","","","","","",""
"aa-learning-trial","103","481860","0.0-9.0-2.0-1.14","4495","2","14","Male","approach_avoid_spark_v1","""event"",""trial"",""time""
""fullscreenenter"",""1"",""2125""
","
","
","""event"",""trial"",""time""
""fullscreenenter"",""1"",""2125""
","
","","","","","","1429.2999999523163","images/orange2.png","","","learning","2","0","0","0","orange","fruit","2","0","","bad","[-5]"
"html-keyboard-response","104","482363","0.0-9.0-2.0-0.15","4495","2","14","Male","approach_avoid_spark_v1","""event"",""trial"",""time""
""fullscreenenter"",""1"",""2125""
","
","
","""event"",""trial"",""time""
""fullscreenenter"",""1"",""2125""
","
","","","","","","null","<div style=""font-size:60px;"">+</div>","null","","fixation","","","","","","","","","","",""
"aa-learning-trial","105","485371","0.0-9.0-2.0-1.15","4495","2","14","Male","approach_avoid_spark_v1","""event"",""trial"",""time""
""fullscreenenter"",""1"",""2125""
","
","
","""event"",""trial"",""time""
""fullscreenenter"",""1"",""2125""
","
","","","","","","923.3000001907349","images/banana4.png","","","learning","4","4","1","1","banana","fruit","2","0","","neutral","0"
"html-keyboard-response","106","485875","0.0-9.0-2.0-0.16","4495","2","14","Male","approach_avoid_spark_v1","""event"",""trial"",""time""
""fullscreenenter"",""1"",""2125""
","
","
","""event"",""trial"",""time""
""fullscreenenter"",""1"",""2125""
","
","","","","","","null","<div style=""font-size:60px;"">+</div>","null","","fixation","","","","","","","","","","",""
"aa-learning-trial","107","488884","0.0-9.0-2.0-1.16","4495","2","14","Male","approach_avoid_spark_v1","""event"",""trial"",""time""
""fullscreenenter"",""1"",""2125""
","
","
","""event"",""trial"",""time""
""fullscreenenter"",""1"",""2125""
","
","","","","","","1570.8999998569489","images/orange2.png","","","learning","2","0","0","0","orange","fruit","2","0","","bad","[-5]"
"html-keyboard-response","108","489387","0.0-9.0-2.0-0.17","4495","2","14","Male","approach_avoid_spark_v1","""event"",""trial"",""time""
""fullscreenenter"",""1"",""2125""
","
","
","""event"",""trial"",""time""
""fullscreenenter"",""1"",""2125""
","
","","","","","","null","<div style=""font-size:60px;"">+</div>","null","","fixation","","","","","","","","","","",""
"aa-learning-trial","109","492396","0.0-9.0-2.0-1.17","4495","2","14","Male","approach_avoid_spark_v1","""event"",""trial"",""time""
""fullscreenenter"",""1"",""2125""
","
","
","""event"",""trial"",""time""
""fullscreenenter"",""1"",""2125""
","
","","","","","","1508.5999999046326","images/banana1.png","","","learning","-7","-7","1","1","banana","fruit","2","0","","neutral","0"
"html-keyboard-response","110","492900","0.0-9.0-2.0-0.18","4495","2","14","Male","approach_avoid_spark_v1","""event"",""trial"",""time""
""fullscreenenter"",""1"",""2125""
","
","
","""event"",""trial"",""time""
""fullscreenenter"",""1"",""2125""
","
","","","","","","null","<div style=""font-size:60px;"">+</div>","null","","fixation","","","","","","","","","","",""
"aa-learning-trial","111","495910","0.0-9.0-2.0-1.18","4495","2","14","Male","approach_avoid_spark_v1","""event"",""trial"",""time""
""fullscreenenter"",""1"",""2125""
","
","
","""event"",""trial"",""time""
""fullscreenenter"",""1"",""2125""
","
","","","","","","788.5999999046326","images/banana4.png","","","learning","4","4","1","1","banana","fruit","2","0","","neutral","0"
"html-keyboard-response","112","496411","0.0-9.0-2.0-0.19","4495","2","14","Male","approach_avoid_spark_v1","""event"",""trial"",""time""
""fullscreenenter"",""1"",""2125""
","
","
","""event"",""trial"",""time""
""fullscreenenter"",""1"",""2125""
","
","","","","","","null","<div style=""font-size:60px;"">+</div>","null","","fixation","","","","","","","","","","",""
"aa-learning-trial","113","499419","0.0-9.0-2.0-1.19","4495","2","14","Male","approach_avoid_spark_v1","""event"",""trial"",""time""
""fullscreenenter"",""1"",""2125""
","
","
","""event"",""trial"",""time""
""fullscreenenter"",""1"",""2125""
","
","","","","","","1254.4000000953674","images/orange2.png","","","learning","2","2","1","1","orange","fruit","2","0","","bad","[-5]"
"html-keyboard-response","114","499923","0.0-9.0-2.0-0.20","4495","2","14","Male","approach_avoid_spark_v1","""event"",""trial"",""time""
""fullscreenenter"",""1"",""2125""
","
","
","""event"",""trial"",""time""
""fullscreenenter"",""1"",""2125""
","
","","","","","","null","<div style=""font-size:60px;"">+</div>","null","","fixation","","","","","","","","","","",""
"aa-learning-trial","115","502932","0.0-9.0-2.0-1.20","4495","2","14","Male","approach_avoid_spark_v1","""event"",""trial"",""time""
""fullscreenenter"",""1"",""2125""
","
","
","""event"",""trial"",""time""
""fullscreenenter"",""1"",""2125""
","
","","","","","","920.6000001430511","images/banana5.png","","","learning","-5","-5","1","1","banana","fruit","2","0","","neutral","0"
"html-keyboard-response","116","503436","0.0-9.0-2.0-0.21","4495","2","14","Male","approach_avoid_spark_v1","""event"",""trial"",""time""
""fullscreenenter"",""1"",""2125""
","
","
","""event"",""trial"",""time""
""fullscreenenter"",""1"",""2125""
","
","","","","","","null","<div style=""font-size:60px;"">+</div>","null","","fixation","","","","","","","","","","",""
"aa-learning-trial","117","506443","0.0-9.0-2.0-1.21","4495","2","14","Male","approach_avoid_spark_v1","""event"",""trial"",""time""
""fullscreenenter"",""1"",""2125""
","
","
","""event"",""trial"",""time""
""fullscreenenter"",""1"",""2125""
","
","","","","","","1046.3000001907349","images/banana6.png","","","learning","1","1","1","1","banana","fruit","2","0","","neutral","0"
"html-keyboard-response","118","506947","0.0-9.0-2.0-0.22","4495","2","14","Male","approach_avoid_spark_v1","""event"",""trial"",""time""
""fullscreenenter"",""1"",""2125""
","
","
","""event"",""trial"",""time""
""fullscreenenter"",""1"",""2125""
","
","","","","","","null","<div style=""font-size:60px;"">+</div>","null","","fixation","","","","","","","","","","",""
"aa-learning-trial","119","509957","0.0-9.0-2.0-1.22","4495","2","14","Male","approach_avoid_spark_v1","""event"",""trial"",""time""
""fullscreenenter"",""1"",""2125""
","
","
","""event"",""trial"",""time""
""fullscreenenter"",""1"",""2125""
","
","","","","","","2099.2999999523163","images/apple1.png","","","learning","-6","0","0","0","apple","fruit","2","0","","good","[6]"
"html-keyboard-response","120","510459","0.0-9.0-2.0-0.23","4495","2","14","Male","approach_avoid_spark_v1","""event"",""trial"",""time""
""fullscreenenter"",""1"",""2125""
","
","
","""event"",""trial"",""time""
""fullscreenenter"",""1"",""2125""
","
","","","","","","null","<div style=""font-size:60px;"">+</div>","null","","fixation","","","","","","","","","","",""
"aa-learning-trial","121","513467","0.0-9.0-2.0-1.23","4495","2","14","Male","approach_avoid_spark_v1","""event"",""trial"",""time""
""fullscreenenter"",""1"",""2125""
","
","
","""event"",""trial"",""time""
""fullscreenenter"",""1"",""2125""
","
","","","","","","1552","images/apple7.png","","","learning","7","7","1","1","apple","fruit","2","0","","good","[6]"
"html-keyboard-response","122","513971","0.0-9.0-2.0-0.24","4495","2","14","Male","approach_avoid_spark_v1","""event"",""trial"",""time""
""fullscreenenter"",""1"",""2125""
","
","
","""event"",""trial"",""time""
""fullscreenenter"",""1"",""2125""
","
","","","","","","null","<div style=""font-size:60px;"">+</div>","null","","fixation","","","","","","","","","","",""
"aa-learning-trial","123","516979","0.0-9.0-2.0-1.24","4495","2","14","Male","approach_avoid_spark_v1","""event"",""trial"",""time""
""fullscreenenter"",""1"",""2125""
","
","
","""event"",""trial"",""time""
""fullscreenenter"",""1"",""2125""
","
","","","","","","1225.6000001430511","images/apple6.png","","","learning","5","0","0","0","apple","fruit","2","0","","good","[6]"
"html-keyboard-response","124","517484","0.0-9.0-2.0-0.25","4495","2","14","Male","approach_avoid_spark_v1","""event"",""trial"",""time""
""fullscreenenter"",""1"",""2125""
","
","
","""event"",""trial"",""time""
""fullscreenenter"",""1"",""2125""
","
","","","","","","null","<div style=""font-size:60px;"">+</div>","null","","fixation","","","","","","","","","","",""
"aa-learning-trial","125","520491","0.0-9.0-2.0-1.25","4495","2","14","Male","approach_avoid_spark_v1","""event"",""trial"",""time""
""fullscreenenter"",""1"",""2125""
","
","
","""event"",""trial"",""time""
""fullscreenenter"",""1"",""2125""
","
","","","","","","1014.2999999523163","images/orange2.png","","","learning","2","0","0","0","orange","fruit","2","0","","bad","[-5]"
"html-keyboard-response","126","520996","0.0-9.0-2.0-0.26","4495","2","14","Male","approach_avoid_spark_v1","""event"",""trial"",""time""
""fullscreenenter"",""1"",""2125""
","
","
","""event"",""trial"",""time""
""fullscreenenter"",""1"",""2125""
","
","","","","","","null","<div style=""font-size:60px;"">+</div>","null","","fixation","","","","","","","","","","",""
"aa-learning-trial","127","524003","0.0-9.0-2.0-1.26","4495","2","14","Male","approach_avoid_spark_v1","""event"",""trial"",""time""
""fullscreenenter"",""1"",""2125""
","
","
","""event"",""trial"",""time""
""fullscreenenter"",""1"",""2125""
","
","","","","","","1496.2999999523163","images/banana7.png","","","learning","9","0","0","0","banana","fruit","2","0","","neutral","0"
"html-keyboard-response","128","524517","0.0-9.0-2.0-0.27","4495","2","14","Male","approach_avoid_spark_v1","""event"",""trial"",""time""
""fullscreenenter"",""1"",""2125""
","
","
","""event"",""trial"",""time""
""fullscreenenter"",""1"",""2125""
","
","","","","","","null","<div style=""font-size:60px;"">+</div>","null","","fixation","","","","","","","","","","",""
"aa-learning-trial","129","527523","0.0-9.0-2.0-1.27","4495","2","14","Male","approach_avoid_spark_v1","""event"",""trial"",""time""
""fullscreenenter"",""1"",""2125""
","
","
","""event"",""trial"",""time""
""fullscreenenter"",""1"",""2125""
","
","","","","","","724.5","images/banana6.png","","","learning","1","1","1","1","banana","fruit","2","0","","neutral","0"
"html-keyboard-response","130","528034","0.0-9.0-2.0-0.28","4495","2","14","Male","approach_avoid_spark_v1","""event"",""trial"",""time""
""fullscreenenter"",""1"",""2125""
","
","
","""event"",""trial"",""time""
""fullscreenenter"",""1"",""2125""
","
","","","","","","null","<div style=""font-size:60px;"">+</div>","null","","fixation","","","","","","","","","","",""
"aa-learning-trial","131","531044","0.0-9.0-2.0-1.28","4495","2","14","Male","approach_avoid_spark_v1","""event"",""trial"",""time""
""fullscreenenter"",""1"",""2125""
","
","
","""event"",""trial"",""time""
""fullscreenenter"",""1"",""2125""
","
","","","","","","906.6999998092651","images/orange7.png","","","learning","-4","-4","1","1","orange","fruit","2","0","","bad","[-5]"
"html-keyboard-response","132","531548","0.0-9.0-2.0-0.29","4495","2","14","Male","approach_avoid_spark_v1","""event"",""trial"",""time""
""fullscreenenter"",""1"",""2125""
","
","
","""event"",""trial"",""time""
""fullscreenenter"",""1"",""2125""
","
","","","","","","null","<div style=""font-size:60px;"">+</div>","null","","fixation","","","","","","","","","","",""
"aa-learning-trial","133","534556","0.0-9.0-2.0-1.29","4495","2","14","Male","approach_avoid_spark_v1","""event"",""trial"",""time""
""fullscreenenter"",""1"",""2125""
","
","
","""event"",""trial"",""time""
""fullscreenenter"",""1"",""2125""
","
","","","","","","571.3999998569489","images/banana4.png","","","learning","4","4","1","1","banana","fruit","2","0","","neutral","0"
"html-keyboard-response","134","535059","0.0-9.0-2.0-0.30","4495","2","14","Male","approach_avoid_spark_v1","""event"",""trial"",""time""
""fullscreenenter"",""1"",""2125""
","
","
","""event"",""trial"",""time""
""fullscreenenter"",""1"",""2125""
","
","","","","","","null","<div style=""font-size:60px;"">+</div>","null","","fixation","","","","","","","","","","",""
"aa-learning-trial","135","538069","0.0-9.0-2.0-1.30","4495","2","14","Male","approach_avoid_spark_v1","""event"",""trial"",""time""
""fullscreenenter"",""1"",""2125""
","
","
","""event"",""trial"",""time""
""fullscreenenter"",""1"",""2125""
","
","","","","","","1102.3000001907349","images/orange1.png","","","learning","-8","0","0","0","orange","fruit","2","0","","bad","[-5]"
"html-keyboard-response","136","538572","0.0-9.0-2.0-0.31","4495","2","14","Male","approach_avoid_spark_v1","""event"",""trial"",""time""
""fullscreenenter"",""1"",""2125""
","
","
","""event"",""trial"",""time""
""fullscreenenter"",""1"",""2125""
","
","","","","","","null","<div style=""font-size:60px;"">+</div>","null","","fixation","","","","","","","","","","",""
"aa-learning-trial","137","541581","0.0-9.0-2.0-1.31","4495","2","14","Male","approach_avoid_spark_v1","""event"",""trial"",""time""
""fullscreenenter"",""1"",""2125""
","
","
","""event"",""trial"",""time""
""fullscreenenter"",""1"",""2125""
","
","","","","","","1633.3999998569489","images/apple5.png","","","learning","-1","0","0","0","apple","fruit","2","0","","good","[6]"
"html-keyboard-response","138","542084","0.0-9.0-2.0-0.32","4495","2","14","Male","approach_avoid_spark_v1","""event"",""trial"",""time""
""fullscreenenter"",""1"",""2125""
","
","
","""event"",""trial"",""time""
""fullscreenenter"",""1"",""2125""
","
","","","","","","null","<div style=""font-size:60px;"">+</div>","null","","fixation","","","","","","","","","","",""
"aa-learning-trial","139","545092","0.0-9.0-2.0-1.32","4495","2","14","Male","approach_avoid_spark_v1","""event"",""trial"",""time""
""fullscreenenter"",""1"",""2125""
","
","
","""event"",""trial"",""time""
""fullscreenenter"",""1"",""2125""
","
","","","","","","1331.8000001907349","images/orange1.png","","","learning","-8","-8","1","1","orange","fruit","2","0","","bad","[-5]"
"html-keyboard-response","140","545595","0.0-9.0-2.0-0.33","4495","2","14","Male","approach_avoid_spark_v1","""event"",""trial"",""time""
""fullscreenenter"",""1"",""2125""
","
","
","""event"",""trial"",""time""
""fullscreenenter"",""1"",""2125""
","
","","","","","","null","<div style=""font-size:60px;"">+</div>","null","","fixation","","","","","","","","","","",""
"aa-learning-trial","141","548604","0.0-9.0-2.0-1.33","4495","2","14","Male","approach_avoid_spark_v1","""event"",""trial"",""time""
""fullscreenenter"",""1"",""2125""
","
","
","""event"",""trial"",""time""
""fullscreenenter"",""1"",""2125""
","
","","","","","","1647","images/apple7.png","","","learning","7","7","1","1","apple","fruit","2","0","","good","[6]"
"html-keyboard-response","142","549108","0.0-9.0-2.0-0.34","4495","2","14","Male","approach_avoid_spark_v1","""event"",""trial"",""time""
""fullscreenenter"",""1"",""2125""
","
","
","""event"",""trial"",""time""
""fullscreenenter"",""1"",""2125""
","
","","","","","","null","<div style=""font-size:60px;"">+</div>","null","","fixation","","","","","","","","","","",""
"aa-learning-trial","143","552120","0.0-9.0-2.0-1.34","4495","2","14","Male","approach_avoid_spark_v1","""event"",""trial"",""time""
""fullscreenenter"",""1"",""2125""
","
","
","""event"",""trial"",""time""
""fullscreenenter"",""1"",""2125""
","
","","","","","","1017.4000000953674","images/apple2.png","","","learning","-3","0","0","0","apple","fruit","2","0","","good","[6]"
"html-keyboard-response","144","552629","0.0-9.0-2.0-0.35","4495","2","14","Male","approach_avoid_spark_v1","""event"",""trial"",""time""
""fullscreenenter"",""1"",""2125""
","
","
","""event"",""trial"",""time""
""fullscreenenter"",""1"",""2125""
","
","","","","","","null","<div style=""font-size:60px;"">+</div>","null","","fixation","","","","","","","","","","",""
"aa-learning-trial","145","555636","0.0-9.0-2.0-1.35","4495","2","14","Male","approach_avoid_spark_v1","""event"",""trial"",""time""
""fullscreenenter"",""1"",""2125""
","
","
","""event"",""trial"",""time""
""fullscreenenter"",""1"",""2125""
","
","","","","","","612.4000000953674","images/banana4.png","","","learning","4","4","1","1","banana","fruit","2","0","","neutral","0"
"html-keyboard-response","146","556155","0.0-9.0-2.0-0.36","4495","2","14","Male","approach_avoid_spark_v1","""event"",""trial"",""time""
""fullscreenenter"",""1"",""2125""
","
","
","""event"",""trial"",""time""
""fullscreenenter"",""1"",""2125""
","
","","","","","","null","<div style=""font-size:60px;"">+</div>","null","","fixation","","","","","","","","","","",""
"aa-learning-trial","147","559164","0.0-9.0-2.0-1.36","4495","2","14","Male","approach_avoid_spark_v1","""event"",""trial"",""time""
""fullscreenenter"",""1"",""2125""
","
","
","""event"",""trial"",""time""
""fullscreenenter"",""1"",""2125""
","
","","","","","","1646.2000000476837","images/orange4.png","","","learning","3","0","0","0","orange","fruit","2","0","","bad","[-5]"
"html-keyboard-response","148","559668","0.0-9.0-2.0-0.37","4495","2","14","Male","approach_avoid_spark_v1","""event"",""trial"",""time""
""fullscreenenter"",""1"",""2125""
","
","
","""event"",""trial"",""time""
""fullscreenenter"",""1"",""2125""
","
","","","","","","null","<div style=""font-size:60px;"">+</div>","null","","fixation","","","","","","","","","","",""
"aa-learning-trial","149","562676","0.0-9.0-2.0-1.37","4495","2","14","Male","approach_avoid_spark_v1","""event"",""trial"",""time""
""fullscreenenter"",""1"",""2125""
","
","
","""event"",""trial"",""time""
""fullscreenenter"",""1"",""2125""
","
","","","","","","1464","images/apple7.png","","","learning","7","7","1","1","apple","fruit","2","0","","good","[6]"
"html-keyboard-response","150","563179","0.0-9.0-2.0-0.38","4495","2","14","Male","approach_avoid_spark_v1","""event"",""trial"",""time""
""fullscreenenter"",""1"",""2125""
","
","
","""event"",""trial"",""time""
""fullscreenenter"",""1"",""2125""
","
","","","","","","null","<div style=""font-size:60px;"">+</div>","null","","fixation","","","","","","","","","","",""
"aa-learning-trial","151","566202","0.0-9.0-2.0-1.38","4495","2","14","Male","approach_avoid_spark_v1","""event"",""trial"",""time""
""fullscreenenter"",""1"",""2125""
","
","
","""event"",""trial"",""time""
""fullscreenenter"",""1"",""2125""
","
","","","","","","1223.2999999523163","images/orange1.png","","","learning","-8","0","0","0","orange","fruit","2","0","","bad","[-5]"
"html-keyboard-response","152","566708","0.0-9.0-2.0-0.39","4495","2","14","Male","approach_avoid_spark_v1","""event"",""trial"",""time""
""fullscreenenter"",""1"",""2125""
","
","
","""event"",""trial"",""time""
""fullscreenenter"",""1"",""2125""
","
","","","","","","null","<div style=""font-size:60px;"">+</div>","null","","fixation","","","","","","","","","","",""
"aa-learning-trial","153","569716","0.0-9.0-2.0-1.39","4495","2","14","Male","approach_avoid_spark_v1","""event"",""trial"",""time""
""fullscreenenter"",""1"",""2125""
","
","
","""event"",""trial"",""time""
""fullscreenenter"",""1"",""2125""
","
","","","","","","995.6000001430511","images/orange4.png","","","learning","3","0","0","0","orange","fruit","2","0","","bad","[-5]"
"html-keyboard-response","154","570220","0.0-9.0-2.0-0.40","4495","2","14","Male","approach_avoid_spark_v1","""event"",""trial"",""time""
""fullscreenenter"",""1"",""2125""
","
","
","""event"",""trial"",""time""
""fullscreenenter"",""1"",""2125""
","
","","","","","","null","<div style=""font-size:60px;"">+</div>","null","","fixation","","","","","","","","","","",""
"aa-learning-trial","155","573228","0.0-9.0-2.0-1.40","4495","2","14","Male","approach_avoid_spark_v1","""event"",""trial"",""time""
""fullscreenenter"",""1"",""2125""
","
","
","""event"",""trial"",""time""
""fullscreenenter"",""1"",""2125""
","
","","","","","","1543.8999998569489","images/apple6.png","","","learning","5","5","1","1","apple","fruit","2","0","","good","[6]"
"html-keyboard-response","156","573732","0.0-9.0-2.0-0.41","4495","2","14","Male","approach_avoid_spark_v1","""event"",""trial"",""time""
""fullscreenenter"",""1"",""2125""
","
","
","""event"",""trial"",""time""
""fullscreenenter"",""1"",""2125""
","
","","","","","","null","<div style=""font-size:60px;"">+</div>","null","","fixation","","","","","","","","","","",""
"aa-learning-trial","157","576740","0.0-9.0-2.0-1.41","4495","2","14","Male","approach_avoid_spark_v1","""event"",""trial"",""time""
""fullscreenenter"",""1"",""2125""
","
","
","""event"",""trial"",""time""
""fullscreenenter"",""1"",""2125""
","
","","","","","","2190.199999809265","images/orange1.png","","","learning","-8","-8","1","1","orange","fruit","2","0","","bad","[-5]"
"html-keyboard-response","158","577245","0.0-9.0-2.0-0.42","4495","2","14","Male","approach_avoid_spark_v1","""event"",""trial"",""time""
""fullscreenenter"",""1"",""2125""
","
","
","""event"",""trial"",""time""
""fullscreenenter"",""1"",""2125""
","
","","","","","","null","<div style=""font-size:60px;"">+</div>","null","","fixation","","","","","","","","","","",""
"aa-learning-trial","159","580253","0.0-9.0-2.0-1.42","4495","2","14","Male","approach_avoid_spark_v1","""event"",""trial"",""time""
""fullscreenenter"",""1"",""2125""
","
","
","""event"",""trial"",""time""
""fullscreenenter"",""1"",""2125""
","
","","","","","","1329.2000000476837","images/apple7.png","","","learning","7","0","0","0","apple","fruit","2","0","","good","[6]"
"html-keyboard-response","160","580755","0.0-9.0-2.0-0.43","4495","2","14","Male","approach_avoid_spark_v1","""event"",""trial"",""time""
""fullscreenenter"",""1"",""2125""
","
","
","""event"",""trial"",""time""
""fullscreenenter"",""1"",""2125""
","
","","","","","","null","<div style=""font-size:60px;"">+</div>","null","","fixation","","","","","","","","","","",""
"aa-learning-trial","161","583760","0.0-9.0-2.0-1.43","4495","2","14","Male","approach_avoid_spark_v1","""event"",""trial"",""time""
""fullscreenenter"",""1"",""2125""
","
","
","""event"",""trial"",""time""
""fullscreenenter"",""1"",""2125""
","
","","","","","","1898.5","images/orange3.png","","","learning","8","8","1","1","orange","fruit","2","0","","bad","[-5]"
"html-keyboard-response","162","584267","0.0-9.0-2.0-0.44","4495","2","14","Male","approach_avoid_spark_v1","""event"",""trial"",""time""
""fullscreenenter"",""1"",""2125""
","
","
","""event"",""trial"",""time""
""fullscreenenter"",""1"",""2125""
","
","","","","","","null","<div style=""font-size:60px;"">+</div>","null","","fixation","","","","","","","","","","",""
"aa-learning-trial","163","587275","0.0-9.0-2.0-1.44","4495","2","14","Male","approach_avoid_spark_v1","""event"",""trial"",""time""
""fullscreenenter"",""1"",""2125""
","
","
","""event"",""trial"",""time""
""fullscreenenter"",""1"",""2125""
","
","","","","","","1128.0999999046326","images/apple5.png","","","learning","-1","-1","1","1","apple","fruit","2","0","","good","[6]"
"html-keyboard-response","164","587780","0.0-9.0-2.0-0.45","4495","2","14","Male","approach_avoid_spark_v1","""event"",""trial"",""time""
""fullscreenenter"",""1"",""2125""
","
","
","""event"",""trial"",""time""
""fullscreenenter"",""1"",""2125""
","
","","","","","","null","<div style=""font-size:60px;"">+</div>","null","","fixation","","","","","","","","","","",""
"aa-learning-trial","165","590788","0.0-9.0-2.0-1.45","4495","2","14","Male","approach_avoid_spark_v1","""event"",""trial"",""time""
""fullscreenenter"",""1"",""2125""
","
","
","""event"",""trial"",""time""
""fullscreenenter"",""1"",""2125""
","
","","","","","","1096","images/banana7.png","","","learning","9","0","0","0","banana","fruit","2","0","","neutral","0"
"html-keyboard-response","166","591292","0.0-9.0-2.0-0.46","4495","2","14","Male","approach_avoid_spark_v1","""event"",""trial"",""time""
""fullscreenenter"",""1"",""2125""
","
","
","""event"",""trial"",""time""
""fullscreenenter"",""1"",""2125""
","
","","","","","","null","<div style=""font-size:60px;"">+</div>","null","","fixation","","","","","","","","","","",""
"aa-learning-trial","167","594300","0.0-9.0-2.0-1.46","4495","2","14","Male","approach_avoid_spark_v1","""event"",""trial"",""time""
""fullscreenenter"",""1"",""2125""
","
","
","""event"",""trial"",""time""
""fullscreenenter"",""1"",""2125""
","
","","","","","","1281.0999999046326","images/banana6.png","","","learning","1","1","1","1","banana","fruit","2","0","","neutral","0"
"html-keyboard-response","168","594813","0.0-9.0-2.0-0.47","4495","2","14","Male","approach_avoid_spark_v1","""event"",""trial"",""time""
""fullscreenenter"",""1"",""2125""
","
","
","""event"",""trial"",""time""
""fullscreenenter"",""1"",""2125""
","
","","","","","","null","<div style=""font-size:60px;"">+</div>","null","","fixation","","","","","","","","","","",""
"aa-learning-trial","169","597833","0.0-9.0-2.0-1.47","4495","2","14","Male","approach_avoid_spark_v1","""event"",""trial"",""time""
""fullscreenenter"",""1"",""2125""
","
","
","""event"",""trial"",""time""
""fullscreenenter"",""1"",""2125""
","
","","","","","","393.19999980926514","images/banana6.png","","","learning","1","1","1","1","banana","fruit","2","0","","neutral","0"
"html-keyboard-response","170","598341","0.0-9.0-2.0-0.48","4495","2","14","Male","approach_avoid_spark_v1","""event"",""trial"",""time""
""fullscreenenter"",""1"",""2125""
","
","
","""event"",""trial"",""time""
""fullscreenenter"",""1"",""2125""
","
","","","","","","null","<div style=""font-size:60px;"">+</div>","null","","fixation","","","","","","","","","","",""
"aa-learning-trial","171","601348","0.0-9.0-2.0-1.48","4495","2","14","Male","approach_avoid_spark_v1","""event"",""trial"",""time""
""fullscreenenter"",""1"",""2125""
","
","
","""event"",""trial"",""time""
""fullscreenenter"",""1"",""2125""
","
","","","","","","910.9000000953674","images/orange2.png","","","learning","2","2","1","1","orange","fruit","2","0","","bad","[-5]"
"html-keyboard-response","172","601852","0.0-9.0-2.0-0.49","4495","2","14","Male","approach_avoid_spark_v1","""event"",""trial"",""time""
""fullscreenenter"",""1"",""2125""
","
","
","""event"",""trial"",""time""
""fullscreenenter"",""1"",""2125""
","
","","","","","","null","<div style=""font-size:60px;"">+</div>","null","","fixation","","","","","","","","","","",""
"aa-learning-trial","173","604859","0.0-9.0-2.0-1.49","4495","2","14","Male","approach_avoid_spark_v1","""event"",""trial"",""time""
""fullscreenenter"",""1"",""2125""
","
","
","""event"",""trial"",""time""
""fullscreenenter"",""1"",""2125""
","
","","","","","","1405.5","images/apple6.png","","","learning","5","5","1","1","apple","fruit","2","0","","good","[6]"
"html-keyboard-response","174","605363","0.0-9.0-2.0-0.50","4495","2","14","Male","approach_avoid_spark_v1","""event"",""trial"",""time""
""fullscreenenter"",""1"",""2125""
","
","
","""event"",""trial"",""time""
""fullscreenenter"",""1"",""2125""
","
","","","","","","null","<div style=""font-size:60px;"">+</div>","null","","fixation","","","","","","","","","","",""
"aa-learning-trial","175","608372","0.0-9.0-2.0-1.50","4495","2","14","Male","approach_avoid_spark_v1","""event"",""trial"",""time""
""fullscreenenter"",""1"",""2125""
","
","
","""event"",""trial"",""time""
""fullscreenenter"",""1"",""2125""
","
","","","","","","392.5","images/apple6.png","","","learning","5","5","1","1","apple","fruit","2","0","","good","[6]"
"html-button-response","176","610170","0.0-9.0-3.0","4495","2","14","Male","approach_avoid_spark_v1","""event"",""trial"",""time""
""fullscreenenter"",""1"",""2125""
","
","
","""event"",""trial"",""time""
""fullscreenenter"",""1"",""2125""
","
","","","","","","1795.9000000953674","<p> You have completed the round! <p> In this round, you earned 64 points! </p>","0","","break","","","","","","","","","","",""
"html-button-response","177","611352","0.0-10.0","4495","2","14","Male","approach_avoid_spark_v1","""event"",""trial"",""time""
""fullscreenenter"",""1"",""2125""
","
","
","""event"",""trial"",""time""
""fullscreenenter"",""1"",""2125""
","
","","","","","","1181.1000001430511","<p> Now it's time to play another round. </p>","0","","transition_screen","","","","","","","","","","",""
"preload","178","611471","0.0-11.0-0.0","4495","2","14","Male","approach_avoid_spark_v1","""event"",""trial"",""time""
""fullscreenenter"",""1"",""2125""
","
","
","""event"",""trial"",""time""
""fullscreenenter"",""1"",""2125""
","
","true","false","[]","[]","[]","","","","","","","","","","","","","","","",""
"learning-instructions","179","619403","0.0-11.0-1.0-0.0","4495","2","14","Male","approach_avoid_spark_v1","""event"",""trial"",""time""
""fullscreenenter"",""1"",""2125""
","
","
","""event"",""trial"",""time""
""fullscreenenter"",""1"",""2125""
","
","","","","","","2719.600000143051","<p> Your goal in this round is to take care of lots of farm animals. </p></div>","","0","instructions","","","","","","","","","","",""
"learning-instructions","180","631027","0.0-11.0-1.0-0.1","4495","2","14","Male","approach_avoid_spark_v1","""event"",""trial"",""time""
""fullscreenenter"",""1"",""2125""
","
","
","""event"",""trial"",""time""
""fullscreenenter"",""1"",""2125""
","
","","","","","","1933.7999999523163","<p> Some farm animals are hungry, while other farm animals are already full.  </p><p> On each turn, you will see a farm animal.   </p><p> You need to decide whether to feed it or not.  </p>","","0","instructions","","","","","","","","","","",""
"learning-instructions","181","640234","0.0-11.0-1.0-0.2","4495","2","14","Male","approach_avoid_spark_v1","""event"",""trial"",""time""
""fullscreenenter"",""1"",""2125""
","
","
","""event"",""trial"",""time""
""fullscreenenter"",""1"",""2125""
","
","","","","","","3389.7000000476837","<p> You can feed the farm animal by pressing 1 and leave the farm animal alone by pressing 0. </p><br><div class=""choice-instructions-grid""> <div class=""choice-option""><img src=""images/approach.png"" class=""choice-option-img"" stage=""instructions"" position=""0"" ><div class=""choice-option-text""> Press ""1."" </div></div><div class=""choice-option""><img src=""images/avoid.png"" class=""choice-option-img"" stage=""instructions"" position=""1"" ><div class=""choice-option-text""> Press ""0."" </div></div>","","0","instructions","","","","","","","","","","",""
"learning-instructions","182","652011","0.0-11.0-1.0-0.3","4495","2","14","Male","approach_avoid_spark_v1","""event"",""trial"",""time""
""fullscreenenter"",""1"",""2125""
","
","
","""event"",""trial"",""time""
""fullscreenenter"",""1"",""2125""
","
","","","","","","2237.2000000476837","<p> If you feed a hungry farm animal, you will make it feel satisfied! </p><p> But if you feed the farm animal and it was already full, you will make it feel sick. </p>","","0","instructions","","","","","","","","","","",""
"learning-instructions","183","665258","0.0-11.0-1.0-0.4","4495","2","14","Male","approach_avoid_spark_v1","""event"",""trial"",""time""
""fullscreenenter"",""1"",""2125""
","
","
","""event"",""trial"",""time""
""fullscreenenter"",""1"",""2125""
","
","","","","","","864.2999999523163","<p> You will earn points based on how you made the farm animal feel. </p><p> If you made it satisfied, you will WIN anywhere from 1 - 9 points, </p><p> but if you made it sick, you will LOSE anywhere from 1 - 9 points. </p>","","0","instructions","","","","","","","","","","",""
"learning-instructions","184","672066","0.0-11.0-1.0-0.5","4495","2","14","Male","approach_avoid_spark_v1","""event"",""trial"",""time""
""fullscreenenter"",""1"",""2125""
","
","
","""event"",""trial"",""time""
""fullscreenenter"",""1"",""2125""
","
","","","","","","152.79999995231628","<p> You will see how many points you won or lost in the center of the screen. </p><p> Here is what you would see if you won 5 points: </p><p style=""color:green;font-size:50px;font-weight:bolder"">5</p>","","0","instructions","","","","","","","","","","",""
"learning-instructions","185","675435","0.0-11.0-1.0-0.6","4495","2","14","Male","approach_avoid_spark_v1","""event"",""trial"",""time""
""fullscreenenter"",""1"",""2125""
","
","
","""event"",""trial"",""time""
""fullscreenenter"",""1"",""2125""
","
","","","","","","511.80000019073486","<p> And here is what you would see if you lost 3 points: </p><p style=""color:red;font-size:50px;font-weight:bolder"">-3</p>","","0","instructions","","","","","","","","","","",""
"learning-instructions","186","693769","0.0-11.0-1.0-0.7","4495","2","14","Male","approach_avoid_spark_v1","""event"",""trial"",""time""
""fullscreenenter"",""1"",""2125""
","
","
","""event"",""trial"",""time""
""fullscreenenter"",""1"",""2125""
","
","","","","","","1145.8000001907349","<p> Some farm animals will become very satisfied or very sick. </p><p> These farm animals will make you win or lose LOTS of points. </p><p> Other farm animals have less strong feelings. </p><p> These farm animals will make you win or lose small amounts of points. </p>","","0","instructions","","","","","","","","","","",""
"learning-instructions","187","707171","0.0-11.0-1.0-0.8","4495","2","14","Male","approach_avoid_spark_v1","""event"",""trial"",""time""
""fullscreenenter"",""1"",""2125""
","
","
","""event"",""trial"",""time""
""fullscreenenter"",""1"",""2125""
","
","","","","","","377.39999985694885","<p> If you choose to leave the farm animal alone, you will not win or lose any points. </p><p>  However, in the center of the screen, you will see the number of points you WOULD HAVE won or lost if you had fed the farm animal. </p>","","0","instructions","","","","","","","","","","",""
"learning-instructions","188","720114","0.0-11.0-1.0-0.9","4495","2","14","Male","approach_avoid_spark_v1","""event"",""trial"",""time""
""fullscreenenter"",""1"",""2125""
","
","
","""event"",""trial"",""time""
""fullscreenenter"",""1"",""2125""
","
","","","","","","680.3999998569489","<p> Here is what you might see if you did not feed the farm animal but the animal was hungry: </p><p style=""color:grey; font-size:50px; display: inline-block; border-spacing: 15px; border-width:3px; border-style:solid; border-color:red"">  &nbsp; 6 &nbsp; </p><p> Remember, in this case, you would not win or lose ANY points because you did not feed the farm animal.  </p>","","0","instructions","","","","","","","","","","",""
"learning-instructions","189","730667","0.0-11.0-1.0-0.10","4495","2","14","Male","approach_avoid_spark_v1","""event"",""trial"",""time""
""fullscreenenter"",""1"",""2125""
","
","
","""event"",""trial"",""time""
""fullscreenenter"",""1"",""2125""
","
","","","","","","1923.2999999523163","<p> Try to make the best choice for each farm animal because </p><p> at the end of the game, you will earn bonus money based on how many points you earned. </p>","","0","instructions","","","","","","","","","","",""
"learning-instructions","190","739451","0.0-11.0-1.0-0.11","4495","2","14","Male","approach_avoid_spark_v1","""event"",""trial"",""time""
""fullscreenenter"",""1"",""2125""
","
","
","""event"",""trial"",""time""
""fullscreenenter"",""1"",""2125""
","
","","","","","","587.5","<p> You will have 3 seconds to make each choice. Try to respond before time runs out! </p><p> You will lose 5 points each time you do not make a response. </p>","","0","instructions","","","","","","","","","","",""
"html-keyboard-response","191","740081","0.0-11.0-2.0-0.0","4495","2","14","Male","approach_avoid_spark_v1","""event"",""trial"",""time""
""fullscreenenter"",""1"",""2125""
","
","
","""event"",""trial"",""time""
""fullscreenenter"",""1"",""2125""
","
","","","","","","null","<div style=""font-size:60px;"">+</div>","null","","fixation","","","","","","","","","","",""
"aa-learning-trial","192","743091","0.0-11.0-2.0-1.0","4495","2","14","Male","approach_avoid_spark_v1","""event"",""trial"",""time""
""fullscreenenter"",""1"",""2125""
","
","
","""event"",""trial"",""time""
""fullscreenenter"",""1"",""2125""
","
","","","","","","2425","images/horse2.png","","","learning","[-1]","-5","meta","","horse","animals","1","1","","neutral","0"
"html-keyboard-response","193","743602","0.0-11.0-2.0-0.1","4495","2","14","Male","approach_avoid_spark_v1","""event"",""trial"",""time""
""fullscreenenter"",""1"",""2125""
","
","
","""event"",""trial"",""time""
""fullscreenenter"",""1"",""2125""
","
","","","","","","null","<div style=""font-size:60px;"">+</div>","null","","fixation","","","","","","","","","","",""
"aa-learning-trial","194","746612","0.0-11.0-2.0-1.1","4495","2","14","Male","approach_avoid_spark_v1","""event"",""trial"",""time""
""fullscreenenter"",""1"",""2125""
","
","
","""event"",""trial"",""time""
""fullscreenenter"",""1"",""2125""
","
","","","","","","1613.6000001430511","images/cow3.png","","","learning","3","3","1","1","cow","animals","1","1","","good","[3]"
"html-keyboard-response","195","747114","0.0-11.0-2.0-0.2","4495","2","14","Male","approach_avoid_spark_v1","""event"",""trial"",""time""
""fullscreenenter"",""1"",""2125""
","
","
","""event"",""trial"",""time""
""fullscreenenter"",""1"",""2125""
","
","","","","","","null","<div style=""font-size:60px;"">+</div>","null","","fixation","","","","","","","","","","",""
"aa-learning-trial","196","750131","0.0-11.0-2.0-1.2","4495","2","14","Male","approach_avoid_spark_v1","""event"",""trial"",""time""
""fullscreenenter"",""1"",""2125""
","
","
","""event"",""trial"",""time""
""fullscreenenter"",""1"",""2125""
","
","","","","","","2259.5999999046326","images/horse1.png","","","learning","-1","0","0","0","horse","animals","1","1","","neutral","0"
"html-keyboard-response","197","750651","0.0-11.0-2.0-0.3","4495","2","14","Male","approach_avoid_spark_v1","""event"",""trial"",""time""
""fullscreenenter"",""1"",""2125""
","
","
","""event"",""trial"",""time""
""fullscreenenter"",""1"",""2125""
","
","","","","","","null","<div style=""font-size:60px;"">+</div>","null","","fixation","","","","","","","","","","",""
"aa-learning-trial","198","753664","0.0-11.0-2.0-1.3","4495","2","14","Male","approach_avoid_spark_v1","""event"",""trial"",""time""
""fullscreenenter"",""1"",""2125""
","
","
","""event"",""trial"",""time""
""fullscreenenter"",""1"",""2125""
","
","","","","","","1349.5999999046326","images/goat1.png","","","learning","-3","-3","1","1","goat","animals","1","1","","bad","[-6]"
"html-keyboard-response","199","754174","0.0-11.0-2.0-0.4","4495","2","14","Male","approach_avoid_spark_v1","""event"",""trial"",""time""
""fullscreenenter"",""1"",""2125""
","
","
","""event"",""trial"",""time""
""fullscreenenter"",""1"",""2125""
","
","","","","","","null","<div style=""font-size:60px;"">+</div>","null","","fixation","","","","","","","","","","",""
"aa-learning-trial","200","757184","0.0-11.0-2.0-1.4","4495","2","14","Male","approach_avoid_spark_v1","""event"",""trial"",""time""
""fullscreenenter"",""1"",""2125""
","
","
","""event"",""trial"",""time""
""fullscreenenter"",""1"",""2125""
","
","","","","","","1862.5","images/cow1.png","","","learning","1","1","1","1","cow","animals","1","1","","good","[3]"
"html-keyboard-response","201","757691","0.0-11.0-2.0-0.5","4495","2","14","Male","approach_avoid_spark_v1","""event"",""trial"",""time""
""fullscreenenter"",""1"",""2125""
","
","
","""event"",""trial"",""time""
""fullscreenenter"",""1"",""2125""
","
","","","","","","null","<div style=""font-size:60px;"">+</div>","null","","fixation","","","","","","","","","","",""
"aa-learning-trial","202","760699","0.0-11.0-2.0-1.5","4495","2","14","Male","approach_avoid_spark_v1","""event"",""trial"",""time""
""fullscreenenter"",""1"",""2125""
","
","
","""event"",""trial"",""time""
""fullscreenenter"",""1"",""2125""
","
","","","","","","1075.5999999046326","images/horse2.png","","","learning","[-1]","0","0","0","horse","animals","1","1","","neutral","0"
"html-keyboard-response","203","761219","0.0-11.0-2.0-0.6","4495","2","14","Male","approach_avoid_spark_v1","""event"",""trial"",""time""
""fullscreenenter"",""1"",""2125""
","
","
","""event"",""trial"",""time""
""fullscreenenter"",""1"",""2125""
","
","","","","","","null","<div style=""font-size:60px;"">+</div>","null","","fixation","","","","","","","","","","",""
"aa-learning-trial","204","764237","0.0-11.0-2.0-1.6","4495","2","14","Male","approach_avoid_spark_v1","""event"",""trial"",""time""
""fullscreenenter"",""1"",""2125""
","
","
","""event"",""trial"",""time""
""fullscreenenter"",""1"",""2125""
","
","","","","","","1203.2000000476837","images/goat3.png","","","learning","-7","-7","1","1","goat","animals","1","1","","bad","[-6]"
"html-keyboard-response","205","764751","0.0-11.0-2.0-0.7","4495","2","14","Male","approach_avoid_spark_v1","""event"",""trial"",""time""
""fullscreenenter"",""1"",""2125""
","
","
","""event"",""trial"",""time""
""fullscreenenter"",""1"",""2125""
","
","","","","","","null","<div style=""font-size:60px;"">+</div>","null","","fixation","","","","","","","","","","",""
"aa-learning-trial","206","767766","0.0-11.0-2.0-1.7","4495","2","14","Male","approach_avoid_spark_v1","""event"",""trial"",""time""
""fullscreenenter"",""1"",""2125""
","
","
","""event"",""trial"",""time""
""fullscreenenter"",""1"",""2125""
","
","","","","","","1078.8999998569489","images/cow7.png","","","learning","1","1","1","1","cow","animals","1","1","","good","[3]"
"html-keyboard-response","207","768281","0.0-11.0-2.0-0.8","4495","2","14","Male","approach_avoid_spark_v1","""event"",""trial"",""time""
""fullscreenenter"",""1"",""2125""
","
","
","""event"",""trial"",""time""
""fullscreenenter"",""1"",""2125""
","
","","","","","","null","<div style=""font-size:60px;"">+</div>","null","","fixation","","","","","","","","","","",""
"aa-learning-trial","208","771291","0.0-11.0-2.0-1.8","4495","2","14","Male","approach_avoid_spark_v1","""event"",""trial"",""time""
""fullscreenenter"",""1"",""2125""
","
","
","""event"",""trial"",""time""
""fullscreenenter"",""1"",""2125""
","
","","","","","","1135.2999999523163","images/horse1.png","","","learning","[-1]","0","0","0","horse","animals","1","1","","neutral","0"
"html-keyboard-response","209","771795","0.0-11.0-2.0-0.9","4495","2","14","Male","approach_avoid_spark_v1","""event"",""trial"",""time""
""fullscreenenter"",""1"",""2125""
","
","
","""event"",""trial"",""time""
""fullscreenenter"",""1"",""2125""
","
","","","","","","null","<div style=""font-size:60px;"">+</div>","null","","fixation","","","","","","","","","","",""
"aa-learning-trial","210","774803","0.0-11.0-2.0-1.9","4495","2","14","Male","approach_avoid_spark_v1","""event"",""trial"",""time""
""fullscreenenter"",""1"",""2125""
","
","
","""event"",""trial"",""time""
""fullscreenenter"",""1"",""2125""
","
","","","","","","1090.4000000953674","images/cow1.png","","","learning","2","2","1","1","cow","animals","1","1","","good","[3]"
"html-keyboard-response","211","775307","0.0-11.0-2.0-0.10","4495","2","14","Male","approach_avoid_spark_v1","""event"",""trial"",""time""
""fullscreenenter"",""1"",""2125""
","
","
","""event"",""trial"",""time""
""fullscreenenter"",""1"",""2125""
","
","","","","","","null","<div style=""font-size:60px;"">+</div>","null","","fixation","","","","","","","","","","",""
"aa-learning-trial","212","778316","0.0-11.0-2.0-1.10","4495","2","14","Male","approach_avoid_spark_v1","""event"",""trial"",""time""
""fullscreenenter"",""1"",""2125""
","
","
","""event"",""trial"",""time""
""fullscreenenter"",""1"",""2125""
","
","","","","","","1259.2000000476837","images/horse3.png","","","learning","2","0","0","0","horse","animals","1","1","","neutral","0"
"html-keyboard-response","213","778819","0.0-11.0-2.0-0.11","4495","2","14","Male","approach_avoid_spark_v1","""event"",""trial"",""time""
""fullscreenenter"",""1"",""2125""
","
","
","""event"",""trial"",""time""
""fullscreenenter"",""1"",""2125""
","
","","","","","","null","<div style=""font-size:60px;"">+</div>","null","","fixation","","","","","","","","","","",""
"aa-learning-trial","214","781828","0.0-11.0-2.0-1.11","4495","2","14","Male","approach_avoid_spark_v1","""event"",""trial"",""time""
""fullscreenenter"",""1"",""2125""
","
","
","""event"",""trial"",""time""
""fullscreenenter"",""1"",""2125""
","
","","","","","","950.2000000476837","images/cow7.png","","","learning","1","1","1","1","cow","animals","1","1","","good","[3]"
"html-keyboard-response","215","782331","0.0-11.0-2.0-0.12","4495","2","14","Male","approach_avoid_spark_v1","""event"",""trial"",""time""
""fullscreenenter"",""1"",""2125""
","
","
","""event"",""trial"",""time""
""fullscreenenter"",""1"",""2125""
","
","","","","","","null","<div style=""font-size:60px;"">+</div>","null","","fixation","","","","","","","","","","",""
"aa-learning-trial","216","785343","0.0-11.0-2.0-1.12","4495","2","14","Male","approach_avoid_spark_v1","""event"",""trial"",""time""
""fullscreenenter"",""1"",""2125""
","
","
","""event"",""trial"",""time""
""fullscreenenter"",""1"",""2125""
","
","","","","","","854.3000001907349","images/goat1.png","","","learning","-8","-8","1","1","goat","animals","1","1","","bad","[-6]"
"html-keyboard-response","217","785851","0.0-11.0-2.0-0.13","4495","2","14","Male","approach_avoid_spark_v1","""event"",""trial"",""time""
""fullscreenenter"",""1"",""2125""
","
","
","""event"",""trial"",""time""
""fullscreenenter"",""1"",""2125""
","
","","","","","","null","<div style=""font-size:60px;"">+</div>","null","","fixation","","","","","","","","","","",""
"aa-learning-trial","218","788860","0.0-11.0-2.0-1.13","4495","2","14","Male","approach_avoid_spark_v1","""event"",""trial"",""time""
""fullscreenenter"",""1"",""2125""
","
","
","""event"",""trial"",""time""
""fullscreenenter"",""1"",""2125""
","
","","","","","","1623.2999999523163","images/goat8.png","","","learning","-7","-7","1","1","goat","animals","1","1","","bad","[-6]"
"html-keyboard-response","219","789363","0.0-11.0-2.0-0.14","4495","2","14","Male","approach_avoid_spark_v1","""event"",""trial"",""time""
""fullscreenenter"",""1"",""2125""
","
","
","""event"",""trial"",""time""
""fullscreenenter"",""1"",""2125""
","
","","","","","","null","<div style=""font-size:60px;"">+</div>","null","","fixation","","","","","","","","","","",""
"aa-learning-trial","220","792372","0.0-11.0-2.0-1.14","4495","2","14","Male","approach_avoid_spark_v1","""event"",""trial"",""time""
""fullscreenenter"",""1"",""2125""
","
","
","""event"",""trial"",""time""
""fullscreenenter"",""1"",""2125""
","
","","","","","","909.7000000476837","images/goat8.png","","","learning","-7","0","0","0","goat","animals","1","1","","bad","[-6]"
"html-keyboard-response","221","792876","0.0-11.0-2.0-0.15","4495","2","14","Male","approach_avoid_spark_v1","""event"",""trial"",""time""
""fullscreenenter"",""1"",""2125""
","
","
","""event"",""trial"",""time""
""fullscreenenter"",""1"",""2125""
","
","","","","","","null","<div style=""font-size:60px;"">+</div>","null","","fixation","","","","","","","","","","",""
"aa-learning-trial","222","795884","0.0-11.0-2.0-1.15","4495","2","14","Male","approach_avoid_spark_v1","""event"",""trial"",""time""
""fullscreenenter"",""1"",""2125""
","
","
","""event"",""trial"",""time""
""fullscreenenter"",""1"",""2125""
","
","","","","","","1117.5","images/horse7.png","","","learning","1","1","1","1","horse","animals","1","1","","neutral","0"
"html-keyboard-response","223","796398","0.0-11.0-2.0-0.16","4495","2","14","Male","approach_avoid_spark_v1","""event"",""trial"",""time""
""fullscreenenter"",""1"",""2125""
","
","
","""event"",""trial"",""time""
""fullscreenenter"",""1"",""2125""
","
","","","","","","null","<div style=""font-size:60px;"">+</div>","null","","fixation","","","","","","","","","","",""
"aa-learning-trial","224","799404","0.0-11.0-2.0-1.16","4495","2","14","Male","approach_avoid_spark_v1","""event"",""trial"",""time""
""fullscreenenter"",""1"",""2125""
","
","
","""event"",""trial"",""time""
""fullscreenenter"",""1"",""2125""
","
","","","","","","993.8000001907349","images/cow6.png","","","learning","1","1","1","1","cow","animals","1","1","","good","[3]"
"html-keyboard-response","225","799909","0.0-11.0-2.0-0.17","4495","2","14","Male","approach_avoid_spark_v1","""event"",""trial"",""time""
""fullscreenenter"",""1"",""2125""
","
","
","""event"",""trial"",""time""
""fullscreenenter"",""1"",""2125""
","
","","","","","","null","<div style=""font-size:60px;"">+</div>","null","","fixation","","","","","","","","","","",""
"aa-learning-trial","226","802915","0.0-11.0-2.0-1.17","4495","2","14","Male","approach_avoid_spark_v1","""event"",""trial"",""time""
""fullscreenenter"",""1"",""2125""
","
","
","""event"",""trial"",""time""
""fullscreenenter"",""1"",""2125""
","
","","","","","","690.2000000476837","images/horse2.png","","","learning","-2","0","0","0","horse","animals","1","1","","neutral","0"
"html-keyboard-response","227","803420","0.0-11.0-2.0-0.18","4495","2","14","Male","approach_avoid_spark_v1","""event"",""trial"",""time""
""fullscreenenter"",""1"",""2125""
","
","
","""event"",""trial"",""time""
""fullscreenenter"",""1"",""2125""
","
","","","","","","null","<div style=""font-size:60px;"">+</div>","null","","fixation","","","","","","","","","","",""
"aa-learning-trial","228","806427","0.0-11.0-2.0-1.18","4495","2","14","Male","approach_avoid_spark_v1","""event"",""trial"",""time""
""fullscreenenter"",""1"",""2125""
","
","
","""event"",""trial"",""time""
""fullscreenenter"",""1"",""2125""
","
","","","","","","857.7999999523163","images/cow1.png","","","learning","3","3","1","1","cow","animals","1","1","","good","[3]"
"html-keyboard-response","229","806931","0.0-11.0-2.0-0.19","4495","2","14","Male","approach_avoid_spark_v1","""event"",""trial"",""time""
""fullscreenenter"",""1"",""2125""
","
","
","""event"",""trial"",""time""
""fullscreenenter"",""1"",""2125""
","
","","","","","","null","<div style=""font-size:60px;"">+</div>","null","","fixation","","","","","","","","","","",""
"aa-learning-trial","230","809938","0.0-11.0-2.0-1.19","4495","2","14","Male","approach_avoid_spark_v1","""event"",""trial"",""time""
""fullscreenenter"",""1"",""2125""
","
","
","""event"",""trial"",""time""
""fullscreenenter"",""1"",""2125""
","
","","","","","","762.7999999523163","images/horse1.png","","","learning","-2","0","0","0","horse","animals","1","1","","neutral","0"
"html-keyboard-response","231","810444","0.0-11.0-2.0-0.20","4495","2","14","Male","approach_avoid_spark_v1","""event"",""trial"",""time""
""fullscreenenter"",""1"",""2125""
","
","
","""event"",""trial"",""time""
""fullscreenenter"",""1"",""2125""
","
","","","","","","null","<div style=""font-size:60px;"">+</div>","null","","fixation","","","","","","","","","","",""
"aa-learning-trial","232","813452","0.0-11.0-2.0-1.20","4495","2","14","Male","approach_avoid_spark_v1","""event"",""trial"",""time""
""fullscreenenter"",""1"",""2125""
","
","
","""event"",""trial"",""time""
""fullscreenenter"",""1"",""2125""
","
","","","","","","1085.3999998569489","images/goat4.png","","","learning","-5","-5","1","1","goat","animals","1","1","","bad","[-6]"
"html-keyboard-response","233","813971","0.0-11.0-2.0-0.21","4495","2","14","Male","approach_avoid_spark_v1","""event"",""trial"",""time""
""fullscreenenter"",""1"",""2125""
","
","
","""event"",""trial"",""time""
""fullscreenenter"",""1"",""2125""
","
","","","","","","null","<div style=""font-size:60px;"">+</div>","null","","fixation","","","","","","","","","","",""
"aa-learning-trial","234","816979","0.0-11.0-2.0-1.21","4495","2","14","Male","approach_avoid_spark_v1","""event"",""trial"",""time""
""fullscreenenter"",""1"",""2125""
","
","
","""event"",""trial"",""time""
""fullscreenenter"",""1"",""2125""
","
","","","","","","738","images/horse2.png","","","learning","-1","0","0","0","horse","animals","1","1","","neutral","0"
"html-keyboard-response","235","817483","0.0-11.0-2.0-0.22","4495","2","14","Male","approach_avoid_spark_v1","""event"",""trial"",""time""
""fullscreenenter"",""1"",""2125""
","
","
","""event"",""trial"",""time""
""fullscreenenter"",""1"",""2125""
","
","","","","","","null","<div style=""font-size:60px;"">+</div>","null","","fixation","","","","","","","","","","",""
"aa-learning-trial","236","820492","0.0-11.0-2.0-1.22","4495","2","14","Male","approach_avoid_spark_v1","""event"",""trial"",""time""
""fullscreenenter"",""1"",""2125""
","
","
","""event"",""trial"",""time""
""fullscreenenter"",""1"",""2125""
","
","","","","","","953.9000000953674","images/cow1.png","","","learning","6","6","1","1","cow","animals","1","1","","good","[3]"
"html-keyboard-response","237","820996","0.0-11.0-2.0-0.23","4495","2","14","Male","approach_avoid_spark_v1","""event"",""trial"",""time""
""fullscreenenter"",""1"",""2125""
","
","
