"trial_type","trial_index","time_elapsed","internal_node_id","subject_id","task_condition","age","gender","task_version","interactions","blur_events","focus_events","fullscreenenter_events","fullscreenexit_events","success","timeout","failed_images","failed_audio","failed_video","rt","stimulus","response","button_pressed","task_part","approach_reward","points","key_press","option_selected","stim_cat","task_block","block_condition","block_number","correct","cat_type","mean_cat_reward"
"pavlovia","0","3","0.0-0.0","3722","1","10","Female","approach_avoid_spark_v1","""event"",""trial"",""time""
""fullscreenenter"",""1"",""1960""
","
","
","""event"",""trial"",""time""
""fullscreenenter"",""1"",""1960""
","
","","","","","","","","","","","","","","","","","","","","",""
"fullscreen","1","2942","0.0-1.0","3722","1","10","Female","approach_avoid_spark_v1","""event"",""trial"",""time""
""fullscreenenter"",""1"",""1960""
","
","
","""event"",""trial"",""time""
""fullscreenenter"",""1"",""1960""
","
","true","","","","","","","","","","","","","","","","","","","",""
"preload","2","6625","0.0-2.0","3722","1","10","Female","approach_avoid_spark_v1","""event"",""trial"",""time""
""fullscreenenter"",""1"",""1960""
","
","
","""event"",""trial"",""time""
""fullscreenenter"",""1"",""1960""
","
","true","false","[]","[]","[]","","","","","","","","","","","","","","","",""
"audio-keyboard-response","3","10686","0.0-3.0","3722","1","10","Female","approach_avoid_spark_v1","""event"",""trial"",""time""
""fullscreenenter"",""1"",""1960""
","
","
","""event"",""trial"",""time""
""fullscreenenter"",""1"",""1960""
","
","","","","","","4058.6666666666665","audio/beep_loop.wav"," ","","","","","","","","","","","","",""
"audio-button-response","4","14085","0.0-4.0","3722","1","10","Female","approach_avoid_spark_v1","""event"",""trial"",""time""
""fullscreenenter"",""1"",""1960""
","
","
","""event"",""trial"",""time""
""fullscreenenter"",""1"",""1960""
","
","","","","","","3400","audio/shark.wav","4","","","","","","","","","","","","",""
"audio-button-response","5","16613","0.0-5.0","3722","1","10","Female","approach_avoid_spark_v1","""event"",""trial"",""time""
""fullscreenenter"",""1"",""1960""
","
","
","""event"",""trial"",""time""
""fullscreenenter"",""1"",""1960""
","
","","","","","","1531","audio/turtle.wav","1","","","","","","","","","","","","",""
"preload","6","19669","0.0-6.0","3722","1","10","Female","approach_avoid_spark_v1","""event"",""trial"",""time""
""fullscreenenter"",""1"",""1960""
","
","
","""event"",""trial"",""time""
""fullscreenenter"",""1"",""1960""
","
","true","false","[]","[]","[]","","","","","","","","","","","","","","","",""
"html-keyboard-response","7","25654","0.0-7.0","3722","1","10","Female","approach_avoid_spark_v1","""event"",""trial"",""time""
""fullscreenenter"",""1"",""1960""
","
","
","""event"",""trial"",""time""
""fullscreenenter"",""1"",""1960""
","
","","","","","","5983.899999976158","Welcome to the experiment. Press any key to begin and to advance the instructions.","g","","","","","","","","","","","","",""
"learning-instructions","8","34838","0.0-8.0-0.0-0.0","3722","1","10","Female","approach_avoid_spark_v1","""event"",""trial"",""time""
""fullscreenenter"",""1"",""1960""
","
","
","""event"",""trial"",""time""
""fullscreenenter"",""1"",""1960""
","
","","","","","","2229.0999999046326","<p> Welcome! Today you are going to play 6 different rounds of a decision-making game. </p><p> Use the mouse to click next to continue. </p>","","0","instructions","","","","","","","","","","",""
"learning-instructions","9","40181","0.0-8.0-0.0-0.1","3722","1","10","Female","approach_avoid_spark_v1","""event"",""trial"",""time""
""fullscreenenter"",""1"",""1960""
","
","
","""event"",""trial"",""time""
""fullscreenenter"",""1"",""1960""
","
","","","","","","2602.9000000953674","<p> You will start with a practice round to learn the rules. </p>","","0","instructions","","","","","","","","","","",""
"learning-instructions","10","44398","0.0-8.0-0.0-0.2","3722","1","10","Female","approach_avoid_spark_v1","""event"",""trial"",""time""
""fullscreenenter"",""1"",""1960""
","
","
","""event"",""trial"",""time""
""fullscreenenter"",""1"",""1960""
","
","","","","","","769.5","<p> Your goal in this round is to give out sports equipment to kids. </p></div>","","0","instructions","","","","","","","","","","",""
"learning-instructions","11","53453","0.0-8.0-0.0-0.3","3722","1","10","Female","approach_avoid_spark_v1","""event"",""trial"",""time""
""fullscreenenter"",""1"",""1960""
","
","
","""event"",""trial"",""time""
""fullscreenenter"",""1"",""1960""
","
","","","","","","1504.6999999284744","<p> The kids only like some of the equipment.  </p><p> On each turn, you will see a piece of sports equipment.   </p><p> You need to decide whether to give it to the kids or not.  </p>","","0","instructions","","","","","","","","","","",""
"learning-instructions","12","60157","0.0-8.0-0.0-0.4","3722","1","10","Female","approach_avoid_spark_v1","""event"",""trial"",""time""
""fullscreenenter"",""1"",""1960""
","
","
","""event"",""trial"",""time""
""fullscreenenter"",""1"",""1960""
","
","","","","","","1958.6000000238419","<p> You can give them the equipment by pressing 1 and choose not to give it to them by pressing 0. </p><br><div class=""choice-instructions-grid""> <div class=""choice-option""><img src=""images/approach.png"" class=""choice-option-img"" stage=""instructions"" position=""0"" ><div class=""choice-option-text""> Press ""1."" </div></div><div class=""choice-option""><img src=""images/avoid.png"" class=""choice-option-img"" stage=""instructions"" position=""1"" ><div class=""choice-option-text""> Press ""0."" </div></div>","","0","instructions","","","","","","","","","","",""
"learning-instructions","13","68845","0.0-8.0-0.0-0.5","3722","1","10","Female","approach_avoid_spark_v1","""event"",""trial"",""time""
""fullscreenenter"",""1"",""1960""
","
","
","""event"",""trial"",""time""
""fullscreenenter"",""1"",""1960""
","
","","","","","","1307","<p> If you give them a piece of equipment they like, they will be happy! </p><p> But if you give them a piece of equipment they do not like, they will be sad. </p>","","0","instructions","","","","","","","","","","",""
"learning-instructions","14","80421","0.0-8.0-0.0-0.6","3722","1","10","Female","approach_avoid_spark_v1","""event"",""trial"",""time""
""fullscreenenter"",""1"",""1960""
","
","
","""event"",""trial"",""time""
""fullscreenenter"",""1"",""1960""
","
","","","","","","1063.2000000476837","<p> You will earn points based on how you make kids feel. </p><p> If you make them happy, you will WIN anywhere from 1 - 9 points, </p><p> but if you make them sad, you will LOSE anywhere from 1 - 9 points. </p>","","0","instructions","","","","","","","","","","",""
"learning-instructions","15","91094","0.0-8.0-0.0-0.7","3722","1","10","Female","approach_avoid_spark_v1","""event"",""trial"",""time""
""fullscreenenter"",""1"",""1960""
","
","
","""event"",""trial"",""time""
""fullscreenenter"",""1"",""1960""
","
","","","","","","1115","<p> You will see how many points you won or lost in the center of the screen. </p><p> Here is what you would see if you won 6 points: </p><p style=""color:green;font-size:50px;font-weight:bolder"">6</p><p style=""color:green"">The text is GREEN because you WON points.</p>","","0","instructions","","","","","","","","","","",""
"learning-instructions","16","97149","0.0-8.0-0.0-0.8","3722","1","10","Female","approach_avoid_spark_v1","""event"",""trial"",""time""
""fullscreenenter"",""1"",""1960""
","
","
","""event"",""trial"",""time""
""fullscreenenter"",""1"",""1960""
","
","","","","","","550.8999999761581","<p> And here is what you would see if you lost 4 points: </p><p style=""color:red;font-size:50px;font-weight:bolder"">-4</p><p style=""color:red"">The text is RED because you LOST points. </p>","","0","instructions","","","","","","","","","","",""
"learning-instructions","17","113318","0.0-8.0-0.0-0.9","3722","1","10","Female","approach_avoid_spark_v1","""event"",""trial"",""time""
""fullscreenenter"",""1"",""1960""
","
","
","""event"",""trial"",""time""
""fullscreenenter"",""1"",""1960""
","
","","","","","","1449.2999999523163","<p> Some of the equipment will make the kids VERY happy or sad. </p><p> These pieces of equipment will make you win or lose LOTS of points. </p><p> Other pieces of equipment will only make the kids a little happy or sad. </p><p> These pieces of equipment will make you win or lose small amounts of points. </p>","","0","instructions","","","","","","","","","","",""
"learning-instructions","18","124957","0.0-8.0-0.0-0.10","3722","1","10","Female","approach_avoid_spark_v1","""event"",""trial"",""time""
""fullscreenenter"",""1"",""1960""
","
","
","""event"",""trial"",""time""
""fullscreenenter"",""1"",""1960""
","
","","","","","","1009.1000000238419","<p> If you choose not to give them the equipment, you will not win or lose any points. </p><p>  However, in the center of the screen, you will see the number of points you WOULD HAVE won or lost if you had given them the equipment. </p>","","0","instructions","","","","","","","","","","",""
"learning-instructions","19","148029","0.0-8.0-0.0-0.11","3722","1","10","Female","approach_avoid_spark_v1","""event"",""trial"",""time""
""fullscreenenter"",""1"",""1960""
","
","
","""event"",""trial"",""time""
""fullscreenenter"",""1"",""1960""
","
","","","","","","1540.3999999761581","<p> Here is what you might see if you did not give the equipment to the kids but it would have made them happy: </p><p style=""color:grey; font-size:50px; display: inline-block; border-spacing: 15px; border-width:3px; border-style:solid; border-color:red"">  &nbsp; 7 &nbsp; </p><p> Remember, in this case, you would not win or lose ANY points because you did not give them the equipment.  </p><p style=""color:grey"">The text is GREY because you earned ZERO points. </p><p style=""color:red"">However, choosing to give the kids the equipment would have made you win points. The box around the text is RED because you chose the worse option. </p>","","0","instructions","","","","","","","","","","",""
"learning-instructions","20","170317","0.0-8.0-0.0-0.12","3722","1","10","Female","approach_avoid_spark_v1","""event"",""trial"",""time""
""fullscreenenter"",""1"",""1960""
","
","
","""event"",""trial"",""time""
""fullscreenenter"",""1"",""1960""
","
","","","","","","1208.6000000238419","<p> Here is what you might see if you did not give the equipment to the kids but it would have made them sad: </p><p style=""color:grey;font-size:50px; display: inline-block; border-spacing: 15px; border-width:3px; border-style:solid; border-color:green"">  &nbsp; -8 &nbsp; </p><p> Remember, in this case, you would not win or lose ANY points because you did not give them the equipment.  </p><p style=""color:grey"">The text is GREY because you earned ZERO points. </p><p  style=""color:green""> Choosing to give the kids the equipment would have made you lose points. The box around the text is GREEN because you chose the better option.</p>","","0","instructions","","","","","","","","","","",""
"learning-instructions","21","181974","0.0-8.0-0.0-0.13","3722","1","10","Female","approach_avoid_spark_v1","""event"",""trial"",""time""
""fullscreenenter"",""1"",""1960""
","
","
","""event"",""trial"",""time""
""fullscreenenter"",""1"",""1960""
","
","","","","","","2325.100000023842","<p> You will have 3 seconds to make each choice. Try to respond before time runs out! </p><p> You will lose 5 points each time you do not make a response. </p>","","0","instructions","","","","","","","","","","",""
"learning-instructions","22","187814","0.0-8.0-0.0-0.14","3722","1","10","Female","approach_avoid_spark_v1","""event"",""trial"",""time""
""fullscreenenter"",""1"",""1960""
","
","
","""event"",""trial"",""time""
""fullscreenenter"",""1"",""1960""
","
","","","","","","435.09999990463257","<p> This is just a practice round, but in the real game, your bonus payment will depend on your total number of points.","","0","instructions","","","","","","","","","","",""
"learning-instructions","23","194174","0.0-8.0-0.0-0.15","3722","1","10","Female","approach_avoid_spark_v1","""event"",""trial"",""time""
""fullscreenenter"",""1"",""1960""
","
","
","""event"",""trial"",""time""
""fullscreenenter"",""1"",""1960""
","
","","","","","","604.3999999761581","<p> Remember, you can give them the equipment by pressing 1 and choose not to give it to them by pressing 0. </p><br><div class=""choice-instructions-grid""> <div class=""choice-option""><img src=""images/approach.png"" class=""choice-option-img"" stage=""instructions"" position=""0"" ><div class=""choice-option-text""> Press ""1."" </div></div><div class=""choice-option""><img src=""images/avoid.png"" class=""choice-option-img"" stage=""instructions"" position=""1"" ><div class=""choice-option-text""> Press ""0."" </div></div>","","0","instructions","","","","","","","","","","",""
"html-button-response","24","195702","0.0-8.0-1.0","3722","1","10","Female","approach_avoid_spark_v1","""event"",""trial"",""time""
""fullscreenenter"",""1"",""1960""
","
","
","""event"",""trial"",""time""
""fullscreenenter"",""1"",""1960""
","
","","","","","","1422.0999999046326","<p> Ready to practice? </p>","0","","","","","","","","","","","","",""
"html-keyboard-response","25","196310","0.0-8.0-2.0-0.0","3722","1","10","Female","approach_avoid_spark_v1","""event"",""trial"",""time""
""fullscreenenter"",""1"",""1960""
","
","
","""event"",""trial"",""time""
""fullscreenenter"",""1"",""1960""
","
","","","","","","null","<div style=""font-size:60px;"">+</div>","null","","fixation","","","","","","","","","","",""
"aa-learning-trial","26","199323","0.0-8.0-2.0-1.0","3722","1","10","Female","approach_avoid_spark_v1","""event"",""trial"",""time""
""fullscreenenter"",""1"",""1960""
","
","
","""event"",""trial"",""time""
""fullscreenenter"",""1"",""1960""
","
","","","","","","1670.1000000238419","images/ball4.png","","","learning","2","2","1","1","practice","practice","practice","-1","","",""
"html-keyboard-response","27","199823","0.0-8.0-2.0-0.1","3722","1","10","Female","approach_avoid_spark_v1","""event"",""trial"",""time""
""fullscreenenter"",""1"",""1960""
","
","
","""event"",""trial"",""time""
""fullscreenenter"",""1"",""1960""
","
","","","","","","null","<div style=""font-size:60px;"">+</div>","null","","fixation","","","","","","","","","","",""
"aa-learning-trial","28","202829","0.0-8.0-2.0-1.1","3722","1","10","Female","approach_avoid_spark_v1","""event"",""trial"",""time""
""fullscreenenter"",""1"",""1960""
","
","
","""event"",""trial"",""time""
""fullscreenenter"",""1"",""1960""
","
","","","","","","1245.1000000238419","images/racket1.png","","","learning","-6","0","0","0","practice","practice","practice","-1","","",""
"html-keyboard-response","29","203346","0.0-8.0-2.0-0.2","3722","1","10","Female","approach_avoid_spark_v1","""event"",""trial"",""time""
""fullscreenenter"",""1"",""1960""
","
","
","""event"",""trial"",""time""
""fullscreenenter"",""1"",""1960""
","
","","","","","","null","<div style=""font-size:60px;"">+</div>","null","","fixation","","","","","","","","","","",""
"aa-learning-trial","30","206357","0.0-8.0-2.0-1.2","3722","1","10","Female","approach_avoid_spark_v1","""event"",""trial"",""time""
""fullscreenenter"",""1"",""1960""
","
","
","""event"",""trial"",""time""
""fullscreenenter"",""1"",""1960""
","
","","","","","","970.2000000476837","images/racket3.png","","","learning","5","0","0","0","practice","practice","practice","-1","","",""
"html-keyboard-response","31","206871","0.0-8.0-2.0-0.3","3722","1","10","Female","approach_avoid_spark_v1","""event"",""trial"",""time""
""fullscreenenter"",""1"",""1960""
","
","
","""event"",""trial"",""time""
""fullscreenenter"",""1"",""1960""
","
","","","","","","null","<div style=""font-size:60px;"">+</div>","null","","fixation","","","","","","","","","","",""
"aa-learning-trial","32","209879","0.0-8.0-2.0-1.3","3722","1","10","Female","approach_avoid_spark_v1","""event"",""trial"",""time""
""fullscreenenter"",""1"",""1960""
","
","
","""event"",""trial"",""time""
""fullscreenenter"",""1"",""1960""
","
","","","","","","1709.1000000238419","images/racket2.png","","","learning","-8","-8","1","1","practice","practice","practice","-1","","",""
"html-keyboard-response","33","210393","0.0-8.0-2.0-0.4","3722","1","10","Female","approach_avoid_spark_v1","""event"",""trial"",""time""
""fullscreenenter"",""1"",""1960""
","
","
","""event"",""trial"",""time""
""fullscreenenter"",""1"",""1960""
","
","","","","","","null","<div style=""font-size:60px;"">+</div>","null","","fixation","","","","","","","","","","",""
"aa-learning-trial","34","213399","0.0-8.0-2.0-1.4","3722","1","10","Female","approach_avoid_spark_v1","""event"",""trial"",""time""
""fullscreenenter"",""1"",""1960""
","
","
","""event"",""trial"",""time""
""fullscreenenter"",""1"",""1960""
","
","","","","","","1803.7999999523163","images/ball1.png","","","learning","-3","-3","1","1","practice","practice","practice","-1","","",""
"html-keyboard-response","35","213910","0.0-8.0-2.0-0.5","3722","1","10","Female","approach_avoid_spark_v1","""event"",""trial"",""time""
""fullscreenenter"",""1"",""1960""
","
","
","""event"",""trial"",""time""
""fullscreenenter"",""1"",""1960""
","
","","","","","","null","<div style=""font-size:60px;"">+</div>","null","","fixation","","","","","","","","","","",""
"aa-learning-trial","36","216921","0.0-8.0-2.0-1.5","3722","1","10","Female","approach_avoid_spark_v1","""event"",""trial"",""time""
""fullscreenenter"",""1"",""1960""
","
","
","""event"",""trial"",""time""
""fullscreenenter"",""1"",""1960""
","
","","","","","","1270.2999999523163","images/ball1.png","","","learning","7","0","0","0","practice","practice","practice","-1","","",""
"html-keyboard-response","37","217436","0.0-8.0-2.0-0.6","3722","1","10","Female","approach_avoid_spark_v1","""event"",""trial"",""time""
""fullscreenenter"",""1"",""1960""
","
","
","""event"",""trial"",""time""
""fullscreenenter"",""1"",""1960""
","
","","","","","","null","<div style=""font-size:60px;"">+</div>","null","","fixation","","","","","","","","","","",""
"aa-learning-trial","38","220446","0.0-8.0-2.0-1.6","3722","1","10","Female","approach_avoid_spark_v1","""event"",""trial"",""time""
""fullscreenenter"",""1"",""1960""
","
","
","""event"",""trial"",""time""
""fullscreenenter"",""1"",""1960""
","
","","","","","","1152.5999999046326","images/racket3.png","","","learning","-5","-5","1","1","practice","practice","practice","-1","","",""
"html-keyboard-response","39","220947","0.0-8.0-2.0-0.7","3722","1","10","Female","approach_avoid_spark_v1","""event"",""trial"",""time""
""fullscreenenter"",""1"",""1960""
","
","
","""event"",""trial"",""time""
""fullscreenenter"",""1"",""1960""
","
","","","","","","null","<div style=""font-size:60px;"">+</div>","null","","fixation","","","","","","","","","","",""
"aa-learning-trial","40","223950","0.0-8.0-2.0-1.7","3722","1","10","Female","approach_avoid_spark_v1","""event"",""trial"",""time""
""fullscreenenter"",""1"",""1960""
","
","
","""event"",""trial"",""time""
""fullscreenenter"",""1"",""1960""
","
","","","","","","1553.1000000238419","images/racket4.png","","","learning","5","5","1","1","practice","practice","practice","-1","","",""
"html-keyboard-response","41","224451","0.0-8.0-2.0-0.8","3722","1","10","Female","approach_avoid_spark_v1","""event"",""trial"",""time""
""fullscreenenter"",""1"",""1960""
","
","
","""event"",""trial"",""time""
""fullscreenenter"",""1"",""1960""
","
","","","","","","null","<div style=""font-size:60px;"">+</div>","null","","fixation","","","","","","","","","","",""
"aa-learning-trial","42","227453","0.0-8.0-2.0-1.8","3722","1","10","Female","approach_avoid_spark_v1","""event"",""trial"",""time""
""fullscreenenter"",""1"",""1960""
","
","
","""event"",""trial"",""time""
""fullscreenenter"",""1"",""1960""
","
","","","","","","1969.7999999523163","images/racket1.png","","","learning","-1","0","0","0","practice","practice","practice","-1","","",""
"html-keyboard-response","43","227956","0.0-8.0-2.0-0.9","3722","1","10","Female","approach_avoid_spark_v1","""event"",""trial"",""time""
""fullscreenenter"",""1"",""1960""
","
","
","""event"",""trial"",""time""
""fullscreenenter"",""1"",""1960""
","
","","","","","","null","<div style=""font-size:60px;"">+</div>","null","","fixation","","","","","","","","","","",""
"aa-learning-trial","44","230958","0.0-8.0-2.0-1.9","3722","1","10","Female","approach_avoid_spark_v1","""event"",""trial"",""time""
""fullscreenenter"",""1"",""1960""
","
","
","""event"",""trial"",""time""
""fullscreenenter"",""1"",""1960""
","
","","","","","","1313","images/ball2.png","","","learning","1","1","1","1","practice","practice","practice","-1","","",""
"html-keyboard-response","45","231471","0.0-8.0-2.0-0.10","3722","1","10","Female","approach_avoid_spark_v1","""event"",""trial"",""time""
""fullscreenenter"",""1"",""1960""
","
","
","""event"",""trial"",""time""
""fullscreenenter"",""1"",""1960""
","
","","","","","","null","<div style=""font-size:60px;"">+</div>","null","","fixation","","","","","","","","","","",""
"aa-learning-trial","46","234472","0.0-8.0-2.0-1.10","3722","1","10","Female","approach_avoid_spark_v1","""event"",""trial"",""time""
""fullscreenenter"",""1"",""1960""
","
","
","""event"",""trial"",""time""
""fullscreenenter"",""1"",""1960""
","
","","","","","","1373.7000000476837","images/racket1.png","","","learning","4","4","1","1","practice","practice","practice","-1","","",""
"html-keyboard-response","47","234974","0.0-8.0-2.0-0.11","3722","1","10","Female","approach_avoid_spark_v1","""event"",""trial"",""time""
""fullscreenenter"",""1"",""1960""
","
","
","""event"",""trial"",""time""
""fullscreenenter"",""1"",""1960""
","
","","","","","","null","<div style=""font-size:60px;"">+</div>","null","","fixation","","","","","","","","","","",""
"aa-learning-trial","48","237976","0.0-8.0-2.0-1.11","3722","1","10","Female","approach_avoid_spark_v1","""event"",""trial"",""time""
""fullscreenenter"",""1"",""1960""
","
","
","""event"",""trial"",""time""
""fullscreenenter"",""1"",""1960""
","
","","","","","","870.5999999046326","images/ball3.png","","","learning","2","0","0","0","practice","practice","practice","-1","","",""
"html-button-response","49","240910","0.0-8.0-3.0","3722","1","10","Female","approach_avoid_spark_v1","""event"",""trial"",""time""
""fullscreenenter"",""1"",""1960""
","
","
","""event"",""trial"",""time""
""fullscreenenter"",""1"",""1960""
","
","","","","","","2932.899999976158","<p> You earned -4 points in the practice round! </p>","0","","break","","","","","","","","","","",""
"learning-instructions","50","247606","0.0-8.0-4.0-0.0","3722","1","10","Female","approach_avoid_spark_v1","""event"",""trial"",""time""
""fullscreenenter"",""1"",""1960""
","
","
","""event"",""trial"",""time""
""fullscreenenter"",""1"",""1960""
","
","","","","","","701.1000000238419","<p> It's almost time to start the real game. </p><p> Before you start, we're going to ask you a few questions about how the game works. </p>","","0","instructions","","","","","","","","","","",""
"preload","51","249346","0.0-8.0-5.0","3722","1","10","Female","approach_avoid_spark_v1","""event"",""trial"",""time""
""fullscreenenter"",""1"",""1960""
","
","
","""event"",""trial"",""time""
""fullscreenenter"",""1"",""1960""
","
","true","false","[]","[]","[]","","","","","","","","","","","","","","","",""
"comp-q","52","255790","0.0-8.0-6.0-0.0","3722","1","10","Female","approach_avoid_spark_v1","""event"",""trial"",""time""
""fullscreenenter"",""1"",""1960""
","
","
","""event"",""trial"",""time""
""fullscreenenter"",""1"",""1960""
","
","","","","","","1444.8999999761581","<p> <b> True or False? </b> </p><p> If you see a number in GREY, that means you earned that many points. </p>","","1","comp_question","","","","","","","","","true","",""
"comp-q","53","265846","0.0-8.0-6.0-1.0","3722","1","10","Female","approach_avoid_spark_v1","""event"",""trial"",""time""
""fullscreenenter"",""1"",""1960""
","
","
","""event"",""trial"",""time""
""fullscreenenter"",""1"",""1960""
","
","","","","","","1701.1000000238419","<p><b> That's right! </b> If you see a grey number, it means you earned ZERO points. <br> The grey numbers show the points you WOULD HAVE earned if you had made the other choice. </p>","","0","comp_answer","","","","","","","","","","",""
"comp-q","54","271110","0.0-8.0-7.0-0.0","3722","1","10","Female","approach_avoid_spark_v1","""event"",""trial"",""time""
""fullscreenenter"",""1"",""1960""
","
","
","""event"",""trial"",""time""
""fullscreenenter"",""1"",""1960""
","
","","","","","","574.3999999761581","<p> <b> True or False? </b> </p><p> You will have as much time as you want to make each choice. </p>","","1","comp_question","","","","","","","","","true","",""
"comp-q","55","276662","0.0-8.0-7.0-1.0","3722","1","10","Female","approach_avoid_spark_v1","""event"",""trial"",""time""
""fullscreenenter"",""1"",""1960""
","
","
","""event"",""trial"",""time""
""fullscreenenter"",""1"",""1960""
","
","","","","","","1496.2999999523163","<p> <b> That's right! </b> You will only have 3 seconds to make each choice. </p>","","0","comp_answer","","","","","","","","","","",""
"comp-q","56","282006","0.0-8.0-8.0-0.0","3722","1","10","Female","approach_avoid_spark_v1","""event"",""trial"",""time""
""fullscreenenter"",""1"",""1960""
","
","
","""event"",""trial"",""time""
""fullscreenenter"",""1"",""1960""
","
","","","","","","690.7000000476837","<p> <b> True or False? </b> </p><p> You should use the '1' and '0' keys to make your choices. </p>","","0","comp_question","","","","","","","","","true","",""
"comp-q","57","287574","0.0-8.0-8.0-1.0","3722","1","10","Female","approach_avoid_spark_v1","""event"",""trial"",""time""
""fullscreenenter"",""1"",""1960""
","
","
","""event"",""trial"",""time""
""fullscreenenter"",""1"",""1960""
","
","","","","","","958.6000000238419","<p> <b> That's right! </b> You should use the '1' and '0' keys to make each choice. </p>","","0","comp_answer","","","","","","","","","","",""
"learning-instructions","58","296390","0.0-8.0-9.0-0.0","3722","1","10","Female","approach_avoid_spark_v1","""event"",""trial"",""time""
""fullscreenenter"",""1"",""1960""
","
","
","""event"",""trial"",""time""
""fullscreenenter"",""1"",""1960""
","
","","","","","","2535.100000023842","<p> It's now time to start the real game. </p>Do your best, because the points you earn in the next rounds will influence your bonus payment. </p>","","0","instructions","","","","","","","","","","",""
"preload","59","296506","0.0-9.0-0.0","3722","1","10","Female","approach_avoid_spark_v1","""event"",""trial"",""time""
""fullscreenenter"",""1"",""1960""
","
","
","""event"",""trial"",""time""
""fullscreenenter"",""1"",""1960""
","
","true","false","[]","[]","[]","","","","","","","","","","","","","","","",""
"learning-instructions","60","302150","0.0-9.0-1.0-0.0","3722","1","10","Female","approach_avoid_spark_v1","""event"",""trial"",""time""
""fullscreenenter"",""1"",""1960""
","
","
","""event"",""trial"",""time""
""fullscreenenter"",""1"",""1960""
","
","","","","","","1204.7999999523163","<p> Your goal in this round is to take care of lots of farm animals. </p></div>","","0","instructions","","","","","","","","","","",""
"learning-instructions","61","313014","0.0-9.0-1.0-0.1","3722","1","10","Female","approach_avoid_spark_v1","""event"",""trial"",""time""
""fullscreenenter"",""1"",""1960""
","
","
","""event"",""trial"",""time""
""fullscreenenter"",""1"",""1960""
","
","","","","","","768.7999999523163","<p> Some farm animals are hungry, while other farm animals are already full.  </p><p> On each turn, you will see a farm animal.   </p><p> You need to decide whether to feed it or not.  </p>","","0","instructions","","","","","","","","","","",""
"learning-instructions","62","319814","0.0-9.0-1.0-0.2","3722","1","10","Female","approach_avoid_spark_v1","""event"",""trial"",""time""
""fullscreenenter"",""1"",""1960""
","
","
","""event"",""trial"",""time""
""fullscreenenter"",""1"",""1960""
","
","","","","","","758.7999999523163","<p> You can feed the farm animal by pressing 1 and leave the farm animal alone by pressing 0. </p><br><div class=""choice-instructions-grid""> <div class=""choice-option""><img src=""images/approach.png"" class=""choice-option-img"" stage=""instructions"" position=""0"" ><div class=""choice-option-text""> Press ""1."" </div></div><div class=""choice-option""><img src=""images/avoid.png"" class=""choice-option-img"" stage=""instructions"" position=""1"" ><div class=""choice-option-text""> Press ""0."" </div></div>","","0","instructions","","","","","","","","","","",""
"learning-instructions","63","331662","0.0-9.0-1.0-0.3","3722","1","10","Female","approach_avoid_spark_v1","""event"",""trial"",""time""
""fullscreenenter"",""1"",""1960""
","
","
","""event"",""trial"",""time""
""fullscreenenter"",""1"",""1960""
","
","","","","","","2126.7999999523163","<p> If you feed a hungry farm animal, you will make it feel satisfied! </p><p> But if you feed the farm animal and it was already full, you will make it feel sick. </p>","","0","instructions","","","","","","","","","","",""
"learning-instructions","64","344598","0.0-9.0-1.0-0.4","3722","1","10","Female","approach_avoid_spark_v1","""event"",""trial"",""time""
""fullscreenenter"",""1"",""1960""
","
","
","""event"",""trial"",""time""
""fullscreenenter"",""1"",""1960""
","
","","","","","","452.6999999284744","<p> You will earn points based on how you made the farm animal feel. </p><p> If you made it satisfied, you will WIN anywhere from 1 - 9 points, </p><p> but if you made it sick, you will LOSE anywhere from 1 - 9 points. </p>","","0","instructions","","","","","","","","","","",""
"learning-instructions","65","353598","0.0-9.0-1.0-0.5","3722","1","10","Female","approach_avoid_spark_v1","""event"",""trial"",""time""
""fullscreenenter"",""1"",""1960""
","
","
","""event"",""trial"",""time""
""fullscreenenter"",""1"",""1960""
","
","","","","","","1132.3999999761581","<p> You will see how many points you won or lost in the center of the screen. </p><p> Here is what you would see if you won 5 points: </p><p style=""color:green;font-size:50px;font-weight:bolder"">5</p>","","0","instructions","","","","","","","","","","",""
"learning-instructions","66","357486","0.0-9.0-1.0-0.6","3722","1","10","Female","approach_avoid_spark_v1","""event"",""trial"",""time""
""fullscreenenter"",""1"",""1960""
","
","
","""event"",""trial"",""time""
""fullscreenenter"",""1"",""1960""
","
","","","","","","320.39999997615814","<p> And here is what you would see if you lost 3 points: </p><p style=""color:red;font-size:50px;font-weight:bolder"">-3</p>","","0","instructions","","","","","","","","","","",""
"learning-instructions","67","373702","0.0-9.0-1.0-0.7","3722","1","10","Female","approach_avoid_spark_v1","""event"",""trial"",""time""
""fullscreenenter"",""1"",""1960""
","
","
","""event"",""trial"",""time""
""fullscreenenter"",""1"",""1960""
","
","","","","","","526.7000000476837","<p> Some farm animals will become very satisfied or very sick. </p><p> These farm animals will make you win or lose LOTS of points. </p><p> Other farm animals have less strong feelings. </p><p> These farm animals will make you win or lose small amounts of points. </p>","","0","instructions","","","","","","","","","","",""
"learning-instructions","68","387230","0.0-9.0-1.0-0.8","3722","1","10","Female","approach_avoid_spark_v1","""event"",""trial"",""time""
""fullscreenenter"",""1"",""1960""
","
","
","""event"",""trial"",""time""
""fullscreenenter"",""1"",""1960""
","
","","","","","","1294.6000000238419","<p> If you choose to leave the farm animal alone, you will not win or lose any points. </p><p>  However, in the center of the screen, you will see the number of points you WOULD HAVE won or lost if you had fed the farm animal. </p>","","0","instructions","","","","","","","","","","",""
"learning-instructions","69","399550","0.0-9.0-1.0-0.9","3722","1","10","Female","approach_avoid_spark_v1","""event"",""trial"",""time""
""fullscreenenter"",""1"",""1960""
","
","
","""event"",""trial"",""time""
""fullscreenenter"",""1"",""1960""
","
","","","","","","734.8999999761581","<p> Here is what you might see if you did not feed the farm animal but the animal was hungry: </p><p style=""color:grey; font-size:50px; display: inline-block; border-spacing: 15px; border-width:3px; border-style:solid; border-color:red"">  &nbsp; 6 &nbsp; </p><p> Remember, in this case, you would not win or lose ANY points because you did not feed the farm animal.  </p>","","0","instructions","","","","","","","","","","",""
"learning-instructions","70","408206","0.0-9.0-1.0-0.10","3722","1","10","Female","approach_avoid_spark_v1","""event"",""trial"",""time""
""fullscreenenter"",""1"",""1960""
","
","
","""event"",""trial"",""time""
""fullscreenenter"",""1"",""1960""
","
","","","","","","660.6999999284744","<p> Try to make the best choice for each farm animal because </p><p> at the end of the game, you will earn bonus money based on how many points you earned. </p>","","0","instructions","","","","","","","","","","",""
"learning-instructions","71","417486","0.0-9.0-1.0-0.11","3722","1","10","Female","approach_avoid_spark_v1","""event"",""trial"",""time""
""fullscreenenter"",""1"",""1960""
","
","
","""event"",""trial"",""time""
""fullscreenenter"",""1"",""1960""
","
","","","","","","1090.1999999284744","<p> You will have 3 seconds to make each choice. Try to respond before time runs out! </p><p> You will lose 5 points each time you do not make a response. </p>","","0","instructions","","","","","","","","","","",""
"html-keyboard-response","72","418090","0.0-9.0-2.0-0.0","3722","1","10","Female","approach_avoid_spark_v1","""event"",""trial"",""time""
""fullscreenenter"",""1"",""1960""
","
","
","""event"",""trial"",""time""
""fullscreenenter"",""1"",""1960""
","
","","","","","","null","<div style=""font-size:60px;"">+</div>","null","","fixation","","","","","","","","","","",""
"aa-learning-trial","73","421099","0.0-9.0-2.0-1.0","3722","1","10","Female","approach_avoid_spark_v1","""event"",""trial"",""time""
""fullscreenenter"",""1"",""1960""
","
","
","""event"",""trial"",""time""
""fullscreenenter"",""1"",""1960""
","
","","","","","","1978.7999999523163","images/sheep8.png","","","learning","9","9","1","1","sheep","animals","1","0","","good","[6]"
"html-keyboard-response","74","421602","0.0-9.0-2.0-0.1","3722","1","10","Female","approach_avoid_spark_v1","""event"",""trial"",""time""
""fullscreenenter"",""1"",""1960""
","
","
","""event"",""trial"",""time""
""fullscreenenter"",""1"",""1960""
","
","","","","","","null","<div style=""font-size:60px;"">+</div>","null","","fixation","","","","","","","","","","",""
"aa-learning-trial","75","424614","0.0-9.0-2.0-1.1","3722","1","10","Female","approach_avoid_spark_v1","""event"",""trial"",""time""
""fullscreenenter"",""1"",""1960""
","
","
","""event"",""trial"",""time""
""fullscreenenter"",""1"",""1960""
","
","","","","","","1403.2000000476837","images/cow8.png","","","learning","[-1]","0","0","0","cow","animals","1","0","","neutral","0"
"html-keyboard-response","76","425130","0.0-9.0-2.0-0.2","3722","1","10","Female","approach_avoid_spark_v1","""event"",""trial"",""time""
""fullscreenenter"",""1"",""1960""
","
","
","""event"",""trial"",""time""
""fullscreenenter"",""1"",""1960""
","
","","","","","","null","<div style=""font-size:60px;"">+</div>","null","","fixation","","","","","","","","","","",""
"aa-learning-trial","77","428133","0.0-9.0-2.0-1.2","3722","1","10","Female","approach_avoid_spark_v1","""event"",""trial"",""time""
""fullscreenenter"",""1"",""1960""
","
","
","""event"",""trial"",""time""
""fullscreenenter"",""1"",""1960""
","
","","","","","","1002.5","images/cow3.png","","","learning","-2","-2","1","1","cow","animals","1","0","","neutral","0"
"html-keyboard-response","78","428644","0.0-9.0-2.0-0.3","3722","1","10","Female","approach_avoid_spark_v1","""event"",""trial"",""time""
""fullscreenenter"",""1"",""1960""
","
","
","""event"",""trial"",""time""
""fullscreenenter"",""1"",""1960""
","
","","","","","","null","<div style=""font-size:60px;"">+</div>","null","","fixation","","","","","","","","","","",""
"aa-learning-trial","79","431655","0.0-9.0-2.0-1.3","3722","1","10","Female","approach_avoid_spark_v1","""event"",""trial"",""time""
""fullscreenenter"",""1"",""1960""
","
","
","""event"",""trial"",""time""
""fullscreenenter"",""1"",""1960""
","
","","","","","","1305","images/sheep3.png","","","learning","7","0","0","0","sheep","animals","1","0","","good","[6]"
"html-keyboard-response","80","432166","0.0-9.0-2.0-0.4","3722","1","10","Female","approach_avoid_spark_v1","""event"",""trial"",""time""
""fullscreenenter"",""1"",""1960""
","
","
","""event"",""trial"",""time""
""fullscreenenter"",""1"",""1960""
","
","","","","","","null","<div style=""font-size:60px;"">+</div>","null","","fixation","","","","","","","","","","",""
"aa-learning-trial","81","435177","0.0-9.0-2.0-1.4","3722","1","10","Female","approach_avoid_spark_v1","""event"",""trial"",""time""
""fullscreenenter"",""1"",""1960""
","
","
","""event"",""trial"",""time""
""fullscreenenter"",""1"",""1960""
","
","","","","","","1062.8999999761581","images/horse3.png","","","learning","-7","-7","1","1","horse","animals","1","0","","bad","[-6]"
"html-keyboard-response","82","435691","0.0-9.0-2.0-0.5","3722","1","10","Female","approach_avoid_spark_v1","""event"",""trial"",""time""
""fullscreenenter"",""1"",""1960""
","
","
","""event"",""trial"",""time""
""fullscreenenter"",""1"",""1960""
","
","","","","","","null","<div style=""font-size:60px;"">+</div>","null","","fixation","","","","","","","","","","",""
"aa-learning-trial","83","438702","0.0-9.0-2.0-1.5","3722","1","10","Female","approach_avoid_spark_v1","""event"",""trial"",""time""
""fullscreenenter"",""1"",""1960""
","
","
","""event"",""trial"",""time""
""fullscreenenter"",""1"",""1960""
","
","","","","","","1241.8999999761581","images/horse6.png","","","learning","-6","-6","1","1","horse","animals","1","0","","bad","[-6]"
"html-keyboard-response","84","439213","0.0-9.0-2.0-0.6","3722","1","10","Female","approach_avoid_spark_v1","""event"",""trial"",""time""
""fullscreenenter"",""1"",""1960""
","
","
","""event"",""trial"",""time""
""fullscreenenter"",""1"",""1960""
","
","","","","","","null","<div style=""font-size:60px;"">+</div>","null","","fixation","","","","","","","","","","",""
"aa-learning-trial","85","442216","0.0-9.0-2.0-1.6","3722","1","10","Female","approach_avoid_spark_v1","""event"",""trial"",""time""
""fullscreenenter"",""1"",""1960""
","
","
","""event"",""trial"",""time""
""fullscreenenter"",""1"",""1960""
","
","","","","","","888.1000000238419","images/horse3.png","","","learning","-8","0","0","0","horse","animals","1","0","","bad","[-6]"
"html-keyboard-response","86","442731","0.0-9.0-2.0-0.7","3722","1","10","Female","approach_avoid_spark_v1","""event"",""trial"",""time""
""fullscreenenter"",""1"",""1960""
","
","
","""event"",""trial"",""time""
""fullscreenenter"",""1"",""1960""
","
","","","","","","null","<div style=""font-size:60px;"">+</div>","null","","fixation","","","","","","","","","","",""
"aa-learning-trial","87","445747","0.0-9.0-2.0-1.7","3722","1","10","Female","approach_avoid_spark_v1","""event"",""trial"",""time""
""fullscreenenter"",""1"",""1960""
","
","
","""event"",""trial"",""time""
""fullscreenenter"",""1"",""1960""
","
","","","","","","1281.7000000476837","images/sheep3.png","","","learning","6","6","1","1","sheep","animals","1","0","","good","[6]"
"html-keyboard-response","88","446263","0.0-9.0-2.0-0.8","3722","1","10","Female","approach_avoid_spark_v1","""event"",""trial"",""time""
""fullscreenenter"",""1"",""1960""
","
","
","""event"",""trial"",""time""
""fullscreenenter"",""1"",""1960""
","
","","","","","","null","<div style=""font-size:60px;"">+</div>","null","","fixation","","","","","","","","","","",""
"aa-learning-trial","89","449266","0.0-9.0-2.0-1.8","3722","1","10","Female","approach_avoid_spark_v1","""event"",""trial"",""time""
""fullscreenenter"",""1"",""1960""
","
","
","""event"",""trial"",""time""
""fullscreenenter"",""1"",""1960""
","
","","","","","","1197.5","images/cow5.png","","","learning","[-1]","-1","1","1","cow","animals","1","0","","neutral","0"
"html-keyboard-response","90","449767","0.0-9.0-2.0-0.9","3722","1","10","Female","approach_avoid_spark_v1","""event"",""trial"",""time""
""fullscreenenter"",""1"",""1960""
","
","
","""event"",""trial"",""time""
""fullscreenenter"",""1"",""1960""
","
","","","","","","null","<div style=""font-size:60px;"">+</div>","null","","fixation","","","","","","","","","","",""
"aa-learning-trial","91","452769","0.0-9.0-2.0-1.9","3722","1","10","Female","approach_avoid_spark_v1","""event"",""trial"",""time""
""fullscreenenter"",""1"",""1960""
","
","
","""event"",""trial"",""time""
""fullscreenenter"",""1"",""1960""
","
","","","","","","989.7999999523163","images/sheep8.png","","","learning","10","0","0","0","sheep","animals","1","0","","good","[6]"
"html-keyboard-response","92","453270","0.0-9.0-2.0-0.10","3722","1","10","Female","approach_avoid_spark_v1","""event"",""trial"",""time""
""fullscreenenter"",""1"",""1960""
","
","
","""event"",""trial"",""time""
""fullscreenenter"",""1"",""1960""
","
","","","","","","null","<div style=""font-size:60px;"">+</div>","null","","fixation","","","","","","","","","","",""
"aa-learning-trial","93","456273","0.0-9.0-2.0-1.10","3722","1","10","Female","approach_avoid_spark_v1","""event"",""trial"",""time""
""fullscreenenter"",""1"",""1960""
","
","
","""event"",""trial"",""time""
""fullscreenenter"",""1"",""1960""
","
","","","","","","1295.1000000238419","images/horse6.png","","","learning","-5","0","0","0","horse","animals","1","0","","bad","[-6]"
"html-keyboard-response","94","456774","0.0-9.0-2.0-0.11","3722","1","10","Female","approach_avoid_spark_v1","""event"",""trial"",""time""
""fullscreenenter"",""1"",""1960""
","
","
","""event"",""trial"",""time""
""fullscreenenter"",""1"",""1960""
","
","","","","","","null","<div style=""font-size:60px;"">+</div>","null","","fixation","","","","","","","","","","",""
"aa-learning-trial","95","459777","0.0-9.0-2.0-1.11","3722","1","10","Female","approach_avoid_spark_v1","""event"",""trial"",""time""
""fullscreenenter"",""1"",""1960""
","
","
","""event"",""trial"",""time""
""fullscreenenter"",""1"",""1960""
","
","","","","","","862.2999999523163","images/cow8.png","","","learning","1","1","1","1","cow","animals","1","0","","neutral","0"
"html-keyboard-response","96","460278","0.0-9.0-2.0-0.12","3722","1","10","Female","approach_avoid_spark_v1","""event"",""trial"",""time""
""fullscreenenter"",""1"",""1960""
","
","
","""event"",""trial"",""time""
""fullscreenenter"",""1"",""1960""
","
","","","","","","null","<div style=""font-size:60px;"">+</div>","null","","fixation","","","","","","","","","","",""
"aa-learning-trial","97","463280","0.0-9.0-2.0-1.12","3722","1","10","Female","approach_avoid_spark_v1","""event"",""trial"",""time""
""fullscreenenter"",""1"",""1960""
","
","
","""event"",""trial"",""time""
""fullscreenenter"",""1"",""1960""
","
","","","","","","1142.7000000476837","images/sheep6.png","","","learning","5","5","1","1","sheep","animals","1","0","","good","[6]"
"html-keyboard-response","98","463780","0.0-9.0-2.0-0.13","3722","1","10","Female","approach_avoid_spark_v1","""event"",""trial"",""time""
""fullscreenenter"",""1"",""1960""
","
","
","""event"",""trial"",""time""
""fullscreenenter"",""1"",""1960""
","
","","","","","","null","<div style=""font-size:60px;"">+</div>","null","","fixation","","","","","","","","","","",""
"aa-learning-trial","99","466782","0.0-9.0-2.0-1.13","3722","1","10","Female","approach_avoid_spark_v1","""event"",""trial"",""time""
""fullscreenenter"",""1"",""1960""
","
","
","""event"",""trial"",""time""
""fullscreenenter"",""1"",""1960""
","
","","","","","","1296.8999999761581","images/cow3.png","","","learning","-1","0","0","0","cow","animals","1","0","","neutral","0"
"html-keyboard-response","100","467284","0.0-9.0-2.0-0.14","3722","1","10","Female","approach_avoid_spark_v1","""event"",""trial"",""time""
""fullscreenenter"",""1"",""1960""
","
","
","""event"",""trial"",""time""
""fullscreenenter"",""1"",""1960""
","
","","","","","","null","<div style=""font-size:60px;"">+</div>","null","","fixation","","","","","","","","","","",""
"aa-learning-trial","101","470286","0.0-9.0-2.0-1.14","3722","1","10","Female","approach_avoid_spark_v1","""event"",""trial"",""time""
""fullscreenenter"",""1"",""1960""
","
","
","""event"",""trial"",""time""
""fullscreenenter"",""1"",""1960""
","
","","","","","","1688.7000000476837","images/horse2.png","","","learning","-12","0","0","0","horse","animals","1","0","","bad","[-6]"
"html-keyboard-response","102","470787","0.0-9.0-2.0-0.15","3722","1","10","Female","approach_avoid_spark_v1","""event"",""trial"",""time""
""fullscreenenter"",""1"",""1960""
","
","
","""event"",""trial"",""time""
""fullscreenenter"",""1"",""1960""
","
","","","","","","null","<div style=""font-size:60px;"">+</div>","null","","fixation","","","","","","","","","","",""
"aa-learning-trial","103","473789","0.0-9.0-2.0-1.15","3722","1","10","Female","approach_avoid_spark_v1","""event"",""trial"",""time""
""fullscreenenter"",""1"",""1960""
","
","
","""event"",""trial"",""time""
""fullscreenenter"",""1"",""1960""
","
","","","","","","1281.5","images/sheep3.png","","","learning","4","0","0","0","sheep","animals","1","0","","good","[6]"
"html-keyboard-response","104","474290","0.0-9.0-2.0-0.16","3722","1","10","Female","approach_avoid_spark_v1","""event"",""trial"",""time""
""fullscreenenter"",""1"",""1960""
","
","
","""event"",""trial"",""time""
""fullscreenenter"",""1"",""1960""
","
","","","","","","null","<div style=""font-size:60px;"">+</div>","null","","fixation","","","","","","","","","","",""
"aa-learning-trial","105","477292","0.0-9.0-2.0-1.16","3722","1","10","Female","approach_avoid_spark_v1","""event"",""trial"",""time""
""fullscreenenter"",""1"",""1960""
","
","
","""event"",""trial"",""time""
""fullscreenenter"",""1"",""1960""
","
","","","","","","955","images/sheep3.png","","","learning","4","0","0","0","sheep","animals","1","0","","good","[6]"
"html-keyboard-response","106","477793","0.0-9.0-2.0-0.17","3722","1","10","Female","approach_avoid_spark_v1","""event"",""trial"",""time""
""fullscreenenter"",""1"",""1960""
","
","
","""event"",""trial"",""time""
""fullscreenenter"",""1"",""1960""
","
","","","","","","null","<div style=""font-size:60px;"">+</div>","null","","fixation","","","","","","","","","","",""
"aa-learning-trial","107","480796","0.0-9.0-2.0-1.17","3722","1","10","Female","approach_avoid_spark_v1","""event"",""trial"",""time""
""fullscreenenter"",""1"",""1960""
","
","
","""event"",""trial"",""time""
""fullscreenenter"",""1"",""1960""
","
","","","","","","1075.5","images/cow8.png","","","learning","-2","-2","1","1","cow","animals","1","0","","neutral","0"
"html-keyboard-response","108","481306","0.0-9.0-2.0-0.18","3722","1","10","Female","approach_avoid_spark_v1","""event"",""trial"",""time""
""fullscreenenter"",""1"",""1960""
","
","
","""event"",""trial"",""time""
""fullscreenenter"",""1"",""1960""
","
","","","","","","null","<div style=""font-size:60px;"">+</div>","null","","fixation","","","","","","","","","","",""
"aa-learning-trial","109","484316","0.0-9.0-2.0-1.18","3722","1","10","Female","approach_avoid_spark_v1","""event"",""trial"",""time""
""fullscreenenter"",""1"",""1960""
","
","
","""event"",""trial"",""time""
""fullscreenenter"",""1"",""1960""
","
","","","","","","890.3999999761581","images/horse6.png","","","learning","-7","0","0","0","horse","animals","1","0","","bad","[-6]"
"html-keyboard-response","110","484818","0.0-9.0-2.0-0.19","3722","1","10","Female","approach_avoid_spark_v1","""event"",""trial"",""time""
""fullscreenenter"",""1"",""1960""
","
","
","""event"",""trial"",""time""
""fullscreenenter"",""1"",""1960""
","
","","","","","","null","<div style=""font-size:60px;"">+</div>","null","","fixation","","","","","","","","","","",""
"aa-learning-trial","111","487820","0.0-9.0-2.0-1.19","3722","1","10","Female","approach_avoid_spark_v1","""event"",""trial"",""time""
""fullscreenenter"",""1"",""1960""
","
","
","""event"",""trial"",""time""
""fullscreenenter"",""1"",""1960""
","
","","","","","","979","images/cow8.png","","","learning","1","1","1","1","cow","animals","1","0","","neutral","0"
"html-keyboard-response","112","488321","0.0-9.0-2.0-0.20","3722","1","10","Female","approach_avoid_spark_v1","""event"",""trial"",""time""
""fullscreenenter"",""1"",""1960""
","
","
","""event"",""trial"",""time""
""fullscreenenter"",""1"",""1960""
","
","","","","","","null","<div style=""font-size:60px;"">+</div>","null","","fixation","","","","","","","","","","",""
"aa-learning-trial","113","491323","0.0-9.0-2.0-1.20","3722","1","10","Female","approach_avoid_spark_v1","""event"",""trial"",""time""
""fullscreenenter"",""1"",""1960""
","
","
","""event"",""trial"",""time""
""fullscreenenter"",""1"",""1960""
","
","","","","","","1011.6999999284744","images/cow3.png","","","learning","1","0","0","0","cow","animals","1","0","","neutral","0"
"html-keyboard-response","114","491824","0.0-9.0-2.0-0.21","3722","1","10","Female","approach_avoid_spark_v1","""event"",""trial"",""time""
""fullscreenenter"",""1"",""1960""
","
","
","""event"",""trial"",""time""
""fullscreenenter"",""1"",""1960""
","
","","","","","","null","<div style=""font-size:60px;"">+</div>","null","","fixation","","","","","","","","","","",""
"aa-learning-trial","115","494826","0.0-9.0-2.0-1.21","3722","1","10","Female","approach_avoid_spark_v1","""event"",""trial"",""time""
""fullscreenenter"",""1"",""1960""
","
","
","""event"",""trial"",""time""
""fullscreenenter"",""1"",""1960""
","
","","","","","","1156.4000000953674","images/sheep3.png","","","learning","6","6","1","1","sheep","animals","1","0","","good","[6]"
"html-keyboard-response","116","495329","0.0-9.0-2.0-0.22","3722","1","10","Female","approach_avoid_spark_v1","""event"",""trial"",""time""
""fullscreenenter"",""1"",""1960""
","
","
","""event"",""trial"",""time""
""fullscreenenter"",""1"",""1960""
","
","","","","","","null","<div style=""font-size:60px;"">+</div>","null","","fixation","","","","","","","","","","",""
"aa-learning-trial","117","498331","0.0-9.0-2.0-1.22","3722","1","10","Female","approach_avoid_spark_v1","""event"",""trial"",""time""
""fullscreenenter"",""1"",""1960""
","
","
","""event"",""trial"",""time""
""fullscreenenter"",""1"",""1960""
","
","","","","","","1060.1000000238419","images/horse6.png","","","learning","-6","0","0","0","horse","animals","1","0","","bad","[-6]"
"html-keyboard-response","118","498832","0.0-9.0-2.0-0.23","3722","1","10","Female","approach_avoid_spark_v1","""event"",""trial"",""time""
""fullscreenenter"",""1"",""1960""
","
","
","""event"",""trial"",""time""
""fullscreenenter"",""1"",""1960""
","
","","","","","","null","<div style=""font-size:60px;"">+</div>","null","","fixation","","","","","","","","","","",""
"aa-learning-trial","119","501834","0.0-9.0-2.0-1.23","3722","1","10","Female","approach_avoid_spark_v1","""event"",""trial"",""time""
""fullscreenenter"",""1"",""1960""
","
","
","""event"",""trial"",""time""
""fullscreenenter"",""1"",""1960""
","
","","","","","","884.7000000476837","images/cow3.png","","","learning","-1","0","0","0","cow","animals","1","0","","neutral","0"
"html-keyboard-response","120","502336","0.0-9.0-2.0-0.24","3722","1","10","Female","approach_avoid_spark_v1","""event"",""trial"",""time""
""fullscreenenter"",""1"",""1960""
","
","
","""event"",""trial"",""time""
""fullscreenenter"",""1"",""1960""
","
","","","","","","null","<div style=""font-size:60px;"">+</div>","null","","fixation","","","","","","","","","","",""
"aa-learning-trial","121","505338","0.0-9.0-2.0-1.24","3722","1","10","Female","approach_avoid_spark_v1","""event"",""trial"",""time""
""fullscreenenter"",""1"",""1960""
","
","
","""event"",""trial"",""time""
""fullscreenenter"",""1"",""1960""
","
","","","","","","956.3999999761581","images/sheep6.png","","","learning","7","7","1","1","sheep","animals","1","0","","good","[6]"
"html-keyboard-response","122","505839","0.0-9.0-2.0-0.25","3722","1","10","Female","approach_avoid_spark_v1","""event"",""trial"",""time""
""fullscreenenter"",""1"",""1960""
","
","
","""event"",""trial"",""time""
""fullscreenenter"",""1"",""1960""
","
","","","","","","null","<div style=""font-size:60px;"">+</div>","null","","fixation","","","","","","","","","","",""
"aa-learning-trial","123","508841","0.0-9.0-2.0-1.25","3722","1","10","Female","approach_avoid_spark_v1","""event"",""trial"",""time""
""fullscreenenter"",""1"",""1960""
","
","
","""event"",""trial"",""time""
""fullscreenenter"",""1"",""1960""
","
","","","","","","997.5","images/sheep8.png","","","learning","8","0","0","0","sheep","animals","1","0","","good","[6]"
"html-keyboard-response","124","509342","0.0-9.0-2.0-0.26","3722","1","10","Female","approach_avoid_spark_v1","""event"",""trial"",""time""
""fullscreenenter"",""1"",""1960""
","
","
","""event"",""trial"",""time""
""fullscreenenter"",""1"",""1960""
","
","","","","","","null","<div style=""font-size:60px;"">+</div>","null","","fixation","","","","","","","","","","",""
"aa-learning-trial","125","512344","0.0-9.0-2.0-1.26","3722","1","10","Female","approach_avoid_spark_v1","""event"",""trial"",""time""
""fullscreenenter"",""1"",""1960""
","
","
","""event"",""trial"",""time""
""fullscreenenter"",""1"",""1960""
","
","","","","","","1190.3000000715256","images/sheep8.png","","","learning","6","6","1","1","sheep","animals","1","0","","good","[6]"
"html-keyboard-response","126","512846","0.0-9.0-2.0-0.27","3722","1","10","Female","approach_avoid_spark_v1","""event"",""trial"",""time""
""fullscreenenter"",""1"",""1960""
","
","
","""event"",""trial"",""time""
""fullscreenenter"",""1"",""1960""
","
","","","","","","null","<div style=""font-size:60px;"">+</div>","null","","fixation","","","","","","","","","","",""
"aa-learning-trial","127","515848","0.0-9.0-2.0-1.27","3722","1","10","Female","approach_avoid_spark_v1","""event"",""trial"",""time""
""fullscreenenter"",""1"",""1960""
","
","
","""event"",""trial"",""time""
""fullscreenenter"",""1"",""1960""
","
","","","","","","1270.5999999046326","images/cow3.png","","","learning","[1]","1","1","1","cow","animals","1","0","","neutral","0"
"html-keyboard-response","128","516349","0.0-9.0-2.0-0.28","3722","1","10","Female","approach_avoid_spark_v1","""event"",""trial"",""time""
""fullscreenenter"",""1"",""1960""
","
","
","""event"",""trial"",""time""
""fullscreenenter"",""1"",""1960""
","
","","","","","","null","<div style=""font-size:60px;"">+</div>","null","","fixation","","","","","","","","","","",""
"aa-learning-trial","129","519351","0.0-9.0-2.0-1.28","3722","1","10","Female","approach_avoid_spark_v1","""event"",""trial"",""time""
""fullscreenenter"",""1"",""1960""
","
","
","""event"",""trial"",""time""
""fullscreenenter"",""1"",""1960""
","
","","","","","","1543.7999999523163","images/sheep7.png","","","learning","4","0","0","0","sheep","animals","1","0","","good","[6]"
"html-keyboard-response","130","519853","0.0-9.0-2.0-0.29","3722","1","10","Female","approach_avoid_spark_v1","""event"",""trial"",""time""
""fullscreenenter"",""1"",""1960""
","
","
","""event"",""trial"",""time""
""fullscreenenter"",""1"",""1960""
","
","","","","","","null","<div style=""font-size:60px;"">+</div>","null","","fixation","","","","","","","","","","",""
"aa-learning-trial","131","522855","0.0-9.0-2.0-1.29","3722","1","10","Female","approach_avoid_spark_v1","""event"",""trial"",""time""
""fullscreenenter"",""1"",""1960""
","
","
","""event"",""trial"",""time""
""fullscreenenter"",""1"",""1960""
","
","","","","","","1175.8999999761581","images/sheep2.png","","","learning","5","5","1","1","sheep","animals","1","0","","good","[6]"
"html-keyboard-response","132","523356","0.0-9.0-2.0-0.30","3722","1","10","Female","approach_avoid_spark_v1","""event"",""trial"",""time""
""fullscreenenter"",""1"",""1960""
","
","
","""event"",""trial"",""time""
""fullscreenenter"",""1"",""1960""
","
","","","","","","null","<div style=""font-size:60px;"">+</div>","null","","fixation","","","","","","","","","","",""
"aa-learning-trial","133","526359","0.0-9.0-2.0-1.30","3722","1","10","Female","approach_avoid_spark_v1","""event"",""trial"",""time""
""fullscreenenter"",""1"",""1960""
","
","
","""event"",""trial"",""time""
""fullscreenenter"",""1"",""1960""
","
","","","","","","1168.6000000238419","images/sheep8.png","","","learning","4","4","1","1","sheep","animals","1","0","","good","[6]"
"html-keyboard-response","134","526860","0.0-9.0-2.0-0.31","3722","1","10","Female","approach_avoid_spark_v1","""event"",""trial"",""time""
""fullscreenenter"",""1"",""1960""
","
","
","""event"",""trial"",""time""
""fullscreenenter"",""1"",""1960""
","
","","","","","","null","<div style=""font-size:60px;"">+</div>","null","","fixation","","","","","","","","","","",""
"aa-learning-trial","135","529861","0.0-9.0-2.0-1.31","3722","1","10","Female","approach_avoid_spark_v1","""event"",""trial"",""time""
""fullscreenenter"",""1"",""1960""
","
","
","""event"",""trial"",""time""
""fullscreenenter"",""1"",""1960""
","
","","","","","","1329.5","images/horse7.png","","","learning","-4","0","0","0","horse","animals","1","0","","bad","[-6]"
"html-keyboard-response","136","530363","0.0-9.0-2.0-0.32","3722","1","10","Female","approach_avoid_spark_v1","""event"",""trial"",""time""
""fullscreenenter"",""1"",""1960""
","
","
","""event"",""trial"",""time""
""fullscreenenter"",""1"",""1960""
","
","","","","","","null","<div style=""font-size:60px;"">+</div>","null","","fixation","","","","","","","","","","",""
"aa-learning-trial","137","533365","0.0-9.0-2.0-1.32","3722","1","10","Female","approach_avoid_spark_v1","""event"",""trial"",""time""
""fullscreenenter"",""1"",""1960""
","
","
","""event"",""trial"",""time""
""fullscreenenter"",""1"",""1960""
","
","","","","","","937.5","images/sheep8.png","","","learning","5","5","1","1","sheep","animals","1","0","","good","[6]"
"html-keyboard-response","138","533867","0.0-9.0-2.0-0.33","3722","1","10","Female","approach_avoid_spark_v1","""event"",""trial"",""time""
""fullscreenenter"",""1"",""1960""
","
","
","""event"",""trial"",""time""
""fullscreenenter"",""1"",""1960""
","
","","","","","","null","<div style=""font-size:60px;"">+</div>","null","","fixation","","","","","","","","","","",""
"aa-learning-trial","139","536869","0.0-9.0-2.0-1.33","3722","1","10","Female","approach_avoid_spark_v1","""event"",""trial"",""time""
""fullscreenenter"",""1"",""1960""
","
","
","""event"",""trial"",""time""
""fullscreenenter"",""1"",""1960""
","
","","","","","","714.0999999046326","images/horse3.png","","","learning","-7","0","0","0","horse","animals","1","0","","bad","[-6]"
"html-keyboard-response","140","537369","0.0-9.0-2.0-0.34","3722","1","10","Female","approach_avoid_spark_v1","""event"",""trial"",""time""
""fullscreenenter"",""1"",""1960""
","
","
","""event"",""trial"",""time""
""fullscreenenter"",""1"",""1960""
","
","","","","","","null","<div style=""font-size:60px;"">+</div>","null","","fixation","","","","","","","","","","",""
"aa-learning-trial","141","540372","0.0-9.0-2.0-1.34","3722","1","10","Female","approach_avoid_spark_v1","""event"",""trial"",""time""
""fullscreenenter"",""1"",""1960""
","
","
","""event"",""trial"",""time""
""fullscreenenter"",""1"",""1960""
","
","","","","","","699.2999999523163","images/sheep3.png","","","learning","6","6","1","1","sheep","animals","1","0","","good","[6]"
"html-keyboard-response","142","540873","0.0-9.0-2.0-0.35","3722","1","10","Female","approach_avoid_spark_v1","""event"",""trial"",""time""
""fullscreenenter"",""1"",""1960""
","
","
","""event"",""trial"",""time""
""fullscreenenter"",""1"",""1960""
","
","","","","","","null","<div style=""font-size:60px;"">+</div>","null","","fixation","","","","","","","","","","",""
"aa-learning-trial","143","543876","0.0-9.0-2.0-1.35","3722","1","10","Female","approach_avoid_spark_v1","""event"",""trial"",""time""
""fullscreenenter"",""1"",""1960""
","
","
","""event"",""trial"",""time""
""fullscreenenter"",""1"",""1960""
","
","","","","","","627.6000000238419","images/horse6.png","","","learning","-7","0","0","0","horse","animals","1","0","","bad","[-6]"
"html-keyboard-response","144","544378","0.0-9.0-2.0-0.36","3722","1","10","Female","approach_avoid_spark_v1","""event"",""trial"",""time""
""fullscreenenter"",""1"",""1960""
","
","
","""event"",""trial"",""time""
""fullscreenenter"",""1"",""1960""
","
","","","","","","null","<div style=""font-size:60px;"">+</div>","null","","fixation","","","","","","","","","","",""
"aa-learning-trial","145","547380","0.0-9.0-2.0-1.36","3722","1","10","Female","approach_avoid_spark_v1","""event"",""trial"",""time""
""fullscreenenter"",""1"",""1960""
","
","
","""event"",""trial"",""time""
""fullscreenenter"",""1"",""1960""
","
","","","","","","930.8999999761581","images/horse3.png","","","learning","-5","0","0","0","horse","animals","1","0","","bad","[-6]"
"html-keyboard-response","146","547881","0.0-9.0-2.0-0.37","3722","1","10","Female","approach_avoid_spark_v1","""event"",""trial"",""time""
""fullscreenenter"",""1"",""1960""
","
","
","""event"",""trial"",""time""
""fullscreenenter"",""1"",""1960""
","
","","","","","","null","<div style=""font-size:60px;"">+</div>","null","","fixation","","","","","","","","","","",""
"aa-learning-trial","147","550882","0.0-9.0-2.0-1.37","3722","1","10","Female","approach_avoid_spark_v1","""event"",""trial"",""time""
""fullscreenenter"",""1"",""1960""
","
","
","""event"",""trial"",""time""
""fullscreenenter"",""1"",""1960""
","
","","","","","","916.2000000476837","images/horse1.png","","","learning","-7","0","0","0","horse","animals","1","0","","bad","[-6]"
"html-keyboard-response","148","551384","0.0-9.0-2.0-0.38","3722","1","10","Female","approach_avoid_spark_v1","""event"",""trial"",""time""
""fullscreenenter"",""1"",""1960""
","
","
","""event"",""trial"",""time""
""fullscreenenter"",""1"",""1960""
","
","","","","","","null","<div style=""font-size:60px;"">+</div>","null","","fixation","","","","","","","","","","",""
"aa-learning-trial","149","554385","0.0-9.0-2.0-1.38","3722","1","10","Female","approach_avoid_spark_v1","""event"",""trial"",""time""
""fullscreenenter"",""1"",""1960""
","
","
","""event"",""trial"",""time""
""fullscreenenter"",""1"",""1960""
","
","","","","","","845.7000000476837","images/cow4.png","","","learning","2","2","1","1","cow","animals","1","0","","neutral","0"
"html-keyboard-response","150","554887","0.0-9.0-2.0-0.39","3722","1","10","Female","approach_avoid_spark_v1","""event"",""trial"",""time""
""fullscreenenter"",""1"",""1960""
","
","
","""event"",""trial"",""time""
""fullscreenenter"",""1"",""1960""
","
","","","","","","null","<div style=""font-size:60px;"">+</div>","null","","fixation","","","","","","","","","","",""
"aa-learning-trial","151","557889","0.0-9.0-2.0-1.39","3722","1","10","Female","approach_avoid_spark_v1","""event"",""trial"",""time""
""fullscreenenter"",""1"",""1960""
","
","
","""event"",""trial"",""time""
""fullscreenenter"",""1"",""1960""
","
","","","","","","741.7000000476837","images/horse2.png","","","learning","-4","0","0","0","horse","animals","1","0","","bad","[-6]"
"html-keyboard-response","152","558390","0.0-9.0-2.0-0.40","3722","1","10","Female","approach_avoid_spark_v1","""event"",""trial"",""time""
""fullscreenenter"",""1"",""1960""
","
","
","""event"",""trial"",""time""
""fullscreenenter"",""1"",""1960""
","
","","","","","","null","<div style=""font-size:60px;"">+</div>","null","","fixation","","","","","","","","","","",""
"aa-learning-trial","153","561392","0.0-9.0-2.0-1.40","3722","1","10","Female","approach_avoid_spark_v1","""event"",""trial"",""time""
""fullscreenenter"",""1"",""1960""
","
","
","""event"",""trial"",""time""
""fullscreenenter"",""1"",""1960""
","
","","","","","","862.3999999761581","images/sheep6.png","","","learning","6","0","0","0","sheep","animals","1","0","","good","[6]"
"html-keyboard-response","154","561894","0.0-9.0-2.0-0.41","3722","1","10","Female","approach_avoid_spark_v1","""event"",""trial"",""time""
""fullscreenenter"",""1"",""1960""
","
","
","""event"",""trial"",""time""
""fullscreenenter"",""1"",""1960""
","
","","","","","","null","<div style=""font-size:60px;"">+</div>","null","","fixation","","","","","","","","","","",""
"aa-learning-trial","155","564895","0.0-9.0-2.0-1.41","3722","1","10","Female","approach_avoid_spark_v1","""event"",""trial"",""time""
""fullscreenenter"",""1"",""1960""
","
","
","""event"",""trial"",""time""
""fullscreenenter"",""1"",""1960""
","
","","","","","","903.7999999523163","images/cow8.png","","","learning","[-1]","-1","1","1","cow","animals","1","0","","neutral","0"
"html-keyboard-response","156","565397","0.0-9.0-2.0-0.42","3722","1","10","Female","approach_avoid_spark_v1","""event"",""trial"",""time""
""fullscreenenter"",""1"",""1960""
","
","
","""event"",""trial"",""time""
""fullscreenenter"",""1"",""1960""
","
","","","","","","null","<div style=""font-size:60px;"">+</div>","null","","fixation","","","","","","","","","","",""
"aa-learning-trial","157","568399","0.0-9.0-2.0-1.42","3722","1","10","Female","approach_avoid_spark_v1","""event"",""trial"",""time""
""fullscreenenter"",""1"",""1960""
","
","
","""event"",""trial"",""time""
""fullscreenenter"",""1"",""1960""
","
","","","","","","768.5","images/cow5.png","","","learning","2","2","1","1","cow","animals","1","0","","neutral","0"
"html-keyboard-response","158","568900","0.0-9.0-2.0-0.43","3722","1","10","Female","approach_avoid_spark_v1","""event"",""trial"",""time""
""fullscreenenter"",""1"",""1960""
","
","
","""event"",""trial"",""time""
""fullscreenenter"",""1"",""1960""
","
","","","","","","null","<div style=""font-size:60px;"">+</div>","null","","fixation","","","","","","","","","","",""
"aa-learning-trial","159","571902","0.0-9.0-2.0-1.43","3722","1","10","Female","approach_avoid_spark_v1","""event"",""trial"",""time""
""fullscreenenter"",""1"",""1960""
","
","
","""event"",""trial"",""time""
""fullscreenenter"",""1"",""1960""
","
","","","","","","1160.6000000238419","images/cow6.png","","","learning","1","0","0","0","cow","animals","1","0","","neutral","0"
"html-keyboard-response","160","572403","0.0-9.0-2.0-0.44","3722","1","10","Female","approach_avoid_spark_v1","""event"",""trial"",""time""
""fullscreenenter"",""1"",""1960""
","
","
","""event"",""trial"",""time""
""fullscreenenter"",""1"",""1960""
","
","","","","","","null","<div style=""font-size:60px;"">+</div>","null","","fixation","","","","","","","","","","",""
"aa-learning-trial","161","575405","0.0-9.0-2.0-1.44","3722","1","10","Female","approach_avoid_spark_v1","""event"",""trial"",""time""
""fullscreenenter"",""1"",""1960""
","
","
","""event"",""trial"",""time""
""fullscreenenter"",""1"",""1960""
","
","","","","","","745.8000000715256","images/horse2.png","","","learning","-7","0","0","0","horse","animals","1","0","","bad","[-6]"
"html-keyboard-response","162","575906","0.0-9.0-2.0-0.45","3722","1","10","Female","approach_avoid_spark_v1","""event"",""trial"",""time""
""fullscreenenter"",""1"",""1960""
","
","
","""event"",""trial"",""time""
""fullscreenenter"",""1"",""1960""
","
","","","","","","null","<div style=""font-size:60px;"">+</div>","null","","fixation","","","","","","","","","","",""
"aa-learning-trial","163","578907","0.0-9.0-2.0-1.45","3722","1","10","Female","approach_avoid_spark_v1","""event"",""trial"",""time""
""fullscreenenter"",""1"",""1960""
","
","
","""event"",""trial"",""time""
""fullscreenenter"",""1"",""1960""
","
","","","","","","867.5","images/cow3.png","","","learning","-1","-1","1","1","cow","animals","1","0","","neutral","0"
"html-keyboard-response","164","579410","0.0-9.0-2.0-0.46","3722","1","10","Female","approach_avoid_spark_v1","""event"",""trial"",""time""
""fullscreenenter"",""1"",""1960""
","
","
","""event"",""trial"",""time""
""fullscreenenter"",""1"",""1960""
","
","","","","","","null","<div style=""font-size:60px;"">+</div>","null","","fixation","","","","","","","","","","",""
"aa-learning-trial","165","582411","0.0-9.0-2.0-1.46","3722","1","10","Female","approach_avoid_spark_v1","""event"",""trial"",""time""
""fullscreenenter"",""1"",""1960""
","
","
","""event"",""trial"",""time""
""fullscreenenter"",""1"",""1960""
","
","","","","","","923.5","images/horse6.png","","","learning","-6","0","0","0","horse","animals","1","0","","bad","[-6]"
"html-keyboard-response","166","582912","0.0-9.0-2.0-0.47","3722","1","10","Female","approach_avoid_spark_v1","""event"",""trial"",""time""
""fullscreenenter"",""1"",""1960""
","
","
","""event"",""trial"",""time""
""fullscreenenter"",""1"",""1960""
","
","","","","","","null","<div style=""font-size:60px;"">+</div>","null","","fixation","","","","","","","","","","",""
"aa-learning-trial","167","585914","0.0-9.0-2.0-1.47","3722","1","10","Female","approach_avoid_spark_v1","""event"",""trial"",""time""
""fullscreenenter"",""1"",""1960""
","
","
","""event"",""trial"",""time""
""fullscreenenter"",""1"",""1960""
","
","","","","","","972.5999999046326","images/cow5.png","","","learning","1","1","1","1","cow","animals","1","0","","neutral","0"
"html-keyboard-response","168","586416","0.0-9.0-2.0-0.48","3722","1","10","Female","approach_avoid_spark_v1","""event"",""trial"",""time""
""fullscreenenter"",""1"",""1960""
","
","
","""event"",""trial"",""time""
""fullscreenenter"",""1"",""1960""
","
","","","","","","null","<div style=""font-size:60px;"">+</div>","null","","fixation","","","","","","","","","","",""
"aa-learning-trial","169","589419","0.0-9.0-2.0-1.48","3722","1","10","Female","approach_avoid_spark_v1","""event"",""trial"",""time""
""fullscreenenter"",""1"",""1960""
","
","
","""event"",""trial"",""time""
""fullscreenenter"",""1"",""1960""
","
","","","","","","1692.6999999284744","images/cow8.png","","","learning","-1","-1","1","1","cow","animals","1","0","","neutral","0"
"html-keyboard-response","170","589920","0.0-9.0-2.0-0.49","3722","1","10","Female","approach_avoid_spark_v1","""event"",""trial"",""time""
""fullscreenenter"",""1"",""1960""
","
","
","""event"",""trial"",""time""
""fullscreenenter"",""1"",""1960""
","
","","","","","","null","<div style=""font-size:60px;"">+</div>","null","","fixation","","","","","","","","","","",""
"aa-learning-trial","171","592921","0.0-9.0-2.0-1.49","3722","1","10","Female","approach_avoid_spark_v1","""event"",""trial"",""time""
""fullscreenenter"",""1"",""1960""
","
","
","""event"",""trial"",""time""
""fullscreenenter"",""1"",""1960""
","
","","","","","","709.1999999284744","images/horse3.png","","","learning","-6","0","0","0","horse","animals","1","0","","bad","[-6]"
"html-keyboard-response","172","593424","0.0-9.0-2.0-0.50","3722","1","10","Female","approach_avoid_spark_v1","""event"",""trial"",""time""
""fullscreenenter"",""1"",""1960""
","
","
","""event"",""trial"",""time""
""fullscreenenter"",""1"",""1960""
","
","","","","","","null","<div style=""font-size:60px;"">+</div>","null","","fixation","","","","","","","","","","",""
"aa-learning-trial","173","596426","0.0-9.0-2.0-1.50","3722","1","10","Female","approach_avoid_spark_v1","""event"",""trial"",""time""
""fullscreenenter"",""1"",""1960""
","
","
","""event"",""trial"",""time""
""fullscreenenter"",""1"",""1960""
","
","","","","","","701.1000000238419","images/horse3.png","","","learning","-4","0","0","0","horse","animals","1","0","","bad","[-6]"
"html-button-response","174","599414","0.0-9.0-3.0","3722","1","10","Female","approach_avoid_spark_v1","""event"",""trial"",""time""
""fullscreenenter"",""1"",""1960""
","
","
","""event"",""trial"",""time""
""fullscreenenter"",""1"",""1960""
","
","","","","","","2987.600000023842","<p> You have completed the round! <p> In this round, you earned 46 points! </p>","0","","break","","","","","","","","","","",""
"html-button-response","175","600662","0.0-10.0","3722","1","10","Female","approach_avoid_spark_v1","""event"",""trial"",""time""
""fullscreenenter"",""1"",""1960""
","
","
","""event"",""trial"",""time""
""fullscreenenter"",""1"",""1960""
","
","","","","","","1247","<p> Now it's time to play another round. </p>","0","","transition_screen","","","","","","","","","","",""
"preload","176","600776","0.0-11.0-0.0","3722","1","10","Female","approach_avoid_spark_v1","""event"",""trial"",""time""
""fullscreenenter"",""1"",""1960""
","
","
","""event"",""trial"",""time""
""fullscreenenter"",""1"",""1960""
","
","true","false","[]","[]","[]","","","","","","","","","","","","","","","",""
"learning-instructions","177","609054","0.0-11.0-1.0-0.0","3722","1","10","Female","approach_avoid_spark_v1","""event"",""trial"",""time""
""fullscreenenter"",""1"",""1960""
","
","
","""event"",""trial"",""time""
""fullscreenenter"",""1"",""1960""
","
","","","","","","3610.2000000476837","<p> Your goal in this round is to take care of lots of animals. </p></div>","","0","instructions","","","","","","","","","","",""
"learning-instructions","178","621174","0.0-11.0-1.0-0.1","3722","1","10","Female","approach_avoid_spark_v1","""event"",""trial"",""time""
""fullscreenenter"",""1"",""1960""
","
","
","""event"",""trial"",""time""
""fullscreenenter"",""1"",""1960""
","
","","","","","","2510.7000000476837","<p> Some animals want to be pet, while other animals want to be left alone.  </p><p> On each turn, you will see an animal.   </p><p> You need to decide whether to pet it or not.  </p>","","0","instructions","","","","","","","","","","",""
"learning-instructions","179","627382","0.0-11.0-1.0-0.2","3722","1","10","Female","approach_avoid_spark_v1","""event"",""trial"",""time""
""fullscreenenter"",""1"",""1960""
","
","
","""event"",""trial"",""time""
""fullscreenenter"",""1"",""1960""
","
","","","","","","878.1000000238419","<p> You can pet the animal by pressing 1 and leave the animal alone by pressing 0. </p><br><div class=""choice-instructions-grid""> <div class=""choice-option""><img src=""images/approach.png"" class=""choice-option-img"" stage=""instructions"" position=""0"" ><div class=""choice-option-text""> Press ""1."" </div></div><div class=""choice-option""><img src=""images/avoid.png"" class=""choice-option-img"" stage=""instructions"" position=""1"" ><div class=""choice-option-text""> Press ""0."" </div></div>","","0","instructions","","","","","","","","","","",""
"learning-instructions","180","637478","0.0-11.0-1.0-0.3","3722","1","10","Female","approach_avoid_spark_v1","""event"",""trial"",""time""
""fullscreenenter"",""1"",""1960""
","
","
","""event"",""trial"",""time""
""fullscreenenter"",""1"",""1960""
","
","","","","","","1204.5","<p> If you pet an animal that wants to be pet, you will make it feel happy! </p><p> But if you pet an animal that wants to be left alone, you will make it feel angry. </p>","","0","instructions","","","","","","","","","","",""
"learning-instructions","181","650774","0.0-11.0-1.0-0.4","3722","1","10","Female","approach_avoid_spark_v1","""event"",""trial"",""time""
""fullscreenenter"",""1"",""1960""
","
","
","""event"",""trial"",""time""
""fullscreenenter"",""1"",""1960""
","
","","","","","","930.1000000238419","<p> You will earn points based on how you made the animal feel. </p><p> If you made it feel happy, you will WIN anywhere from 1 - 9 points, </p><p> but if you made it feel angry, you will LOSE anywhere from 1 - 9 points. </p>","","0","instructions","","","","","","","","","","",""
"learning-instructions","182","658447","0.0-11.0-1.0-0.5","3722","1","10","Female","approach_avoid_spark_v1","""event"",""trial"",""time""
""fullscreenenter"",""1"",""1960""
","
","
","""event"",""trial"",""time""
""fullscreenenter"",""1"",""1960""
","
","","","","","","1013.3999999761581","<p> You will see how many points you won or lost in the center of the screen. </p><p> Here is what you would see if you won 5 points: </p><p style=""color:green;font-size:50px;font-weight:bolder"">5</p>","","0","instructions","","","","","","","","","","",""
"learning-instructions","183","670871","0.0-11.0-1.0-0.6","3722","1","10","Female","approach_avoid_spark_v1","""event"",""trial"",""time""
""fullscreenenter"",""1"",""1960""
","
","
","""event"",""trial"",""time""
""fullscreenenter"",""1"",""1960""
","
","","","","","","9586.799999952316","<p> And here is what you would see if you lost 3 points: </p><p style=""color:red;font-size:50px;font-weight:bolder"">-3</p>","","0","instructions","","","","","","","","","","",""
"learning-instructions","184","685006","0.0-11.0-1.0-0.7","3722","1","10","Female","approach_avoid_spark_v1","""event"",""trial"",""time""
""fullscreenenter"",""1"",""1960""
","
","
","""event"",""trial"",""time""
""fullscreenenter"",""1"",""1960""
","
","","","","","","222.39999997615814","<p> Some animals will become very happy or very angry. </p><p> These animals will make you win or lose LOTS of points. </p><p> Other animals have less strong feelings. </p><p> These animals will make you win or lose small amounts of points. </p>","","0","instructions","","","","","","","","","","",""
"learning-instructions","185","697326","0.0-11.0-1.0-0.8","3722","1","10","Female","approach_avoid_spark_v1","""event"",""trial"",""time""
""fullscreenenter"",""1"",""1960""
","
","
","""event"",""trial"",""time""
""fullscreenenter"",""1"",""1960""
","
","","","","","","1032.4000000953674","<p> If you choose to leave the animal alone, you will not win or lose any points. </p><p>  However, in the center of the screen, you will see the number of points you WOULD HAVE won or lost if you had pet the animal. </p>","","0","instructions","","","","","","","","","","",""
"learning-instructions","186","710494","0.0-11.0-1.0-0.9","3722","1","10","Female","approach_avoid_spark_v1","""event"",""trial"",""time""
""fullscreenenter"",""1"",""1960""
","
","
","""event"",""trial"",""time""
""fullscreenenter"",""1"",""1960""
","
","","","","","","1470.1999999284744","<p> Here is what you might see if you did not pet the animal but the animal wanted to be pet: </p><p style=""color:grey; font-size:50px; display: inline-block; border-spacing: 15px; border-width:3px; border-style:solid; border-color:red"">  &nbsp; 6 &nbsp; </p><p> Remember, in this case, you would not win or lose ANY points because you did not pet the animal.  </p>","","0","instructions","","","","","","","","","","",""
"learning-instructions","187","718614","0.0-11.0-1.0-0.10","3722","1","10","Female","approach_avoid_spark_v1","""event"",""trial"",""time""
""fullscreenenter"",""1"",""1960""
","
","
","""event"",""trial"",""time""
""fullscreenenter"",""1"",""1960""
","
","","","","","","940.4000000953674","<p> Try to make the best choice for each animal because </p><p> at the end of the game, you will earn bonus money based on how many points you earned. </p>","","0","instructions","","","","","","","","","","",""
"learning-instructions","188","727270","0.0-11.0-1.0-0.11","3722","1","10","Female","approach_avoid_spark_v1","""event"",""trial"",""time""
""fullscreenenter"",""1"",""1960""
","
","
","""event"",""trial"",""time""
""fullscreenenter"",""1"",""1960""
","
","","","","","","456.6999999284744","<p> You will have 3 seconds to make each choice. Try to respond before time runs out! </p><p> You will lose 5 points each time you do not make a response. </p>","","0","instructions","","","","","","","","","","",""
"html-keyboard-response","189","727892","0.0-11.0-2.0-0.0","3722","1","10","Female","approach_avoid_spark_v1","""event"",""trial"",""time""
""fullscreenenter"",""1"",""1960""
","
","
","""event"",""trial"",""time""
""fullscreenenter"",""1"",""1960""
","
","","","","","","null","<div style=""font-size:60px;"">+</div>","null","","fixation","","","","","","","","","","",""
"aa-learning-trial","190","730900","0.0-11.0-2.0-1.0","3722","1","10","Female","approach_avoid_spark_v1","""event"",""trial"",""time""
""fullscreenenter"",""1"",""1960""
","
","
","""event"",""trial"",""time""
""fullscreenenter"",""1"",""1960""
","
","","","","","","1273.3000000715256","images/rabbit1.png","","","learning","-9","-9","1","1","rabbit","pets","2","1","","bad","[-6]"
"html-keyboard-response","191","731413","0.0-11.0-2.0-0.1","3722","1","10","Female","approach_avoid_spark_v1","""event"",""trial"",""time""
""fullscreenenter"",""1"",""1960""
","
","
","""event"",""trial"",""time""
""fullscreenenter"",""1"",""1960""
","
","","","","","","null","<div style=""font-size:60px;"">+</div>","null","","fixation","","","","","","","","","","",""
"aa-learning-trial","192","734429","0.0-11.0-2.0-1.1","3722","1","10","Female","approach_avoid_spark_v1","""event"",""trial"",""time""
""fullscreenenter"",""1"",""1960""
","
","
","""event"",""trial"",""time""
""fullscreenenter"",""1"",""1960""
","
","","","","","","1600.2999999523163","images/cat2.png","","","learning","3","3","1","1","cat","pets","2","1","","neutral","0"
"html-keyboard-response","193","734941","0.0-11.0-2.0-0.2","3722","1","10","Female","approach_avoid_spark_v1","""event"",""trial"",""time""
""fullscreenenter"",""1"",""1960""
","
","
","""event"",""trial"",""time""
""fullscreenenter"",""1"",""1960""
","
","","","","","","null","<div style=""font-size:60px;"">+</div>","null","","fixation","","","","","","","","","","",""
"aa-learning-trial","194","737945","0.0-11.0-2.0-1.2","3722","1","10","Female","approach_avoid_spark_v1","""event"",""trial"",""time""
""fullscreenenter"",""1"",""1960""
","
","
","""event"",""trial"",""time""
""fullscreenenter"",""1"",""1960""
","
","","","","","","775.7000000476837","images/rabbit5.png","","","learning","4","0","0","0","rabbit","pets","2","1","","bad","[-6]"
"html-keyboard-response","195","738459","0.0-11.0-2.0-0.3","3722","1","10","Female","approach_avoid_spark_v1","""event"",""trial"",""time""
""fullscreenenter"",""1"",""1960""
","
","
","""event"",""trial"",""time""
""fullscreenenter"",""1"",""1960""
","
","","","","","","null","<div style=""font-size:60px;"">+</div>","null","","fixation","","","","","","","","","","",""
"aa-learning-trial","196","741463","0.0-11.0-2.0-1.3","3722","1","10","Female","approach_avoid_spark_v1","""event"",""trial"",""time""
""fullscreenenter"",""1"",""1960""
","
","
","""event"",""trial"",""time""
""fullscreenenter"",""1"",""1960""
","
","","","","","","698","images/rabbit4.png","","","learning","-5","-5","1","1","rabbit","pets","2","1","","bad","[-6]"
"html-keyboard-response","197","741976","0.0-11.0-2.0-0.4","3722","1","10","Female","approach_avoid_spark_v1","""event"",""trial"",""time""
""fullscreenenter"",""1"",""1960""
","
","
","""event"",""trial"",""time""
""fullscreenenter"",""1"",""1960""
","
","","","","","","null","<div style=""font-size:60px;"">+</div>","null","","fixation","","","","","","","","","","",""
"aa-learning-trial","198","744982","0.0-11.0-2.0-1.4","3722","1","10","Female","approach_avoid_spark_v1","""event"",""trial"",""time""
""fullscreenenter"",""1"",""1960""
","
","
","""event"",""trial"",""time""
""fullscreenenter"",""1"",""1960""
","
","","","","","","1124.7000000476837","images/rodent2.png","","","learning","-2","0","0","0","rodent","pets","2","1","","good","[5]"
"html-keyboard-response","199","745483","0.0-11.0-2.0-0.5","3722","1","10","Female","approach_avoid_spark_v1","""event"",""trial"",""time""
""fullscreenenter"",""1"",""1960""
","
","
","""event"",""trial"",""time""
""fullscreenenter"",""1"",""1960""
","
","","","","","","null","<div style=""font-size:60px;"">+</div>","null","","fixation","","","","","","","","","","",""
"aa-learning-trial","200","748499","0.0-11.0-2.0-1.5","3722","1","10","Female","approach_avoid_spark_v1","""event"",""trial"",""time""
""fullscreenenter"",""1"",""1960""
","
","
","""event"",""trial"",""time""
""fullscreenenter"",""1"",""1960""
","
","","","","","","1353.1000000238419","images/rabbit1.png","","","learning","-9","-9","1","1","rabbit","pets","2","1","","bad","[-6]"
"html-keyboard-response","201","749011","0.0-11.0-2.0-0.6","3722","1","10","Female","approach_avoid_spark_v1","""event"",""trial"",""time""
""fullscreenenter"",""1"",""1960""
","
","
","""event"",""trial"",""time""
""fullscreenenter"",""1"",""1960""
","
","","","","","","null","<div style=""font-size:60px;"">+</div>","null","","fixation","","","","","","","","","","",""
"aa-learning-trial","202","752016","0.0-11.0-2.0-1.6","3722","1","10","Female","approach_avoid_spark_v1","""event"",""trial"",""time""
""fullscreenenter"",""1"",""1960""
","
","
","""event"",""trial"",""time""
""fullscreenenter"",""1"",""1960""
","
","","","","","","1033.6000000238419","images/rodent3.png","","","learning","5","5","1","1","rodent","pets","2","1","","good","[5]"
"html-keyboard-response","203","752530","0.0-11.0-2.0-0.7","3722","1","10","Female","approach_avoid_spark_v1","""event"",""trial"",""time""
""fullscreenenter"",""1"",""1960""
","
","
","""event"",""trial"",""time""
""fullscreenenter"",""1"",""1960""
","
","","","","","","null","<div style=""font-size:60px;"">+</div>","null","","fixation","","","","","","","","","","",""
"aa-learning-trial","204","755547","0.0-11.0-2.0-1.7","3722","1","10","Female","approach_avoid_spark_v1","""event"",""trial"",""time""
""fullscreenenter"",""1"",""1960""
","
","
","""event"",""trial"",""time""
""fullscreenenter"",""1"",""1960""
","
","","","","","","1130.8000000715256","images/cat6.png","","","learning","-7","-7","1","1","cat","pets","2","1","","neutral","0"
"html-keyboard-response","205","756060","0.0-11.0-2.0-0.8","3722","1","10","Female","approach_avoid_spark_v1","""event"",""trial"",""time""
""fullscreenenter"",""1"",""1960""
","
","
","""event"",""trial"",""time""
""fullscreenenter"",""1"",""1960""
","
","","","","","","null","<div style=""font-size:60px;"">+</div>","null","","fixation","","","","","","","","","","",""
"aa-learning-trial","206","759063","0.0-11.0-2.0-1.8","3722","1","10","Female","approach_avoid_spark_v1","""event"",""trial"",""time""
""fullscreenenter"",""1"",""1960""
","
","
","""event"",""trial"",""time""
""fullscreenenter"",""1"",""1960""
","
","","","","","","936.3999999761581","images/rodent2.png","","","learning","-2","-2","1","1","rodent","pets","2","1","","good","[5]"
"html-keyboard-response","207","759565","0.0-11.0-2.0-0.9","3722","1","10","Female","approach_avoid_spark_v1","""event"",""trial"",""time""
""fullscreenenter"",""1"",""1960""
","
","
","""event"",""trial"",""time""
""fullscreenenter"",""1"",""1960""
","
","","","","","","null","<div style=""font-size:60px;"">+</div>","null","","fixation","","","","","","","","","","",""
"aa-learning-trial","208","762568","0.0-11.0-2.0-1.9","3722","1","10","Female","approach_avoid_spark_v1","""event"",""trial"",""time""
""fullscreenenter"",""1"",""1960""
","
","
","""event"",""trial"",""time""
""fullscreenenter"",""1"",""1960""
","
","","","","","","1191.6999999284744","images/cat6.png","","","learning","-7","0","0","0","cat","pets","2","1","","neutral","0"
"html-keyboard-response","209","763068","0.0-11.0-2.0-0.10","3722","1","10","Female","approach_avoid_spark_v1","""event"",""trial"",""time""
""fullscreenenter"",""1"",""1960""
","
","
","""event"",""trial"",""time""
""fullscreenenter"",""1"",""1960""
","
","","","","","","null","<div style=""font-size:60px;"">+</div>","null","","fixation","","","","","","","","","","",""
"aa-learning-trial","210","766070","0.0-11.0-2.0-1.10","3722","1","10","Female","approach_avoid_spark_v1","""event"",""trial"",""time""
""fullscreenenter"",""1"",""1960""
","
","
","""event"",""trial"",""time""
""fullscreenenter"",""1"",""1960""
","
","","","","","","1008.5999999046326","images/rabbit4.png","","","learning","-5","0","0","0","rabbit","pets","2","1","","bad","[-6]"
"html-keyboard-response","211","766572","0.0-11.0-2.0-0.11","3722","1","10","Female","approach_avoid_spark_v1","""event"",""trial"",""time""
""fullscreenenter"",""1"",""1960""
","
","
","""event"",""trial"",""time""
""fullscreenenter"",""1"",""1960""
","
","","","","","","null","<div style=""font-size:60px;"">+</div>","null","","fixation","","","","","","","","","","",""
"aa-learning-trial","212","769574","0.0-11.0-2.0-1.11","3722","1","10","Female","approach_avoid_spark_v1","""event"",""trial"",""time""
""fullscreenenter"",""1"",""1960""
","
","
","""event"",""trial"",""time""
""fullscreenenter"",""1"",""1960""
","
","","","","","","905.1999999284744","images/cat2.png","","","learning","3","3","1","1","cat","pets","2","1","","neutral","0"
"html-keyboard-response","213","770075","0.0-11.0-2.0-0.12","3722","1","10","Female","approach_avoid_spark_v1","""event"",""trial"",""time""
""fullscreenenter"",""1"",""1960""
","
","
","""event"",""trial"",""time""
""fullscreenenter"",""1"",""1960""
","
","","","","","","null","<div style=""font-size:60px;"">+</div>","null","","fixation","","","","","","","","","","",""
"aa-learning-trial","214","773077","0.0-11.0-2.0-1.12","3722","1","10","Female","approach_avoid_spark_v1","""event"",""trial"",""time""
""fullscreenenter"",""1"",""1960""
","
","
","""event"",""trial"",""time""
""fullscreenenter"",""1"",""1960""
","
","","","","","","1113.7000000476837","images/cat4.png","","","learning","-3","0","0","0","cat","pets","2","1","","neutral","0"
"html-keyboard-response","215","773578","0.0-11.0-2.0-0.13","3722","1","10","Female","approach_avoid_spark_v1","""event"",""trial"",""time""
""fullscreenenter"",""1"",""1960""
","
","
","""event"",""trial"",""time""
""fullscreenenter"",""1"",""1960""
","
","","","","","","null","<div style=""font-size:60px;"">+</div>","null","","fixation","","","","","","","","","","",""
"aa-learning-trial","216","776580","0.0-11.0-2.0-1.13","3722","1","10","Female","approach_avoid_spark_v1","""event"",""trial"",""time""
""fullscreenenter"",""1"",""1960""
","
","
","""event"",""trial"",""time""
""fullscreenenter"",""1"",""1960""
","
","","","","","","898.9000000953674","images/rodent5.png","","","learning","8","8","1","1","rodent","pets","2","1","","good","[5]"
"html-keyboard-response","217","777081","0.0-11.0-2.0-0.14","3722","1","10","Female","approach_avoid_spark_v1","""event"",""trial"",""time""
""fullscreenenter"",""1"",""1960""
","
","
","""event"",""trial"",""time""
""fullscreenenter"",""1"",""1960""
","
","","","","","","null","<div style=""font-size:60px;"">+</div>","null","","fixation","","","","","","","","","","",""
"aa-learning-trial","218","780082","0.0-11.0-2.0-1.14","3722","1","10","Female","approach_avoid_spark_v1","""event"",""trial"",""time""
""fullscreenenter"",""1"",""1960""
","
","
","""event"",""trial"",""time""
""fullscreenenter"",""1"",""1960""
","
","","","","","","996","images/rodent3.png","","","learning","5","0","0","0","rodent","pets","2","1","","good","[5]"
"html-keyboard-response","219","780583","0.0-11.0-2.0-0.15","3722","1","10","Female","approach_avoid_spark_v1","""event"",""trial"",""time""
""fullscreenenter"",""1"",""1960""
","
","
","""event"",""trial"",""time""
""fullscreenenter"",""1"",""1960""
","
","","","","","","null","<div style=""font-size:60px;"">+</div>","null","","fixation","","","","","","","","","","",""
"aa-learning-trial","220","783585","0.0-11.0-2.0-1.15","3722","1","10","Female","approach_avoid_spark_v1","""event"",""trial"",""time""
""fullscreenenter"",""1"",""1960""
","
","
","""event"",""trial"",""time""
""fullscreenenter"",""1"",""1960""
","
","","","","","","917.8000000715256","images/cat6.png","","","learning","-7","0","0","0","cat","pets","2","1","","neutral","0"
"html-keyboard-response","221","784086","0.0-11.0-2.0-0.16","3722","1","10","Female","approach_avoid_spark_v1","""event"",""trial"",""time""
""fullscreenenter"",""1"",""1960""
","
","
","""event"",""trial"",""time""
""fullscreenenter"",""1"",""1960""
","
","","","","","","null","<div style=""font-size:60px;"">+</div>","null","","fixation","","","","","","","","","","",""
"aa-learning-trial","222","787088","0.0-11.0-2.0-1.16","3722","1","10","Female","approach_avoid_spark_v1","""event"",""trial"",""time""
""fullscreenenter"",""1"",""1960""
","
","
","""event"",""trial"",""time""
""fullscreenenter"",""1"",""1960""
","
","","","","","","854.7999999523163","images/rabbit1.png","","","learning","-9","-9","1","1","rabbit","pets","2","1","","bad","[-6]"
"html-keyboard-response","223","787590","0.0-11.0-2.0-0.17","3722","1","10","Female","approach_avoid_spark_v1","""event"",""trial"",""time""
""fullscreenenter"",""1"",""1960""
","
","
","""event"",""trial"",""time""
""fullscreenenter"",""1"",""1960""
","
","","","","","","null","<div style=""font-size:60px;"">+</div>","null","","fixation","","","","","","","","","","",""
"aa-learning-trial","224","790592","0.0-11.0-2.0-1.17","3722","1","10","Female","approach_avoid_spark_v1","""event"",""trial"",""time""
""fullscreenenter"",""1"",""1960""
","
","
","""event"",""trial"",""time""
""fullscreenenter"",""1"",""1960""
","
","","","","","","662.3999999761581","images/rabbit1.png","","","learning","-9","0","0","0","rabbit","pets","2","1","","bad","[-6]"
"html-keyboard-response","225","791093","0.0-11.0-2.0-0.18","3722","1","10","Female","approach_avoid_spark_v1","""event"",""trial"",""time""
""fullscreenenter"",""1"",""1960""
","
","
","""event"",""trial"",""time""
""fullscreenenter"",""1"",""1960""
","
","","","","","","null","<div style=""font-size:60px;"">+</div>","null","","fixation","","","","","","","","","","",""
"aa-learning-trial","226","794095","0.0-11.0-2.0-1.18","3722","1","10","Female","approach_avoid_spark_v1","""event"",""trial"",""time""
""fullscreenenter"",""1"",""1960""
","
","
","""event"",""trial"",""time""
""fullscreenenter"",""1"",""1960""
","
","","","","","","888.2000000476837","images/cat2.png","","","learning","3","3","1","1","cat","pets","2","1","","neutral","0"
"html-keyboard-response","227","794598","0.0-11.0-2.0-0.19","3722","1","10","Female","approach_avoid_spark_v1","""event"",""trial"",""time""
""fullscreenenter"",""1"",""1960""
","
","
","""event"",""trial"",""time""
""fullscreenenter"",""1"",""1960""
","
","","","","","","null","<div style=""font-size:60px;"">+</div>","null","","fixation","","","","","","","","","","",""
"aa-learning-trial","228","797600","0.0-11.0-2.0-1.19","3722","1","10","Female","approach_avoid_spark_v1","""event"",""trial"",""time""
""fullscreenenter"",""1"",""1960""
","
","
","""event"",""trial"",""time""
""fullscreenenter"",""1"",""1960""
","
","","","","","","839.5","images/rabbit1.png","","","learning","-9","0","0","0","rabbit","pets","2","1","","bad","[-6]"
"html-keyboard-response","229","798102","0.0-11.0-2.0-0.20","3722","1","10","Female","approach_avoid_spark_v1","""event"",""trial"",""time""
""fullscreenenter"",""1"",""1960""
","
","
","""event"",""trial"",""time""
""fullscreenenter"",""1"",""1960""
","
","","","","","","null","<div style=""font-size:60px;"">+</div>","null","","fixation","","","","","","","","","","",""
"aa-learning-trial","230","801105","0.0-11.0-2.0-1.20","3722","1","10","Female","approach_avoid_spark_v1","""event"",""trial"",""time""
""fullscreenenter"",""1"",""1960""
","
","
","""event"",""trial"",""time""
""fullscreenenter"",""1"",""1960""
","
","","","","","","1414.7000000476837","images/rodent3.png","","","learning","5","0","0","0","rodent","pets","2","1","","good","[5]"
"html-keyboard-response","231","801607","0.0-11.0-2.0-0.21","3722","1","10","Female","approach_avoid_spark_v1","""event"",""trial"",""time""
""fullscreenenter"",""1"",""1960""
","
","
","""event"",""trial"",""time""
""fullscreenenter"",""1"",""1960""
","
","","","","","","null","<div style=""font-size:60px;"">+</div>","null","","fixation","","","","","","","","","","",""
"aa-learning-trial","232","804609","0.0-11.0-2.0-1.21","3722","1","10","Female","approach_avoid_spark_v1","""event"",""trial"",""time""
""fullscreenenter"",""1"",""1960""
","
","
","""event"",""trial"",""time""
""fullscreenenter"",""1"",""1960""
","
","","","","","","37.5","images/cat6.png","","","learning","-7","-7","1","1","cat","pets","2","1","","neutral","0"
"html-keyboard-response","233","805110","0.0-11.0-2.0-0.22","3722","1","10","Female","approach_avoid_spark_v1","""event"",""trial"",""time""
""fullscreenenter"",""1"",""1960""
","
","
","""event"",""trial"",""time""
""fullscreenenter"",""1"",""1960""
","
","","","","","","null","<div style=""font-size:60px;"">+</div>","null","","fixation","","","","","","","","","","",""
"aa-learning-trial","234","808113","0.0-11.0-2.0-1.22","3722","1","10","Female","approach_avoid_spark_v1","""event"",""trial"",""time""
""fullscreenenter"",""1"",""1960""
","
","
","""event"",""trial"",""time""
""fullscreenenter"",""1"",""1960""
","
","","","","","","894.4000000953674","images/cat6.png","","","learning","-7","0","0","0","cat","pets","2","1","","neutral","0"
"html-keyboard-response","235","808613","0.0-11.0-2.0-0.23","3722","1","10","Female","approach_avoid_spark_v1","""event"",""trial"",""time""
""fullscreenenter"",""1"",""1960""
","
","
","""event"",""trial"",""time""
""fullscreenenter"",""1"",""1960""
","
","","","","","","null","<div style=""font-size:60px;"">+</div>","null","","fixation","","","","","","","","","","",""
"aa-learning-trial","236","811616","0.0-11.0-2.0-1.23","3722","1","10","Female","approach_avoid_spark_v1","""event"",""trial"",""time""
""fullscreenenter"",""1"",""1960""
","
","
","""event"",""trial"",""time""
""fullscreenenter"",""1"",""1960""
","
