"trial_type","trial_index","time_elapsed","internal_node_id","subject_id","task_condition","age","gender","task_version","interactions","blur_events","focus_events","fullscreenenter_events","fullscreenexit_events","success","timeout","failed_images","failed_audio","failed_video","rt","stimulus","response","button_pressed","task_part","approach_reward","points","key_press","option_selected","stim_cat","task_block","block_condition","block_number","correct","cat_type","mean_cat_reward"
"pavlovia","0","2","0.0-0.0","3718","1","8","Female","approach_avoid_spark_v1","""event"",""trial"",""time""
""fullscreenenter"",""1"",""2114""
","
","
","""event"",""trial"",""time""
""fullscreenenter"",""1"",""2114""
","
","","","","","","","","","","","","","","","","","","","","",""
"fullscreen","1","3099","0.0-1.0","3718","1","8","Female","approach_avoid_spark_v1","""event"",""trial"",""time""
""fullscreenenter"",""1"",""2114""
""fullscreenexit"",""2"",""4830""
","
","
","""event"",""trial"",""time""
""fullscreenenter"",""1"",""2114""
","""event"",""trial"",""time""
""fullscreenexit"",""2"",""4830""
","true","","","","","","","","","","","","","","","","","","","",""
"preload","2","7215","0.0-2.0","3718","1","8","Female","approach_avoid_spark_v1","""event"",""trial"",""time""
""fullscreenenter"",""1"",""2114""
""fullscreenexit"",""2"",""4830""
","
","
","""event"",""trial"",""time""
""fullscreenenter"",""1"",""2114""
","""event"",""trial"",""time""
""fullscreenexit"",""2"",""4830""
","true","false","[]","[]","[]","","","","","","","","","","","","","","","",""
"audio-keyboard-response","3","11217","0.0-3.0","3718","1","8","Female","approach_avoid_spark_v1","""event"",""trial"",""time""
""fullscreenenter"",""1"",""2114""
""fullscreenexit"",""2"",""4830""
","
","
","""event"",""trial"",""time""
""fullscreenenter"",""1"",""2114""
","""event"",""trial"",""time""
""fullscreenexit"",""2"",""4830""
","","","","","","4010.6666666666674","audio/beep_loop.wav"," ","","","","","","","","","","","","",""
"audio-button-response","4","14393","0.0-4.0","3718","1","8","Female","approach_avoid_spark_v1","""event"",""trial"",""time""
""fullscreenenter"",""1"",""2114""
""fullscreenexit"",""2"",""4830""
","
","
","""event"",""trial"",""time""
""fullscreenenter"",""1"",""2114""
","""event"",""trial"",""time""
""fullscreenexit"",""2"",""4830""
","","","","","","3171","audio/shark.wav","4","","","","","","","","","","","","",""
"audio-button-response","5","18232","0.0-5.0","3718","1","8","Female","approach_avoid_spark_v1","""event"",""trial"",""time""
""fullscreenenter"",""1"",""2114""
""fullscreenexit"",""2"",""4830""
","
","
","""event"",""trial"",""time""
""fullscreenenter"",""1"",""2114""
","""event"",""trial"",""time""
""fullscreenexit"",""2"",""4830""
","","","","","","2821","audio/turtle.wav","1","","","","","","","","","","","","",""
"preload","6","62348","0.0-6.0","3718","1","8","Female","approach_avoid_spark_v1","""event"",""trial"",""time""
""fullscreenenter"",""1"",""2114""
""fullscreenexit"",""2"",""4830""
","
","
","""event"",""trial"",""time""
""fullscreenenter"",""1"",""2114""
","""event"",""trial"",""time""
""fullscreenexit"",""2"",""4830""
","true","false","[]","[]","[]","","","","","","","","","","","","","","","",""
"html-keyboard-response","7","64721","0.0-7.0","3718","1","8","Female","approach_avoid_spark_v1","""event"",""trial"",""time""
""fullscreenenter"",""1"",""2114""
""fullscreenexit"",""2"",""4830""
","
","
","""event"",""trial"",""time""
""fullscreenenter"",""1"",""2114""
","""event"",""trial"",""time""
""fullscreenexit"",""2"",""4830""
","","","","","","2371.899999976158","Welcome to the experiment. Press any key to begin and to advance the instructions."," ","","","","","","","","","","","","",""
"learning-instructions","8","72722","0.0-8.0-0.0-0.0","3718","1","8","Female","approach_avoid_spark_v1","""event"",""trial"",""time""
""fullscreenenter"",""1"",""2114""
""fullscreenexit"",""2"",""4830""
","
","
","""event"",""trial"",""time""
""fullscreenenter"",""1"",""2114""
","""event"",""trial"",""time""
""fullscreenexit"",""2"",""4830""
","","","","","","1024.5999999940395","<p> Welcome! Today you are going to play 6 different rounds of a decision-making game. </p><p> Use the mouse to click next to continue. </p>","","0","instructions","","","","","","","","","","",""
"learning-instructions","9","76328","0.0-8.0-0.0-0.1","3718","1","8","Female","approach_avoid_spark_v1","""event"",""trial"",""time""
""fullscreenenter"",""1"",""2114""
""fullscreenexit"",""2"",""4830""
","
","
","""event"",""trial"",""time""
""fullscreenenter"",""1"",""2114""
","""event"",""trial"",""time""
""fullscreenexit"",""2"",""4830""
","","","","","","860.8000000119209","<p> You will start with a practice round to learn the rules. </p>","","0","instructions","","","","","","","","","","",""
"learning-instructions","10","80352","0.0-8.0-0.0-0.2","3718","1","8","Female","approach_avoid_spark_v1","""event"",""trial"",""time""
""fullscreenenter"",""1"",""2114""
""fullscreenexit"",""2"",""4830""
","
","
","""event"",""trial"",""time""
""fullscreenenter"",""1"",""2114""
","""event"",""trial"",""time""
""fullscreenexit"",""2"",""4830""
","","","","","","565.5","<p> Your goal in this round is to give out sports equipment to kids. </p></div>","","0","instructions","","","","","","","","","","",""
"learning-instructions","11","88609","0.0-8.0-0.0-0.3","3718","1","8","Female","approach_avoid_spark_v1","""event"",""trial"",""time""
""fullscreenenter"",""1"",""2114""
""fullscreenexit"",""2"",""4830""
","
","
","""event"",""trial"",""time""
""fullscreenenter"",""1"",""2114""
","""event"",""trial"",""time""
""fullscreenexit"",""2"",""4830""
","","","","","","692.1000000238419","<p> The kids only like some of the equipment.  </p><p> On each turn, you will see a piece of sports equipment.   </p><p> You need to decide whether to give it to the kids or not.  </p>","","0","instructions","","","","","","","","","","",""
"learning-instructions","12","94057","0.0-8.0-0.0-0.4","3718","1","8","Female","approach_avoid_spark_v1","""event"",""trial"",""time""
""fullscreenenter"",""1"",""2114""
""fullscreenexit"",""2"",""4830""
","
","
","""event"",""trial"",""time""
""fullscreenenter"",""1"",""2114""
","""event"",""trial"",""time""
""fullscreenexit"",""2"",""4830""
","","","","","","690.2000000178814","<p> You can give them the equipment by pressing 1 and choose not to give it to them by pressing 0. </p><br><div class=""choice-instructions-grid""> <div class=""choice-option""><img src=""images/approach.png"" class=""choice-option-img"" stage=""instructions"" position=""0"" ><div class=""choice-option-text""> Press ""1."" </div></div><div class=""choice-option""><img src=""images/avoid.png"" class=""choice-option-img"" stage=""instructions"" position=""1"" ><div class=""choice-option-text""> Press ""0."" </div></div>","","0","instructions","","","","","","","","","","",""
"learning-instructions","13","103184","0.0-8.0-0.0-0.5","3718","1","8","Female","approach_avoid_spark_v1","""event"",""trial"",""time""
""fullscreenenter"",""1"",""2114""
""fullscreenexit"",""2"",""4830""
","
","
","""event"",""trial"",""time""
""fullscreenenter"",""1"",""2114""
","""event"",""trial"",""time""
""fullscreenexit"",""2"",""4830""
","","","","","","1737.699999988079","<p> If you give them a piece of equipment they like, they will be happy! </p><p> But if you give them a piece of equipment they do not like, they will be sad. </p>","","0","instructions","","","","","","","","","","",""
"learning-instructions","14","114801","0.0-8.0-0.0-0.6","3718","1","8","Female","approach_avoid_spark_v1","""event"",""trial"",""time""
""fullscreenenter"",""1"",""2114""
""fullscreenexit"",""2"",""4830""
","
","
","""event"",""trial"",""time""
""fullscreenenter"",""1"",""2114""
","""event"",""trial"",""time""
""fullscreenexit"",""2"",""4830""
","","","","","","1094","<p> You will earn points based on how you make kids feel. </p><p> If you make them happy, you will WIN anywhere from 1 - 9 points, </p><p> but if you make them sad, you will LOSE anywhere from 1 - 9 points. </p>","","0","instructions","","","","","","","","","","",""
"learning-instructions","15","125713","0.0-8.0-0.0-0.7","3718","1","8","Female","approach_avoid_spark_v1","""event"",""trial"",""time""
""fullscreenenter"",""1"",""2114""
""fullscreenexit"",""2"",""4830""
","
","
","""event"",""trial"",""time""
""fullscreenenter"",""1"",""2114""
","""event"",""trial"",""time""
""fullscreenexit"",""2"",""4830""
","","","","","","1335.9000000059605","<p> You will see how many points you won or lost in the center of the screen. </p><p> Here is what you would see if you won 6 points: </p><p style=""color:green;font-size:50px;font-weight:bolder"">6</p><p style=""color:green"">The text is GREEN because you WON points.</p>","","0","instructions","","","","","","","","","","",""
"learning-instructions","16","131633","0.0-8.0-0.0-0.8","3718","1","8","Female","approach_avoid_spark_v1","""event"",""trial"",""time""
""fullscreenenter"",""1"",""2114""
""fullscreenexit"",""2"",""4830""
","
","
","""event"",""trial"",""time""
""fullscreenenter"",""1"",""2114""
","""event"",""trial"",""time""
""fullscreenexit"",""2"",""4830""
","","","","","","416","<p> And here is what you would see if you lost 4 points: </p><p style=""color:red;font-size:50px;font-weight:bolder"">-4</p><p style=""color:red"">The text is RED because you LOST points. </p>","","0","instructions","","","","","","","","","","",""
"learning-instructions","17","147217","0.0-8.0-0.0-0.9","3718","1","8","Female","approach_avoid_spark_v1","""event"",""trial"",""time""
""fullscreenenter"",""1"",""2114""
""fullscreenexit"",""2"",""4830""
","
","
","""event"",""trial"",""time""
""fullscreenenter"",""1"",""2114""
","""event"",""trial"",""time""
""fullscreenexit"",""2"",""4830""
","","","","","","860","<p> Some of the equipment will make the kids VERY happy or sad. </p><p> These pieces of equipment will make you win or lose LOTS of points. </p><p> Other pieces of equipment will only make the kids a little happy or sad. </p><p> These pieces of equipment will make you win or lose small amounts of points. </p>","","0","instructions","","","","","","","","","","",""
"learning-instructions","18","158385","0.0-8.0-0.0-0.10","3718","1","8","Female","approach_avoid_spark_v1","""event"",""trial"",""time""
""fullscreenenter"",""1"",""2114""
""fullscreenexit"",""2"",""4830""
","
","
","""event"",""trial"",""time""
""fullscreenenter"",""1"",""2114""
","""event"",""trial"",""time""
""fullscreenexit"",""2"",""4830""
","","","","","","538.0999999940395","<p> If you choose not to give them the equipment, you will not win or lose any points. </p><p>  However, in the center of the screen, you will see the number of points you WOULD HAVE won or lost if you had given them the equipment. </p>","","0","instructions","","","","","","","","","","",""
"learning-instructions","19","180712","0.0-8.0-0.0-0.11","3718","1","8","Female","approach_avoid_spark_v1","""event"",""trial"",""time""
""fullscreenenter"",""1"",""2114""
""fullscreenexit"",""2"",""4830""
","
","
","""event"",""trial"",""time""
""fullscreenenter"",""1"",""2114""
","""event"",""trial"",""time""
""fullscreenexit"",""2"",""4830""
","","","","","","795.6000000238419","<p> Here is what you might see if you did not give the equipment to the kids but it would have made them happy: </p><p style=""color:grey; font-size:50px; display: inline-block; border-spacing: 15px; border-width:3px; border-style:solid; border-color:red"">  &nbsp; 7 &nbsp; </p><p> Remember, in this case, you would not win or lose ANY points because you did not give them the equipment.  </p><p style=""color:grey"">The text is GREY because you earned ZERO points. </p><p style=""color:red"">However, choosing to give the kids the equipment would have made you win points. The box around the text is RED because you chose the worse option. </p>","","0","instructions","","","","","","","","","","",""
"learning-instructions","20","202519","0.0-8.0-0.0-0.12","3718","1","8","Female","approach_avoid_spark_v1","""event"",""trial"",""time""
""fullscreenenter"",""1"",""2114""
""fullscreenexit"",""2"",""4830""
","
","
","""event"",""trial"",""time""
""fullscreenenter"",""1"",""2114""
","""event"",""trial"",""time""
""fullscreenexit"",""2"",""4830""
","","","","","","732.5","<p> Here is what you might see if you did not give the equipment to the kids but it would have made them sad: </p><p style=""color:grey;font-size:50px; display: inline-block; border-spacing: 15px; border-width:3px; border-style:solid; border-color:green"">  &nbsp; -8 &nbsp; </p><p> Remember, in this case, you would not win or lose ANY points because you did not give them the equipment.  </p><p style=""color:grey"">The text is GREY because you earned ZERO points. </p><p  style=""color:green""> Choosing to give the kids the equipment would have made you lose points. The box around the text is GREEN because you chose the better option.</p>","","0","instructions","","","","","","","","","","",""
"learning-instructions","21","213696","0.0-8.0-0.0-0.13","3718","1","8","Female","approach_avoid_spark_v1","""event"",""trial"",""time""
""fullscreenenter"",""1"",""2114""
""fullscreenexit"",""2"",""4830""
","
","
","""event"",""trial"",""time""
""fullscreenenter"",""1"",""2114""
","""event"",""trial"",""time""
""fullscreenexit"",""2"",""4830""
","","","","","","1789.5999999940395","<p> You will have 3 seconds to make each choice. Try to respond before time runs out! </p><p> You will lose 5 points each time you do not make a response. </p>","","0","instructions","","","","","","","","","","",""
"learning-instructions","22","219992","0.0-8.0-0.0-0.14","3718","1","8","Female","approach_avoid_spark_v1","""event"",""trial"",""time""
""fullscreenenter"",""1"",""2114""
""fullscreenexit"",""2"",""4830""
","
","
","""event"",""trial"",""time""
""fullscreenenter"",""1"",""2114""
","""event"",""trial"",""time""
""fullscreenexit"",""2"",""4830""
","","","","","","875.7999999821186","<p> This is just a practice round, but in the real game, your bonus payment will depend on your total number of points.","","0","instructions","","","","","","","","","","",""
"learning-instructions","23","226264","0.0-8.0-0.0-0.15","3718","1","8","Female","approach_avoid_spark_v1","""event"",""trial"",""time""
""fullscreenenter"",""1"",""2114""
""fullscreenexit"",""2"",""4830""
","
","
","""event"",""trial"",""time""
""fullscreenenter"",""1"",""2114""
","""event"",""trial"",""time""
""fullscreenexit"",""2"",""4830""
","","","","","","506.30000001192093","<p> Remember, you can give them the equipment by pressing 1 and choose not to give it to them by pressing 0. </p><br><div class=""choice-instructions-grid""> <div class=""choice-option""><img src=""images/approach.png"" class=""choice-option-img"" stage=""instructions"" position=""0"" ><div class=""choice-option-text""> Press ""1."" </div></div><div class=""choice-option""><img src=""images/avoid.png"" class=""choice-option-img"" stage=""instructions"" position=""1"" ><div class=""choice-option-text""> Press ""0."" </div></div>","","0","instructions","","","","","","","","","","",""
"html-button-response","24","228288","0.0-8.0-1.0","3718","1","8","Female","approach_avoid_spark_v1","""event"",""trial"",""time""
""fullscreenenter"",""1"",""2114""
""fullscreenexit"",""2"",""4830""
","
","
","""event"",""trial"",""time""
""fullscreenenter"",""1"",""2114""
","""event"",""trial"",""time""
""fullscreenexit"",""2"",""4830""
","","","","","","1904.300000011921","<p> Ready to practice? </p>","0","","","","","","","","","","","","",""
"html-keyboard-response","25","228908","0.0-8.0-2.0-0.0","3718","1","8","Female","approach_avoid_spark_v1","""event"",""trial"",""time""
""fullscreenenter"",""1"",""2114""
""fullscreenexit"",""2"",""4830""
","
","
","""event"",""trial"",""time""
""fullscreenenter"",""1"",""2114""
","""event"",""trial"",""time""
""fullscreenexit"",""2"",""4830""
","","","","","","null","<div style=""font-size:60px;"">+</div>","null","","fixation","","","","","","","","","","",""
"aa-learning-trial","26","231914","0.0-8.0-2.0-1.0","3718","1","8","Female","approach_avoid_spark_v1","""event"",""trial"",""time""
""fullscreenenter"",""1"",""2114""
""fullscreenexit"",""2"",""4830""
","
","
","""event"",""trial"",""time""
""fullscreenenter"",""1"",""2114""
","""event"",""trial"",""time""
""fullscreenexit"",""2"",""4830""
","","","","","","1608.800000011921","images/racket1.png","","","learning","5","5","1","1","practice","practice","practice","-1","","",""
"html-keyboard-response","27","232419","0.0-8.0-2.0-0.1","3718","1","8","Female","approach_avoid_spark_v1","""event"",""trial"",""time""
""fullscreenenter"",""1"",""2114""
""fullscreenexit"",""2"",""4830""
","
","
","""event"",""trial"",""time""
""fullscreenenter"",""1"",""2114""
","""event"",""trial"",""time""
""fullscreenexit"",""2"",""4830""
","","","","","","null","<div style=""font-size:60px;"">+</div>","null","","fixation","","","","","","","","","","",""
"aa-learning-trial","28","235435","0.0-8.0-2.0-1.1","3718","1","8","Female","approach_avoid_spark_v1","""event"",""trial"",""time""
""fullscreenenter"",""1"",""2114""
""fullscreenexit"",""2"",""4830""
","
","
","""event"",""trial"",""time""
""fullscreenenter"",""1"",""2114""
","""event"",""trial"",""time""
""fullscreenexit"",""2"",""4830""
","","","","","","1675.2000000178814","images/ball1.png","","","learning","-2","-2","1","1","practice","practice","practice","-1","","",""
"html-keyboard-response","29","235942","0.0-8.0-2.0-0.2","3718","1","8","Female","approach_avoid_spark_v1","""event"",""trial"",""time""
""fullscreenenter"",""1"",""2114""
""fullscreenexit"",""2"",""4830""
","
","
","""event"",""trial"",""time""
""fullscreenenter"",""1"",""2114""
","""event"",""trial"",""time""
""fullscreenexit"",""2"",""4830""
","","","","","","null","<div style=""font-size:60px;"">+</div>","null","","fixation","","","","","","","","","","",""
"aa-learning-trial","30","238951","0.0-8.0-2.0-1.2","3718","1","8","Female","approach_avoid_spark_v1","""event"",""trial"",""time""
""fullscreenenter"",""1"",""2114""
""fullscreenexit"",""2"",""4830""
","
","
","""event"",""trial"",""time""
""fullscreenenter"",""1"",""2114""
","""event"",""trial"",""time""
""fullscreenexit"",""2"",""4830""
","","","","","","1368","images/ball4.png","","","learning","-3","-3","1","1","practice","practice","practice","-1","","",""
"html-keyboard-response","31","239473","0.0-8.0-2.0-0.3","3718","1","8","Female","approach_avoid_spark_v1","""event"",""trial"",""time""
""fullscreenenter"",""1"",""2114""
""fullscreenexit"",""2"",""4830""
","
","
","""event"",""trial"",""time""
""fullscreenenter"",""1"",""2114""
","""event"",""trial"",""time""
""fullscreenexit"",""2"",""4830""
","","","","","","null","<div style=""font-size:60px;"">+</div>","null","","fixation","","","","","","","","","","",""
"aa-learning-trial","32","242475","0.0-8.0-2.0-1.3","3718","1","8","Female","approach_avoid_spark_v1","""event"",""trial"",""time""
""fullscreenenter"",""1"",""2114""
""fullscreenexit"",""2"",""4830""
","
","
","""event"",""trial"",""time""
""fullscreenenter"",""1"",""2114""
","""event"",""trial"",""time""
""fullscreenexit"",""2"",""4830""
","","","","","","1022.6999999880791","images/racket4.png","","","learning","6","6","1","1","practice","practice","practice","-1","","",""
"html-keyboard-response","33","242984","0.0-8.0-2.0-0.4","3718","1","8","Female","approach_avoid_spark_v1","""event"",""trial"",""time""
""fullscreenenter"",""1"",""2114""
""fullscreenexit"",""2"",""4830""
","
","
","""event"",""trial"",""time""
""fullscreenenter"",""1"",""2114""
","""event"",""trial"",""time""
""fullscreenexit"",""2"",""4830""
","","","","","","null","<div style=""font-size:60px;"">+</div>","null","","fixation","","","","","","","","","","",""
"aa-learning-trial","34","245993","0.0-8.0-2.0-1.4","3718","1","8","Female","approach_avoid_spark_v1","""event"",""trial"",""time""
""fullscreenenter"",""1"",""2114""
""fullscreenexit"",""2"",""4830""
","
","
","""event"",""trial"",""time""
""fullscreenenter"",""1"",""2114""
","""event"",""trial"",""time""
""fullscreenexit"",""2"",""4830""
","","","","","","990","images/racket2.png","","","learning","7","0","0","0","practice","practice","practice","-1","","",""
"html-keyboard-response","35","246500","0.0-8.0-2.0-0.5","3718","1","8","Female","approach_avoid_spark_v1","""event"",""trial"",""time""
""fullscreenenter"",""1"",""2114""
""fullscreenexit"",""2"",""4830""
","
","
","""event"",""trial"",""time""
""fullscreenenter"",""1"",""2114""
","""event"",""trial"",""time""
""fullscreenexit"",""2"",""4830""
","","","","","","null","<div style=""font-size:60px;"">+</div>","null","","fixation","","","","","","","","","","",""
"aa-learning-trial","36","249514","0.0-8.0-2.0-1.5","3718","1","8","Female","approach_avoid_spark_v1","""event"",""trial"",""time""
""fullscreenenter"",""1"",""2114""
""fullscreenexit"",""2"",""4830""
","
","
","""event"",""trial"",""time""
""fullscreenenter"",""1"",""2114""
","""event"",""trial"",""time""
""fullscreenexit"",""2"",""4830""
","","","","","","1706.5999999940395","images/racket3.png","","","learning","7","7","1","1","practice","practice","practice","-1","","",""
"html-keyboard-response","37","250028","0.0-8.0-2.0-0.6","3718","1","8","Female","approach_avoid_spark_v1","""event"",""trial"",""time""
""fullscreenenter"",""1"",""2114""
""fullscreenexit"",""2"",""4830""
","
","
","""event"",""trial"",""time""
""fullscreenenter"",""1"",""2114""
","""event"",""trial"",""time""
""fullscreenexit"",""2"",""4830""
","","","","","","null","<div style=""font-size:60px;"">+</div>","null","","fixation","","","","","","","","","","",""
"aa-learning-trial","38","253035","0.0-8.0-2.0-1.6","3718","1","8","Female","approach_avoid_spark_v1","""event"",""trial"",""time""
""fullscreenenter"",""1"",""2114""
""fullscreenexit"",""2"",""4830""
","
","
","""event"",""trial"",""time""
""fullscreenenter"",""1"",""2114""
","""event"",""trial"",""time""
""fullscreenexit"",""2"",""4830""
","","","","","","1050","images/racket4.png","","","learning","2","2","1","1","practice","practice","practice","-1","","",""
"html-keyboard-response","39","253552","0.0-8.0-2.0-0.7","3718","1","8","Female","approach_avoid_spark_v1","""event"",""trial"",""time""
""fullscreenenter"",""1"",""2114""
""fullscreenexit"",""2"",""4830""
","
","
","""event"",""trial"",""time""
""fullscreenenter"",""1"",""2114""
","""event"",""trial"",""time""
""fullscreenexit"",""2"",""4830""
","","","","","","null","<div style=""font-size:60px;"">+</div>","null","","fixation","","","","","","","","","","",""
"aa-learning-trial","40","256555","0.0-8.0-2.0-1.7","3718","1","8","Female","approach_avoid_spark_v1","""event"",""trial"",""time""
""fullscreenenter"",""1"",""2114""
""fullscreenexit"",""2"",""4830""
","
","
","""event"",""trial"",""time""
""fullscreenenter"",""1"",""2114""
","""event"",""trial"",""time""
""fullscreenexit"",""2"",""4830""
","","","","","","734.7000000178814","images/racket2.png","","","learning","-4","0","0","0","practice","practice","practice","-1","","",""
"html-keyboard-response","41","257060","0.0-8.0-2.0-0.8","3718","1","8","Female","approach_avoid_spark_v1","""event"",""trial"",""time""
""fullscreenenter"",""1"",""2114""
""fullscreenexit"",""2"",""4830""
","
","
","""event"",""trial"",""time""
""fullscreenenter"",""1"",""2114""
","""event"",""trial"",""time""
""fullscreenexit"",""2"",""4830""
","","","","","","null","<div style=""font-size:60px;"">+</div>","null","","fixation","","","","","","","","","","",""
"aa-learning-trial","42","260068","0.0-8.0-2.0-1.8","3718","1","8","Female","approach_avoid_spark_v1","""event"",""trial"",""time""
""fullscreenenter"",""1"",""2114""
""fullscreenexit"",""2"",""4830""
","
","
","""event"",""trial"",""time""
""fullscreenenter"",""1"",""2114""
","""event"",""trial"",""time""
""fullscreenexit"",""2"",""4830""
","","","","","","1186.5","images/ball2.png","","","learning","3","3","1","1","practice","practice","practice","-1","","",""
"html-keyboard-response","43","260571","0.0-8.0-2.0-0.9","3718","1","8","Female","approach_avoid_spark_v1","""event"",""trial"",""time""
""fullscreenenter"",""1"",""2114""
""fullscreenexit"",""2"",""4830""
","
","
","""event"",""trial"",""time""
""fullscreenenter"",""1"",""2114""
","""event"",""trial"",""time""
""fullscreenexit"",""2"",""4830""
","","","","","","null","<div style=""font-size:60px;"">+</div>","null","","fixation","","","","","","","","","","",""
"aa-learning-trial","44","263580","0.0-8.0-2.0-1.9","3718","1","8","Female","approach_avoid_spark_v1","""event"",""trial"",""time""
""fullscreenenter"",""1"",""2114""
""fullscreenexit"",""2"",""4830""
","
","
","""event"",""trial"",""time""
""fullscreenenter"",""1"",""2114""
","""event"",""trial"",""time""
""fullscreenexit"",""2"",""4830""
","","","","","","746.5","images/racket3.png","","","learning","-3","0","0","0","practice","practice","practice","-1","","",""
"html-keyboard-response","45","264083","0.0-8.0-2.0-0.10","3718","1","8","Female","approach_avoid_spark_v1","""event"",""trial"",""time""
""fullscreenenter"",""1"",""2114""
""fullscreenexit"",""2"",""4830""
","
","
","""event"",""trial"",""time""
""fullscreenenter"",""1"",""2114""
","""event"",""trial"",""time""
""fullscreenexit"",""2"",""4830""
","","","","","","null","<div style=""font-size:60px;"">+</div>","null","","fixation","","","","","","","","","","",""
"aa-learning-trial","46","267091","0.0-8.0-2.0-1.10","3718","1","8","Female","approach_avoid_spark_v1","""event"",""trial"",""time""
""fullscreenenter"",""1"",""2114""
""fullscreenexit"",""2"",""4830""
","
","
","""event"",""trial"",""time""
""fullscreenenter"",""1"",""2114""
","""event"",""trial"",""time""
""fullscreenexit"",""2"",""4830""
","","","","","","674.5999999940395","images/racket2.png","","","learning","8","8","1","1","practice","practice","practice","-1","","",""
"html-keyboard-response","47","267596","0.0-8.0-2.0-0.11","3718","1","8","Female","approach_avoid_spark_v1","""event"",""trial"",""time""
""fullscreenenter"",""1"",""2114""
""fullscreenexit"",""2"",""4830""
","
","
","""event"",""trial"",""time""
""fullscreenenter"",""1"",""2114""
","""event"",""trial"",""time""
""fullscreenexit"",""2"",""4830""
","","","","","","null","<div style=""font-size:60px;"">+</div>","null","","fixation","","","","","","","","","","",""
"aa-learning-trial","48","270603","0.0-8.0-2.0-1.11","3718","1","8","Female","approach_avoid_spark_v1","""event"",""trial"",""time""
""fullscreenenter"",""1"",""2114""
""fullscreenexit"",""2"",""4830""
","
","
","""event"",""trial"",""time""
""fullscreenenter"",""1"",""2114""
","""event"",""trial"",""time""
""fullscreenexit"",""2"",""4830""
","","","","","","1034.7999999821186","images/ball4.png","","","learning","2","0","0","0","practice","practice","practice","-1","","",""
"html-button-response","49","272776","0.0-8.0-3.0","3718","1","8","Female","approach_avoid_spark_v1","""event"",""trial"",""time""
""fullscreenenter"",""1"",""2114""
""fullscreenexit"",""2"",""4830""
","
","
","""event"",""trial"",""time""
""fullscreenenter"",""1"",""2114""
","""event"",""trial"",""time""
""fullscreenexit"",""2"",""4830""
","","","","","","2170.5999999940395","<p> You earned 26 points in the practice round! </p>","0","","break","","","","","","","","","","",""
"learning-instructions","50","279888","0.0-8.0-4.0-0.0","3718","1","8","Female","approach_avoid_spark_v1","""event"",""trial"",""time""
""fullscreenenter"",""1"",""2114""
""fullscreenexit"",""2"",""4830""
","
","
","""event"",""trial"",""time""
""fullscreenenter"",""1"",""2114""
","""event"",""trial"",""time""
""fullscreenexit"",""2"",""4830""
","","","","","","1140.7999999821186","<p> It's almost time to start the real game. </p><p> Before you start, we're going to ask you a few questions about how the game works. </p>","","0","instructions","","","","","","","","","","",""
"preload","51","283432","0.0-8.0-5.0","3718","1","8","Female","approach_avoid_spark_v1","""event"",""trial"",""time""
""fullscreenenter"",""1"",""2114""
""fullscreenexit"",""2"",""4830""
","
","
","""event"",""trial"",""time""
""fullscreenenter"",""1"",""2114""
","""event"",""trial"",""time""
""fullscreenexit"",""2"",""4830""
","true","false","[]","[]","[]","","","","","","","","","","","","","","","",""
"comp-q","52","289512","0.0-8.0-6.0-0.0","3718","1","8","Female","approach_avoid_spark_v1","""event"",""trial"",""time""
""fullscreenenter"",""1"",""2114""
""fullscreenexit"",""2"",""4830""
","
","
","""event"",""trial"",""time""
""fullscreenenter"",""1"",""2114""
","""event"",""trial"",""time""
""fullscreenexit"",""2"",""4830""
","","","","","","1085.5999999940395","<p> <b> True or False? </b> </p><p> If you see a number in GREY, that means you earned that many points. </p>","","1","comp_question","","","","","","","","","true","",""
"comp-q","53","299016","0.0-8.0-6.0-1.0","3718","1","8","Female","approach_avoid_spark_v1","""event"",""trial"",""time""
""fullscreenenter"",""1"",""2114""
""fullscreenexit"",""2"",""4830""
","
","
","""event"",""trial"",""time""
""fullscreenenter"",""1"",""2114""
","""event"",""trial"",""time""
""fullscreenexit"",""2"",""4830""
","","","","","","1139","<p><b> That's right! </b> If you see a grey number, it means you earned ZERO points. <br> The grey numbers show the points you WOULD HAVE earned if you had made the other choice. </p>","","0","comp_answer","","","","","","","","","","",""
"comp-q","54","304281","0.0-8.0-7.0-0.0","3718","1","8","Female","approach_avoid_spark_v1","""event"",""trial"",""time""
""fullscreenenter"",""1"",""2114""
""fullscreenexit"",""2"",""4830""
","
","
","""event"",""trial"",""time""
""fullscreenenter"",""1"",""2114""
","""event"",""trial"",""time""
""fullscreenexit"",""2"",""4830""
","","","","","","573.5","<p> <b> True or False? </b> </p><p> You will have as much time as you want to make each choice. </p>","","1","comp_question","","","","","","","","","true","",""
"comp-q","55","309608","0.0-8.0-7.0-1.0","3718","1","8","Female","approach_avoid_spark_v1","""event"",""trial"",""time""
""fullscreenenter"",""1"",""2114""
""fullscreenexit"",""2"",""4830""
","
","
","""event"",""trial"",""time""
""fullscreenenter"",""1"",""2114""
","""event"",""trial"",""time""
""fullscreenexit"",""2"",""4830""
","","","","","","1270.5999999940395","<p> <b> That's right! </b> You will only have 3 seconds to make each choice. </p>","","0","comp_answer","","","","","","","","","","",""
"comp-q","56","314656","0.0-8.0-8.0-0.0","3718","1","8","Female","approach_avoid_spark_v1","""event"",""trial"",""time""
""fullscreenenter"",""1"",""2114""
""fullscreenexit"",""2"",""4830""
","
","
","""event"",""trial"",""time""
""fullscreenenter"",""1"",""2114""
","""event"",""trial"",""time""
""fullscreenexit"",""2"",""4830""
","","","","","","369.69999998807907","<p> <b> True or False? </b> </p><p> You should use the '1' and '0' keys to make your choices. </p>","","0","comp_question","","","","","","","","","true","",""
"comp-q","57","320585","0.0-8.0-8.0-1.0","3718","1","8","Female","approach_avoid_spark_v1","""event"",""trial"",""time""
""fullscreenenter"",""1"",""2114""
""fullscreenexit"",""2"",""4830""
","
","
","""event"",""trial"",""time""
""fullscreenenter"",""1"",""2114""
","""event"",""trial"",""time""
""fullscreenexit"",""2"",""4830""
","","","","","","1307.9000000059605","<p> <b> That's right! </b> You should use the '1' and '0' keys to make each choice. </p>","","0","comp_answer","","","","","","","","","","",""
"learning-instructions","58","330328","0.0-8.0-9.0-0.0","3718","1","8","Female","approach_avoid_spark_v1","""event"",""trial"",""time""
""fullscreenenter"",""1"",""2114""
""fullscreenexit"",""2"",""4830""
","
","
","""event"",""trial"",""time""
""fullscreenenter"",""1"",""2114""
","""event"",""trial"",""time""
""fullscreenexit"",""2"",""4830""
","","","","","","3471.7000000178814","<p> It's now time to start the real game. </p>Do your best, because the points you earn in the next rounds will influence your bonus payment. </p>","","0","instructions","","","","","","","","","","",""
"preload","59","330459","0.0-9.0-0.0","3718","1","8","Female","approach_avoid_spark_v1","""event"",""trial"",""time""
""fullscreenenter"",""1"",""2114""
""fullscreenexit"",""2"",""4830""
","
","
","""event"",""trial"",""time""
""fullscreenenter"",""1"",""2114""
","""event"",""trial"",""time""
""fullscreenexit"",""2"",""4830""
","true","false","[]","[]","[]","","","","","","","","","","","","","","","",""
"learning-instructions","60","337735","0.0-9.0-1.0-0.0","3718","1","8","Female","approach_avoid_spark_v1","""event"",""trial"",""time""
""fullscreenenter"",""1"",""2114""
""fullscreenexit"",""2"",""4830""
","
","
","""event"",""trial"",""time""
""fullscreenenter"",""1"",""2114""
","""event"",""trial"",""time""
""fullscreenexit"",""2"",""4830""
","","","","","","1619","<p> Your goal in this round is to sell different plants to a picky customer. </p></div>","","0","instructions","","","","","","","","","","",""
"learning-instructions","61","358040","0.0-9.0-1.0-0.1","3718","1","8","Female","approach_avoid_spark_v1","""event"",""trial"",""time""
""fullscreenenter"",""1"",""2114""
""fullscreenexit"",""2"",""4830""
","
","
","""event"",""trial"",""time""
""fullscreenenter"",""1"",""2114""
","""event"",""trial"",""time""
""fullscreenexit"",""2"",""4830""
","","","","","","1552.300000011921","<p> The customer likes some plants and dislikes others.  </p><p> On each turn, you will see a plant.   </p><p> You need to decide whether to offer it to the customer or not.  </p>","","0","instructions","","","","","","","","","","",""
"learning-instructions","62","366280","0.0-9.0-1.0-0.2","3718","1","8","Female","approach_avoid_spark_v1","""event"",""trial"",""time""
""fullscreenenter"",""1"",""2114""
""fullscreenexit"",""2"",""4830""
","
","
","""event"",""trial"",""time""
""fullscreenenter"",""1"",""2114""
","""event"",""trial"",""time""
""fullscreenexit"",""2"",""4830""
","","","","","","553.3000000119209","<p> You can offer the plant by pressing 1 and decide to not offer it by pressing 0. </p><br><div class=""choice-instructions-grid""> <div class=""choice-option""><img src=""images/approach.png"" class=""choice-option-img"" stage=""instructions"" position=""0"" ><div class=""choice-option-text""> Press ""1."" </div></div><div class=""choice-option""><img src=""images/avoid.png"" class=""choice-option-img"" stage=""instructions"" position=""1"" ><div class=""choice-option-text""> Press ""0."" </div></div>","","0","instructions","","","","","","","","","","",""
"learning-instructions","63","378337","0.0-9.0-1.0-0.3","3718","1","8","Female","approach_avoid_spark_v1","""event"",""trial"",""time""
""fullscreenenter"",""1"",""2114""
""fullscreenexit"",""2"",""4830""
","
","
","""event"",""trial"",""time""
""fullscreenenter"",""1"",""2114""
","""event"",""trial"",""time""
""fullscreenexit"",""2"",""4830""
","","","","","","700.0999999940395","<p> If you offer a plant to the customer that she likes, she will be very pleased! </p><p> But if you offer a plant that she does NOT like, she will be annoyed. </p>","","0","instructions","","","","","","","","","","",""
"learning-instructions","64","393384","0.0-9.0-1.0-0.4","3718","1","8","Female","approach_avoid_spark_v1","""event"",""trial"",""time""
""fullscreenenter"",""1"",""2114""
""fullscreenexit"",""2"",""4830""
","
","
","""event"",""trial"",""time""
""fullscreenenter"",""1"",""2114""
","""event"",""trial"",""time""
""fullscreenexit"",""2"",""4830""
","","","","","","1326.9000000059605","<p> You will earn points based on how you made the customer feel. </p><p> If you made her pleased, you will WIN anywhere from 1 - 9 points, </p><p> but if you made her annoyed, you will LOSE anywhere from 1 - 9 points. </p>","","0","instructions","","","","","","","","","","",""
"learning-instructions","65","404696","0.0-9.0-1.0-0.5","3718","1","8","Female","approach_avoid_spark_v1","""event"",""trial"",""time""
""fullscreenenter"",""1"",""2114""
""fullscreenexit"",""2"",""4830""
","
","
","""event"",""trial"",""time""
""fullscreenenter"",""1"",""2114""
","""event"",""trial"",""time""
""fullscreenexit"",""2"",""4830""
","","","","","","2309.4000000059605","<p> You will see how many points you won or lost in the center of the screen. </p><p> Here is what you would see if you won 5 points: </p><p style=""color:green;font-size:50px;font-weight:bolder"">5</p>","","0","instructions","","","","","","","","","","",""
"learning-instructions","66","421128","0.0-9.0-1.0-0.6","3718","1","8","Female","approach_avoid_spark_v1","""event"",""trial"",""time""
""fullscreenenter"",""1"",""2114""
""fullscreenexit"",""2"",""4830""
","
","
","""event"",""trial"",""time""
""fullscreenenter"",""1"",""2114""
","""event"",""trial"",""time""
""fullscreenexit"",""2"",""4830""
","","","","","","12420.59999999404","<p> And here is what you would see if you lost 3 points: </p><p style=""color:red;font-size:50px;font-weight:bolder"">-3</p>","","0","instructions","","","","","","","","","","",""
"learning-instructions","67","440728","0.0-9.0-1.0-0.7","3718","1","8","Female","approach_avoid_spark_v1","""event"",""trial"",""time""
""fullscreenenter"",""1"",""2114""
""fullscreenexit"",""2"",""4830""
","
","
","""event"",""trial"",""time""
""fullscreenenter"",""1"",""2114""
","""event"",""trial"",""time""
""fullscreenexit"",""2"",""4830""
","","","","","","2071.0999999940395","<p> Some plants will make the customer VERY pleased or annoyed. </p><p> These plants will make you win or lose LOTS of points. </p><p> The customer will have less strong feelings about other plants. </p><p> These plants will make you win or lose small amounts of points. </p>","","0","instructions","","","","","","","","","","",""
"learning-instructions","68","457560","0.0-9.0-1.0-0.8","3718","1","8","Female","approach_avoid_spark_v1","""event"",""trial"",""time""
""fullscreenenter"",""1"",""2114""
""fullscreenexit"",""2"",""4830""
","
","
","""event"",""trial"",""time""
""fullscreenenter"",""1"",""2114""
","""event"",""trial"",""time""
""fullscreenexit"",""2"",""4830""
","","","","","","1973.6000000238419","<p> If you choose to not offer the plant to the customer, you will not win or lose any points. </p><p>  However, in the center of the screen, you will see the number of points you WOULD HAVE won or lost if you had offered the plant. </p>","","0","instructions","","","","","","","","","","",""
"learning-instructions","69","473785","0.0-9.0-1.0-0.9","3718","1","8","Female","approach_avoid_spark_v1","""event"",""trial"",""time""
""fullscreenenter"",""1"",""2114""
""fullscreenexit"",""2"",""4830""
","
","
","""event"",""trial"",""time""
""fullscreenenter"",""1"",""2114""
","""event"",""trial"",""time""
""fullscreenexit"",""2"",""4830""
","","","","","","3297.800000011921","<p> Here is what you might see if you did not offer the plant but the customer would have liked it: </p><p style=""color:grey; font-size:50px; display: inline-block; border-spacing: 15px; border-width:3px; border-style:solid; border-color:red"">  &nbsp; 6 &nbsp; </p><p> Remember, in this case, you would not win or lose ANY points because you did not offer the plant.  </p>","","0","instructions","","","","","","","","","","",""
"learning-instructions","70","485295","0.0-9.0-1.0-0.10","3718","1","8","Female","approach_avoid_spark_v1","""event"",""trial"",""time""
""fullscreenenter"",""1"",""2114""
""fullscreenexit"",""2"",""4830""
","
","
","""event"",""trial"",""time""
""fullscreenenter"",""1"",""2114""
","""event"",""trial"",""time""
""fullscreenexit"",""2"",""4830""
","","","","","","3229.7000000178814","<p> Try to make the best choice for each plant because </p><p> at the end of the game, you will earn bonus money based on how many points you earned. </p>","","0","instructions","","","","","","","","","","",""
"learning-instructions","71","494016","0.0-9.0-1.0-0.11","3718","1","8","Female","approach_avoid_spark_v1","""event"",""trial"",""time""
""fullscreenenter"",""1"",""2114""
""fullscreenexit"",""2"",""4830""
","
","
","""event"",""trial"",""time""
""fullscreenenter"",""1"",""2114""
","""event"",""trial"",""time""
""fullscreenexit"",""2"",""4830""
","","","","","","519.5","<p> You will have 3 seconds to make each choice. Try to respond before time runs out! </p><p> You will lose 5 points each time you do not make a response. </p>","","0","instructions","","","","","","","","","","",""
"html-keyboard-response","72","494637","0.0-9.0-2.0-0.0","3718","1","8","Female","approach_avoid_spark_v1","""event"",""trial"",""time""
""fullscreenenter"",""1"",""2114""
""fullscreenexit"",""2"",""4830""
","
","
","""event"",""trial"",""time""
""fullscreenenter"",""1"",""2114""
","""event"",""trial"",""time""
""fullscreenexit"",""2"",""4830""
","","","","","","null","<div style=""font-size:60px;"">+</div>","null","","fixation","","","","","","","","","","",""
"aa-learning-trial","73","497647","0.0-9.0-2.0-1.0","3718","1","8","Female","approach_avoid_spark_v1","""event"",""trial"",""time""
""fullscreenenter"",""1"",""2114""
""fullscreenexit"",""2"",""4830""
","
","
","""event"",""trial"",""time""
""fullscreenenter"",""1"",""2114""
","""event"",""trial"",""time""
""fullscreenexit"",""2"",""4830""
","","","","","","1232.800000011921","images/flower4.png","","","learning","-8","-8","1","1","flower","plants","1","0","","bad","[-5]"
"html-keyboard-response","74","498168","0.0-9.0-2.0-0.1","3718","1","8","Female","approach_avoid_spark_v1","""event"",""trial"",""time""
""fullscreenenter"",""1"",""2114""
""fullscreenexit"",""2"",""4830""
","
","
","""event"",""trial"",""time""
""fullscreenenter"",""1"",""2114""
","""event"",""trial"",""time""
""fullscreenexit"",""2"",""4830""
","","","","","","null","<div style=""font-size:60px;"">+</div>","null","","fixation","","","","","","","","","","",""
"aa-learning-trial","75","501184","0.0-9.0-2.0-1.1","3718","1","8","Female","approach_avoid_spark_v1","""event"",""trial"",""time""
""fullscreenenter"",""1"",""2114""
""fullscreenexit"",""2"",""4830""
","
","
","""event"",""trial"",""time""
""fullscreenenter"",""1"",""2114""
","""event"",""trial"",""time""
""fullscreenexit"",""2"",""4830""
","","","","","","870","images/flower1.png","","","learning","-6","-6","1","1","flower","plants","1","0","","bad","[-5]"
"html-keyboard-response","76","501692","0.0-9.0-2.0-0.2","3718","1","8","Female","approach_avoid_spark_v1","""event"",""trial"",""time""
""fullscreenenter"",""1"",""2114""
""fullscreenexit"",""2"",""4830""
","
","
","""event"",""trial"",""time""
""fullscreenenter"",""1"",""2114""
","""event"",""trial"",""time""
""fullscreenexit"",""2"",""4830""
","","","","","","null","<div style=""font-size:60px;"">+</div>","null","","fixation","","","","","","","","","","",""
"aa-learning-trial","77","504706","0.0-9.0-2.0-1.2","3718","1","8","Female","approach_avoid_spark_v1","""event"",""trial"",""time""
""fullscreenenter"",""1"",""2114""
""fullscreenexit"",""2"",""4830""
","
","
","""event"",""trial"",""time""
""fullscreenenter"",""1"",""2114""
","""event"",""trial"",""time""
""fullscreenexit"",""2"",""4830""
","","","","","","1465.9000000059605","images/flower1.png","","","learning","-4","-4","1","1","flower","plants","1","0","","bad","[-5]"
"html-keyboard-response","78","505225","0.0-9.0-2.0-0.3","3718","1","8","Female","approach_avoid_spark_v1","""event"",""trial"",""time""
""fullscreenenter"",""1"",""2114""
""fullscreenexit"",""2"",""4830""
","
","
","""event"",""trial"",""time""
""fullscreenenter"",""1"",""2114""
","""event"",""trial"",""time""
""fullscreenexit"",""2"",""4830""
","","","","","","null","<div style=""font-size:60px;"">+</div>","null","","fixation","","","","","","","","","","",""
"aa-learning-trial","79","508239","0.0-9.0-2.0-1.3","3718","1","8","Female","approach_avoid_spark_v1","""event"",""trial"",""time""
""fullscreenenter"",""1"",""2114""
""fullscreenexit"",""2"",""4830""
","
","
","""event"",""trial"",""time""
""fullscreenenter"",""1"",""2114""
","""event"",""trial"",""time""
""fullscreenexit"",""2"",""4830""
","","","","","","1725.300000011921","images/bush5.png","","","learning","1","1","1","1","bush","plants","1","0","","neutral","0"
"html-keyboard-response","80","508746","0.0-9.0-2.0-0.4","3718","1","8","Female","approach_avoid_spark_v1","""event"",""trial"",""time""
""fullscreenenter"",""1"",""2114""
""fullscreenexit"",""2"",""4830""
","
","
","""event"",""trial"",""time""
""fullscreenenter"",""1"",""2114""
","""event"",""trial"",""time""
""fullscreenexit"",""2"",""4830""
","","","","","","null","<div style=""font-size:60px;"">+</div>","null","","fixation","","","","","","","","","","",""
"aa-learning-trial","81","511755","0.0-9.0-2.0-1.4","3718","1","8","Female","approach_avoid_spark_v1","""event"",""trial"",""time""
""fullscreenenter"",""1"",""2114""
""fullscreenexit"",""2"",""4830""
","
","
","""event"",""trial"",""time""
""fullscreenenter"",""1"",""2114""
","""event"",""trial"",""time""
""fullscreenexit"",""2"",""4830""
","","","","","","1307.5","images/cactus7.png","","","learning","4","4","1","1","cactus","plants","1","0","","good","[5]"
"html-keyboard-response","82","512273","0.0-9.0-2.0-0.5","3718","1","8","Female","approach_avoid_spark_v1","""event"",""trial"",""time""
""fullscreenenter"",""1"",""2114""
""fullscreenexit"",""2"",""4830""
","
","
","""event"",""trial"",""time""
""fullscreenenter"",""1"",""2114""
","""event"",""trial"",""time""
""fullscreenexit"",""2"",""4830""
","","","","","","null","<div style=""font-size:60px;"">+</div>","null","","fixation","","","","","","","","","","",""
"aa-learning-trial","83","515296","0.0-9.0-2.0-1.5","3718","1","8","Female","approach_avoid_spark_v1","""event"",""trial"",""time""
""fullscreenenter"",""1"",""2114""
""fullscreenexit"",""2"",""4830""
","
","
","""event"",""trial"",""time""
""fullscreenenter"",""1"",""2114""
","""event"",""trial"",""time""
""fullscreenexit"",""2"",""4830""
","","","","","","997.7999999821186","images/bush3.png","","","learning","[1]","1","1","1","bush","plants","1","0","","neutral","0"
"html-keyboard-response","84","515804","0.0-9.0-2.0-0.6","3718","1","8","Female","approach_avoid_spark_v1","""event"",""trial"",""time""
""fullscreenenter"",""1"",""2114""
""fullscreenexit"",""2"",""4830""
","
","
","""event"",""trial"",""time""
""fullscreenenter"",""1"",""2114""
","""event"",""trial"",""time""
""fullscreenexit"",""2"",""4830""
","","","","","","null","<div style=""font-size:60px;"">+</div>","null","","fixation","","","","","","","","","","",""
"aa-learning-trial","85","518825","0.0-9.0-2.0-1.6","3718","1","8","Female","approach_avoid_spark_v1","""event"",""trial"",""time""
""fullscreenenter"",""1"",""2114""
""fullscreenexit"",""2"",""4830""
","
","
","""event"",""trial"",""time""
""fullscreenenter"",""1"",""2114""
","""event"",""trial"",""time""
""fullscreenexit"",""2"",""4830""
","","","","","","1193.5999999940395","images/cactus1.png","","","learning","6","6","1","1","cactus","plants","1","0","","good","[5]"
"html-keyboard-response","86","519331","0.0-9.0-2.0-0.7","3718","1","8","Female","approach_avoid_spark_v1","""event"",""trial"",""time""
""fullscreenenter"",""1"",""2114""
""fullscreenexit"",""2"",""4830""
","
","
","""event"",""trial"",""time""
""fullscreenenter"",""1"",""2114""
","""event"",""trial"",""time""
""fullscreenexit"",""2"",""4830""
","","","","","","null","<div style=""font-size:60px;"">+</div>","null","","fixation","","","","","","","","","","",""
"aa-learning-trial","87","522351","0.0-9.0-2.0-1.7","3718","1","8","Female","approach_avoid_spark_v1","""event"",""trial"",""time""
""fullscreenenter"",""1"",""2114""
""fullscreenexit"",""2"",""4830""
","
","
","""event"",""trial"",""time""
""fullscreenenter"",""1"",""2114""
","""event"",""trial"",""time""
""fullscreenexit"",""2"",""4830""
","","","","","","1138.5999999940395","images/flower4.png","","","learning","-6","0","0","0","flower","plants","1","0","","bad","[-5]"
"html-keyboard-response","88","522873","0.0-9.0-2.0-0.8","3718","1","8","Female","approach_avoid_spark_v1","""event"",""trial"",""time""
""fullscreenenter"",""1"",""2114""
""fullscreenexit"",""2"",""4830""
","
","
","""event"",""trial"",""time""
""fullscreenenter"",""1"",""2114""
","""event"",""trial"",""time""
""fullscreenexit"",""2"",""4830""
","","","","","","null","<div style=""font-size:60px;"">+</div>","null","","fixation","","","","","","","","","","",""
"aa-learning-trial","89","525883","0.0-9.0-2.0-1.8","3718","1","8","Female","approach_avoid_spark_v1","""event"",""trial"",""time""
""fullscreenenter"",""1"",""2114""
""fullscreenexit"",""2"",""4830""
","
","
","""event"",""trial"",""time""
""fullscreenenter"",""1"",""2114""
","""event"",""trial"",""time""
""fullscreenexit"",""2"",""4830""
","","","","","","876.3000000119209","images/flower2.png","","","learning","-4","0","0","0","flower","plants","1","0","","bad","[-5]"
"html-keyboard-response","90","526392","0.0-9.0-2.0-0.9","3718","1","8","Female","approach_avoid_spark_v1","""event"",""trial"",""time""
""fullscreenenter"",""1"",""2114""
""fullscreenexit"",""2"",""4830""
","
","
","""event"",""trial"",""time""
""fullscreenenter"",""1"",""2114""
","""event"",""trial"",""time""
""fullscreenexit"",""2"",""4830""
","","","","","","null","<div style=""font-size:60px;"">+</div>","null","","fixation","","","","","","","","","","",""
"aa-learning-trial","91","529403","0.0-9.0-2.0-1.9","3718","1","8","Female","approach_avoid_spark_v1","""event"",""trial"",""time""
""fullscreenenter"",""1"",""2114""
""fullscreenexit"",""2"",""4830""
","
","
","""event"",""trial"",""time""
""fullscreenenter"",""1"",""2114""
","""event"",""trial"",""time""
""fullscreenexit"",""2"",""4830""
","","","","","","694.0999999940395","images/bush3.png","","","learning","-2","-2","1","1","bush","plants","1","0","","neutral","0"
"html-keyboard-response","92","529906","0.0-9.0-2.0-0.10","3718","1","8","Female","approach_avoid_spark_v1","""event"",""trial"",""time""
""fullscreenenter"",""1"",""2114""
""fullscreenexit"",""2"",""4830""
","
","
","""event"",""trial"",""time""
""fullscreenenter"",""1"",""2114""
","""event"",""trial"",""time""
""fullscreenexit"",""2"",""4830""
","","","","","","null","<div style=""font-size:60px;"">+</div>","null","","fixation","","","","","","","","","","",""
"aa-learning-trial","93","532914","0.0-9.0-2.0-1.10","3718","1","8","Female","approach_avoid_spark_v1","""event"",""trial"",""time""
""fullscreenenter"",""1"",""2114""
""fullscreenexit"",""2"",""4830""
","
","
","""event"",""trial"",""time""
""fullscreenenter"",""1"",""2114""
","""event"",""trial"",""time""
""fullscreenexit"",""2"",""4830""
","","","","","","962.8000000119209","images/bush2.png","","","learning","-1","-1","1","1","bush","plants","1","0","","neutral","0"
"html-keyboard-response","94","533419","0.0-9.0-2.0-0.11","3718","1","8","Female","approach_avoid_spark_v1","""event"",""trial"",""time""
""fullscreenenter"",""1"",""2114""
""fullscreenexit"",""2"",""4830""
","
","
","""event"",""trial"",""time""
""fullscreenenter"",""1"",""2114""
","""event"",""trial"",""time""
""fullscreenexit"",""2"",""4830""
","","","","","","null","<div style=""font-size:60px;"">+</div>","null","","fixation","","","","","","","","","","",""
"aa-learning-trial","95","536427","0.0-9.0-2.0-1.11","3718","1","8","Female","approach_avoid_spark_v1","""event"",""trial"",""time""
""fullscreenenter"",""1"",""2114""
""fullscreenexit"",""2"",""4830""
","
","
","""event"",""trial"",""time""
""fullscreenenter"",""1"",""2114""
","""event"",""trial"",""time""
""fullscreenexit"",""2"",""4830""
","","","","","","1275.199999988079","images/bush2.png","","","learning","[1]","0","0","0","bush","plants","1","0","","neutral","0"
"html-keyboard-response","96","536932","0.0-9.0-2.0-0.12","3718","1","8","Female","approach_avoid_spark_v1","""event"",""trial"",""time""
""fullscreenenter"",""1"",""2114""
""fullscreenexit"",""2"",""4830""
","
","
","""event"",""trial"",""time""
""fullscreenenter"",""1"",""2114""
","""event"",""trial"",""time""
""fullscreenexit"",""2"",""4830""
","","","","","","null","<div style=""font-size:60px;"">+</div>","null","","fixation","","","","","","","","","","",""
"aa-learning-trial","97","539938","0.0-9.0-2.0-1.12","3718","1","8","Female","approach_avoid_spark_v1","""event"",""trial"",""time""
""fullscreenenter"",""1"",""2114""
""fullscreenexit"",""2"",""4830""
","
","
","""event"",""trial"",""time""
""fullscreenenter"",""1"",""2114""
","""event"",""trial"",""time""
""fullscreenexit"",""2"",""4830""
","","","","","","987.0999999940395","images/cactus3.png","","","learning","4","4","1","1","cactus","plants","1","0","","good","[5]"
"html-keyboard-response","98","540443","0.0-9.0-2.0-0.13","3718","1","8","Female","approach_avoid_spark_v1","""event"",""trial"",""time""
""fullscreenenter"",""1"",""2114""
""fullscreenexit"",""2"",""4830""
","
","
","""event"",""trial"",""time""
""fullscreenenter"",""1"",""2114""
","""event"",""trial"",""time""
""fullscreenexit"",""2"",""4830""
","","","","","","null","<div style=""font-size:60px;"">+</div>","null","","fixation","","","","","","","","","","",""
"aa-learning-trial","99","543452","0.0-9.0-2.0-1.13","3718","1","8","Female","approach_avoid_spark_v1","""event"",""trial"",""time""
""fullscreenenter"",""1"",""2114""
""fullscreenexit"",""2"",""4830""
","
","
","""event"",""trial"",""time""
""fullscreenenter"",""1"",""2114""
","""event"",""trial"",""time""
""fullscreenexit"",""2"",""4830""
","","","","","","731.2999999821186","images/cactus3.png","","","learning","7","7","1","1","cactus","plants","1","0","","good","[5]"
"html-keyboard-response","100","543956","0.0-9.0-2.0-0.14","3718","1","8","Female","approach_avoid_spark_v1","""event"",""trial"",""time""
""fullscreenenter"",""1"",""2114""
""fullscreenexit"",""2"",""4830""
","
","
","""event"",""trial"",""time""
""fullscreenenter"",""1"",""2114""
","""event"",""trial"",""time""
""fullscreenexit"",""2"",""4830""
","","","","","","null","<div style=""font-size:60px;"">+</div>","null","","fixation","","","","","","","","","","",""
"aa-learning-trial","101","546963","0.0-9.0-2.0-1.14","3718","1","8","Female","approach_avoid_spark_v1","""event"",""trial"",""time""
""fullscreenenter"",""1"",""2114""
""fullscreenexit"",""2"",""4830""
","
","
","""event"",""trial"",""time""
""fullscreenenter"",""1"",""2114""
","""event"",""trial"",""time""
""fullscreenexit"",""2"",""4830""
","","","","","","1315.2999999821186","images/cactus7.png","","","learning","5","5","1","1","cactus","plants","1","0","","good","[5]"
"html-keyboard-response","102","547467","0.0-9.0-2.0-0.15","3718","1","8","Female","approach_avoid_spark_v1","""event"",""trial"",""time""
""fullscreenenter"",""1"",""2114""
""fullscreenexit"",""2"",""4830""
","
","
","""event"",""trial"",""time""
""fullscreenenter"",""1"",""2114""
","""event"",""trial"",""time""
""fullscreenexit"",""2"",""4830""
","","","","","","null","<div style=""font-size:60px;"">+</div>","null","","fixation","","","","","","","","","","",""
"aa-learning-trial","103","550476","0.0-9.0-2.0-1.15","3718","1","8","Female","approach_avoid_spark_v1","""event"",""trial"",""time""
""fullscreenenter"",""1"",""2114""
""fullscreenexit"",""2"",""4830""
","
","
","""event"",""trial"",""time""
""fullscreenenter"",""1"",""2114""
","""event"",""trial"",""time""
""fullscreenexit"",""2"",""4830""
","","","","","","1052.4000000059605","images/cactus3.png","","","learning","6","6","1","1","cactus","plants","1","0","","good","[5]"
"html-keyboard-response","104","550980","0.0-9.0-2.0-0.16","3718","1","8","Female","approach_avoid_spark_v1","""event"",""trial"",""time""
""fullscreenenter"",""1"",""2114""
""fullscreenexit"",""2"",""4830""
","
","
","""event"",""trial"",""time""
""fullscreenenter"",""1"",""2114""
","""event"",""trial"",""time""
""fullscreenexit"",""2"",""4830""
","","","","","","null","<div style=""font-size:60px;"">+</div>","null","","fixation","","","","","","","","","","",""
"aa-learning-trial","105","553988","0.0-9.0-2.0-1.16","3718","1","8","Female","approach_avoid_spark_v1","""event"",""trial"",""time""
""fullscreenenter"",""1"",""2114""
""fullscreenexit"",""2"",""4830""
","
","
","""event"",""trial"",""time""
""fullscreenenter"",""1"",""2114""
","""event"",""trial"",""time""
""fullscreenexit"",""2"",""4830""
","","","","","","834.4000000059605","images/bush3.png","","","learning","[1]","1","1","1","bush","plants","1","0","","neutral","0"
"html-keyboard-response","106","554491","0.0-9.0-2.0-0.17","3718","1","8","Female","approach_avoid_spark_v1","""event"",""trial"",""time""
""fullscreenenter"",""1"",""2114""
""fullscreenexit"",""2"",""4830""
","
","
","""event"",""trial"",""time""
""fullscreenenter"",""1"",""2114""
","""event"",""trial"",""time""
""fullscreenexit"",""2"",""4830""
","","","","","","null","<div style=""font-size:60px;"">+</div>","null","","fixation","","","","","","","","","","",""
"aa-learning-trial","107","557500","0.0-9.0-2.0-1.17","3718","1","8","Female","approach_avoid_spark_v1","""event"",""trial"",""time""
""fullscreenenter"",""1"",""2114""
""fullscreenexit"",""2"",""4830""
","
","
","""event"",""trial"",""time""
""fullscreenenter"",""1"",""2114""
","""event"",""trial"",""time""
""fullscreenexit"",""2"",""4830""
","","","","","","939.3000000119209","images/flower4.png","","","learning","-3","0","0","0","flower","plants","1","0","","bad","[-5]"
"html-keyboard-response","108","558004","0.0-9.0-2.0-0.18","3718","1","8","Female","approach_avoid_spark_v1","""event"",""trial"",""time""
""fullscreenenter"",""1"",""2114""
""fullscreenexit"",""2"",""4830""
","
","
","""event"",""trial"",""time""
""fullscreenenter"",""1"",""2114""
","""event"",""trial"",""time""
""fullscreenexit"",""2"",""4830""
","","","","","","null","<div style=""font-size:60px;"">+</div>","null","","fixation","","","","","","","","","","",""
"aa-learning-trial","109","561012","0.0-9.0-2.0-1.18","3718","1","8","Female","approach_avoid_spark_v1","""event"",""trial"",""time""
""fullscreenenter"",""1"",""2114""
""fullscreenexit"",""2"",""4830""
","
","
","""event"",""trial"",""time""
""fullscreenenter"",""1"",""2114""
","""event"",""trial"",""time""
""fullscreenexit"",""2"",""4830""
","","","","","","731.1999999880791","images/bush3.png","","","learning","[1]","1","1","1","bush","plants","1","0","","neutral","0"
"html-keyboard-response","110","561515","0.0-9.0-2.0-0.19","3718","1","8","Female","approach_avoid_spark_v1","""event"",""trial"",""time""
""fullscreenenter"",""1"",""2114""
""fullscreenexit"",""2"",""4830""
","
","
","""event"",""trial"",""time""
""fullscreenenter"",""1"",""2114""
","""event"",""trial"",""time""
""fullscreenexit"",""2"",""4830""
","","","","","","null","<div style=""font-size:60px;"">+</div>","null","","fixation","","","","","","","","","","",""
"aa-learning-trial","111","564524","0.0-9.0-2.0-1.19","3718","1","8","Female","approach_avoid_spark_v1","""event"",""trial"",""time""
""fullscreenenter"",""1"",""2114""
""fullscreenexit"",""2"",""4830""
","
","
","""event"",""trial"",""time""
""fullscreenenter"",""1"",""2114""
","""event"",""trial"",""time""
""fullscreenexit"",""2"",""4830""
","","","","","","611.5","images/flower6.png","","","learning","-4","0","0","0","flower","plants","1","0","","bad","[-5]"
"html-keyboard-response","112","565027","0.0-9.0-2.0-0.20","3718","1","8","Female","approach_avoid_spark_v1","""event"",""trial"",""time""
""fullscreenenter"",""1"",""2114""
""fullscreenexit"",""2"",""4830""
","
","
","""event"",""trial"",""time""
""fullscreenenter"",""1"",""2114""
","""event"",""trial"",""time""
""fullscreenexit"",""2"",""4830""
","","","","","","null","<div style=""font-size:60px;"">+</div>","null","","fixation","","","","","","","","","","",""
"aa-learning-trial","113","568035","0.0-9.0-2.0-1.20","3718","1","8","Female","approach_avoid_spark_v1","""event"",""trial"",""time""
""fullscreenenter"",""1"",""2114""
""fullscreenexit"",""2"",""4830""
","
","
","""event"",""trial"",""time""
""fullscreenenter"",""1"",""2114""
","""event"",""trial"",""time""
""fullscreenexit"",""2"",""4830""
","","","","","","594.6999999880791","images/flower1.png","","","learning","-5","0","0","0","flower","plants","1","0","","bad","[-5]"
"html-keyboard-response","114","568540","0.0-9.0-2.0-0.21","3718","1","8","Female","approach_avoid_spark_v1","""event"",""trial"",""time""
""fullscreenenter"",""1"",""2114""
""fullscreenexit"",""2"",""4830""
","
","
","""event"",""trial"",""time""
""fullscreenenter"",""1"",""2114""
","""event"",""trial"",""time""
""fullscreenexit"",""2"",""4830""
","","","","","","null","<div style=""font-size:60px;"">+</div>","null","","fixation","","","","","","","","","","",""
"aa-learning-trial","115","571553","0.0-9.0-2.0-1.21","3718","1","8","Female","approach_avoid_spark_v1","""event"",""trial"",""time""
""fullscreenenter"",""1"",""2114""
""fullscreenexit"",""2"",""4830""
","
","
","""event"",""trial"",""time""
""fullscreenenter"",""1"",""2114""
","""event"",""trial"",""time""
""fullscreenexit"",""2"",""4830""
","","","","","","715.2000000178814","images/cactus1.png","","","learning","6","6","1","1","cactus","plants","1","0","","good","[5]"
"html-keyboard-response","116","572059","0.0-9.0-2.0-0.22","3718","1","8","Female","approach_avoid_spark_v1","""event"",""trial"",""time""
""fullscreenenter"",""1"",""2114""
""fullscreenexit"",""2"",""4830""
","
","
","""event"",""trial"",""time""
""fullscreenenter"",""1"",""2114""
","""event"",""trial"",""time""
""fullscreenexit"",""2"",""4830""
","","","","","","null","<div style=""font-size:60px;"">+</div>","null","","fixation","","","","","","","","","","",""
"aa-learning-trial","117","575068","0.0-9.0-2.0-1.22","3718","1","8","Female","approach_avoid_spark_v1","""event"",""trial"",""time""
""fullscreenenter"",""1"",""2114""
""fullscreenexit"",""2"",""4830""
","
","
","""event"",""trial"",""time""
""fullscreenenter"",""1"",""2114""
","""event"",""trial"",""time""
""fullscreenexit"",""2"",""4830""
","","","","","","819.2000000178814","images/cactus3.png","","","learning","6","6","1","1","cactus","plants","1","0","","good","[5]"
"html-keyboard-response","118","575572","0.0-9.0-2.0-0.23","3718","1","8","Female","approach_avoid_spark_v1","""event"",""trial"",""time""
""fullscreenenter"",""1"",""2114""
""fullscreenexit"",""2"",""4830""
","
","
","""event"",""trial"",""time""
""fullscreenenter"",""1"",""2114""
","""event"",""trial"",""time""
""fullscreenexit"",""2"",""4830""
","","","","","","null","<div style=""font-size:60px;"">+</div>","null","","fixation","","","","","","","","","","",""
"aa-learning-trial","119","578579","0.0-9.0-2.0-1.23","3718","1","8","Female","approach_avoid_spark_v1","""event"",""trial"",""time""
""fullscreenenter"",""1"",""2114""
""fullscreenexit"",""2"",""4830""
","
","
","""event"",""trial"",""time""
""fullscreenenter"",""1"",""2114""
","""event"",""trial"",""time""
""fullscreenexit"",""2"",""4830""
","","","","","","714.5999999940395","images/flower1.png","","","learning","-4","0","0","0","flower","plants","1","0","","bad","[-5]"
"html-keyboard-response","120","579083","0.0-9.0-2.0-0.24","3718","1","8","Female","approach_avoid_spark_v1","""event"",""trial"",""time""
""fullscreenenter"",""1"",""2114""
""fullscreenexit"",""2"",""4830""
","
","
","""event"",""trial"",""time""
""fullscreenenter"",""1"",""2114""
","""event"",""trial"",""time""
""fullscreenexit"",""2"",""4830""
","","","","","","null","<div style=""font-size:60px;"">+</div>","null","","fixation","","","","","","","","","","",""
"aa-learning-trial","121","582092","0.0-9.0-2.0-1.24","3718","1","8","Female","approach_avoid_spark_v1","""event"",""trial"",""time""
""fullscreenenter"",""1"",""2114""
""fullscreenexit"",""2"",""4830""
","
","
","""event"",""trial"",""time""
""fullscreenenter"",""1"",""2114""
","""event"",""trial"",""time""
""fullscreenexit"",""2"",""4830""
","","","","","","635.3000000119209","images/cactus1.png","","","learning","5","5","1","1","cactus","plants","1","0","","good","[5]"
"html-keyboard-response","122","582596","0.0-9.0-2.0-0.25","3718","1","8","Female","approach_avoid_spark_v1","""event"",""trial"",""time""
""fullscreenenter"",""1"",""2114""
""fullscreenexit"",""2"",""4830""
","
","
","""event"",""trial"",""time""
""fullscreenenter"",""1"",""2114""
","""event"",""trial"",""time""
""fullscreenexit"",""2"",""4830""
","","","","","","null","<div style=""font-size:60px;"">+</div>","null","","fixation","","","","","","","","","","",""
"aa-learning-trial","123","585604","0.0-9.0-2.0-1.25","3718","1","8","Female","approach_avoid_spark_v1","""event"",""trial"",""time""
""fullscreenenter"",""1"",""2114""
""fullscreenexit"",""2"",""4830""
","
","
","""event"",""trial"",""time""
""fullscreenenter"",""1"",""2114""
","""event"",""trial"",""time""
""fullscreenexit"",""2"",""4830""
","","","","","","778.9000000059605","images/cactus3.png","","","learning","6","6","1","1","cactus","plants","1","0","","good","[5]"
"html-keyboard-response","124","586108","0.0-9.0-2.0-0.26","3718","1","8","Female","approach_avoid_spark_v1","""event"",""trial"",""time""
""fullscreenenter"",""1"",""2114""
""fullscreenexit"",""2"",""4830""
","
","
","""event"",""trial"",""time""
""fullscreenenter"",""1"",""2114""
","""event"",""trial"",""time""
""fullscreenexit"",""2"",""4830""
","","","","","","null","<div style=""font-size:60px;"">+</div>","null","","fixation","","","","","","","","","","",""
"aa-learning-trial","125","589115","0.0-9.0-2.0-1.26","3718","1","8","Female","approach_avoid_spark_v1","""event"",""trial"",""time""
""fullscreenenter"",""1"",""2114""
""fullscreenexit"",""2"",""4830""
","
","
","""event"",""trial"",""time""
""fullscreenenter"",""1"",""2114""
","""event"",""trial"",""time""
""fullscreenexit"",""2"",""4830""
","","","","","","658.3999999761581","images/cactus7.png","","","learning","8","8","1","1","cactus","plants","1","0","","good","[5]"
"html-keyboard-response","126","589620","0.0-9.0-2.0-0.27","3718","1","8","Female","approach_avoid_spark_v1","""event"",""trial"",""time""
""fullscreenenter"",""1"",""2114""
""fullscreenexit"",""2"",""4830""
","
","
","""event"",""trial"",""time""
""fullscreenenter"",""1"",""2114""
","""event"",""trial"",""time""
""fullscreenexit"",""2"",""4830""
","","","","","","null","<div style=""font-size:60px;"">+</div>","null","","fixation","","","","","","","","","","",""
"aa-learning-trial","127","592628","0.0-9.0-2.0-1.27","3718","1","8","Female","approach_avoid_spark_v1","""event"",""trial"",""time""
""fullscreenenter"",""1"",""2114""
""fullscreenexit"",""2"",""4830""
","
","
","""event"",""trial"",""time""
""fullscreenenter"",""1"",""2114""
","""event"",""trial"",""time""
""fullscreenexit"",""2"",""4830""
","","","","","","819.5999999940395","images/bush1.png","","","learning","1","1","1","1","bush","plants","1","0","","neutral","0"
"html-keyboard-response","128","593132","0.0-9.0-2.0-0.28","3718","1","8","Female","approach_avoid_spark_v1","""event"",""trial"",""time""
""fullscreenenter"",""1"",""2114""
""fullscreenexit"",""2"",""4830""
","
","
","""event"",""trial"",""time""
""fullscreenenter"",""1"",""2114""
","""event"",""trial"",""time""
""fullscreenexit"",""2"",""4830""
","","","","","","null","<div style=""font-size:60px;"">+</div>","null","","fixation","","","","","","","","","","",""
"aa-learning-trial","129","596139","0.0-9.0-2.0-1.28","3718","1","8","Female","approach_avoid_spark_v1","""event"",""trial"",""time""
""fullscreenenter"",""1"",""2114""
""fullscreenexit"",""2"",""4830""
","
","
","""event"",""trial"",""time""
""fullscreenenter"",""1"",""2114""
","""event"",""trial"",""time""
""fullscreenexit"",""2"",""4830""
","","","","","","658","images/cactus3.png","","","learning","5","5","1","1","cactus","plants","1","0","","good","[5]"
"html-keyboard-response","130","596644","0.0-9.0-2.0-0.29","3718","1","8","Female","approach_avoid_spark_v1","""event"",""trial"",""time""
""fullscreenenter"",""1"",""2114""
""fullscreenexit"",""2"",""4830""
","
","
","""event"",""trial"",""time""
""fullscreenenter"",""1"",""2114""
","""event"",""trial"",""time""
""fullscreenexit"",""2"",""4830""
","","","","","","null","<div style=""font-size:60px;"">+</div>","null","","fixation","","","","","","","","","","",""
"aa-learning-trial","131","599652","0.0-9.0-2.0-1.29","3718","1","8","Female","approach_avoid_spark_v1","""event"",""trial"",""time""
""fullscreenenter"",""1"",""2114""
""fullscreenexit"",""2"",""4830""
","
","
","""event"",""trial"",""time""
""fullscreenenter"",""1"",""2114""
","""event"",""trial"",""time""
""fullscreenexit"",""2"",""4830""
","","","","","","778.5","images/flower1.png","","","learning","-5","0","0","0","flower","plants","1","0","","bad","[-5]"
"html-keyboard-response","132","600155","0.0-9.0-2.0-0.30","3718","1","8","Female","approach_avoid_spark_v1","""event"",""trial"",""time""
""fullscreenenter"",""1"",""2114""
""fullscreenexit"",""2"",""4830""
","
","
","""event"",""trial"",""time""
""fullscreenenter"",""1"",""2114""
","""event"",""trial"",""time""
""fullscreenexit"",""2"",""4830""
","","","","","","null","<div style=""font-size:60px;"">+</div>","null","","fixation","","","","","","","","","","",""
"aa-learning-trial","133","603163","0.0-9.0-2.0-1.30","3718","1","8","Female","approach_avoid_spark_v1","""event"",""trial"",""time""
""fullscreenenter"",""1"",""2114""
""fullscreenexit"",""2"",""4830""
","
","
","""event"",""trial"",""time""
""fullscreenenter"",""1"",""2114""
","""event"",""trial"",""time""
""fullscreenexit"",""2"",""4830""
","","","","","","659.5","images/flower4.png","","","learning","-2","0","0","0","flower","plants","1","0","","bad","[-5]"
"html-keyboard-response","134","603667","0.0-9.0-2.0-0.31","3718","1","8","Female","approach_avoid_spark_v1","""event"",""trial"",""time""
""fullscreenenter"",""1"",""2114""
""fullscreenexit"",""2"",""4830""
","
","
","""event"",""trial"",""time""
""fullscreenenter"",""1"",""2114""
","""event"",""trial"",""time""
""fullscreenexit"",""2"",""4830""
","","","","","","null","<div style=""font-size:60px;"">+</div>","null","","fixation","","","","","","","","","","",""
"aa-learning-trial","135","606675","0.0-9.0-2.0-1.31","3718","1","8","Female","approach_avoid_spark_v1","""event"",""trial"",""time""
""fullscreenenter"",""1"",""2114""
""fullscreenexit"",""2"",""4830""
","
","
","""event"",""trial"",""time""
""fullscreenenter"",""1"",""2114""
","""event"",""trial"",""time""
""fullscreenexit"",""2"",""4830""
","","","","","","667","images/flower4.png","","","learning","-5","0","0","0","flower","plants","1","0","","bad","[-5]"
"html-keyboard-response","136","607179","0.0-9.0-2.0-0.32","3718","1","8","Female","approach_avoid_spark_v1","""event"",""trial"",""time""
""fullscreenenter"",""1"",""2114""
""fullscreenexit"",""2"",""4830""
","
","
","""event"",""trial"",""time""
""fullscreenenter"",""1"",""2114""
","""event"",""trial"",""time""
""fullscreenexit"",""2"",""4830""
","","","","","","null","<div style=""font-size:60px;"">+</div>","null","","fixation","","","","","","","","","","",""
"aa-learning-trial","137","610187","0.0-9.0-2.0-1.32","3718","1","8","Female","approach_avoid_spark_v1","""event"",""trial"",""time""
""fullscreenenter"",""1"",""2114""
""fullscreenexit"",""2"",""4830""
","
","
","""event"",""trial"",""time""
""fullscreenenter"",""1"",""2114""
","""event"",""trial"",""time""
""fullscreenexit"",""2"",""4830""
","","","","","","611.0999999940395","images/cactus7.png","","","learning","7","7","1","1","cactus","plants","1","0","","good","[5]"
"html-keyboard-response","138","610692","0.0-9.0-2.0-0.33","3718","1","8","Female","approach_avoid_spark_v1","""event"",""trial"",""time""
""fullscreenenter"",""1"",""2114""
""fullscreenexit"",""2"",""4830""
","
","
","""event"",""trial"",""time""
""fullscreenenter"",""1"",""2114""
","""event"",""trial"",""time""
""fullscreenexit"",""2"",""4830""
","","","","","","null","<div style=""font-size:60px;"">+</div>","null","","fixation","","","","","","","","","","",""
"aa-learning-trial","139","613700","0.0-9.0-2.0-1.33","3718","1","8","Female","approach_avoid_spark_v1","""event"",""trial"",""time""
""fullscreenenter"",""1"",""2114""
""fullscreenexit"",""2"",""4830""
","
","
","""event"",""trial"",""time""
""fullscreenenter"",""1"",""2114""
","""event"",""trial"",""time""
""fullscreenexit"",""2"",""4830""
","","","","","","715.1000000238419","images/flower2.png","","","learning","-5","0","0","0","flower","plants","1","0","","bad","[-5]"
"html-keyboard-response","140","614203","0.0-9.0-2.0-0.34","3718","1","8","Female","approach_avoid_spark_v1","""event"",""trial"",""time""
""fullscreenenter"",""1"",""2114""
""fullscreenexit"",""2"",""4830""
","
","
","""event"",""trial"",""time""
""fullscreenenter"",""1"",""2114""
","""event"",""trial"",""time""
""fullscreenexit"",""2"",""4830""
","","","","","","null","<div style=""font-size:60px;"">+</div>","null","","fixation","","","","","","","","","","",""
"aa-learning-trial","141","617211","0.0-9.0-2.0-1.34","3718","1","8","Female","approach_avoid_spark_v1","""event"",""trial"",""time""
""fullscreenenter"",""1"",""2114""
""fullscreenexit"",""2"",""4830""
","
","
","""event"",""trial"",""time""
""fullscreenenter"",""1"",""2114""
","""event"",""trial"",""time""
""fullscreenexit"",""2"",""4830""
","","","","","","770.9000000059605","images/flower7.png","","","learning","-5","0","0","0","flower","plants","1","0","","bad","[-5]"
"html-keyboard-response","142","617715","0.0-9.0-2.0-0.35","3718","1","8","Female","approach_avoid_spark_v1","""event"",""trial"",""time""
""fullscreenenter"",""1"",""2114""
""fullscreenexit"",""2"",""4830""
","
","
","""event"",""trial"",""time""
""fullscreenenter"",""1"",""2114""
","""event"",""trial"",""time""
""fullscreenexit"",""2"",""4830""
","","","","","","null","<div style=""font-size:60px;"">+</div>","null","","fixation","","","","","","","","","","",""
"aa-learning-trial","143","620723","0.0-9.0-2.0-1.35","3718","1","8","Female","approach_avoid_spark_v1","""event"",""trial"",""time""
""fullscreenenter"",""1"",""2114""
""fullscreenexit"",""2"",""4830""
","
","
","""event"",""trial"",""time""
""fullscreenenter"",""1"",""2114""
","""event"",""trial"",""time""
""fullscreenexit"",""2"",""4830""
","","","","","","1059.699999988079","images/flower4.png","","","learning","-5","0","0","0","flower","plants","1","0","","bad","[-5]"
"html-keyboard-response","144","621228","0.0-9.0-2.0-0.36","3718","1","8","Female","approach_avoid_spark_v1","""event"",""trial"",""time""
""fullscreenenter"",""1"",""2114""
""fullscreenexit"",""2"",""4830""
","
","
","""event"",""trial"",""time""
""fullscreenenter"",""1"",""2114""
","""event"",""trial"",""time""
""fullscreenexit"",""2"",""4830""
","","","","","","null","<div style=""font-size:60px;"">+</div>","null","","fixation","","","","","","","","","","",""
"aa-learning-trial","145","624235","0.0-9.0-2.0-1.36","3718","1","8","Female","approach_avoid_spark_v1","""event"",""trial"",""time""
""fullscreenenter"",""1"",""2114""
""fullscreenexit"",""2"",""4830""
","
","
","""event"",""trial"",""time""
""fullscreenenter"",""1"",""2114""
","""event"",""trial"",""time""
""fullscreenexit"",""2"",""4830""
","","","","","","657.0999999940395","images/cactus5.png","","","learning","7","7","1","1","cactus","plants","1","0","","good","[5]"
"html-keyboard-response","146","624739","0.0-9.0-2.0-0.37","3718","1","8","Female","approach_avoid_spark_v1","""event"",""trial"",""time""
""fullscreenenter"",""1"",""2114""
""fullscreenexit"",""2"",""4830""
","
","
","""event"",""trial"",""time""
""fullscreenenter"",""1"",""2114""
","""event"",""trial"",""time""
""fullscreenexit"",""2"",""4830""
","","","","","","null","<div style=""font-size:60px;"">+</div>","null","","fixation","","","","","","","","","","",""
"aa-learning-trial","147","627748","0.0-9.0-2.0-1.37","3718","1","8","Female","approach_avoid_spark_v1","""event"",""trial"",""time""
""fullscreenenter"",""1"",""2114""
""fullscreenexit"",""2"",""4830""
","
","
","""event"",""trial"",""time""
""fullscreenenter"",""1"",""2114""
","""event"",""trial"",""time""
""fullscreenexit"",""2"",""4830""
","","","","","","1074.5999999940395","images/bush2.png","","","learning","3","0","0","0","bush","plants","1","0","","neutral","0"
"html-keyboard-response","148","628251","0.0-9.0-2.0-0.38","3718","1","8","Female","approach_avoid_spark_v1","""event"",""trial"",""time""
""fullscreenenter"",""1"",""2114""
""fullscreenexit"",""2"",""4830""
","
","
","""event"",""trial"",""time""
""fullscreenenter"",""1"",""2114""
","""event"",""trial"",""time""
""fullscreenexit"",""2"",""4830""
","","","","","","null","<div style=""font-size:60px;"">+</div>","null","","fixation","","","","","","","","","","",""
"aa-learning-trial","149","631260","0.0-9.0-2.0-1.38","3718","1","8","Female","approach_avoid_spark_v1","""event"",""trial"",""time""
""fullscreenenter"",""1"",""2114""
""fullscreenexit"",""2"",""4830""
","
","
","""event"",""trial"",""time""
""fullscreenenter"",""1"",""2114""
","""event"",""trial"",""time""
""fullscreenexit"",""2"",""4830""
","","","","","","802.3999999761581","images/cactus7.png","","","learning","4","4","1","1","cactus","plants","1","0","","good","[5]"
"html-keyboard-response","150","631764","0.0-9.0-2.0-0.39","3718","1","8","Female","approach_avoid_spark_v1","""event"",""trial"",""time""
""fullscreenenter"",""1"",""2114""
""fullscreenexit"",""2"",""4830""
","
","
","""event"",""trial"",""time""
""fullscreenenter"",""1"",""2114""
","""event"",""trial"",""time""
""fullscreenexit"",""2"",""4830""
","","","","","","null","<div style=""font-size:60px;"">+</div>","null","","fixation","","","","","","","","","","",""
"aa-learning-trial","151","634772","0.0-9.0-2.0-1.39","3718","1","8","Female","approach_avoid_spark_v1","""event"",""trial"",""time""
""fullscreenenter"",""1"",""2114""
""fullscreenexit"",""2"",""4830""
","
","
","""event"",""trial"",""time""
""fullscreenenter"",""1"",""2114""
","""event"",""trial"",""time""
""fullscreenexit"",""2"",""4830""
","","","","","","538.1999999880791","images/bush3.png","","","learning","-1","-1","1","1","bush","plants","1","0","","neutral","0"
"html-keyboard-response","152","635275","0.0-9.0-2.0-0.40","3718","1","8","Female","approach_avoid_spark_v1","""event"",""trial"",""time""
""fullscreenenter"",""1"",""2114""
""fullscreenexit"",""2"",""4830""
","
","
","""event"",""trial"",""time""
""fullscreenenter"",""1"",""2114""
","""event"",""trial"",""time""
""fullscreenexit"",""2"",""4830""
","","","","","","null","<div style=""font-size:60px;"">+</div>","null","","fixation","","","","","","","","","","",""
"aa-learning-trial","153","638284","0.0-9.0-2.0-1.40","3718","1","8","Female","approach_avoid_spark_v1","""event"",""trial"",""time""
""fullscreenenter"",""1"",""2114""
""fullscreenexit"",""2"",""4830""
","
","
","""event"",""trial"",""time""
""fullscreenenter"",""1"",""2114""
","""event"",""trial"",""time""
""fullscreenexit"",""2"",""4830""
","","","","","","1778.199999988079","images/bush5.png","","","learning","-2","0","0","0","bush","plants","1","0","","neutral","0"
"html-keyboard-response","154","638787","0.0-9.0-2.0-0.41","3718","1","8","Female","approach_avoid_spark_v1","""event"",""trial"",""time""
""fullscreenenter"",""1"",""2114""
""fullscreenexit"",""2"",""4830""
","
","
","""event"",""trial"",""time""
""fullscreenenter"",""1"",""2114""
","""event"",""trial"",""time""
""fullscreenexit"",""2"",""4830""
","","","","","","null","<div style=""font-size:60px;"">+</div>","null","","fixation","","","","","","","","","","",""
"aa-learning-trial","155","641796","0.0-9.0-2.0-1.41","3718","1","8","Female","approach_avoid_spark_v1","""event"",""trial"",""time""
""fullscreenenter"",""1"",""2114""
""fullscreenexit"",""2"",""4830""
","
","
","""event"",""trial"",""time""
""fullscreenenter"",""1"",""2114""
","""event"",""trial"",""time""
""fullscreenexit"",""2"",""4830""
","","","","","","1147.5999999940395","images/bush5.png","","","learning","2","0","0","0","bush","plants","1","0","","neutral","0"
"html-keyboard-response","156","642299","0.0-9.0-2.0-0.42","3718","1","8","Female","approach_avoid_spark_v1","""event"",""trial"",""time""
""fullscreenenter"",""1"",""2114""
""fullscreenexit"",""2"",""4830""
","
","
","""event"",""trial"",""time""
""fullscreenenter"",""1"",""2114""
","""event"",""trial"",""time""
""fullscreenexit"",""2"",""4830""
","","","","","","null","<div style=""font-size:60px;"">+</div>","null","","fixation","","","","","","","","","","",""
"aa-learning-trial","157","645307","0.0-9.0-2.0-1.42","3718","1","8","Female","approach_avoid_spark_v1","""event"",""trial"",""time""
""fullscreenenter"",""1"",""2114""
""fullscreenexit"",""2"",""4830""
","
","
","""event"",""trial"",""time""
""fullscreenenter"",""1"",""2114""
","""event"",""trial"",""time""
""fullscreenexit"",""2"",""4830""
","","","","","","1236.2000000178814","images/bush2.png","","","learning","[1]","0","0","0","bush","plants","1","0","","neutral","0"
"html-keyboard-response","158","645812","0.0-9.0-2.0-0.43","3718","1","8","Female","approach_avoid_spark_v1","""event"",""trial"",""time""
""fullscreenenter"",""1"",""2114""
""fullscreenexit"",""2"",""4830""
","
","
","""event"",""trial"",""time""
""fullscreenenter"",""1"",""2114""
","""event"",""trial"",""time""
""fullscreenexit"",""2"",""4830""
","","","","","","null","<div style=""font-size:60px;"">+</div>","null","","fixation","","","","","","","","","","",""
"aa-learning-trial","159","648820","0.0-9.0-2.0-1.43","3718","1","8","Female","approach_avoid_spark_v1","""event"",""trial"",""time""
""fullscreenenter"",""1"",""2114""
""fullscreenexit"",""2"",""4830""
","
","
","""event"",""trial"",""time""
""fullscreenenter"",""1"",""2114""
","""event"",""trial"",""time""
""fullscreenexit"",""2"",""4830""
","","","","","","690.6000000238419","images/cactus6.png","","","learning","3","3","1","1","cactus","plants","1","0","","good","[5]"
"html-keyboard-response","160","649323","0.0-9.0-2.0-0.44","3718","1","8","Female","approach_avoid_spark_v1","""event"",""trial"",""time""
""fullscreenenter"",""1"",""2114""
""fullscreenexit"",""2"",""4830""
","
","
","""event"",""trial"",""time""
""fullscreenenter"",""1"",""2114""
","""event"",""trial"",""time""
""fullscreenexit"",""2"",""4830""
","","","","","","null","<div style=""font-size:60px;"">+</div>","null","","fixation","","","","","","","","","","",""
"aa-learning-trial","161","652331","0.0-9.0-2.0-1.44","3718","1","8","Female","approach_avoid_spark_v1","""event"",""trial"",""time""
""fullscreenenter"",""1"",""2114""
""fullscreenexit"",""2"",""4830""
","
","
","""event"",""trial"",""time""
""fullscreenenter"",""1"",""2114""
","""event"",""trial"",""time""
""fullscreenexit"",""2"",""4830""
","","","","","","915","images/bush2.png","","","learning","[-1]","0","0","0","bush","plants","1","0","","neutral","0"
"html-keyboard-response","162","652835","0.0-9.0-2.0-0.45","3718","1","8","Female","approach_avoid_spark_v1","""event"",""trial"",""time""
""fullscreenenter"",""1"",""2114""
""fullscreenexit"",""2"",""4830""
","
","
","""event"",""trial"",""time""
""fullscreenenter"",""1"",""2114""
","""event"",""trial"",""time""
""fullscreenexit"",""2"",""4830""
","","","","","","null","<div style=""font-size:60px;"">+</div>","null","","fixation","","","","","","","","","","",""
"aa-learning-trial","163","655844","0.0-9.0-2.0-1.45","3718","1","8","Female","approach_avoid_spark_v1","""event"",""trial"",""time""
""fullscreenenter"",""1"",""2114""
""fullscreenexit"",""2"",""4830""
","
","
","""event"",""trial"",""time""
""fullscreenenter"",""1"",""2114""
","""event"",""trial"",""time""
""fullscreenexit"",""2"",""4830""
","","","","","","691.4000000059605","images/cactus7.png","","","learning","5","5","1","1","cactus","plants","1","0","","good","[5]"
"html-keyboard-response","164","656348","0.0-9.0-2.0-0.46","3718","1","8","Female","approach_avoid_spark_v1","""event"",""trial"",""time""
""fullscreenenter"",""1"",""2114""
""fullscreenexit"",""2"",""4830""
","
","
","""event"",""trial"",""time""
""fullscreenenter"",""1"",""2114""
","""event"",""trial"",""time""
""fullscreenexit"",""2"",""4830""
","","","","","","null","<div style=""font-size:60px;"">+</div>","null","","fixation","","","","","","","","","","",""
"aa-learning-trial","165","659356","0.0-9.0-2.0-1.46","3718","1","8","Female","approach_avoid_spark_v1","""event"",""trial"",""time""
""fullscreenenter"",""1"",""2114""
""fullscreenexit"",""2"",""4830""
","
","
","""event"",""trial"",""time""
""fullscreenenter"",""1"",""2114""
","""event"",""trial"",""time""
""fullscreenexit"",""2"",""4830""
","","","","","","761.5","images/bush2.png","","","learning","-4","0","0","0","bush","plants","1","0","","neutral","0"
"html-keyboard-response","166","659859","0.0-9.0-2.0-0.47","3718","1","8","Female","approach_avoid_spark_v1","""event"",""trial"",""time""
""fullscreenenter"",""1"",""2114""
""fullscreenexit"",""2"",""4830""
","
","
","""event"",""trial"",""time""
""fullscreenenter"",""1"",""2114""
","""event"",""trial"",""time""
""fullscreenexit"",""2"",""4830""
","","","","","","null","<div style=""font-size:60px;"">+</div>","null","","fixation","","","","","","","","","","",""
"aa-learning-trial","167","662868","0.0-9.0-2.0-1.47","3718","1","8","Female","approach_avoid_spark_v1","""event"",""trial"",""time""
""fullscreenenter"",""1"",""2114""
""fullscreenexit"",""2"",""4830""
","
","
","""event"",""trial"",""time""
""fullscreenenter"",""1"",""2114""
","""event"",""trial"",""time""
""fullscreenexit"",""2"",""4830""
","","","","","","1018.9000000059605","images/bush3.png","","","learning","[1]","1","1","1","bush","plants","1","0","","neutral","0"
"html-keyboard-response","168","663371","0.0-9.0-2.0-0.48","3718","1","8","Female","approach_avoid_spark_v1","""event"",""trial"",""time""
""fullscreenenter"",""1"",""2114""
""fullscreenexit"",""2"",""4830""
","
","
","""event"",""trial"",""time""
""fullscreenenter"",""1"",""2114""
","""event"",""trial"",""time""
""fullscreenexit"",""2"",""4830""
","","","","","","null","<div style=""font-size:60px;"">+</div>","null","","fixation","","","","","","","","","","",""
"aa-learning-trial","169","666379","0.0-9.0-2.0-1.48","3718","1","8","Female","approach_avoid_spark_v1","""event"",""trial"",""time""
""fullscreenenter"",""1"",""2114""
""fullscreenexit"",""2"",""4830""
","
","
","""event"",""trial"",""time""
""fullscreenenter"",""1"",""2114""
","""event"",""trial"",""time""
""fullscreenexit"",""2"",""4830""
","","","","","","964.3999999761581","images/bush6.png","","","learning","[-1]","0","0","0","bush","plants","1","0","","neutral","0"
"html-keyboard-response","170","666884","0.0-9.0-2.0-0.49","3718","1","8","Female","approach_avoid_spark_v1","""event"",""trial"",""time""
""fullscreenenter"",""1"",""2114""
""fullscreenexit"",""2"",""4830""
","
","
","""event"",""trial"",""time""
""fullscreenenter"",""1"",""2114""
","""event"",""trial"",""time""
""fullscreenexit"",""2"",""4830""
","","","","","","null","<div style=""font-size:60px;"">+</div>","null","","fixation","","","","","","","","","","",""
"aa-learning-trial","171","669891","0.0-9.0-2.0-1.49","3718","1","8","Female","approach_avoid_spark_v1","""event"",""trial"",""time""
""fullscreenenter"",""1"",""2114""
""fullscreenexit"",""2"",""4830""
","
","
","""event"",""trial"",""time""
""fullscreenenter"",""1"",""2114""
","""event"",""trial"",""time""
""fullscreenexit"",""2"",""4830""
","","","","","","787","images/flower2.png","","","learning","-4","0","0","0","flower","plants","1","0","","bad","[-5]"
"html-keyboard-response","172","670396","0.0-9.0-2.0-0.50","3718","1","8","Female","approach_avoid_spark_v1","""event"",""trial"",""time""
""fullscreenenter"",""1"",""2114""
""fullscreenexit"",""2"",""4830""
","
","
","""event"",""trial"",""time""
""fullscreenenter"",""1"",""2114""
","""event"",""trial"",""time""
""fullscreenexit"",""2"",""4830""
","","","","","","null","<div style=""font-size:60px;"">+</div>","null","","fixation","","","","","","","","","","",""
"aa-learning-trial","173","673404","0.0-9.0-2.0-1.50","3718","1","8","Female","approach_avoid_spark_v1","""event"",""trial"",""time""
""fullscreenenter"",""1"",""2114""
""fullscreenexit"",""2"",""4830""
","
","
","""event"",""trial"",""time""
""fullscreenenter"",""1"",""2114""
","""event"",""trial"",""time""
""fullscreenexit"",""2"",""4830""
","","","","","","650.4000000059605","images/flower1.png","","","learning","-4","0","0","0","flower","plants","1","0","","bad","[-5]"
"html-button-response","174","677881","0.0-9.0-3.0","3718","1","8","Female","approach_avoid_spark_v1","""event"",""trial"",""time""
""fullscreenenter"",""1"",""2114""
""fullscreenexit"",""2"",""4830""
","
","
","""event"",""trial"",""time""
""fullscreenenter"",""1"",""2114""
","""event"",""trial"",""time""
""fullscreenexit"",""2"",""4830""
","","","","","","4475.799999982119","<p> You have completed the round! <p> In this round, you earned 78 points! </p>","0","","break","","","","","","","","","","",""
"html-button-response","175","679113","0.0-10.0","3718","1","8","Female","approach_avoid_spark_v1","""event"",""trial"",""time""
""fullscreenenter"",""1"",""2114""
""fullscreenexit"",""2"",""4830""
","
","
","""event"",""trial"",""time""
""fullscreenenter"",""1"",""2114""
","""event"",""trial"",""time""
""fullscreenexit"",""2"",""4830""
","","","","","","1230.5","<p> Now it's time to play another round. </p>","0","","transition_screen","","","","","","","","","","",""
"preload","176","679241","0.0-11.0-0.0","3718","1","8","Female","approach_avoid_spark_v1","""event"",""trial"",""time""
""fullscreenenter"",""1"",""2114""
""fullscreenexit"",""2"",""4830""
","
","
","""event"",""trial"",""time""
""fullscreenenter"",""1"",""2114""
","""event"",""trial"",""time""
""fullscreenexit"",""2"",""4830""
","true","false","[]","[]","[]","","","","","","","","","","","","","","","",""
"learning-instructions","177","686000","0.0-11.0-1.0-0.0","3718","1","8","Female","approach_avoid_spark_v1","""event"",""trial"",""time""
""fullscreenenter"",""1"",""2114""
""fullscreenexit"",""2"",""4830""
","
","
","""event"",""trial"",""time""
""fullscreenenter"",""1"",""2114""
","""event"",""trial"",""time""
""fullscreenexit"",""2"",""4830""
","","","","","","1992.0999999940395","<p> Your goal in this round is to take care of lots of animals. </p></div>","","0","instructions","","","","","","","","","","",""
"learning-instructions","178","697344","0.0-11.0-1.0-0.1","3718","1","8","Female","approach_avoid_spark_v1","""event"",""trial"",""time""
""fullscreenenter"",""1"",""2114""
""fullscreenexit"",""2"",""4830""
","
","
","""event"",""trial"",""time""
""fullscreenenter"",""1"",""2114""
","""event"",""trial"",""time""
""fullscreenexit"",""2"",""4830""
","","","","","","1577","<p> Some animals want to be pet, while other animals want to be left alone.  </p><p> On each turn, you will see an animal.   </p><p> You need to decide whether to pet it or not.  </p>","","0","instructions","","","","","","","","","","",""
"learning-instructions","179","704128","0.0-11.0-1.0-0.2","3718","1","8","Female","approach_avoid_spark_v1","""event"",""trial"",""time""
""fullscreenenter"",""1"",""2114""
""fullscreenexit"",""2"",""4830""
","
","
","""event"",""trial"",""time""
""fullscreenenter"",""1"",""2114""
","""event"",""trial"",""time""
""fullscreenexit"",""2"",""4830""
","","","","","","1331","<p> You can pet the animal by pressing 1 and leave the animal alone by pressing 0. </p><br><div class=""choice-instructions-grid""> <div class=""choice-option""><img src=""images/approach.png"" class=""choice-option-img"" stage=""instructions"" position=""0"" ><div class=""choice-option-text""> Press ""1."" </div></div><div class=""choice-option""><img src=""images/avoid.png"" class=""choice-option-img"" stage=""instructions"" position=""1"" ><div class=""choice-option-text""> Press ""0."" </div></div>","","0","instructions","","","","","","","","","","",""
"learning-instructions","180","716937","0.0-11.0-1.0-0.3","3718","1","8","Female","approach_avoid_spark_v1","""event"",""trial"",""time""
""fullscreenenter"",""1"",""2114""
""fullscreenexit"",""2"",""4830""
","
","
","""event"",""trial"",""time""
""fullscreenenter"",""1"",""2114""
","""event"",""trial"",""time""
""fullscreenexit"",""2"",""4830""
","","","","","","3570.199999988079","<p> If you pet an animal that wants to be pet, you will make it feel happy! </p><p> But if you pet an animal that wants to be left alone, you will make it feel angry. </p>","","0","instructions","","","","","","","","","","",""
"learning-instructions","181","730567","0.0-11.0-1.0-0.4","3718","1","8","Female","approach_avoid_spark_v1","""event"",""trial"",""time""
""fullscreenenter"",""1"",""2114""
""fullscreenexit"",""2"",""4830""
","
","
","""event"",""trial"",""time""
""fullscreenenter"",""1"",""2114""
","""event"",""trial"",""time""
""fullscreenexit"",""2"",""4830""
","","","","","","490.69999998807907","<p> You will earn points based on how you made the animal feel. </p><p> If you made it feel happy, you will WIN anywhere from 1 - 9 points, </p><p> but if you made it feel angry, you will LOSE anywhere from 1 - 9 points. </p>","","0","instructions","","","","","","","","","","",""
"learning-instructions","182","737984","0.0-11.0-1.0-0.5","3718","1","8","Female","approach_avoid_spark_v1","""event"",""trial"",""time""
""fullscreenenter"",""1"",""2114""
""fullscreenexit"",""2"",""4830""
","
","
","""event"",""trial"",""time""
""fullscreenenter"",""1"",""2114""
","""event"",""trial"",""time""
""fullscreenexit"",""2"",""4830""
","","","","","","757.8999999761581","<p> You will see how many points you won or lost in the center of the screen. </p><p> Here is what you would see if you won 5 points: </p><p style=""color:green;font-size:50px;font-weight:bolder"">5</p>","","0","instructions","","","","","","","","","","",""
"learning-instructions","183","741746","0.0-11.0-1.0-0.6","3718","1","8","Female","approach_avoid_spark_v1","""event"",""trial"",""time""
""fullscreenenter"",""1"",""2114""
""fullscreenexit"",""2"",""4830""
","
","
","""event"",""trial"",""time""
""fullscreenenter"",""1"",""2114""
","""event"",""trial"",""time""
""fullscreenexit"",""2"",""4830""
","","","","","","928.7999999821186","<p> And here is what you would see if you lost 3 points: </p><p style=""color:red;font-size:50px;font-weight:bolder"">-3</p>","","0","instructions","","","","","","","","","","",""
"learning-instructions","184","757904","0.0-11.0-1.0-0.7","3718","1","8","Female","approach_avoid_spark_v1","""event"",""trial"",""time""
""fullscreenenter"",""1"",""2114""
""fullscreenexit"",""2"",""4830""
","
","
","""event"",""trial"",""time""
""fullscreenenter"",""1"",""2114""
","""event"",""trial"",""time""
""fullscreenexit"",""2"",""4830""
","","","","","","1637.5999999940395","<p> Some animals will become very happy or very angry. </p><p> These animals will make you win or lose LOTS of points. </p><p> Other animals have less strong feelings. </p><p> These animals will make you win or lose small amounts of points. </p>","","0","instructions","","","","","","","","","","",""
"learning-instructions","185","772592","0.0-11.0-1.0-0.8","3718","1","8","Female","approach_avoid_spark_v1","""event"",""trial"",""time""
""fullscreenenter"",""1"",""2114""
""fullscreenexit"",""2"",""4830""
","
","
","""event"",""trial"",""time""
""fullscreenenter"",""1"",""2114""
","""event"",""trial"",""time""
""fullscreenexit"",""2"",""4830""
","","","","","","2785.5","<p> If you choose to leave the animal alone, you will not win or lose any points. </p><p>  However, in the center of the screen, you will see the number of points you WOULD HAVE won or lost if you had pet the animal. </p>","","0","instructions","","","","","","","","","","",""
"learning-instructions","186","787743","0.0-11.0-1.0-0.9","3718","1","8","Female","approach_avoid_spark_v1","""event"",""trial"",""time""
""fullscreenenter"",""1"",""2114""
""fullscreenexit"",""2"",""4830""
","
","
","""event"",""trial"",""time""
""fullscreenenter"",""1"",""2114""
","""event"",""trial"",""time""
""fullscreenexit"",""2"",""4830""
","","","","","","2686.800000011921","<p> Here is what you might see if you did not pet the animal but the animal wanted to be pet: </p><p style=""color:grey; font-size:50px; display: inline-block; border-spacing: 15px; border-width:3px; border-style:solid; border-color:red"">  &nbsp; 6 &nbsp; </p><p> Remember, in this case, you would not win or lose ANY points because you did not pet the animal.  </p>","","0","instructions","","","","","","","","","","",""
"learning-instructions","187","795816","0.0-11.0-1.0-0.10","3718","1","8","Female","approach_avoid_spark_v1","""event"",""trial"",""time""
""fullscreenenter"",""1"",""2114""
""fullscreenexit"",""2"",""4830""
","
","
","""event"",""trial"",""time""
""fullscreenenter"",""1"",""2114""
","""event"",""trial"",""time""
""fullscreenexit"",""2"",""4830""
","","","","","","459.7999999821186","<p> Try to make the best choice for each animal because </p><p> at the end of the game, you will earn bonus money based on how many points you earned. </p>","","0","instructions","","","","","","","","","","",""
"learning-instructions","188","804704","0.0-11.0-1.0-0.11","3718","1","8","Female","approach_avoid_spark_v1","""event"",""trial"",""time""
""fullscreenenter"",""1"",""2114""
""fullscreenexit"",""2"",""4830""
","
","
","""event"",""trial"",""time""
""fullscreenenter"",""1"",""2114""
","""event"",""trial"",""time""
""fullscreenexit"",""2"",""4830""
","","","","","","697","<p> You will have 3 seconds to make each choice. Try to respond before time runs out! </p><p> You will lose 5 points each time you do not make a response. </p>","","0","instructions","","","","","","","","","","",""
"html-keyboard-response","189","805342","0.0-11.0-2.0-0.0","3718","1","8","Female","approach_avoid_spark_v1","""event"",""trial"",""time""
""fullscreenenter"",""1"",""2114""
