"trial_type","trial_index","time_elapsed","internal_node_id","subject_id","task_condition","age","gender","task_version","interactions","blur_events","focus_events","fullscreenenter_events","fullscreenexit_events","success","timeout","failed_images","failed_audio","failed_video","rt","stimulus","response","button_pressed","task_part","approach_reward","points","key_press","option_selected","stim_cat","task_block","block_condition","block_number","correct","cat_type","mean_cat_reward"
"pavlovia","0","20","0.0-0.0","5560","1","8","Female","approach_avoid_spark_v1","""event"",""trial"",""time""
""fullscreenenter"",""1"",""13124""
","
","
","""event"",""trial"",""time""
""fullscreenenter"",""1"",""13124""
","
","","","","","","","","","","","","","","","","","","","","",""
"fullscreen","1","14107","0.0-1.0","5560","1","8","Female","approach_avoid_spark_v1","""event"",""trial"",""time""
""fullscreenenter"",""1"",""13124""
","
","
","""event"",""trial"",""time""
""fullscreenenter"",""1"",""13124""
","
","true","","","","","","","","","","","","","","","","","","","",""
"preload","2","23190","0.0-2.0","5560","1","8","Female","approach_avoid_spark_v1","""event"",""trial"",""time""
""fullscreenenter"",""1"",""13124""
","
","
","""event"",""trial"",""time""
""fullscreenenter"",""1"",""13124""
","
","true","false","[]","[]","[]","","","","","","","","","","","","","","","",""
"audio-keyboard-response","3","29432","0.0-3.0","5560","1","8","Female","approach_avoid_spark_v1","""event"",""trial"",""time""
""fullscreenenter"",""1"",""13124""
","
","
","""event"",""trial"",""time""
""fullscreenenter"",""1"",""13124""
","
","","","","","","6240","audio/beep_loop.wav"," ","","","","","","","","","","","","",""
"audio-button-response","4","31742","0.0-4.0","5560","1","8","Female","approach_avoid_spark_v1","""event"",""trial"",""time""
""fullscreenenter"",""1"",""13124""
","
","
","""event"",""trial"",""time""
""fullscreenenter"",""1"",""13124""
","
","","","","","","2301","audio/shark.wav","4","","","","","","","","","","","","",""
"audio-button-response","5","34491","0.0-5.0","5560","1","8","Female","approach_avoid_spark_v1","""event"",""trial"",""time""
""fullscreenenter"",""1"",""13124""
","
","
","""event"",""trial"",""time""
""fullscreenenter"",""1"",""13124""
","
","","","","","","1731","audio/turtle.wav","1","","","","","","","","","","","","",""
"preload","6","38295","0.0-6.0","5560","1","8","Female","approach_avoid_spark_v1","""event"",""trial"",""time""
""fullscreenenter"",""1"",""13124""
","
","
","""event"",""trial"",""time""
""fullscreenenter"",""1"",""13124""
","
","true","false","[]","[]","[]","","","","","","","","","","","","","","","",""
"html-keyboard-response","7","48683","0.0-7.0","5560","1","8","Female","approach_avoid_spark_v1","""event"",""trial"",""time""
""fullscreenenter"",""1"",""13124""
""blur"",""8"",""75311""
""focus"",""8"",""75316""
""fullscreenexit"",""8"",""75323""
","""event"",""trial"",""time""
""blur"",""8"",""75311""
","""event"",""trial"",""time""
""focus"",""8"",""75316""
","""event"",""trial"",""time""
""fullscreenenter"",""1"",""13124""
","""event"",""trial"",""time""
""fullscreenexit"",""8"",""75323""
","","","","","","10385.899999856949","Welcome to the experiment. Press any key to begin and to advance the instructions.","1","","","","","","","","","","","","",""
"learning-instructions","8","77340","0.0-8.0-0.0-0.0","5560","1","8","Female","approach_avoid_spark_v1","""event"",""trial"",""time""
""fullscreenenter"",""1"",""13124""
""blur"",""8"",""75311""
""focus"",""8"",""75316""
""fullscreenexit"",""8"",""75323""
","""event"",""trial"",""time""
""blur"",""8"",""75311""
","""event"",""trial"",""time""
""focus"",""8"",""75316""
","""event"",""trial"",""time""
""fullscreenenter"",""1"",""13124""
","""event"",""trial"",""time""
""fullscreenexit"",""8"",""75323""
","","","","","","21694.5","<p> Welcome! Today you are going to play 6 different rounds of a decision-making game. </p><p> Use the mouse to click next to continue. </p>","","0","instructions","","","","","","","","","","",""
"learning-instructions","9","83587","0.0-8.0-0.0-0.1","5560","1","8","Female","approach_avoid_spark_v1","""event"",""trial"",""time""
""fullscreenenter"",""1"",""13124""
""blur"",""8"",""75311""
""focus"",""8"",""75316""
""fullscreenexit"",""8"",""75323""
","""event"",""trial"",""time""
""blur"",""8"",""75311""
","""event"",""trial"",""time""
""focus"",""8"",""75316""
","""event"",""trial"",""time""
""fullscreenenter"",""1"",""13124""
","""event"",""trial"",""time""
""fullscreenexit"",""8"",""75323""
","","","","","","3512.4000000953674","<p> You will start with a practice round to learn the rules. </p>","","0","instructions","","","","","","","","","","",""
"learning-instructions","10","89204","0.0-8.0-0.0-0.2","5560","1","8","Female","approach_avoid_spark_v1","""event"",""trial"",""time""
""fullscreenenter"",""1"",""13124""
""blur"",""8"",""75311""
""focus"",""8"",""75316""
""fullscreenexit"",""8"",""75323""
","""event"",""trial"",""time""
""blur"",""8"",""75311""
","""event"",""trial"",""time""
""focus"",""8"",""75316""
","""event"",""trial"",""time""
""fullscreenenter"",""1"",""13124""
","""event"",""trial"",""time""
""fullscreenexit"",""8"",""75323""
","","","","","","2158.5","<p> Your goal in this round is to give out sports equipment to kids. </p></div>","","0","instructions","","","","","","","","","","",""
"learning-instructions","11","98363","0.0-8.0-0.0-0.3","5560","1","8","Female","approach_avoid_spark_v1","""event"",""trial"",""time""
""fullscreenenter"",""1"",""13124""
""blur"",""8"",""75311""
""focus"",""8"",""75316""
""fullscreenexit"",""8"",""75323""
","""event"",""trial"",""time""
""blur"",""8"",""75311""
","""event"",""trial"",""time""
""focus"",""8"",""75316""
","""event"",""trial"",""time""
""fullscreenenter"",""1"",""13124""
","""event"",""trial"",""time""
""fullscreenexit"",""8"",""75323""
","","","","","","1608.9000000953674","<p> The kids only like some of the equipment.  </p><p> On each turn, you will see a piece of sports equipment.   </p><p> You need to decide whether to give it to the kids or not.  </p>","","0","instructions","","","","","","","","","","",""
"learning-instructions","12","110875","0.0-8.0-0.0-0.4","5560","1","8","Female","approach_avoid_spark_v1","""event"",""trial"",""time""
""fullscreenenter"",""1"",""13124""
""blur"",""8"",""75311""
""focus"",""8"",""75316""
""fullscreenexit"",""8"",""75323""
","""event"",""trial"",""time""
""blur"",""8"",""75311""
","""event"",""trial"",""time""
""focus"",""8"",""75316""
","""event"",""trial"",""time""
""fullscreenenter"",""1"",""13124""
","""event"",""trial"",""time""
""fullscreenexit"",""8"",""75323""
","","","","","","7750","<p> You can give them the equipment by pressing 1 and choose not to give it to them by pressing 0. </p><br><div class=""choice-instructions-grid""> <div class=""choice-option""><img src=""images/approach.png"" class=""choice-option-img"" stage=""instructions"" position=""0"" ><div class=""choice-option-text""> Press ""1."" </div></div><div class=""choice-option""><img src=""images/avoid.png"" class=""choice-option-img"" stage=""instructions"" position=""1"" ><div class=""choice-option-text""> Press ""0."" </div></div>","","0","instructions","","","","","","","","","","",""
"learning-instructions","13","120133","0.0-8.0-0.0-0.5","5560","1","8","Female","approach_avoid_spark_v1","""event"",""trial"",""time""
""fullscreenenter"",""1"",""13124""
""blur"",""8"",""75311""
""focus"",""8"",""75316""
""fullscreenexit"",""8"",""75323""
","""event"",""trial"",""time""
""blur"",""8"",""75311""
","""event"",""trial"",""time""
""focus"",""8"",""75316""
","""event"",""trial"",""time""
""fullscreenenter"",""1"",""13124""
","""event"",""trial"",""time""
""fullscreenexit"",""8"",""75323""
","","","","","","1868.0999999046326","<p> If you give them a piece of equipment they like, they will be happy! </p><p> But if you give them a piece of equipment they do not like, they will be sad. </p>","","0","instructions","","","","","","","","","","",""
"learning-instructions","14","131723","0.0-8.0-0.0-0.6","5560","1","8","Female","approach_avoid_spark_v1","""event"",""trial"",""time""
""fullscreenenter"",""1"",""13124""
""blur"",""8"",""75311""
""focus"",""8"",""75316""
""fullscreenexit"",""8"",""75323""
","""event"",""trial"",""time""
""blur"",""8"",""75311""
","""event"",""trial"",""time""
""focus"",""8"",""75316""
","""event"",""trial"",""time""
""fullscreenenter"",""1"",""13124""
","""event"",""trial"",""time""
""fullscreenexit"",""8"",""75323""
","","","","","","1078.5","<p> You will earn points based on how you make kids feel. </p><p> If you make them happy, you will WIN anywhere from 1 - 9 points, </p><p> but if you make them sad, you will LOSE anywhere from 1 - 9 points. </p>","","0","instructions","","","","","","","","","","",""
"learning-instructions","15","144939","0.0-8.0-0.0-0.7","5560","1","8","Female","approach_avoid_spark_v1","""event"",""trial"",""time""
""fullscreenenter"",""1"",""13124""
""blur"",""8"",""75311""
""focus"",""8"",""75316""
""fullscreenexit"",""8"",""75323""
","""event"",""trial"",""time""
""blur"",""8"",""75311""
","""event"",""trial"",""time""
""focus"",""8"",""75316""
","""event"",""trial"",""time""
""fullscreenenter"",""1"",""13124""
","""event"",""trial"",""time""
""fullscreenexit"",""8"",""75323""
","","","","","","3654.2999999523163","<p> You will see how many points you won or lost in the center of the screen. </p><p> Here is what you would see if you won 6 points: </p><p style=""color:green;font-size:50px;font-weight:bolder"">6</p><p style=""color:green"">The text is GREEN because you WON points.</p>","","0","instructions","","","","","","","","","","",""
"learning-instructions","16","151619","0.0-8.0-0.0-0.8","5560","1","8","Female","approach_avoid_spark_v1","""event"",""trial"",""time""
""fullscreenenter"",""1"",""13124""
""blur"",""8"",""75311""
""focus"",""8"",""75316""
""fullscreenexit"",""8"",""75323""
","""event"",""trial"",""time""
""blur"",""8"",""75311""
","""event"",""trial"",""time""
""focus"",""8"",""75316""
","""event"",""trial"",""time""
""fullscreenenter"",""1"",""13124""
","""event"",""trial"",""time""
""fullscreenexit"",""8"",""75323""
","","","","","","1174.1000001430511","<p> And here is what you would see if you lost 4 points: </p><p style=""color:red;font-size:50px;font-weight:bolder"">-4</p><p style=""color:red"">The text is RED because you LOST points. </p>","","0","instructions","","","","","","","","","","",""
"learning-instructions","17","168179","0.0-8.0-0.0-0.9","5560","1","8","Female","approach_avoid_spark_v1","""event"",""trial"",""time""
""fullscreenenter"",""1"",""13124""
""blur"",""8"",""75311""
""focus"",""8"",""75316""
""fullscreenexit"",""8"",""75323""
","""event"",""trial"",""time""
""blur"",""8"",""75311""
","""event"",""trial"",""time""
""focus"",""8"",""75316""
","""event"",""trial"",""time""
""fullscreenenter"",""1"",""13124""
","""event"",""trial"",""time""
""fullscreenexit"",""8"",""75323""
","","","","","","1834.7999999523163","<p> Some of the equipment will make the kids VERY happy or sad. </p><p> These pieces of equipment will make you win or lose LOTS of points. </p><p> Other pieces of equipment will only make the kids a little happy or sad. </p><p> These pieces of equipment will make you win or lose small amounts of points. </p>","","0","instructions","","","","","","","","","","",""
"learning-instructions","18","179603","0.0-8.0-0.0-0.10","5560","1","8","Female","approach_avoid_spark_v1","""event"",""trial"",""time""
""fullscreenenter"",""1"",""13124""
""blur"",""8"",""75311""
""focus"",""8"",""75316""
""fullscreenexit"",""8"",""75323""
","""event"",""trial"",""time""
""blur"",""8"",""75311""
","""event"",""trial"",""time""
""focus"",""8"",""75316""
","""event"",""trial"",""time""
""fullscreenenter"",""1"",""13124""
","""event"",""trial"",""time""
""fullscreenexit"",""8"",""75323""
","","","","","","798.3999998569489","<p> If you choose not to give them the equipment, you will not win or lose any points. </p><p>  However, in the center of the screen, you will see the number of points you WOULD HAVE won or lost if you had given them the equipment. </p>","","0","instructions","","","","","","","","","","",""
"learning-instructions","19","203627","0.0-8.0-0.0-0.11","5560","1","8","Female","approach_avoid_spark_v1","""event"",""trial"",""time""
""fullscreenenter"",""1"",""13124""
""blur"",""8"",""75311""
""focus"",""8"",""75316""
""fullscreenexit"",""8"",""75323""
""blur"",""20"",""207440""
""focus"",""20"",""227392""
""blur"",""20"",""227405""
""focus"",""20"",""228940""
","""event"",""trial"",""time""
""blur"",""8"",""75311""
""blur"",""20"",""207440""
""blur"",""20"",""227405""
","""event"",""trial"",""time""
""focus"",""8"",""75316""
""focus"",""20"",""227392""
""focus"",""20"",""228940""
","""event"",""trial"",""time""
""fullscreenenter"",""1"",""13124""
","""event"",""trial"",""time""
""fullscreenexit"",""8"",""75323""
","","","","","","2492","<p> Here is what you might see if you did not give the equipment to the kids but it would have made them happy: </p><p style=""color:grey; font-size:50px; display: inline-block; border-spacing: 15px; border-width:3px; border-style:solid; border-color:red"">  &nbsp; 7 &nbsp; </p><p> Remember, in this case, you would not win or lose ANY points because you did not give them the equipment.  </p><p style=""color:grey"">The text is GREY because you earned ZERO points. </p><p style=""color:red"">However, choosing to give the kids the equipment would have made you win points. The box around the text is RED because you chose the worse option. </p>","","0","instructions","","","","","","","","","","",""
"learning-instructions","20","231595","0.0-8.0-0.0-0.12","5560","1","8","Female","approach_avoid_spark_v1","""event"",""trial"",""time""
""fullscreenenter"",""1"",""13124""
""blur"",""8"",""75311""
""focus"",""8"",""75316""
""fullscreenexit"",""8"",""75323""
""blur"",""20"",""207440""
""focus"",""20"",""227392""
""blur"",""20"",""227405""
""focus"",""20"",""228940""
","""event"",""trial"",""time""
""blur"",""8"",""75311""
""blur"",""20"",""207440""
""blur"",""20"",""227405""
","""event"",""trial"",""time""
""focus"",""8"",""75316""
""focus"",""20"",""227392""
""focus"",""20"",""228940""
","""event"",""trial"",""time""
""fullscreenenter"",""1"",""13124""
","""event"",""trial"",""time""
""fullscreenexit"",""8"",""75323""
","","","","","","6880","<p> Here is what you might see if you did not give the equipment to the kids but it would have made them sad: </p><p style=""color:grey;font-size:50px; display: inline-block; border-spacing: 15px; border-width:3px; border-style:solid; border-color:green"">  &nbsp; -8 &nbsp; </p><p> Remember, in this case, you would not win or lose ANY points because you did not give them the equipment.  </p><p style=""color:grey"">The text is GREY because you earned ZERO points. </p><p  style=""color:green""> Choosing to give the kids the equipment would have made you lose points. The box around the text is GREEN because you chose the better option.</p>","","0","instructions","","","","","","","","","","",""
"learning-instructions","21","245172","0.0-8.0-0.0-0.13","5560","1","8","Female","approach_avoid_spark_v1","""event"",""trial"",""time""
""fullscreenenter"",""1"",""13124""
""blur"",""8"",""75311""
""focus"",""8"",""75316""
""fullscreenexit"",""8"",""75323""
""blur"",""20"",""207440""
""focus"",""20"",""227392""
""blur"",""20"",""227405""
""focus"",""20"",""228940""
","""event"",""trial"",""time""
""blur"",""8"",""75311""
""blur"",""20"",""207440""
""blur"",""20"",""227405""
","""event"",""trial"",""time""
""focus"",""8"",""75316""
""focus"",""20"",""227392""
""focus"",""20"",""228940""
","""event"",""trial"",""time""
""fullscreenenter"",""1"",""13124""
","""event"",""trial"",""time""
""fullscreenexit"",""8"",""75323""
","","","","","","2967.4000000953674","<p> You will have 3 seconds to make each choice. Try to respond before time runs out! </p><p> You will lose 5 points each time you do not make a response. </p>","","0","instructions","","","","","","","","","","",""
"learning-instructions","22","251604","0.0-8.0-0.0-0.14","5560","1","8","Female","approach_avoid_spark_v1","""event"",""trial"",""time""
""fullscreenenter"",""1"",""13124""
""blur"",""8"",""75311""
""focus"",""8"",""75316""
""fullscreenexit"",""8"",""75323""
""blur"",""20"",""207440""
""focus"",""20"",""227392""
""blur"",""20"",""227405""
""focus"",""20"",""228940""
","""event"",""trial"",""time""
""blur"",""8"",""75311""
""blur"",""20"",""207440""
""blur"",""20"",""227405""
","""event"",""trial"",""time""
""focus"",""8"",""75316""
""focus"",""20"",""227392""
""focus"",""20"",""228940""
","""event"",""trial"",""time""
""fullscreenenter"",""1"",""13124""
","""event"",""trial"",""time""
""fullscreenexit"",""8"",""75323""
","","","","","","1019.3999998569489","<p> This is just a practice round, but in the real game, your bonus payment will depend on your total number of points.","","0","instructions","","","","","","","","","","",""
"learning-instructions","23","259147","0.0-8.0-0.0-0.15","5560","1","8","Female","approach_avoid_spark_v1","""event"",""trial"",""time""
""fullscreenenter"",""1"",""13124""
""blur"",""8"",""75311""
""focus"",""8"",""75316""
""fullscreenexit"",""8"",""75323""
""blur"",""20"",""207440""
""focus"",""20"",""227392""
""blur"",""20"",""227405""
""focus"",""20"",""228940""
","""event"",""trial"",""time""
""blur"",""8"",""75311""
""blur"",""20"",""207440""
""blur"",""20"",""227405""
","""event"",""trial"",""time""
""focus"",""8"",""75316""
""focus"",""20"",""227392""
""focus"",""20"",""228940""
","""event"",""trial"",""time""
""fullscreenenter"",""1"",""13124""
","""event"",""trial"",""time""
""fullscreenexit"",""8"",""75323""
","","","","","","1781.8999998569489","<p> Remember, you can give them the equipment by pressing 1 and choose not to give it to them by pressing 0. </p><br><div class=""choice-instructions-grid""> <div class=""choice-option""><img src=""images/approach.png"" class=""choice-option-img"" stage=""instructions"" position=""0"" ><div class=""choice-option-text""> Press ""1."" </div></div><div class=""choice-option""><img src=""images/avoid.png"" class=""choice-option-img"" stage=""instructions"" position=""1"" ><div class=""choice-option-text""> Press ""0."" </div></div>","","0","instructions","","","","","","","","","","",""
"html-button-response","24","260724","0.0-8.0-1.0","5560","1","8","Female","approach_avoid_spark_v1","""event"",""trial"",""time""
""fullscreenenter"",""1"",""13124""
""blur"",""8"",""75311""
""focus"",""8"",""75316""
""fullscreenexit"",""8"",""75323""
""blur"",""20"",""207440""
""focus"",""20"",""227392""
""blur"",""20"",""227405""
""focus"",""20"",""228940""
","""event"",""trial"",""time""
""blur"",""8"",""75311""
""blur"",""20"",""207440""
""blur"",""20"",""227405""
","""event"",""trial"",""time""
""focus"",""8"",""75316""
""focus"",""20"",""227392""
""focus"",""20"",""228940""
","""event"",""trial"",""time""
""fullscreenenter"",""1"",""13124""
","""event"",""trial"",""time""
""fullscreenexit"",""8"",""75323""
","","","","","","1468.7000000476837","<p> Ready to practice? </p>","0","","","","","","","","","","","","",""
"html-keyboard-response","25","261341","0.0-8.0-2.0-0.0","5560","1","8","Female","approach_avoid_spark_v1","""event"",""trial"",""time""
""fullscreenenter"",""1"",""13124""
""blur"",""8"",""75311""
""focus"",""8"",""75316""
""fullscreenexit"",""8"",""75323""
""blur"",""20"",""207440""
""focus"",""20"",""227392""
""blur"",""20"",""227405""
""focus"",""20"",""228940""
","""event"",""trial"",""time""
""blur"",""8"",""75311""
""blur"",""20"",""207440""
""blur"",""20"",""227405""
","""event"",""trial"",""time""
""focus"",""8"",""75316""
""focus"",""20"",""227392""
""focus"",""20"",""228940""
","""event"",""trial"",""time""
""fullscreenenter"",""1"",""13124""
","""event"",""trial"",""time""
""fullscreenexit"",""8"",""75323""
","","","","","","null","<div style=""font-size:60px;"">+</div>","null","","fixation","","","","","","","","","","",""
"aa-learning-trial","26","264349","0.0-8.0-2.0-1.0","5560","1","8","Female","approach_avoid_spark_v1","""event"",""trial"",""time""
""fullscreenenter"",""1"",""13124""
""blur"",""8"",""75311""
""focus"",""8"",""75316""
""fullscreenexit"",""8"",""75323""
""blur"",""20"",""207440""
""focus"",""20"",""227392""
""blur"",""20"",""227405""
""focus"",""20"",""228940""
","""event"",""trial"",""time""
""blur"",""8"",""75311""
""blur"",""20"",""207440""
""blur"",""20"",""227405""
","""event"",""trial"",""time""
""focus"",""8"",""75316""
""focus"",""20"",""227392""
""focus"",""20"",""228940""
","""event"",""trial"",""time""
""fullscreenenter"",""1"",""13124""
","""event"",""trial"",""time""
""fullscreenexit"",""8"",""75323""
","","","","","","1229.1000001430511","images/racket4.png","","","learning","1","1","1","1","practice","practice","practice","-1","","",""
"html-keyboard-response","27","264855","0.0-8.0-2.0-0.1","5560","1","8","Female","approach_avoid_spark_v1","""event"",""trial"",""time""
""fullscreenenter"",""1"",""13124""
""blur"",""8"",""75311""
""focus"",""8"",""75316""
""fullscreenexit"",""8"",""75323""
""blur"",""20"",""207440""
""focus"",""20"",""227392""
""blur"",""20"",""227405""
""focus"",""20"",""228940""
","""event"",""trial"",""time""
""blur"",""8"",""75311""
""blur"",""20"",""207440""
""blur"",""20"",""227405""
","""event"",""trial"",""time""
""focus"",""8"",""75316""
""focus"",""20"",""227392""
""focus"",""20"",""228940""
","""event"",""trial"",""time""
""fullscreenenter"",""1"",""13124""
","""event"",""trial"",""time""
""fullscreenexit"",""8"",""75323""
","","","","","","null","<div style=""font-size:60px;"">+</div>","null","","fixation","","","","","","","","","","",""
"aa-learning-trial","28","267873","0.0-8.0-2.0-1.1","5560","1","8","Female","approach_avoid_spark_v1","""event"",""trial"",""time""
""fullscreenenter"",""1"",""13124""
""blur"",""8"",""75311""
""focus"",""8"",""75316""
""fullscreenexit"",""8"",""75323""
""blur"",""20"",""207440""
""focus"",""20"",""227392""
""blur"",""20"",""227405""
""focus"",""20"",""228940""
","""event"",""trial"",""time""
""blur"",""8"",""75311""
""blur"",""20"",""207440""
""blur"",""20"",""227405""
","""event"",""trial"",""time""
""focus"",""8"",""75316""
""focus"",""20"",""227392""
""focus"",""20"",""228940""
","""event"",""trial"",""time""
""fullscreenenter"",""1"",""13124""
","""event"",""trial"",""time""
""fullscreenexit"",""8"",""75323""
","","","","","","970.7000000476837","images/ball2.png","","","learning","9","9","1","1","practice","practice","practice","-1","","",""
"html-keyboard-response","29","268391","0.0-8.0-2.0-0.2","5560","1","8","Female","approach_avoid_spark_v1","""event"",""trial"",""time""
""fullscreenenter"",""1"",""13124""
""blur"",""8"",""75311""
""focus"",""8"",""75316""
""fullscreenexit"",""8"",""75323""
""blur"",""20"",""207440""
""focus"",""20"",""227392""
""blur"",""20"",""227405""
""focus"",""20"",""228940""
","""event"",""trial"",""time""
""blur"",""8"",""75311""
""blur"",""20"",""207440""
""blur"",""20"",""227405""
","""event"",""trial"",""time""
""focus"",""8"",""75316""
""focus"",""20"",""227392""
""focus"",""20"",""228940""
","""event"",""trial"",""time""
""fullscreenenter"",""1"",""13124""
","""event"",""trial"",""time""
""fullscreenexit"",""8"",""75323""
","","","","","","null","<div style=""font-size:60px;"">+</div>","null","","fixation","","","","","","","","","","",""
"aa-learning-trial","30","271402","0.0-8.0-2.0-1.2","5560","1","8","Female","approach_avoid_spark_v1","""event"",""trial"",""time""
""fullscreenenter"",""1"",""13124""
""blur"",""8"",""75311""
""focus"",""8"",""75316""
""fullscreenexit"",""8"",""75323""
""blur"",""20"",""207440""
""focus"",""20"",""227392""
""blur"",""20"",""227405""
""focus"",""20"",""228940""
","""event"",""trial"",""time""
""blur"",""8"",""75311""
""blur"",""20"",""207440""
""blur"",""20"",""227405""
","""event"",""trial"",""time""
""focus"",""8"",""75316""
""focus"",""20"",""227392""
""focus"",""20"",""228940""
","""event"",""trial"",""time""
""fullscreenenter"",""1"",""13124""
","""event"",""trial"",""time""
""fullscreenexit"",""8"",""75323""
","","","","","","1059.2000000476837","images/ball1.png","","","learning","-5","-5","1","1","practice","practice","practice","-1","","",""
"html-keyboard-response","31","271918","0.0-8.0-2.0-0.3","5560","1","8","Female","approach_avoid_spark_v1","""event"",""trial"",""time""
""fullscreenenter"",""1"",""13124""
""blur"",""8"",""75311""
""focus"",""8"",""75316""
""fullscreenexit"",""8"",""75323""
""blur"",""20"",""207440""
""focus"",""20"",""227392""
""blur"",""20"",""227405""
""focus"",""20"",""228940""
","""event"",""trial"",""time""
""blur"",""8"",""75311""
""blur"",""20"",""207440""
""blur"",""20"",""227405""
","""event"",""trial"",""time""
""focus"",""8"",""75316""
""focus"",""20"",""227392""
""focus"",""20"",""228940""
","""event"",""trial"",""time""
""fullscreenenter"",""1"",""13124""
","""event"",""trial"",""time""
""fullscreenexit"",""8"",""75323""
","","","","","","null","<div style=""font-size:60px;"">+</div>","null","","fixation","","","","","","","","","","",""
"aa-learning-trial","32","274937","0.0-8.0-2.0-1.3","5560","1","8","Female","approach_avoid_spark_v1","""event"",""trial"",""time""
""fullscreenenter"",""1"",""13124""
""blur"",""8"",""75311""
""focus"",""8"",""75316""
""fullscreenexit"",""8"",""75323""
""blur"",""20"",""207440""
""focus"",""20"",""227392""
""blur"",""20"",""227405""
""focus"",""20"",""228940""
","""event"",""trial"",""time""
""blur"",""8"",""75311""
""blur"",""20"",""207440""
""blur"",""20"",""227405""
","""event"",""trial"",""time""
""focus"",""8"",""75316""
""focus"",""20"",""227392""
""focus"",""20"",""228940""
","""event"",""trial"",""time""
""fullscreenenter"",""1"",""13124""
","""event"",""trial"",""time""
""fullscreenexit"",""8"",""75323""
","","","","","","1011.3999998569489","images/ball4.png","","","learning","8","0","0","0","practice","practice","practice","-1","","",""
"html-keyboard-response","33","275456","0.0-8.0-2.0-0.4","5560","1","8","Female","approach_avoid_spark_v1","""event"",""trial"",""time""
""fullscreenenter"",""1"",""13124""
""blur"",""8"",""75311""
""focus"",""8"",""75316""
""fullscreenexit"",""8"",""75323""
""blur"",""20"",""207440""
""focus"",""20"",""227392""
""blur"",""20"",""227405""
""focus"",""20"",""228940""
","""event"",""trial"",""time""
""blur"",""8"",""75311""
""blur"",""20"",""207440""
""blur"",""20"",""227405""
","""event"",""trial"",""time""
""focus"",""8"",""75316""
""focus"",""20"",""227392""
""focus"",""20"",""228940""
","""event"",""trial"",""time""
""fullscreenenter"",""1"",""13124""
","""event"",""trial"",""time""
""fullscreenexit"",""8"",""75323""
","","","","","","null","<div style=""font-size:60px;"">+</div>","null","","fixation","","","","","","","","","","",""
"aa-learning-trial","34","278470","0.0-8.0-2.0-1.4","5560","1","8","Female","approach_avoid_spark_v1","""event"",""trial"",""time""
""fullscreenenter"",""1"",""13124""
""blur"",""8"",""75311""
""focus"",""8"",""75316""
""fullscreenexit"",""8"",""75323""
""blur"",""20"",""207440""
""focus"",""20"",""227392""
""blur"",""20"",""227405""
""focus"",""20"",""228940""
","""event"",""trial"",""time""
""blur"",""8"",""75311""
""blur"",""20"",""207440""
""blur"",""20"",""227405""
","""event"",""trial"",""time""
""focus"",""8"",""75316""
""focus"",""20"",""227392""
""focus"",""20"",""228940""
","""event"",""trial"",""time""
""fullscreenenter"",""1"",""13124""
","""event"",""trial"",""time""
""fullscreenexit"",""8"",""75323""
","","","","","","425.60000014305115","images/racket2.png","","","learning","-4","-4","1","1","practice","practice","practice","-1","","",""
"html-keyboard-response","35","278987","0.0-8.0-2.0-0.5","5560","1","8","Female","approach_avoid_spark_v1","""event"",""trial"",""time""
""fullscreenenter"",""1"",""13124""
""blur"",""8"",""75311""
""focus"",""8"",""75316""
""fullscreenexit"",""8"",""75323""
""blur"",""20"",""207440""
""focus"",""20"",""227392""
""blur"",""20"",""227405""
""focus"",""20"",""228940""
","""event"",""trial"",""time""
""blur"",""8"",""75311""
""blur"",""20"",""207440""
""blur"",""20"",""227405""
","""event"",""trial"",""time""
""focus"",""8"",""75316""
""focus"",""20"",""227392""
""focus"",""20"",""228940""
","""event"",""trial"",""time""
""fullscreenenter"",""1"",""13124""
","""event"",""trial"",""time""
""fullscreenexit"",""8"",""75323""
","","","","","","null","<div style=""font-size:60px;"">+</div>","null","","fixation","","","","","","","","","","",""
"aa-learning-trial","36","282003","0.0-8.0-2.0-1.5","5560","1","8","Female","approach_avoid_spark_v1","""event"",""trial"",""time""
""fullscreenenter"",""1"",""13124""
""blur"",""8"",""75311""
""focus"",""8"",""75316""
""fullscreenexit"",""8"",""75323""
""blur"",""20"",""207440""
""focus"",""20"",""227392""
""blur"",""20"",""227405""
""focus"",""20"",""228940""
","""event"",""trial"",""time""
""blur"",""8"",""75311""
""blur"",""20"",""207440""
""blur"",""20"",""227405""
","""event"",""trial"",""time""
""focus"",""8"",""75316""
""focus"",""20"",""227392""
""focus"",""20"",""228940""
","""event"",""trial"",""time""
""fullscreenenter"",""1"",""13124""
","""event"",""trial"",""time""
""fullscreenexit"",""8"",""75323""
","","","","","","1142.7999999523163","images/racket4.png","","","learning","6","0","0","0","practice","practice","practice","-1","","",""
"html-keyboard-response","37","282519","0.0-8.0-2.0-0.6","5560","1","8","Female","approach_avoid_spark_v1","""event"",""trial"",""time""
""fullscreenenter"",""1"",""13124""
""blur"",""8"",""75311""
""focus"",""8"",""75316""
""fullscreenexit"",""8"",""75323""
""blur"",""20"",""207440""
""focus"",""20"",""227392""
""blur"",""20"",""227405""
""focus"",""20"",""228940""
","""event"",""trial"",""time""
""blur"",""8"",""75311""
""blur"",""20"",""207440""
""blur"",""20"",""227405""
","""event"",""trial"",""time""
""focus"",""8"",""75316""
""focus"",""20"",""227392""
""focus"",""20"",""228940""
","""event"",""trial"",""time""
""fullscreenenter"",""1"",""13124""
","""event"",""trial"",""time""
""fullscreenexit"",""8"",""75323""
","","","","","","null","<div style=""font-size:60px;"">+</div>","null","","fixation","","","","","","","","","","",""
"aa-learning-trial","38","285536","0.0-8.0-2.0-1.6","5560","1","8","Female","approach_avoid_spark_v1","""event"",""trial"",""time""
""fullscreenenter"",""1"",""13124""
""blur"",""8"",""75311""
""focus"",""8"",""75316""
""fullscreenexit"",""8"",""75323""
""blur"",""20"",""207440""
""focus"",""20"",""227392""
""blur"",""20"",""227405""
""focus"",""20"",""228940""
","""event"",""trial"",""time""
""blur"",""8"",""75311""
""blur"",""20"",""207440""
""blur"",""20"",""227405""
","""event"",""trial"",""time""
""focus"",""8"",""75316""
""focus"",""20"",""227392""
""focus"",""20"",""228940""
","""event"",""trial"",""time""
""fullscreenenter"",""1"",""13124""
","""event"",""trial"",""time""
""fullscreenexit"",""8"",""75323""
","","","","","","969.5999999046326","images/ball1.png","","","learning","4","4","1","1","practice","practice","practice","-1","","",""
"html-keyboard-response","39","286047","0.0-8.0-2.0-0.7","5560","1","8","Female","approach_avoid_spark_v1","""event"",""trial"",""time""
""fullscreenenter"",""1"",""13124""
""blur"",""8"",""75311""
""focus"",""8"",""75316""
""fullscreenexit"",""8"",""75323""
""blur"",""20"",""207440""
""focus"",""20"",""227392""
""blur"",""20"",""227405""
""focus"",""20"",""228940""
","""event"",""trial"",""time""
""blur"",""8"",""75311""
""blur"",""20"",""207440""
""blur"",""20"",""227405""
","""event"",""trial"",""time""
""focus"",""8"",""75316""
""focus"",""20"",""227392""
""focus"",""20"",""228940""
","""event"",""trial"",""time""
""fullscreenenter"",""1"",""13124""
","""event"",""trial"",""time""
""fullscreenexit"",""8"",""75323""
","","","","","","null","<div style=""font-size:60px;"">+</div>","null","","fixation","","","","","","","","","","",""
"aa-learning-trial","40","289052","0.0-8.0-2.0-1.7","5560","1","8","Female","approach_avoid_spark_v1","""event"",""trial"",""time""
""fullscreenenter"",""1"",""13124""
""blur"",""8"",""75311""
""focus"",""8"",""75316""
""fullscreenexit"",""8"",""75323""
""blur"",""20"",""207440""
""focus"",""20"",""227392""
""blur"",""20"",""227405""
""focus"",""20"",""228940""
","""event"",""trial"",""time""
""blur"",""8"",""75311""
""blur"",""20"",""207440""
""blur"",""20"",""227405""
","""event"",""trial"",""time""
""focus"",""8"",""75316""
""focus"",""20"",""227392""
""focus"",""20"",""228940""
","""event"",""trial"",""time""
""fullscreenenter"",""1"",""13124""
","""event"",""trial"",""time""
""fullscreenexit"",""8"",""75323""
","","","","","","1250.2999999523163","images/racket1.png","","","learning","5","5","1","1","practice","practice","practice","-1","","",""
"html-keyboard-response","41","289557","0.0-8.0-2.0-0.8","5560","1","8","Female","approach_avoid_spark_v1","""event"",""trial"",""time""
""fullscreenenter"",""1"",""13124""
""blur"",""8"",""75311""
""focus"",""8"",""75316""
""fullscreenexit"",""8"",""75323""
""blur"",""20"",""207440""
""focus"",""20"",""227392""
""blur"",""20"",""227405""
""focus"",""20"",""228940""
","""event"",""trial"",""time""
""blur"",""8"",""75311""
""blur"",""20"",""207440""
""blur"",""20"",""227405""
","""event"",""trial"",""time""
""focus"",""8"",""75316""
""focus"",""20"",""227392""
""focus"",""20"",""228940""
","""event"",""trial"",""time""
""fullscreenenter"",""1"",""13124""
","""event"",""trial"",""time""
""fullscreenexit"",""8"",""75323""
","","","","","","null","<div style=""font-size:60px;"">+</div>","null","","fixation","","","","","","","","","","",""
"aa-learning-trial","42","292565","0.0-8.0-2.0-1.8","5560","1","8","Female","approach_avoid_spark_v1","""event"",""trial"",""time""
""fullscreenenter"",""1"",""13124""
""blur"",""8"",""75311""
""focus"",""8"",""75316""
""fullscreenexit"",""8"",""75323""
""blur"",""20"",""207440""
""focus"",""20"",""227392""
""blur"",""20"",""227405""
""focus"",""20"",""228940""
","""event"",""trial"",""time""
""blur"",""8"",""75311""
""blur"",""20"",""207440""
""blur"",""20"",""227405""
","""event"",""trial"",""time""
""focus"",""8"",""75316""
""focus"",""20"",""227392""
""focus"",""20"",""228940""
","""event"",""trial"",""time""
""fullscreenenter"",""1"",""13124""
","""event"",""trial"",""time""
""fullscreenexit"",""8"",""75323""
","","","","","","1060.6000001430511","images/racket3.png","","","learning","4","4","1","1","practice","practice","practice","-1","","",""
"html-keyboard-response","43","293068","0.0-8.0-2.0-0.9","5560","1","8","Female","approach_avoid_spark_v1","""event"",""trial"",""time""
""fullscreenenter"",""1"",""13124""
""blur"",""8"",""75311""
""focus"",""8"",""75316""
""fullscreenexit"",""8"",""75323""
""blur"",""20"",""207440""
""focus"",""20"",""227392""
""blur"",""20"",""227405""
""focus"",""20"",""228940""
","""event"",""trial"",""time""
""blur"",""8"",""75311""
""blur"",""20"",""207440""
""blur"",""20"",""227405""
","""event"",""trial"",""time""
""focus"",""8"",""75316""
""focus"",""20"",""227392""
""focus"",""20"",""228940""
","""event"",""trial"",""time""
""fullscreenenter"",""1"",""13124""
","""event"",""trial"",""time""
""fullscreenexit"",""8"",""75323""
","","","","","","null","<div style=""font-size:60px;"">+</div>","null","","fixation","","","","","","","","","","",""
"aa-learning-trial","44","296076","0.0-8.0-2.0-1.9","5560","1","8","Female","approach_avoid_spark_v1","""event"",""trial"",""time""
""fullscreenenter"",""1"",""13124""
""blur"",""8"",""75311""
""focus"",""8"",""75316""
""fullscreenexit"",""8"",""75323""
""blur"",""20"",""207440""
""focus"",""20"",""227392""
""blur"",""20"",""227405""
""focus"",""20"",""228940""
","""event"",""trial"",""time""
""blur"",""8"",""75311""
""blur"",""20"",""207440""
""blur"",""20"",""227405""
","""event"",""trial"",""time""
""focus"",""8"",""75316""
""focus"",""20"",""227392""
""focus"",""20"",""228940""
","""event"",""trial"",""time""
""fullscreenenter"",""1"",""13124""
","""event"",""trial"",""time""
""fullscreenexit"",""8"",""75323""
","","","","","","757.8000001907349","images/racket3.png","","","learning","3","3","1","1","practice","practice","practice","-1","","",""
"html-keyboard-response","45","296581","0.0-8.0-2.0-0.10","5560","1","8","Female","approach_avoid_spark_v1","""event"",""trial"",""time""
""fullscreenenter"",""1"",""13124""
""blur"",""8"",""75311""
""focus"",""8"",""75316""
""fullscreenexit"",""8"",""75323""
""blur"",""20"",""207440""
""focus"",""20"",""227392""
""blur"",""20"",""227405""
""focus"",""20"",""228940""
","""event"",""trial"",""time""
""blur"",""8"",""75311""
""blur"",""20"",""207440""
""blur"",""20"",""227405""
","""event"",""trial"",""time""
""focus"",""8"",""75316""
""focus"",""20"",""227392""
""focus"",""20"",""228940""
","""event"",""trial"",""time""
""fullscreenenter"",""1"",""13124""
","""event"",""trial"",""time""
""fullscreenexit"",""8"",""75323""
","","","","","","null","<div style=""font-size:60px;"">+</div>","null","","fixation","","","","","","","","","","",""
"aa-learning-trial","46","299588","0.0-8.0-2.0-1.10","5560","1","8","Female","approach_avoid_spark_v1","""event"",""trial"",""time""
""fullscreenenter"",""1"",""13124""
""blur"",""8"",""75311""
""focus"",""8"",""75316""
""fullscreenexit"",""8"",""75323""
""blur"",""20"",""207440""
""focus"",""20"",""227392""
""blur"",""20"",""227405""
""focus"",""20"",""228940""
","""event"",""trial"",""time""
""blur"",""8"",""75311""
""blur"",""20"",""207440""
""blur"",""20"",""227405""
","""event"",""trial"",""time""
""focus"",""8"",""75316""
""focus"",""20"",""227392""
""focus"",""20"",""228940""
","""event"",""trial"",""time""
""fullscreenenter"",""1"",""13124""
","""event"",""trial"",""time""
""fullscreenexit"",""8"",""75323""
","","","","","","1020.5999999046326","images/ball2.png","","","learning","5","5","1","1","practice","practice","practice","-1","","",""
"html-keyboard-response","47","300092","0.0-8.0-2.0-0.11","5560","1","8","Female","approach_avoid_spark_v1","""event"",""trial"",""time""
""fullscreenenter"",""1"",""13124""
""blur"",""8"",""75311""
""focus"",""8"",""75316""
""fullscreenexit"",""8"",""75323""
""blur"",""20"",""207440""
""focus"",""20"",""227392""
""blur"",""20"",""227405""
""focus"",""20"",""228940""
","""event"",""trial"",""time""
""blur"",""8"",""75311""
""blur"",""20"",""207440""
""blur"",""20"",""227405""
","""event"",""trial"",""time""
""focus"",""8"",""75316""
""focus"",""20"",""227392""
""focus"",""20"",""228940""
","""event"",""trial"",""time""
""fullscreenenter"",""1"",""13124""
","""event"",""trial"",""time""
""fullscreenexit"",""8"",""75323""
","","","","","","null","<div style=""font-size:60px;"">+</div>","null","","fixation","","","","","","","","","","",""
"aa-learning-trial","48","303101","0.0-8.0-2.0-1.11","5560","1","8","Female","approach_avoid_spark_v1","""event"",""trial"",""time""
""fullscreenenter"",""1"",""13124""
""blur"",""8"",""75311""
""focus"",""8"",""75316""
""fullscreenexit"",""8"",""75323""
""blur"",""20"",""207440""
""focus"",""20"",""227392""
""blur"",""20"",""227405""
""focus"",""20"",""228940""
","""event"",""trial"",""time""
""blur"",""8"",""75311""
""blur"",""20"",""207440""
""blur"",""20"",""227405""
","""event"",""trial"",""time""
""focus"",""8"",""75316""
""focus"",""20"",""227392""
""focus"",""20"",""228940""
","""event"",""trial"",""time""
""fullscreenenter"",""1"",""13124""
","""event"",""trial"",""time""
""fullscreenexit"",""8"",""75323""
","","","","","","1141.7000000476837","images/racket1.png","","","learning","9","9","1","1","practice","practice","practice","-1","","",""
"html-button-response","49","305883","0.0-8.0-3.0","5560","1","8","Female","approach_avoid_spark_v1","""event"",""trial"",""time""
""fullscreenenter"",""1"",""13124""
""blur"",""8"",""75311""
""focus"",""8"",""75316""
""fullscreenexit"",""8"",""75323""
""blur"",""20"",""207440""
""focus"",""20"",""227392""
""blur"",""20"",""227405""
""focus"",""20"",""228940""
","""event"",""trial"",""time""
""blur"",""8"",""75311""
""blur"",""20"",""207440""
""blur"",""20"",""227405""
","""event"",""trial"",""time""
""focus"",""8"",""75316""
""focus"",""20"",""227392""
""focus"",""20"",""228940""
","""event"",""trial"",""time""
""fullscreenenter"",""1"",""13124""
","""event"",""trial"",""time""
""fullscreenexit"",""8"",""75323""
","","","","","","2780.5","<p> You earned 31 points in the practice round! </p>","0","","break","","","","","","","","","","",""
"learning-instructions","50","315907","0.0-8.0-4.0-0.0","5560","1","8","Female","approach_avoid_spark_v1","""event"",""trial"",""time""
""fullscreenenter"",""1"",""13124""
""blur"",""8"",""75311""
""focus"",""8"",""75316""
""fullscreenexit"",""8"",""75323""
""blur"",""20"",""207440""
""focus"",""20"",""227392""
""blur"",""20"",""227405""
""focus"",""20"",""228940""
","""event"",""trial"",""time""
""blur"",""8"",""75311""
""blur"",""20"",""207440""
""blur"",""20"",""227405""
","""event"",""trial"",""time""
""focus"",""8"",""75316""
""focus"",""20"",""227392""
""focus"",""20"",""228940""
","""event"",""trial"",""time""
""fullscreenenter"",""1"",""13124""
","""event"",""trial"",""time""
""fullscreenexit"",""8"",""75323""
","","","","","","4014.2999999523163","<p> It's almost time to start the real game. </p><p> Before you start, we're going to ask you a few questions about how the game works. </p>","","0","instructions","","","","","","","","","","",""
"preload","51","317793","0.0-8.0-5.0","5560","1","8","Female","approach_avoid_spark_v1","""event"",""trial"",""time""
""fullscreenenter"",""1"",""13124""
""blur"",""8"",""75311""
""focus"",""8"",""75316""
""fullscreenexit"",""8"",""75323""
""blur"",""20"",""207440""
""focus"",""20"",""227392""
""blur"",""20"",""227405""
""focus"",""20"",""228940""
","""event"",""trial"",""time""
""blur"",""8"",""75311""
""blur"",""20"",""207440""
""blur"",""20"",""227405""
","""event"",""trial"",""time""
""focus"",""8"",""75316""
""focus"",""20"",""227392""
""focus"",""20"",""228940""
","""event"",""trial"",""time""
""fullscreenenter"",""1"",""13124""
","""event"",""trial"",""time""
""fullscreenexit"",""8"",""75323""
","true","false","[]","[]","[]","","","","","","","","","","","","","","","",""
"comp-q","52","324731","0.0-8.0-6.0-0.0","5560","1","8","Female","approach_avoid_spark_v1","""event"",""trial"",""time""
""fullscreenenter"",""1"",""13124""
""blur"",""8"",""75311""
""focus"",""8"",""75316""
""fullscreenexit"",""8"",""75323""
""blur"",""20"",""207440""
""focus"",""20"",""227392""
""blur"",""20"",""227405""
""focus"",""20"",""228940""
","""event"",""trial"",""time""
""blur"",""8"",""75311""
""blur"",""20"",""207440""
""blur"",""20"",""227405""
","""event"",""trial"",""time""
""focus"",""8"",""75316""
""focus"",""20"",""227392""
""focus"",""20"",""228940""
","""event"",""trial"",""time""
""fullscreenenter"",""1"",""13124""
","""event"",""trial"",""time""
""fullscreenexit"",""8"",""75323""
","","","","","","1938.2999999523163","<p> <b> True or False? </b> </p><p> If you see a number in GREY, that means you earned that many points. </p>","","1","comp_question","","","","","","","","","true","",""
"comp-q","53","334987","0.0-8.0-6.0-1.0","5560","1","8","Female","approach_avoid_spark_v1","""event"",""trial"",""time""
""fullscreenenter"",""1"",""13124""
""blur"",""8"",""75311""
""focus"",""8"",""75316""
""fullscreenexit"",""8"",""75323""
""blur"",""20"",""207440""
""focus"",""20"",""227392""
""blur"",""20"",""227405""
""focus"",""20"",""228940""
","""event"",""trial"",""time""
""blur"",""8"",""75311""
""blur"",""20"",""207440""
""blur"",""20"",""227405""
","""event"",""trial"",""time""
""focus"",""8"",""75316""
""focus"",""20"",""227392""
""focus"",""20"",""228940""
","""event"",""trial"",""time""
""fullscreenenter"",""1"",""13124""
","""event"",""trial"",""time""
""fullscreenexit"",""8"",""75323""
","","","","","","1893.7999999523163","<p><b> That's right! </b> If you see a grey number, it means you earned ZERO points. <br> The grey numbers show the points you WOULD HAVE earned if you had made the other choice. </p>","","0","comp_answer","","","","","","","","","","",""
"comp-q","54","340539","0.0-8.0-7.0-0.0","5560","1","8","Female","approach_avoid_spark_v1","""event"",""trial"",""time""
""fullscreenenter"",""1"",""13124""
""blur"",""8"",""75311""
""focus"",""8"",""75316""
""fullscreenexit"",""8"",""75323""
""blur"",""20"",""207440""
""focus"",""20"",""227392""
""blur"",""20"",""227405""
""focus"",""20"",""228940""
","""event"",""trial"",""time""
""blur"",""8"",""75311""
""blur"",""20"",""207440""
""blur"",""20"",""227405""
","""event"",""trial"",""time""
""focus"",""8"",""75316""
""focus"",""20"",""227392""
""focus"",""20"",""228940""
","""event"",""trial"",""time""
""fullscreenenter"",""1"",""13124""
","""event"",""trial"",""time""
""fullscreenexit"",""8"",""75323""
","","","","","","846.6000001430511","<p> <b> True or False? </b> </p><p> You will have as much time as you want to make each choice. </p>","","1","comp_question","","","","","","","","","true","",""
"comp-q","55","346187","0.0-8.0-7.0-1.0","5560","1","8","Female","approach_avoid_spark_v1","""event"",""trial"",""time""
""fullscreenenter"",""1"",""13124""
""blur"",""8"",""75311""
""focus"",""8"",""75316""
""fullscreenexit"",""8"",""75323""
""blur"",""20"",""207440""
""focus"",""20"",""227392""
""blur"",""20"",""227405""
""focus"",""20"",""228940""
","""event"",""trial"",""time""
""blur"",""8"",""75311""
""blur"",""20"",""207440""
""blur"",""20"",""227405""
","""event"",""trial"",""time""
""focus"",""8"",""75316""
""focus"",""20"",""227392""
""focus"",""20"",""228940""
","""event"",""trial"",""time""
""fullscreenenter"",""1"",""13124""
","""event"",""trial"",""time""
""fullscreenexit"",""8"",""75323""
","","","","","","1594.7000000476837","<p> <b> That's right! </b> You will only have 3 seconds to make each choice. </p>","","0","comp_answer","","","","","","","","","","",""
"comp-q","56","351779","0.0-8.0-8.0-0.0","5560","1","8","Female","approach_avoid_spark_v1","""event"",""trial"",""time""
""fullscreenenter"",""1"",""13124""
""blur"",""8"",""75311""
""focus"",""8"",""75316""
""fullscreenexit"",""8"",""75323""
""blur"",""20"",""207440""
""focus"",""20"",""227392""
""blur"",""20"",""227405""
""focus"",""20"",""228940""
","""event"",""trial"",""time""
""blur"",""8"",""75311""
""blur"",""20"",""207440""
""blur"",""20"",""227405""
","""event"",""trial"",""time""
""focus"",""8"",""75316""
""focus"",""20"",""227392""
""focus"",""20"",""228940""
","""event"",""trial"",""time""
""fullscreenenter"",""1"",""13124""
","""event"",""trial"",""time""
""fullscreenexit"",""8"",""75323""
","","","","","","926.7999999523163","<p> <b> True or False? </b> </p><p> You should use the '1' and '0' keys to make your choices. </p>","","0","comp_question","","","","","","","","","true","",""
"comp-q","57","358171","0.0-8.0-8.0-1.0","5560","1","8","Female","approach_avoid_spark_v1","""event"",""trial"",""time""
""fullscreenenter"",""1"",""13124""
""blur"",""8"",""75311""
""focus"",""8"",""75316""
""fullscreenexit"",""8"",""75323""
""blur"",""20"",""207440""
""focus"",""20"",""227392""
""blur"",""20"",""227405""
""focus"",""20"",""228940""
","""event"",""trial"",""time""
""blur"",""8"",""75311""
""blur"",""20"",""207440""
""blur"",""20"",""227405""
","""event"",""trial"",""time""
""focus"",""8"",""75316""
""focus"",""20"",""227392""
""focus"",""20"",""228940""
","""event"",""trial"",""time""
""fullscreenenter"",""1"",""13124""
","""event"",""trial"",""time""
""fullscreenexit"",""8"",""75323""
","","","","","","1779","<p> <b> That's right! </b> You should use the '1' and '0' keys to make each choice. </p>","","0","comp_answer","","","","","","","","","","",""
"learning-instructions","58","368099","0.0-8.0-9.0-0.0","5560","1","8","Female","approach_avoid_spark_v1","""event"",""trial"",""time""
""fullscreenenter"",""1"",""13124""
""blur"",""8"",""75311""
""focus"",""8"",""75316""
""fullscreenexit"",""8"",""75323""
""blur"",""20"",""207440""
""focus"",""20"",""227392""
""blur"",""20"",""227405""
""focus"",""20"",""228940""
","""event"",""trial"",""time""
""blur"",""8"",""75311""
""blur"",""20"",""207440""
""blur"",""20"",""227405""
","""event"",""trial"",""time""
""focus"",""8"",""75316""
""focus"",""20"",""227392""
""focus"",""20"",""228940""
","""event"",""trial"",""time""
""fullscreenenter"",""1"",""13124""
","""event"",""trial"",""time""
""fullscreenexit"",""8"",""75323""
","","","","","","3647.0999999046326","<p> It's now time to start the real game. </p>Do your best, because the points you earn in the next rounds will influence your bonus payment. </p>","","0","instructions","","","","","","","","","","",""
"preload","59","368231","0.0-9.0-0.0","5560","1","8","Female","approach_avoid_spark_v1","""event"",""trial"",""time""
""fullscreenenter"",""1"",""13124""
""blur"",""8"",""75311""
""focus"",""8"",""75316""
""fullscreenexit"",""8"",""75323""
""blur"",""20"",""207440""
""focus"",""20"",""227392""
""blur"",""20"",""227405""
""focus"",""20"",""228940""
","""event"",""trial"",""time""
""blur"",""8"",""75311""
""blur"",""20"",""207440""
""blur"",""20"",""227405""
","""event"",""trial"",""time""
""focus"",""8"",""75316""
""focus"",""20"",""227392""
""focus"",""20"",""228940""
","""event"",""trial"",""time""
""fullscreenenter"",""1"",""13124""
","""event"",""trial"",""time""
""fullscreenexit"",""8"",""75323""
","true","false","[]","[]","[]","","","","","","","","","","","","","","","",""
"learning-instructions","60","377603","0.0-9.0-1.0-0.0","5560","1","8","Female","approach_avoid_spark_v1","""event"",""trial"",""time""
""fullscreenenter"",""1"",""13124""
""blur"",""8"",""75311""
""focus"",""8"",""75316""
""fullscreenexit"",""8"",""75323""
""blur"",""20"",""207440""
""focus"",""20"",""227392""
""blur"",""20"",""227405""
""focus"",""20"",""228940""
","""event"",""trial"",""time""
""blur"",""8"",""75311""
""blur"",""20"",""207440""
""blur"",""20"",""227405""
","""event"",""trial"",""time""
""focus"",""8"",""75316""
""focus"",""20"",""227392""
""focus"",""20"",""228940""
","""event"",""trial"",""time""
""fullscreenenter"",""1"",""13124""
","""event"",""trial"",""time""
""fullscreenexit"",""8"",""75323""
","","","","","","4830.200000047684","<p> Your goal in this round is to take care of lots of farm animals. </p></div>","","0","instructions","","","","","","","","","","",""
"learning-instructions","61","389723","0.0-9.0-1.0-0.1","5560","1","8","Female","approach_avoid_spark_v1","""event"",""trial"",""time""
""fullscreenenter"",""1"",""13124""
""blur"",""8"",""75311""
""focus"",""8"",""75316""
""fullscreenexit"",""8"",""75323""
""blur"",""20"",""207440""
""focus"",""20"",""227392""
""blur"",""20"",""227405""
""focus"",""20"",""228940""
","""event"",""trial"",""time""
""blur"",""8"",""75311""
""blur"",""20"",""207440""
""blur"",""20"",""227405""
","""event"",""trial"",""time""
""focus"",""8"",""75316""
""focus"",""20"",""227392""
""focus"",""20"",""228940""
","""event"",""trial"",""time""
""fullscreenenter"",""1"",""13124""
","""event"",""trial"",""time""
""fullscreenexit"",""8"",""75323""
","","","","","","1660.1000001430511","<p> Some farm animals are hungry, while other farm animals are already full.  </p><p> On each turn, you will see a farm animal.   </p><p> You need to decide whether to feed it or not.  </p>","","0","instructions","","","","","","","","","","",""
"learning-instructions","62","396803","0.0-9.0-1.0-0.2","5560","1","8","Female","approach_avoid_spark_v1","""event"",""trial"",""time""
""fullscreenenter"",""1"",""13124""
""blur"",""8"",""75311""
""focus"",""8"",""75316""
""fullscreenexit"",""8"",""75323""
""blur"",""20"",""207440""
""focus"",""20"",""227392""
""blur"",""20"",""227405""
""focus"",""20"",""228940""
","""event"",""trial"",""time""
""blur"",""8"",""75311""
""blur"",""20"",""207440""
""blur"",""20"",""227405""
","""event"",""trial"",""time""
""focus"",""8"",""75316""
""focus"",""20"",""227392""
""focus"",""20"",""228940""
","""event"",""trial"",""time""
""fullscreenenter"",""1"",""13124""
","""event"",""trial"",""time""
""fullscreenexit"",""8"",""75323""
","","","","","","1060.7000000476837","<p> You can feed the farm animal by pressing 1 and leave the farm animal alone by pressing 0. </p><br><div class=""choice-instructions-grid""> <div class=""choice-option""><img src=""images/approach.png"" class=""choice-option-img"" stage=""instructions"" position=""0"" ><div class=""choice-option-text""> Press ""1."" </div></div><div class=""choice-option""><img src=""images/avoid.png"" class=""choice-option-img"" stage=""instructions"" position=""1"" ><div class=""choice-option-text""> Press ""0."" </div></div>","","0","instructions","","","","","","","","","","",""
"learning-instructions","63","407066","0.0-9.0-1.0-0.3","5560","1","8","Female","approach_avoid_spark_v1","""event"",""trial"",""time""
""fullscreenenter"",""1"",""13124""
""blur"",""8"",""75311""
""focus"",""8"",""75316""
""fullscreenexit"",""8"",""75323""
""blur"",""20"",""207440""
""focus"",""20"",""227392""
""blur"",""20"",""227405""
""focus"",""20"",""228940""
","""event"",""trial"",""time""
""blur"",""8"",""75311""
""blur"",""20"",""207440""
""blur"",""20"",""227405""
","""event"",""trial"",""time""
""focus"",""8"",""75316""
""focus"",""20"",""227392""
""focus"",""20"",""228940""
","""event"",""trial"",""time""
""fullscreenenter"",""1"",""13124""
","""event"",""trial"",""time""
""fullscreenexit"",""8"",""75323""
","","","","","","524.9000000953674","<p> If you feed a hungry farm animal, you will make it feel satisfied! </p><p> But if you feed the farm animal and it was already full, you will make it feel sick. </p>","","0","instructions","","","","","","","","","","",""
"learning-instructions","64","422866","0.0-9.0-1.0-0.4","5560","1","8","Female","approach_avoid_spark_v1","""event"",""trial"",""time""
""fullscreenenter"",""1"",""13124""
""blur"",""8"",""75311""
""focus"",""8"",""75316""
""fullscreenexit"",""8"",""75323""
""blur"",""20"",""207440""
""focus"",""20"",""227392""
""blur"",""20"",""227405""
""focus"",""20"",""228940""
","""event"",""trial"",""time""
""blur"",""8"",""75311""
""blur"",""20"",""207440""
""blur"",""20"",""227405""
","""event"",""trial"",""time""
""focus"",""8"",""75316""
""focus"",""20"",""227392""
""focus"",""20"",""228940""
","""event"",""trial"",""time""
""fullscreenenter"",""1"",""13124""
","""event"",""trial"",""time""
""fullscreenexit"",""8"",""75323""
","","","","","","2624.600000143051","<p> You will earn points based on how you made the farm animal feel. </p><p> If you made it satisfied, you will WIN anywhere from 1 - 9 points, </p><p> but if you made it sick, you will LOSE anywhere from 1 - 9 points. </p>","","0","instructions","","","","","","","","","","",""
"learning-instructions","65","433059","0.0-9.0-1.0-0.5","5560","1","8","Female","approach_avoid_spark_v1","""event"",""trial"",""time""
""fullscreenenter"",""1"",""13124""
""blur"",""8"",""75311""
""focus"",""8"",""75316""
""fullscreenexit"",""8"",""75323""
""blur"",""20"",""207440""
""focus"",""20"",""227392""
""blur"",""20"",""227405""
""focus"",""20"",""228940""
","""event"",""trial"",""time""
""blur"",""8"",""75311""
""blur"",""20"",""207440""
""blur"",""20"",""227405""
","""event"",""trial"",""time""
""focus"",""8"",""75316""
""focus"",""20"",""227392""
""focus"",""20"",""228940""
","""event"",""trial"",""time""
""fullscreenenter"",""1"",""13124""
","""event"",""trial"",""time""
""fullscreenexit"",""8"",""75323""
","","","","","","2476.2999999523163","<p> You will see how many points you won or lost in the center of the screen. </p><p> Here is what you would see if you won 5 points: </p><p style=""color:green;font-size:50px;font-weight:bolder"">5</p>","","0","instructions","","","","","","","","","","",""
"learning-instructions","66","440379","0.0-9.0-1.0-0.6","5560","1","8","Female","approach_avoid_spark_v1","""event"",""trial"",""time""
""fullscreenenter"",""1"",""13124""
""blur"",""8"",""75311""
""focus"",""8"",""75316""
""fullscreenexit"",""8"",""75323""
""blur"",""20"",""207440""
""focus"",""20"",""227392""
""blur"",""20"",""227405""
""focus"",""20"",""228940""
","""event"",""trial"",""time""
""blur"",""8"",""75311""
""blur"",""20"",""207440""
""blur"",""20"",""227405""
","""event"",""trial"",""time""
""focus"",""8"",""75316""
""focus"",""20"",""227392""
""focus"",""20"",""228940""
","""event"",""trial"",""time""
""fullscreenenter"",""1"",""13124""
","""event"",""trial"",""time""
""fullscreenexit"",""8"",""75323""
","","","","","","3836.4000000953674","<p> And here is what you would see if you lost 3 points: </p><p style=""color:red;font-size:50px;font-weight:bolder"">-3</p>","","0","instructions","","","","","","","","","","",""
"learning-instructions","67","461604","0.0-9.0-1.0-0.7","5560","1","8","Female","approach_avoid_spark_v1","""event"",""trial"",""time""
""fullscreenenter"",""1"",""13124""
""blur"",""8"",""75311""
""focus"",""8"",""75316""
""fullscreenexit"",""8"",""75323""
""blur"",""20"",""207440""
""focus"",""20"",""227392""
""blur"",""20"",""227405""
""focus"",""20"",""228940""
","""event"",""trial"",""time""
""blur"",""8"",""75311""
""blur"",""20"",""207440""
""blur"",""20"",""227405""
","""event"",""trial"",""time""
""focus"",""8"",""75316""
""focus"",""20"",""227392""
""focus"",""20"",""228940""
","""event"",""trial"",""time""
""fullscreenenter"",""1"",""13124""
","""event"",""trial"",""time""
""fullscreenexit"",""8"",""75323""
","","","","","","5571.700000047684","<p> Some farm animals will become very satisfied or very sick. </p><p> These farm animals will make you win or lose LOTS of points. </p><p> Other farm animals have less strong feelings. </p><p> These farm animals will make you win or lose small amounts of points. </p>","","0","instructions","","","","","","","","","","",""
"learning-instructions","68","476395","0.0-9.0-1.0-0.8","5560","1","8","Female","approach_avoid_spark_v1","""event"",""trial"",""time""
""fullscreenenter"",""1"",""13124""
""blur"",""8"",""75311""
""focus"",""8"",""75316""
""fullscreenexit"",""8"",""75323""
""blur"",""20"",""207440""
""focus"",""20"",""227392""
""blur"",""20"",""227405""
""focus"",""20"",""228940""
","""event"",""trial"",""time""
""blur"",""8"",""75311""
""blur"",""20"",""207440""
""blur"",""20"",""227405""
","""event"",""trial"",""time""
""focus"",""8"",""75316""
""focus"",""20"",""227392""
""focus"",""20"",""228940""
","""event"",""trial"",""time""
""fullscreenenter"",""1"",""13124""
","""event"",""trial"",""time""
""fullscreenexit"",""8"",""75323""
","","","","","","1731.6999998092651","<p> If you choose to leave the farm animal alone, you will not win or lose any points. </p><p>  However, in the center of the screen, you will see the number of points you WOULD HAVE won or lost if you had fed the farm animal. </p>","","0","instructions","","","","","","","","","","",""
"learning-instructions","69","488651","0.0-9.0-1.0-0.9","5560","1","8","Female","approach_avoid_spark_v1","""event"",""trial"",""time""
""fullscreenenter"",""1"",""13124""
""blur"",""8"",""75311""
""focus"",""8"",""75316""
""fullscreenexit"",""8"",""75323""
""blur"",""20"",""207440""
""focus"",""20"",""227392""
""blur"",""20"",""227405""
""focus"",""20"",""228940""
","""event"",""trial"",""time""
""blur"",""8"",""75311""
""blur"",""20"",""207440""
""blur"",""20"",""227405""
","""event"",""trial"",""time""
""focus"",""8"",""75316""
""focus"",""20"",""227392""
""focus"",""20"",""228940""
","""event"",""trial"",""time""
""fullscreenenter"",""1"",""13124""
","""event"",""trial"",""time""
""fullscreenexit"",""8"",""75323""
","","","","","","608.6999998092651","<p> Here is what you might see if you did not feed the farm animal but the animal was hungry: </p><p style=""color:grey; font-size:50px; display: inline-block; border-spacing: 15px; border-width:3px; border-style:solid; border-color:red"">  &nbsp; 6 &nbsp; </p><p> Remember, in this case, you would not win or lose ANY points because you did not feed the farm animal.  </p>","","0","instructions","","","","","","","","","","",""
"learning-instructions","70","497619","0.0-9.0-1.0-0.10","5560","1","8","Female","approach_avoid_spark_v1","""event"",""trial"",""time""
""fullscreenenter"",""1"",""13124""
""blur"",""8"",""75311""
""focus"",""8"",""75316""
""fullscreenexit"",""8"",""75323""
""blur"",""20"",""207440""
""focus"",""20"",""227392""
""blur"",""20"",""227405""
""focus"",""20"",""228940""
","""event"",""trial"",""time""
""blur"",""8"",""75311""
""blur"",""20"",""207440""
""blur"",""20"",""227405""
","""event"",""trial"",""time""
""focus"",""8"",""75316""
""focus"",""20"",""227392""
""focus"",""20"",""228940""
","""event"",""trial"",""time""
""fullscreenenter"",""1"",""13124""
","""event"",""trial"",""time""
""fullscreenexit"",""8"",""75323""
","","","","","","1146.7000000476837","<p> Try to make the best choice for each farm animal because </p><p> at the end of the game, you will earn bonus money based on how many points you earned. </p>","","0","instructions","","","","","","","","","","",""
"learning-instructions","71","508307","0.0-9.0-1.0-0.11","5560","1","8","Female","approach_avoid_spark_v1","""event"",""trial"",""time""
""fullscreenenter"",""1"",""13124""
""blur"",""8"",""75311""
""focus"",""8"",""75316""
""fullscreenexit"",""8"",""75323""
""blur"",""20"",""207440""
""focus"",""20"",""227392""
""blur"",""20"",""227405""
""focus"",""20"",""228940""
","""event"",""trial"",""time""
""blur"",""8"",""75311""
""blur"",""20"",""207440""
""blur"",""20"",""227405""
","""event"",""trial"",""time""
""focus"",""8"",""75316""
""focus"",""20"",""227392""
""focus"",""20"",""228940""
","""event"",""trial"",""time""
""fullscreenenter"",""1"",""13124""
","""event"",""trial"",""time""
""fullscreenexit"",""8"",""75323""
","","","","","","2494.2000000476837","<p> You will have 3 seconds to make each choice. Try to respond before time runs out! </p><p> You will lose 5 points each time you do not make a response. </p>","","0","instructions","","","","","","","","","","",""
"html-keyboard-response","72","508943","0.0-9.0-2.0-0.0","5560","1","8","Female","approach_avoid_spark_v1","""event"",""trial"",""time""
""fullscreenenter"",""1"",""13124""
""blur"",""8"",""75311""
""focus"",""8"",""75316""
""fullscreenexit"",""8"",""75323""
""blur"",""20"",""207440""
""focus"",""20"",""227392""
""blur"",""20"",""227405""
""focus"",""20"",""228940""
","""event"",""trial"",""time""
""blur"",""8"",""75311""
""blur"",""20"",""207440""
""blur"",""20"",""227405""
","""event"",""trial"",""time""
""focus"",""8"",""75316""
""focus"",""20"",""227392""
""focus"",""20"",""228940""
","""event"",""trial"",""time""
""fullscreenenter"",""1"",""13124""
","""event"",""trial"",""time""
""fullscreenexit"",""8"",""75323""
","","","","","","null","<div style=""font-size:60px;"">+</div>","null","","fixation","","","","","","","","","","",""
"aa-learning-trial","73","511960","0.0-9.0-2.0-1.0","5560","1","8","Female","approach_avoid_spark_v1","""event"",""trial"",""time""
""fullscreenenter"",""1"",""13124""
""blur"",""8"",""75311""
""focus"",""8"",""75316""
""fullscreenexit"",""8"",""75323""
""blur"",""20"",""207440""
""focus"",""20"",""227392""
""blur"",""20"",""227405""
""focus"",""20"",""228940""
","""event"",""trial"",""time""
""blur"",""8"",""75311""
""blur"",""20"",""207440""
""blur"",""20"",""227405""
","""event"",""trial"",""time""
""focus"",""8"",""75316""
""focus"",""20"",""227392""
""focus"",""20"",""228940""
","""event"",""trial"",""time""
""fullscreenenter"",""1"",""13124""
","""event"",""trial"",""time""
""fullscreenexit"",""8"",""75323""
","","","","","","1810.4000000953674","images/horse6.png","","","learning","2","-5","arrowup","","horse","animals","1","0","","neutral","0"
"html-keyboard-response","74","512477","0.0-9.0-2.0-0.1","5560","1","8","Female","approach_avoid_spark_v1","""event"",""trial"",""time""
""fullscreenenter"",""1"",""13124""
""blur"",""8"",""75311""
""focus"",""8"",""75316""
""fullscreenexit"",""8"",""75323""
""blur"",""20"",""207440""
""focus"",""20"",""227392""
""blur"",""20"",""227405""
""focus"",""20"",""228940""
","""event"",""trial"",""time""
""blur"",""8"",""75311""
""blur"",""20"",""207440""
""blur"",""20"",""227405""
","""event"",""trial"",""time""
""focus"",""8"",""75316""
""focus"",""20"",""227392""
""focus"",""20"",""228940""
","""event"",""trial"",""time""
""fullscreenenter"",""1"",""13124""
","""event"",""trial"",""time""
""fullscreenexit"",""8"",""75323""
","","","","","","null","<div style=""font-size:60px;"">+</div>","null","","fixation","","","","","","","","","","",""
"aa-learning-trial","75","515492","0.0-9.0-2.0-1.1","5560","1","8","Female","approach_avoid_spark_v1","""event"",""trial"",""time""
""fullscreenenter"",""1"",""13124""
""blur"",""8"",""75311""
""focus"",""8"",""75316""
""fullscreenexit"",""8"",""75323""
""blur"",""20"",""207440""
""focus"",""20"",""227392""
""blur"",""20"",""227405""
""focus"",""20"",""228940""
","""event"",""trial"",""time""
""blur"",""8"",""75311""
""blur"",""20"",""207440""
""blur"",""20"",""227405""
","""event"",""trial"",""time""
""focus"",""8"",""75316""
""focus"",""20"",""227392""
""focus"",""20"",""228940""
","""event"",""trial"",""time""
""fullscreenenter"",""1"",""13124""
","""event"",""trial"",""time""
""fullscreenexit"",""8"",""75323""
","","","","","","1156.6000001430511","images/goat6.png","","","learning","7","0","0","0","goat","animals","1","0","","good","[6]"
"html-keyboard-response","76","516008","0.0-9.0-2.0-0.2","5560","1","8","Female","approach_avoid_spark_v1","""event"",""trial"",""time""
""fullscreenenter"",""1"",""13124""
""blur"",""8"",""75311""
""focus"",""8"",""75316""
""fullscreenexit"",""8"",""75323""
""blur"",""20"",""207440""
""focus"",""20"",""227392""
""blur"",""20"",""227405""
""focus"",""20"",""228940""
","""event"",""trial"",""time""
""blur"",""8"",""75311""
""blur"",""20"",""207440""
""blur"",""20"",""227405""
","""event"",""trial"",""time""
""focus"",""8"",""75316""
""focus"",""20"",""227392""
""focus"",""20"",""228940""
","""event"",""trial"",""time""
""fullscreenenter"",""1"",""13124""
","""event"",""trial"",""time""
""fullscreenexit"",""8"",""75323""
","","","","","","null","<div style=""font-size:60px;"">+</div>","null","","fixation","","","","","","","","","","",""
"aa-learning-trial","77","519012","0.0-9.0-2.0-1.2","5560","1","8","Female","approach_avoid_spark_v1","""event"",""trial"",""time""
""fullscreenenter"",""1"",""13124""
""blur"",""8"",""75311""
""focus"",""8"",""75316""
""fullscreenexit"",""8"",""75323""
""blur"",""20"",""207440""
""focus"",""20"",""227392""
""blur"",""20"",""227405""
""focus"",""20"",""228940""
","""event"",""trial"",""time""
""blur"",""8"",""75311""
""blur"",""20"",""207440""
""blur"",""20"",""227405""
","""event"",""trial"",""time""
""focus"",""8"",""75316""
""focus"",""20"",""227392""
""focus"",""20"",""228940""
","""event"",""trial"",""time""
""fullscreenenter"",""1"",""13124""
","""event"",""trial"",""time""
""fullscreenexit"",""8"",""75323""
","","","","","","1257.2999999523163","images/sheep3.png","","","learning","-6","0","0","0","sheep","animals","1","0","","bad","[-6]"
"html-keyboard-response","78","519529","0.0-9.0-2.0-0.3","5560","1","8","Female","approach_avoid_spark_v1","""event"",""trial"",""time""
""fullscreenenter"",""1"",""13124""
""blur"",""8"",""75311""
""focus"",""8"",""75316""
""fullscreenexit"",""8"",""75323""
""blur"",""20"",""207440""
""focus"",""20"",""227392""
""blur"",""20"",""227405""
""focus"",""20"",""228940""
","""event"",""trial"",""time""
""blur"",""8"",""75311""
""blur"",""20"",""207440""
""blur"",""20"",""227405""
","""event"",""trial"",""time""
""focus"",""8"",""75316""
""focus"",""20"",""227392""
""focus"",""20"",""228940""
","""event"",""trial"",""time""
""fullscreenenter"",""1"",""13124""
","""event"",""trial"",""time""
""fullscreenexit"",""8"",""75323""
","","","","","","null","<div style=""font-size:60px;"">+</div>","null","","fixation","","","","","","","","","","",""
"aa-learning-trial","79","522536","0.0-9.0-2.0-1.3","5560","1","8","Female","approach_avoid_spark_v1","""event"",""trial"",""time""
""fullscreenenter"",""1"",""13124""
""blur"",""8"",""75311""
""focus"",""8"",""75316""
""fullscreenexit"",""8"",""75323""
""blur"",""20"",""207440""
""focus"",""20"",""227392""
""blur"",""20"",""227405""
""focus"",""20"",""228940""
","""event"",""trial"",""time""
""blur"",""8"",""75311""
""blur"",""20"",""207440""
""blur"",""20"",""227405""
","""event"",""trial"",""time""
""focus"",""8"",""75316""
""focus"",""20"",""227392""
""focus"",""20"",""228940""
","""event"",""trial"",""time""
""fullscreenenter"",""1"",""13124""
","""event"",""trial"",""time""
""fullscreenexit"",""8"",""75323""
","","","","","","2192.899999856949","images/goat2.png","","","learning","5","5","1","1","goat","animals","1","0","","good","[6]"
"html-keyboard-response","80","523042","0.0-9.0-2.0-0.4","5560","1","8","Female","approach_avoid_spark_v1","""event"",""trial"",""time""
""fullscreenenter"",""1"",""13124""
""blur"",""8"",""75311""
""focus"",""8"",""75316""
""fullscreenexit"",""8"",""75323""
""blur"",""20"",""207440""
""focus"",""20"",""227392""
""blur"",""20"",""227405""
""focus"",""20"",""228940""
","""event"",""trial"",""time""
""blur"",""8"",""75311""
""blur"",""20"",""207440""
""blur"",""20"",""227405""
","""event"",""trial"",""time""
""focus"",""8"",""75316""
""focus"",""20"",""227392""
""focus"",""20"",""228940""
","""event"",""trial"",""time""
""fullscreenenter"",""1"",""13124""
","""event"",""trial"",""time""
""fullscreenexit"",""8"",""75323""
","","","","","","null","<div style=""font-size:60px;"">+</div>","null","","fixation","","","","","","","","","","",""
"aa-learning-trial","81","526045","0.0-9.0-2.0-1.4","5560","1","8","Female","approach_avoid_spark_v1","""event"",""trial"",""time""
""fullscreenenter"",""1"",""13124""
""blur"",""8"",""75311""
""focus"",""8"",""75316""
""fullscreenexit"",""8"",""75323""
""blur"",""20"",""207440""
""focus"",""20"",""227392""
""blur"",""20"",""227405""
""focus"",""20"",""228940""
","""event"",""trial"",""time""
""blur"",""8"",""75311""
""blur"",""20"",""207440""
""blur"",""20"",""227405""
","""event"",""trial"",""time""
""focus"",""8"",""75316""
""focus"",""20"",""227392""
""focus"",""20"",""228940""
","""event"",""trial"",""time""
""fullscreenenter"",""1"",""13124""
","""event"",""trial"",""time""
""fullscreenexit"",""8"",""75323""
","","","","","","2447.399999856949","images/horse6.png","","","learning","-1","0","0","0","horse","animals","1","0","","neutral","0"
"html-keyboard-response","82","526557","0.0-9.0-2.0-0.5","5560","1","8","Female","approach_avoid_spark_v1","""event"",""trial"",""time""
""fullscreenenter"",""1"",""13124""
""blur"",""8"",""75311""
""focus"",""8"",""75316""
""fullscreenexit"",""8"",""75323""
""blur"",""20"",""207440""
""focus"",""20"",""227392""
""blur"",""20"",""227405""
""focus"",""20"",""228940""
","""event"",""trial"",""time""
""blur"",""8"",""75311""
""blur"",""20"",""207440""
""blur"",""20"",""227405""
","""event"",""trial"",""time""
""focus"",""8"",""75316""
""focus"",""20"",""227392""
""focus"",""20"",""228940""
","""event"",""trial"",""time""
""fullscreenenter"",""1"",""13124""
","""event"",""trial"",""time""
""fullscreenexit"",""8"",""75323""
","","","","","","null","<div style=""font-size:60px;"">+</div>","null","","fixation","","","","","","","","","","",""
"aa-learning-trial","83","529577","0.0-9.0-2.0-1.5","5560","1","8","Female","approach_avoid_spark_v1","""event"",""trial"",""time""
""fullscreenenter"",""1"",""13124""
""blur"",""8"",""75311""
""focus"",""8"",""75316""
""fullscreenexit"",""8"",""75323""
""blur"",""20"",""207440""
""focus"",""20"",""227392""
""blur"",""20"",""227405""
""focus"",""20"",""228940""
","""event"",""trial"",""time""
""blur"",""8"",""75311""
""blur"",""20"",""207440""
""blur"",""20"",""227405""
","""event"",""trial"",""time""
""focus"",""8"",""75316""
""focus"",""20"",""227392""
""focus"",""20"",""228940""
","""event"",""trial"",""time""
""fullscreenenter"",""1"",""13124""
","""event"",""trial"",""time""
""fullscreenexit"",""8"",""75323""
","","","","","","917.7999999523163","images/horse1.png","","","learning","-4","-4","1","1","horse","animals","1","0","","neutral","0"
"html-keyboard-response","84","530095","0.0-9.0-2.0-0.6","5560","1","8","Female","approach_avoid_spark_v1","""event"",""trial"",""time""
""fullscreenenter"",""1"",""13124""
""blur"",""8"",""75311""
""focus"",""8"",""75316""
""fullscreenexit"",""8"",""75323""
""blur"",""20"",""207440""
""focus"",""20"",""227392""
""blur"",""20"",""227405""
""focus"",""20"",""228940""
","""event"",""trial"",""time""
""blur"",""8"",""75311""
""blur"",""20"",""207440""
""blur"",""20"",""227405""
","""event"",""trial"",""time""
""focus"",""8"",""75316""
""focus"",""20"",""227392""
""focus"",""20"",""228940""
","""event"",""trial"",""time""
""fullscreenenter"",""1"",""13124""
","""event"",""trial"",""time""
""fullscreenexit"",""8"",""75323""
","","","","","","null","<div style=""font-size:60px;"">+</div>","null","","fixation","","","","","","","","","","",""
"aa-learning-trial","85","533101","0.0-9.0-2.0-1.6","5560","1","8","Female","approach_avoid_spark_v1","""event"",""trial"",""time""
""fullscreenenter"",""1"",""13124""
""blur"",""8"",""75311""
""focus"",""8"",""75316""
""fullscreenexit"",""8"",""75323""
""blur"",""20"",""207440""
""focus"",""20"",""227392""
""blur"",""20"",""227405""
""focus"",""20"",""228940""
","""event"",""trial"",""time""
""blur"",""8"",""75311""
""blur"",""20"",""207440""
""blur"",""20"",""227405""
","""event"",""trial"",""time""
""focus"",""8"",""75316""
""focus"",""20"",""227392""
""focus"",""20"",""228940""
","""event"",""trial"",""time""
""fullscreenenter"",""1"",""13124""
","""event"",""trial"",""time""
""fullscreenexit"",""8"",""75323""
","","","","","","603.0999999046326","images/goat3.png","","","learning","4","0","0","0","goat","animals","1","0","","good","[6]"
"html-keyboard-response","86","533614","0.0-9.0-2.0-0.7","5560","1","8","Female","approach_avoid_spark_v1","""event"",""trial"",""time""
""fullscreenenter"",""1"",""13124""
""blur"",""8"",""75311""
""focus"",""8"",""75316""
""fullscreenexit"",""8"",""75323""
""blur"",""20"",""207440""
""focus"",""20"",""227392""
""blur"",""20"",""227405""
""focus"",""20"",""228940""
","""event"",""trial"",""time""
""blur"",""8"",""75311""
""blur"",""20"",""207440""
""blur"",""20"",""227405""
","""event"",""trial"",""time""
""focus"",""8"",""75316""
""focus"",""20"",""227392""
""focus"",""20"",""228940""
","""event"",""trial"",""time""
""fullscreenenter"",""1"",""13124""
","""event"",""trial"",""time""
""fullscreenexit"",""8"",""75323""
","","","","","","null","<div style=""font-size:60px;"">+</div>","null","","fixation","","","","","","","","","","",""
"aa-learning-trial","87","536620","0.0-9.0-2.0-1.7","5560","1","8","Female","approach_avoid_spark_v1","""event"",""trial"",""time""
""fullscreenenter"",""1"",""13124""
""blur"",""8"",""75311""
""focus"",""8"",""75316""
""fullscreenexit"",""8"",""75323""
""blur"",""20"",""207440""
""focus"",""20"",""227392""
""blur"",""20"",""227405""
""focus"",""20"",""228940""
","""event"",""trial"",""time""
""blur"",""8"",""75311""
""blur"",""20"",""207440""
""blur"",""20"",""227405""
","""event"",""trial"",""time""
""focus"",""8"",""75316""
""focus"",""20"",""227392""
""focus"",""20"",""228940""
","""event"",""trial"",""time""
""fullscreenenter"",""1"",""13124""
","""event"",""trial"",""time""
""fullscreenexit"",""8"",""75323""
","","","","","","1189.4000000953674","images/goat3.png","","","learning","7","7","1","1","goat","animals","1","0","","good","[6]"
"html-keyboard-response","88","537124","0.0-9.0-2.0-0.8","5560","1","8","Female","approach_avoid_spark_v1","""event"",""trial"",""time""
""fullscreenenter"",""1"",""13124""
""blur"",""8"",""75311""
""focus"",""8"",""75316""
""fullscreenexit"",""8"",""75323""
""blur"",""20"",""207440""
""focus"",""20"",""227392""
""blur"",""20"",""227405""
""focus"",""20"",""228940""
","""event"",""trial"",""time""
""blur"",""8"",""75311""
""blur"",""20"",""207440""
""blur"",""20"",""227405""
","""event"",""trial"",""time""
""focus"",""8"",""75316""
""focus"",""20"",""227392""
""focus"",""20"",""228940""
","""event"",""trial"",""time""
""fullscreenenter"",""1"",""13124""
","""event"",""trial"",""time""
""fullscreenexit"",""8"",""75323""
","","","","","","null","<div style=""font-size:60px;"">+</div>","null","","fixation","","","","","","","","","","",""
"aa-learning-trial","89","540133","0.0-9.0-2.0-1.8","5560","1","8","Female","approach_avoid_spark_v1","""event"",""trial"",""time""
""fullscreenenter"",""1"",""13124""
""blur"",""8"",""75311""
""focus"",""8"",""75316""
""fullscreenexit"",""8"",""75323""
""blur"",""20"",""207440""
""focus"",""20"",""227392""
""blur"",""20"",""227405""
""focus"",""20"",""228940""
","""event"",""trial"",""time""
""blur"",""8"",""75311""
""blur"",""20"",""207440""
""blur"",""20"",""227405""
","""event"",""trial"",""time""
""focus"",""8"",""75316""
""focus"",""20"",""227392""
""focus"",""20"",""228940""
","""event"",""trial"",""time""
""fullscreenenter"",""1"",""13124""
","""event"",""trial"",""time""
""fullscreenexit"",""8"",""75323""
","","","","","","1485.3999998569489","images/sheep3.png","","","learning","-5","-5","1","1","sheep","animals","1","0","","bad","[-6]"
"html-keyboard-response","90","540637","0.0-9.0-2.0-0.9","5560","1","8","Female","approach_avoid_spark_v1","""event"",""trial"",""time""
""fullscreenenter"",""1"",""13124""
""blur"",""8"",""75311""
""focus"",""8"",""75316""
""fullscreenexit"",""8"",""75323""
""blur"",""20"",""207440""
""focus"",""20"",""227392""
""blur"",""20"",""227405""
""focus"",""20"",""228940""
","""event"",""trial"",""time""
""blur"",""8"",""75311""
""blur"",""20"",""207440""
""blur"",""20"",""227405""
","""event"",""trial"",""time""
""focus"",""8"",""75316""
""focus"",""20"",""227392""
""focus"",""20"",""228940""
","""event"",""trial"",""time""
""fullscreenenter"",""1"",""13124""
","""event"",""trial"",""time""
""fullscreenexit"",""8"",""75323""
","","","","","","null","<div style=""font-size:60px;"">+</div>","null","","fixation","","","","","","","","","","",""
"aa-learning-trial","91","543645","0.0-9.0-2.0-1.9","5560","1","8","Female","approach_avoid_spark_v1","""event"",""trial"",""time""
""fullscreenenter"",""1"",""13124""
""blur"",""8"",""75311""
""focus"",""8"",""75316""
""fullscreenexit"",""8"",""75323""
""blur"",""20"",""207440""
""focus"",""20"",""227392""
""blur"",""20"",""227405""
""focus"",""20"",""228940""
","""event"",""trial"",""time""
""blur"",""8"",""75311""
""blur"",""20"",""207440""
""blur"",""20"",""227405""
","""event"",""trial"",""time""
""focus"",""8"",""75316""
""focus"",""20"",""227392""
""focus"",""20"",""228940""
","""event"",""trial"",""time""
""fullscreenenter"",""1"",""13124""
","""event"",""trial"",""time""
""fullscreenexit"",""8"",""75323""
","","","","","","2108.9000000953674","images/sheep4.png","","","learning","-7","0","0","0","sheep","animals","1","0","","bad","[-6]"
"html-keyboard-response","92","544149","0.0-9.0-2.0-0.10","5560","1","8","Female","approach_avoid_spark_v1","""event"",""trial"",""time""
""fullscreenenter"",""1"",""13124""
""blur"",""8"",""75311""
""focus"",""8"",""75316""
""fullscreenexit"",""8"",""75323""
""blur"",""20"",""207440""
""focus"",""20"",""227392""
""blur"",""20"",""227405""
""focus"",""20"",""228940""
","""event"",""trial"",""time""
""blur"",""8"",""75311""
""blur"",""20"",""207440""
""blur"",""20"",""227405""
","""event"",""trial"",""time""
""focus"",""8"",""75316""
""focus"",""20"",""227392""
""focus"",""20"",""228940""
","""event"",""trial"",""time""
""fullscreenenter"",""1"",""13124""
","""event"",""trial"",""time""
""fullscreenexit"",""8"",""75323""
","","","","","","null","<div style=""font-size:60px;"">+</div>","null","","fixation","","","","","","","","","","",""
"aa-learning-trial","93","547157","0.0-9.0-2.0-1.10","5560","1","8","Female","approach_avoid_spark_v1","""event"",""trial"",""time""
""fullscreenenter"",""1"",""13124""
""blur"",""8"",""75311""
""focus"",""8"",""75316""
""fullscreenexit"",""8"",""75323""
""blur"",""20"",""207440""
""focus"",""20"",""227392""
""blur"",""20"",""227405""
""focus"",""20"",""228940""
","""event"",""trial"",""time""
""blur"",""8"",""75311""
""blur"",""20"",""207440""
""blur"",""20"",""227405""
","""event"",""trial"",""time""
""focus"",""8"",""75316""
""focus"",""20"",""227392""
""focus"",""20"",""228940""
","""event"",""trial"",""time""
""fullscreenenter"",""1"",""13124""
","""event"",""trial"",""time""
""fullscreenexit"",""8"",""75323""
","","","","","","2005.0999999046326","images/sheep4.png","","","learning","-4","0","0","0","sheep","animals","1","0","","bad","[-6]"
"html-keyboard-response","94","547661","0.0-9.0-2.0-0.11","5560","1","8","Female","approach_avoid_spark_v1","""event"",""trial"",""time""
""fullscreenenter"",""1"",""13124""
""blur"",""8"",""75311""
""focus"",""8"",""75316""
""fullscreenexit"",""8"",""75323""
""blur"",""20"",""207440""
""focus"",""20"",""227392""
""blur"",""20"",""227405""
""focus"",""20"",""228940""
","""event"",""trial"",""time""
""blur"",""8"",""75311""
""blur"",""20"",""207440""
""blur"",""20"",""227405""
","""event"",""trial"",""time""
""focus"",""8"",""75316""
""focus"",""20"",""227392""
""focus"",""20"",""228940""
","""event"",""trial"",""time""
""fullscreenenter"",""1"",""13124""
","""event"",""trial"",""time""
""fullscreenexit"",""8"",""75323""
","","","","","","null","<div style=""font-size:60px;"">+</div>","null","","fixation","","","","","","","","","","",""
"aa-learning-trial","95","550669","0.0-9.0-2.0-1.11","5560","1","8","Female","approach_avoid_spark_v1","""event"",""trial"",""time""
""fullscreenenter"",""1"",""13124""
""blur"",""8"",""75311""
""focus"",""8"",""75316""
""fullscreenexit"",""8"",""75323""
""blur"",""20"",""207440""
""focus"",""20"",""227392""
""blur"",""20"",""227405""
""focus"",""20"",""228940""
","""event"",""trial"",""time""
""blur"",""8"",""75311""
""blur"",""20"",""207440""
""blur"",""20"",""227405""
","""event"",""trial"",""time""
""focus"",""8"",""75316""
""focus"",""20"",""227392""
""focus"",""20"",""228940""
","""event"",""trial"",""time""
""fullscreenenter"",""1"",""13124""
","""event"",""trial"",""time""
""fullscreenexit"",""8"",""75323""
","","","","","","1230.5","images/sheep5.png","","","learning","-6","0","0","0","sheep","animals","1","0","","bad","[-6]"
"html-keyboard-response","96","551173","0.0-9.0-2.0-0.12","5560","1","8","Female","approach_avoid_spark_v1","""event"",""trial"",""time""
""fullscreenenter"",""1"",""13124""
""blur"",""8"",""75311""
""focus"",""8"",""75316""
""fullscreenexit"",""8"",""75323""
""blur"",""20"",""207440""
""focus"",""20"",""227392""
""blur"",""20"",""227405""
""focus"",""20"",""228940""
","""event"",""trial"",""time""
""blur"",""8"",""75311""
""blur"",""20"",""207440""
""blur"",""20"",""227405""
","""event"",""trial"",""time""
""focus"",""8"",""75316""
""focus"",""20"",""227392""
""focus"",""20"",""228940""
","""event"",""trial"",""time""
""fullscreenenter"",""1"",""13124""
","""event"",""trial"",""time""
""fullscreenexit"",""8"",""75323""
","","","","","","null","<div style=""font-size:60px;"">+</div>","null","","fixation","","","","","","","","","","",""
"aa-learning-trial","97","554181","0.0-9.0-2.0-1.12","5560","1","8","Female","approach_avoid_spark_v1","""event"",""trial"",""time""
""fullscreenenter"",""1"",""13124""
""blur"",""8"",""75311""
""focus"",""8"",""75316""
""fullscreenexit"",""8"",""75323""
""blur"",""20"",""207440""
""focus"",""20"",""227392""
""blur"",""20"",""227405""
""focus"",""20"",""228940""
","""event"",""trial"",""time""
""blur"",""8"",""75311""
""blur"",""20"",""207440""
""blur"",""20"",""227405""
","""event"",""trial"",""time""
""focus"",""8"",""75316""
""focus"",""20"",""227392""
""focus"",""20"",""228940""
","""event"",""trial"",""time""
""fullscreenenter"",""1"",""13124""
","""event"",""trial"",""time""
""fullscreenexit"",""8"",""75323""
","","","","","","null","images/horse1.png","","","learning","1","-5","","null","horse","animals","1","0","","neutral","0"
"html-keyboard-response","98","554684","0.0-9.0-2.0-0.13","5560","1","8","Female","approach_avoid_spark_v1","""event"",""trial"",""time""
""fullscreenenter"",""1"",""13124""
""blur"",""8"",""75311""
""focus"",""8"",""75316""
""fullscreenexit"",""8"",""75323""
""blur"",""20"",""207440""
""focus"",""20"",""227392""
""blur"",""20"",""227405""
""focus"",""20"",""228940""
","""event"",""trial"",""time""
""blur"",""8"",""75311""
""blur"",""20"",""207440""
""blur"",""20"",""227405""
","""event"",""trial"",""time""
""focus"",""8"",""75316""
""focus"",""20"",""227392""
""focus"",""20"",""228940""
","""event"",""trial"",""time""
""fullscreenenter"",""1"",""13124""
","""event"",""trial"",""time""
""fullscreenexit"",""8"",""75323""
","","","","","","null","<div style=""font-size:60px;"">+</div>","null","","fixation","","","","","","","","","","",""
"aa-learning-trial","99","557693","0.0-9.0-2.0-1.13","5560","1","8","Female","approach_avoid_spark_v1","""event"",""trial"",""time""
""fullscreenenter"",""1"",""13124""
""blur"",""8"",""75311""
""focus"",""8"",""75316""
""fullscreenexit"",""8"",""75323""
""blur"",""20"",""207440""
""focus"",""20"",""227392""
""blur"",""20"",""227405""
""focus"",""20"",""228940""
","""event"",""trial"",""time""
""blur"",""8"",""75311""
""blur"",""20"",""207440""
""blur"",""20"",""227405""
","""event"",""trial"",""time""
""focus"",""8"",""75316""
""focus"",""20"",""227392""
""focus"",""20"",""228940""
","""event"",""trial"",""time""
""fullscreenenter"",""1"",""13124""
","""event"",""trial"",""time""
""fullscreenexit"",""8"",""75323""
","","","","","","1686","images/horse7.png","","","learning","-1","0","0","0","horse","animals","1","0","","neutral","0"
"html-keyboard-response","100","558197","0.0-9.0-2.0-0.14","5560","1","8","Female","approach_avoid_spark_v1","""event"",""trial"",""time""
""fullscreenenter"",""1"",""13124""
""blur"",""8"",""75311""
""focus"",""8"",""75316""
""fullscreenexit"",""8"",""75323""
""blur"",""20"",""207440""
""focus"",""20"",""227392""
""blur"",""20"",""227405""
""focus"",""20"",""228940""
","""event"",""trial"",""time""
""blur"",""8"",""75311""
""blur"",""20"",""207440""
""blur"",""20"",""227405""
","""event"",""trial"",""time""
""focus"",""8"",""75316""
""focus"",""20"",""227392""
""focus"",""20"",""228940""
","""event"",""trial"",""time""
""fullscreenenter"",""1"",""13124""
","""event"",""trial"",""time""
""fullscreenexit"",""8"",""75323""
","","","","","","null","<div style=""font-size:60px;"">+</div>","null","","fixation","","","","","","","","","","",""
"aa-learning-trial","101","561205","0.0-9.0-2.0-1.14","5560","1","8","Female","approach_avoid_spark_v1","""event"",""trial"",""time""
""fullscreenenter"",""1"",""13124""
""blur"",""8"",""75311""
""focus"",""8"",""75316""
""fullscreenexit"",""8"",""75323""
""blur"",""20"",""207440""
""focus"",""20"",""227392""
""blur"",""20"",""227405""
""focus"",""20"",""228940""
","""event"",""trial"",""time""
""blur"",""8"",""75311""
""blur"",""20"",""207440""
""blur"",""20"",""227405""
","""event"",""trial"",""time""
""focus"",""8"",""75316""
""focus"",""20"",""227392""
""focus"",""20"",""228940""
","""event"",""trial"",""time""
""fullscreenenter"",""1"",""13124""
","""event"",""trial"",""time""
""fullscreenexit"",""8"",""75323""
","","","","","","1964.7999999523163","images/goat2.png","","","learning","6","0","0","0","goat","animals","1","0","","good","[6]"
"html-keyboard-response","102","561708","0.0-9.0-2.0-0.15","5560","1","8","Female","approach_avoid_spark_v1","""event"",""trial"",""time""
""fullscreenenter"",""1"",""13124""
""blur"",""8"",""75311""
""focus"",""8"",""75316""
""fullscreenexit"",""8"",""75323""
""blur"",""20"",""207440""
""focus"",""20"",""227392""
""blur"",""20"",""227405""
""focus"",""20"",""228940""
","""event"",""trial"",""time""
""blur"",""8"",""75311""
""blur"",""20"",""207440""
""blur"",""20"",""227405""
","""event"",""trial"",""time""
""focus"",""8"",""75316""
""focus"",""20"",""227392""
""focus"",""20"",""228940""
","""event"",""trial"",""time""
""fullscreenenter"",""1"",""13124""
","""event"",""trial"",""time""
""fullscreenexit"",""8"",""75323""
","","","","","","null","<div style=""font-size:60px;"">+</div>","null","","fixation","","","","","","","","","","",""
"aa-learning-trial","103","564717","0.0-9.0-2.0-1.15","5560","1","8","Female","approach_avoid_spark_v1","""event"",""trial"",""time""
""fullscreenenter"",""1"",""13124""
""blur"",""8"",""75311""
""focus"",""8"",""75316""
""fullscreenexit"",""8"",""75323""
""blur"",""20"",""207440""
""focus"",""20"",""227392""
""blur"",""20"",""227405""
""focus"",""20"",""228940""
","""event"",""trial"",""time""
""blur"",""8"",""75311""
""blur"",""20"",""207440""
""blur"",""20"",""227405""
","""event"",""trial"",""time""
""focus"",""8"",""75316""
""focus"",""20"",""227392""
""focus"",""20"",""228940""
","""event"",""trial"",""time""
""fullscreenenter"",""1"",""13124""
","""event"",""trial"",""time""
""fullscreenexit"",""8"",""75323""
","","","","","","693.2999999523163","images/sheep1.png","","","learning","-8","-8","1","1","sheep","animals","1","0","","bad","[-6]"
"html-keyboard-response","104","565220","0.0-9.0-2.0-0.16","5560","1","8","Female","approach_avoid_spark_v1","""event"",""trial"",""time""
""fullscreenenter"",""1"",""13124""
""blur"",""8"",""75311""
""focus"",""8"",""75316""
""fullscreenexit"",""8"",""75323""
""blur"",""20"",""207440""
""focus"",""20"",""227392""
""blur"",""20"",""227405""
""focus"",""20"",""228940""
","""event"",""trial"",""time""
""blur"",""8"",""75311""
""blur"",""20"",""207440""
""blur"",""20"",""227405""
","""event"",""trial"",""time""
""focus"",""8"",""75316""
""focus"",""20"",""227392""
""focus"",""20"",""228940""
","""event"",""trial"",""time""
""fullscreenenter"",""1"",""13124""
","""event"",""trial"",""time""
""fullscreenexit"",""8"",""75323""
","","","","","","null","<div style=""font-size:60px;"">+</div>","null","","fixation","","","","","","","","","","",""
"aa-learning-trial","105","568228","0.0-9.0-2.0-1.16","5560","1","8","Female","approach_avoid_spark_v1","""event"",""trial"",""time""
""fullscreenenter"",""1"",""13124""
""blur"",""8"",""75311""
""focus"",""8"",""75316""
""fullscreenexit"",""8"",""75323""
""blur"",""20"",""207440""
""focus"",""20"",""227392""
""blur"",""20"",""227405""
""focus"",""20"",""228940""
","""event"",""trial"",""time""
""blur"",""8"",""75311""
""blur"",""20"",""207440""
""blur"",""20"",""227405""
","""event"",""trial"",""time""
""focus"",""8"",""75316""
""focus"",""20"",""227392""
""focus"",""20"",""228940""
","""event"",""trial"",""time""
""fullscreenenter"",""1"",""13124""
","""event"",""trial"",""time""
""fullscreenexit"",""8"",""75323""
","","","","","","1101.4000000953674","images/goat8.png","","","learning","6","0","0","0","goat","animals","1","0","","good","[6]"
"html-keyboard-response","106","568732","0.0-9.0-2.0-0.17","5560","1","8","Female","approach_avoid_spark_v1","""event"",""trial"",""time""
""fullscreenenter"",""1"",""13124""
""blur"",""8"",""75311""
""focus"",""8"",""75316""
""fullscreenexit"",""8"",""75323""
""blur"",""20"",""207440""
""focus"",""20"",""227392""
""blur"",""20"",""227405""
""focus"",""20"",""228940""
","""event"",""trial"",""time""
""blur"",""8"",""75311""
""blur"",""20"",""207440""
""blur"",""20"",""227405""
","""event"",""trial"",""time""
""focus"",""8"",""75316""
""focus"",""20"",""227392""
""focus"",""20"",""228940""
","""event"",""trial"",""time""
""fullscreenenter"",""1"",""13124""
","""event"",""trial"",""time""
""fullscreenexit"",""8"",""75323""
","","","","","","null","<div style=""font-size:60px;"">+</div>","null","","fixation","","","","","","","","","","",""
"aa-learning-trial","107","571741","0.0-9.0-2.0-1.17","5560","1","8","Female","approach_avoid_spark_v1","""event"",""trial"",""time""
""fullscreenenter"",""1"",""13124""
""blur"",""8"",""75311""
""focus"",""8"",""75316""
""fullscreenexit"",""8"",""75323""
""blur"",""20"",""207440""
""focus"",""20"",""227392""
""blur"",""20"",""227405""
""focus"",""20"",""228940""
","""event"",""trial"",""time""
""blur"",""8"",""75311""
""blur"",""20"",""207440""
""blur"",""20"",""227405""
","""event"",""trial"",""time""
""focus"",""8"",""75316""
""focus"",""20"",""227392""
""focus"",""20"",""228940""
","""event"",""trial"",""time""
""fullscreenenter"",""1"",""13124""
","""event"",""trial"",""time""
""fullscreenexit"",""8"",""75323""
","","","","","","1909.7999999523163","images/sheep3.png","","","learning","-6","0","0","0","sheep","animals","1","0","","bad","[-6]"
"html-keyboard-response","108","572244","0.0-9.0-2.0-0.18","5560","1","8","Female","approach_avoid_spark_v1","""event"",""trial"",""time""
""fullscreenenter"",""1"",""13124""
""blur"",""8"",""75311""
""focus"",""8"",""75316""
""fullscreenexit"",""8"",""75323""
""blur"",""20"",""207440""
""focus"",""20"",""227392""
""blur"",""20"",""227405""
""focus"",""20"",""228940""
","""event"",""trial"",""time""
""blur"",""8"",""75311""
""blur"",""20"",""207440""
""blur"",""20"",""227405""
","""event"",""trial"",""time""
""focus"",""8"",""75316""
""focus"",""20"",""227392""
""focus"",""20"",""228940""
","""event"",""trial"",""time""
""fullscreenenter"",""1"",""13124""
","""event"",""trial"",""time""
""fullscreenexit"",""8"",""75323""
","","","","","","null","<div style=""font-size:60px;"">+</div>","null","","fixation","","","","","","","","","","",""
"aa-learning-trial","109","575253","0.0-9.0-2.0-1.18","5560","1","8","Female","approach_avoid_spark_v1","""event"",""trial"",""time""
""fullscreenenter"",""1"",""13124""
""blur"",""8"",""75311""
""focus"",""8"",""75316""
""fullscreenexit"",""8"",""75323""
""blur"",""20"",""207440""
""focus"",""20"",""227392""
""blur"",""20"",""227405""
""focus"",""20"",""228940""
","""event"",""trial"",""time""
""blur"",""8"",""75311""
""blur"",""20"",""207440""
""blur"",""20"",""227405""
","""event"",""trial"",""time""
""focus"",""8"",""75316""
""focus"",""20"",""227392""
""focus"",""20"",""228940""
","""event"",""trial"",""time""
""fullscreenenter"",""1"",""13124""
","""event"",""trial"",""time""
""fullscreenexit"",""8"",""75323""
","","","","","","863.2000000476837","images/horse1.png","","","learning","2","2","1","1","horse","animals","1","0","","neutral","0"
"html-keyboard-response","110","575756","0.0-9.0-2.0-0.19","5560","1","8","Female","approach_avoid_spark_v1","""event"",""trial"",""time""
""fullscreenenter"",""1"",""13124""
""blur"",""8"",""75311""
""focus"",""8"",""75316""
""fullscreenexit"",""8"",""75323""
""blur"",""20"",""207440""
""focus"",""20"",""227392""
""blur"",""20"",""227405""
""focus"",""20"",""228940""
","""event"",""trial"",""time""
""blur"",""8"",""75311""
""blur"",""20"",""207440""
""blur"",""20"",""227405""
","""event"",""trial"",""time""
""focus"",""8"",""75316""
""focus"",""20"",""227392""
""focus"",""20"",""228940""
","""event"",""trial"",""time""
""fullscreenenter"",""1"",""13124""
","""event"",""trial"",""time""
""fullscreenexit"",""8"",""75323""
","","","","","","null","<div style=""font-size:60px;"">+</div>","null","","fixation","","","","","","","","","","",""
"aa-learning-trial","111","578765","0.0-9.0-2.0-1.19","5560","1","8","Female","approach_avoid_spark_v1","""event"",""trial"",""time""
""fullscreenenter"",""1"",""13124""
""blur"",""8"",""75311""
""focus"",""8"",""75316""
""fullscreenexit"",""8"",""75323""
""blur"",""20"",""207440""
""focus"",""20"",""227392""
""blur"",""20"",""227405""
""focus"",""20"",""228940""
","""event"",""trial"",""time""
""blur"",""8"",""75311""
""blur"",""20"",""207440""
""blur"",""20"",""227405""
","""event"",""trial"",""time""
""focus"",""8"",""75316""
""focus"",""20"",""227392""
""focus"",""20"",""228940""
","""event"",""trial"",""time""
""fullscreenenter"",""1"",""13124""
","""event"",""trial"",""time""
""fullscreenexit"",""8"",""75323""
","","","","","","509.69999980926514","images/goat1.png","","","learning","6","6","1","1","goat","animals","1","0","","good","[6]"
"html-keyboard-response","112","579269","0.0-9.0-2.0-0.20","5560","1","8","Female","approach_avoid_spark_v1","""event"",""trial"",""time""
""fullscreenenter"",""1"",""13124""
""blur"",""8"",""75311""
""focus"",""8"",""75316""
""fullscreenexit"",""8"",""75323""
""blur"",""20"",""207440""
""focus"",""20"",""227392""
""blur"",""20"",""227405""
""focus"",""20"",""228940""
","""event"",""trial"",""time""
""blur"",""8"",""75311""
""blur"",""20"",""207440""
""blur"",""20"",""227405""
","""event"",""trial"",""time""
""focus"",""8"",""75316""
""focus"",""20"",""227392""
""focus"",""20"",""228940""
","""event"",""trial"",""time""
""fullscreenenter"",""1"",""13124""
","""event"",""trial"",""time""
""fullscreenexit"",""8"",""75323""
","","","","","","null","<div style=""font-size:60px;"">+</div>","null","","fixation","","","","","","","","","","",""
"aa-learning-trial","113","582277","0.0-9.0-2.0-1.20","5560","1","8","Female","approach_avoid_spark_v1","""event"",""trial"",""time""
""fullscreenenter"",""1"",""13124""
""blur"",""8"",""75311""
""focus"",""8"",""75316""
""fullscreenexit"",""8"",""75323""
""blur"",""20"",""207440""
""focus"",""20"",""227392""
""blur"",""20"",""227405""
""focus"",""20"",""228940""
","""event"",""trial"",""time""
