"trial_type","trial_index","time_elapsed","internal_node_id","subject_id","task_condition","age","gender","task_version","interactions","blur_events","focus_events","fullscreenenter_events","fullscreenexit_events","success","timeout","failed_images","failed_audio","failed_video","rt","stimulus","response","button_pressed","task_part","approach_reward","points","key_press","option_selected","stim_cat","task_block","block_condition","block_number","correct","cat_type","mean_cat_reward"
"pavlovia","0","72","0.0-0.0","4010","2","13","Male","approach_avoid_spark_v1","""event"",""trial"",""time""
""fullscreenenter"",""1"",""18803""
","
","
","""event"",""trial"",""time""
""fullscreenenter"",""1"",""18803""
","
","","","","","","","","","","","","","","","","","","","","",""
"fullscreen","1","19053","0.0-1.0","4010","2","13","Male","approach_avoid_spark_v1","""event"",""trial"",""time""
""fullscreenenter"",""1"",""18803""
""blur"",""2"",""21927""
""focus"",""2"",""27878""
","""event"",""trial"",""time""
""blur"",""2"",""21927""
","""event"",""trial"",""time""
""focus"",""2"",""27878""
","""event"",""trial"",""time""
""fullscreenenter"",""1"",""18803""
","
","true","","","","","","","","","","","","","","","","","","","",""
"preload","2","46734","0.0-2.0","4010","2","13","Male","approach_avoid_spark_v1","""event"",""trial"",""time""
""fullscreenenter"",""1"",""18803""
""blur"",""2"",""21927""
""focus"",""2"",""27878""
","""event"",""trial"",""time""
""blur"",""2"",""21927""
","""event"",""trial"",""time""
""focus"",""2"",""27878""
","""event"",""trial"",""time""
""fullscreenenter"",""1"",""18803""
","
","true","false","[]","[]","[]","","","","","","","","","","","","","","","",""
"audio-keyboard-response","3","49919","0.0-3.0","4010","2","13","Male","approach_avoid_spark_v1","""event"",""trial"",""time""
""fullscreenenter"",""1"",""18803""
""blur"",""2"",""21927""
""focus"",""2"",""27878""
","""event"",""trial"",""time""
""blur"",""2"",""21927""
","""event"",""trial"",""time""
""focus"",""2"",""27878""
","""event"",""trial"",""time""
""fullscreenenter"",""1"",""18803""
","
","","","","","","3178.6666666666683","audio/beep_loop.wav"," ","","","","","","","","","","","","",""
"audio-button-response","4","54403","0.0-4.0","4010","2","13","Male","approach_avoid_spark_v1","""event"",""trial"",""time""
""fullscreenenter"",""1"",""18803""
""blur"",""2"",""21927""
""focus"",""2"",""27878""
","""event"",""trial"",""time""
""blur"",""2"",""21927""
","""event"",""trial"",""time""
""focus"",""2"",""27878""
","""event"",""trial"",""time""
""fullscreenenter"",""1"",""18803""
","
","","","","","","4469","audio/shark.wav","0","","","","","","","","","","","","",""
"audio-button-response","5","56906","0.0-5.0","4010","2","13","Male","approach_avoid_spark_v1","""event"",""trial"",""time""
""fullscreenenter"",""1"",""18803""
""blur"",""2"",""21927""
""focus"",""2"",""27878""
","""event"",""trial"",""time""
""blur"",""2"",""21927""
","""event"",""trial"",""time""
""focus"",""2"",""27878""
","""event"",""trial"",""time""
""fullscreenenter"",""1"",""18803""
","
","","","","","","1491","audio/turtle.wav","1","","","","","","","","","","","","",""
"preload","6","71105","0.0-6.0","4010","2","13","Male","approach_avoid_spark_v1","""event"",""trial"",""time""
""fullscreenenter"",""1"",""18803""
""blur"",""2"",""21927""
""focus"",""2"",""27878""
","""event"",""trial"",""time""
""blur"",""2"",""21927""
","""event"",""trial"",""time""
""focus"",""2"",""27878""
","""event"",""trial"",""time""
""fullscreenenter"",""1"",""18803""
","
","true","false","[]","[]","[]","","","","","","","","","","","","","","","",""
"html-keyboard-response","7","77073","0.0-7.0","4010","2","13","Male","approach_avoid_spark_v1","""event"",""trial"",""time""
""fullscreenenter"",""1"",""18803""
""blur"",""2"",""21927""
""focus"",""2"",""27878""
","""event"",""trial"",""time""
""blur"",""2"",""21927""
","""event"",""trial"",""time""
""focus"",""2"",""27878""
","""event"",""trial"",""time""
""fullscreenenter"",""1"",""18803""
","
","","","","","","5961.60000038147","Welcome to the experiment. Press any key to begin and to advance the instructions."," ","","","","","","","","","","","","",""
"learning-instructions","8","88301","0.0-8.0-0.0-0.0","4010","2","13","Male","approach_avoid_spark_v1","""event"",""trial"",""time""
""fullscreenenter"",""1"",""18803""
""blur"",""2"",""21927""
""focus"",""2"",""27878""
","""event"",""trial"",""time""
""blur"",""2"",""21927""
","""event"",""trial"",""time""
""focus"",""2"",""27878""
","""event"",""trial"",""time""
""fullscreenenter"",""1"",""18803""
","
","","","","","","4262.699999809265","<p> Welcome! Today you are going to play 6 different rounds of a decision-making game. </p><p> Use the mouse to click next to continue. </p>","","0","instructions","","","","","","","","","","",""
"learning-instructions","9","100171","0.0-8.0-0.0-0.1","4010","2","13","Male","approach_avoid_spark_v1","""event"",""trial"",""time""
""fullscreenenter"",""1"",""18803""
""blur"",""2"",""21927""
""focus"",""2"",""27878""
","""event"",""trial"",""time""
""blur"",""2"",""21927""
","""event"",""trial"",""time""
""focus"",""2"",""27878""
","""event"",""trial"",""time""
""fullscreenenter"",""1"",""18803""
","
","","","","","","9126.29999923706","<p> You will start with a practice round to learn the rules. </p>","","0","instructions","","","","","","","","","","",""
"learning-instructions","10","110336","0.0-8.0-0.0-0.2","4010","2","13","Male","approach_avoid_spark_v1","""event"",""trial"",""time""
""fullscreenenter"",""1"",""18803""
""blur"",""2"",""21927""
""focus"",""2"",""27878""
","""event"",""trial"",""time""
""blur"",""2"",""21927""
","""event"",""trial"",""time""
""focus"",""2"",""27878""
","""event"",""trial"",""time""
""fullscreenenter"",""1"",""18803""
","
","","","","","","6710.5","<p> Your goal in this round is to give out sports equipment to kids. </p></div>","","0","instructions","","","","","","","","","","",""
"learning-instructions","11","128873","0.0-8.0-0.0-0.3","4010","2","13","Male","approach_avoid_spark_v1","""event"",""trial"",""time""
""fullscreenenter"",""1"",""18803""
""blur"",""2"",""21927""
""focus"",""2"",""27878""
","""event"",""trial"",""time""
""blur"",""2"",""21927""
","""event"",""trial"",""time""
""focus"",""2"",""27878""
","""event"",""trial"",""time""
""fullscreenenter"",""1"",""18803""
","
","","","","","","10970.300000190735","<p> The kids only like some of the equipment.  </p><p> On each turn, you will see a piece of sports equipment.   </p><p> You need to decide whether to give it to the kids or not.  </p>","","0","instructions","","","","","","","","","","",""
"learning-instructions","12","143457","0.0-8.0-0.0-0.4","4010","2","13","Male","approach_avoid_spark_v1","""event"",""trial"",""time""
""fullscreenenter"",""1"",""18803""
""blur"",""2"",""21927""
""focus"",""2"",""27878""
","""event"",""trial"",""time""
""blur"",""2"",""21927""
","""event"",""trial"",""time""
""focus"",""2"",""27878""
","""event"",""trial"",""time""
""fullscreenenter"",""1"",""18803""
","
","","","","","","9816.10000038147","<p> You can give them the equipment by pressing 1 and choose not to give it to them by pressing 0. </p><br><div class=""choice-instructions-grid""> <div class=""choice-option""><img src=""images/approach.png"" class=""choice-option-img"" stage=""instructions"" position=""0"" ><div class=""choice-option-text""> Press ""1."" </div></div><div class=""choice-option""><img src=""images/avoid.png"" class=""choice-option-img"" stage=""instructions"" position=""1"" ><div class=""choice-option-text""> Press ""0."" </div></div>","","0","instructions","","","","","","","","","","",""
"learning-instructions","13","154086","0.0-8.0-0.0-0.5","4010","2","13","Male","approach_avoid_spark_v1","""event"",""trial"",""time""
""fullscreenenter"",""1"",""18803""
""blur"",""2"",""21927""
""focus"",""2"",""27878""
","""event"",""trial"",""time""
""blur"",""2"",""21927""
","""event"",""trial"",""time""
""focus"",""2"",""27878""
","""event"",""trial"",""time""
""fullscreenenter"",""1"",""18803""
","
","","","","","","3231.0999994277954","<p> If you give them a piece of equipment they like, they will be happy! </p><p> But if you give them a piece of equipment they do not like, they will be sad. </p>","","0","instructions","","","","","","","","","","",""
"learning-instructions","14","165268","0.0-8.0-0.0-0.6","4010","2","13","Male","approach_avoid_spark_v1","""event"",""trial"",""time""
""fullscreenenter"",""1"",""18803""
""blur"",""2"",""21927""
""focus"",""2"",""27878""
","""event"",""trial"",""time""
""blur"",""2"",""21927""
","""event"",""trial"",""time""
""focus"",""2"",""27878""
","""event"",""trial"",""time""
""fullscreenenter"",""1"",""18803""
","
","","","","","","647.8999996185303","<p> You will earn points based on how you make kids feel. </p><p> If you make them happy, you will WIN anywhere from 1 - 9 points, </p><p> but if you make them sad, you will LOSE anywhere from 1 - 9 points. </p>","","0","instructions","","","","","","","","","","",""
"learning-instructions","15","177824","0.0-8.0-0.0-0.7","4010","2","13","Male","approach_avoid_spark_v1","""event"",""trial"",""time""
""fullscreenenter"",""1"",""18803""
""blur"",""2"",""21927""
""focus"",""2"",""27878""
","""event"",""trial"",""time""
""blur"",""2"",""21927""
","""event"",""trial"",""time""
""focus"",""2"",""27878""
","""event"",""trial"",""time""
""fullscreenenter"",""1"",""18803""
","
","","","","","","2961.0999994277954","<p> You will see how many points you won or lost in the center of the screen. </p><p> Here is what you would see if you won 6 points: </p><p style=""color:green;font-size:50px;font-weight:bolder"">6</p><p style=""color:green"">The text is GREEN because you WON points.</p>","","0","instructions","","","","","","","","","","",""
"learning-instructions","16","186468","0.0-8.0-0.0-0.8","4010","2","13","Male","approach_avoid_spark_v1","""event"",""trial"",""time""
""fullscreenenter"",""1"",""18803""
""blur"",""2"",""21927""
""focus"",""2"",""27878""
","""event"",""trial"",""time""
""blur"",""2"",""21927""
","""event"",""trial"",""time""
""focus"",""2"",""27878""
","""event"",""trial"",""time""
""fullscreenenter"",""1"",""18803""
","
","","","","","","3088.8999996185303","<p> And here is what you would see if you lost 4 points: </p><p style=""color:red;font-size:50px;font-weight:bolder"">-4</p><p style=""color:red"">The text is RED because you LOST points. </p>","","0","instructions","","","","","","","","","","",""
"learning-instructions","17","210726","0.0-8.0-0.0-0.9","4010","2","13","Male","approach_avoid_spark_v1","""event"",""trial"",""time""
""fullscreenenter"",""1"",""18803""
""blur"",""2"",""21927""
""focus"",""2"",""27878""
","""event"",""trial"",""time""
""blur"",""2"",""21927""
","""event"",""trial"",""time""
""focus"",""2"",""27878""
","""event"",""trial"",""time""
""fullscreenenter"",""1"",""18803""
","
","","","","","","9536","<p> Some of the equipment will make the kids VERY happy or sad. </p><p> These pieces of equipment will make you win or lose LOTS of points. </p><p> Other pieces of equipment will only make the kids a little happy or sad. </p><p> These pieces of equipment will make you win or lose small amounts of points. </p>","","0","instructions","","","","","","","","","","",""
"learning-instructions","18","225992","0.0-8.0-0.0-0.10","4010","2","13","Male","approach_avoid_spark_v1","""event"",""trial"",""time""
""fullscreenenter"",""1"",""18803""
""blur"",""2"",""21927""
""focus"",""2"",""27878""
""blur"",""19"",""243075""
""focus"",""19"",""248150""
","""event"",""trial"",""time""
""blur"",""2"",""21927""
""blur"",""19"",""243075""
","""event"",""trial"",""time""
""focus"",""2"",""27878""
""focus"",""19"",""248150""
","""event"",""trial"",""time""
""fullscreenenter"",""1"",""18803""
","
","","","","","","4636.200000762939","<p> If you choose not to give them the equipment, you will not win or lose any points. </p><p>  However, in the center of the screen, you will see the number of points you WOULD HAVE won or lost if you had given them the equipment. </p>","","0","instructions","","","","","","","","","","",""
"learning-instructions","19","250589","0.0-8.0-0.0-0.11","4010","2","13","Male","approach_avoid_spark_v1","""event"",""trial"",""time""
""fullscreenenter"",""1"",""18803""
""blur"",""2"",""21927""
""focus"",""2"",""27878""
""blur"",""19"",""243075""
""focus"",""19"",""248150""
","""event"",""trial"",""time""
""blur"",""2"",""21927""
""blur"",""19"",""243075""
","""event"",""trial"",""time""
""focus"",""2"",""27878""
""focus"",""19"",""248150""
","""event"",""trial"",""time""
""fullscreenenter"",""1"",""18803""
","
","","","","","","3017","<p> Here is what you might see if you did not give the equipment to the kids but it would have made them happy: </p><p style=""color:grey; font-size:50px; display: inline-block; border-spacing: 15px; border-width:3px; border-style:solid; border-color:red"">  &nbsp; 7 &nbsp; </p><p> Remember, in this case, you would not win or lose ANY points because you did not give them the equipment.  </p><p style=""color:grey"">The text is GREY because you earned ZERO points. </p><p style=""color:red"">However, choosing to give the kids the equipment would have made you win points. The box around the text is RED because you chose the worse option. </p>","","0","instructions","","","","","","","","","","",""
"learning-instructions","20","274330","0.0-8.0-0.0-0.12","4010","2","13","Male","approach_avoid_spark_v1","""event"",""trial"",""time""
""fullscreenenter"",""1"",""18803""
""blur"",""2"",""21927""
""focus"",""2"",""27878""
""blur"",""19"",""243075""
""focus"",""19"",""248150""
","""event"",""trial"",""time""
""blur"",""2"",""21927""
""blur"",""19"",""243075""
","""event"",""trial"",""time""
""focus"",""2"",""27878""
""focus"",""19"",""248150""
","""event"",""trial"",""time""
""fullscreenenter"",""1"",""18803""
","
","","","","","","2663.699999809265","<p> Here is what you might see if you did not give the equipment to the kids but it would have made them sad: </p><p style=""color:grey;font-size:50px; display: inline-block; border-spacing: 15px; border-width:3px; border-style:solid; border-color:green"">  &nbsp; -8 &nbsp; </p><p> Remember, in this case, you would not win or lose ANY points because you did not give them the equipment.  </p><p style=""color:grey"">The text is GREY because you earned ZERO points. </p><p  style=""color:green""> Choosing to give the kids the equipment would have made you lose points. The box around the text is GREEN because you chose the better option.</p>","","0","instructions","","","","","","","","","","",""
"learning-instructions","21","293100","0.0-8.0-0.0-0.13","4010","2","13","Male","approach_avoid_spark_v1","""event"",""trial"",""time""
""fullscreenenter"",""1"",""18803""
""blur"",""2"",""21927""
""focus"",""2"",""27878""
""blur"",""19"",""243075""
""focus"",""19"",""248150""
","""event"",""trial"",""time""
""blur"",""2"",""21927""
""blur"",""19"",""243075""
","""event"",""trial"",""time""
""focus"",""2"",""27878""
""focus"",""19"",""248150""
","""event"",""trial"",""time""
""fullscreenenter"",""1"",""18803""
","
","","","","","","3649.9000005722046","<p> You will have 3 seconds to make each choice. Try to respond before time runs out! </p><p> You will lose 5 points each time you do not make a response. </p>","","0","instructions","","","","","","","","","","",""
"learning-instructions","22","299506","0.0-8.0-0.0-0.14","4010","2","13","Male","approach_avoid_spark_v1","""event"",""trial"",""time""
""fullscreenenter"",""1"",""18803""
""blur"",""2"",""21927""
""focus"",""2"",""27878""
""blur"",""19"",""243075""
""focus"",""19"",""248150""
","""event"",""trial"",""time""
""blur"",""2"",""21927""
""blur"",""19"",""243075""
","""event"",""trial"",""time""
""focus"",""2"",""27878""
""focus"",""19"",""248150""
","""event"",""trial"",""time""
""fullscreenenter"",""1"",""18803""
","
","","","","","","980.6000003814697","<p> This is just a practice round, but in the real game, your bonus payment will depend on your total number of points.","","0","instructions","","","","","","","","","","",""
"learning-instructions","23","308356","0.0-8.0-0.0-0.15","4010","2","13","Male","approach_avoid_spark_v1","""event"",""trial"",""time""
""fullscreenenter"",""1"",""18803""
""blur"",""2"",""21927""
""focus"",""2"",""27878""
""blur"",""19"",""243075""
""focus"",""19"",""248150""
","""event"",""trial"",""time""
""blur"",""2"",""21927""
""blur"",""19"",""243075""
","""event"",""trial"",""time""
""focus"",""2"",""27878""
""focus"",""19"",""248150""
","""event"",""trial"",""time""
""fullscreenenter"",""1"",""18803""
","
","","","","","","3089.5","<p> Remember, you can give them the equipment by pressing 1 and choose not to give it to them by pressing 0. </p><br><div class=""choice-instructions-grid""> <div class=""choice-option""><img src=""images/approach.png"" class=""choice-option-img"" stage=""instructions"" position=""0"" ><div class=""choice-option-text""> Press ""1."" </div></div><div class=""choice-option""><img src=""images/avoid.png"" class=""choice-option-img"" stage=""instructions"" position=""1"" ><div class=""choice-option-text""> Press ""0."" </div></div>","","0","instructions","","","","","","","","","","",""
"html-button-response","24","310668","0.0-8.0-1.0","4010","2","13","Male","approach_avoid_spark_v1","""event"",""trial"",""time""
""fullscreenenter"",""1"",""18803""
""blur"",""2"",""21927""
""focus"",""2"",""27878""
""blur"",""19"",""243075""
""focus"",""19"",""248150""
","""event"",""trial"",""time""
""blur"",""2"",""21927""
""blur"",""19"",""243075""
","""event"",""trial"",""time""
""focus"",""2"",""27878""
""focus"",""19"",""248150""
","""event"",""trial"",""time""
""fullscreenenter"",""1"",""18803""
","
","","","","","","2204.2000007629395","<p> Ready to practice? </p>","0","","","","","","","","","","","","",""
"html-keyboard-response","25","311286","0.0-8.0-2.0-0.0","4010","2","13","Male","approach_avoid_spark_v1","""event"",""trial"",""time""
""fullscreenenter"",""1"",""18803""
""blur"",""2"",""21927""
""focus"",""2"",""27878""
""blur"",""19"",""243075""
""focus"",""19"",""248150""
","""event"",""trial"",""time""
""blur"",""2"",""21927""
""blur"",""19"",""243075""
","""event"",""trial"",""time""
""focus"",""2"",""27878""
""focus"",""19"",""248150""
","""event"",""trial"",""time""
""fullscreenenter"",""1"",""18803""
","
","","","","","","null","<div style=""font-size:60px;"">+</div>","null","","fixation","","","","","","","","","","",""
"aa-learning-trial","26","314314","0.0-8.0-2.0-1.0","4010","2","13","Male","approach_avoid_spark_v1","""event"",""trial"",""time""
""fullscreenenter"",""1"",""18803""
""blur"",""2"",""21927""
""focus"",""2"",""27878""
""blur"",""19"",""243075""
""focus"",""19"",""248150""
","""event"",""trial"",""time""
""blur"",""2"",""21927""
""blur"",""19"",""243075""
","""event"",""trial"",""time""
""focus"",""2"",""27878""
""focus"",""19"",""248150""
","""event"",""trial"",""time""
""fullscreenenter"",""1"",""18803""
","
","","","","","","null","images/racket4.png","","","learning","7","-5","","null","practice","practice","practice","-1","","",""
"html-keyboard-response","27","314831","0.0-8.0-2.0-0.1","4010","2","13","Male","approach_avoid_spark_v1","""event"",""trial"",""time""
""fullscreenenter"",""1"",""18803""
""blur"",""2"",""21927""
""focus"",""2"",""27878""
""blur"",""19"",""243075""
""focus"",""19"",""248150""
","""event"",""trial"",""time""
""blur"",""2"",""21927""
""blur"",""19"",""243075""
","""event"",""trial"",""time""
""focus"",""2"",""27878""
""focus"",""19"",""248150""
","""event"",""trial"",""time""
""fullscreenenter"",""1"",""18803""
","
","","","","","","null","<div style=""font-size:60px;"">+</div>","null","","fixation","","","","","","","","","","",""
"aa-learning-trial","28","317840","0.0-8.0-2.0-1.1","4010","2","13","Male","approach_avoid_spark_v1","""event"",""trial"",""time""
""fullscreenenter"",""1"",""18803""
""blur"",""2"",""21927""
""focus"",""2"",""27878""
""blur"",""19"",""243075""
""focus"",""19"",""248150""
","""event"",""trial"",""time""
""blur"",""2"",""21927""
""blur"",""19"",""243075""
","""event"",""trial"",""time""
""focus"",""2"",""27878""
""focus"",""19"",""248150""
","""event"",""trial"",""time""
""fullscreenenter"",""1"",""18803""
","
","","","","","","1358.3000001907349","images/ball1.png","","","learning","3","3","1","1","practice","practice","practice","-1","","",""
"html-keyboard-response","29","318368","0.0-8.0-2.0-0.2","4010","2","13","Male","approach_avoid_spark_v1","""event"",""trial"",""time""
""fullscreenenter"",""1"",""18803""
""blur"",""2"",""21927""
""focus"",""2"",""27878""
""blur"",""19"",""243075""
""focus"",""19"",""248150""
","""event"",""trial"",""time""
""blur"",""2"",""21927""
""blur"",""19"",""243075""
","""event"",""trial"",""time""
""focus"",""2"",""27878""
""focus"",""19"",""248150""
","""event"",""trial"",""time""
""fullscreenenter"",""1"",""18803""
","
","","","","","","null","<div style=""font-size:60px;"">+</div>","null","","fixation","","","","","","","","","","",""
"aa-learning-trial","30","321389","0.0-8.0-2.0-1.2","4010","2","13","Male","approach_avoid_spark_v1","""event"",""trial"",""time""
""fullscreenenter"",""1"",""18803""
""blur"",""2"",""21927""
""focus"",""2"",""27878""
""blur"",""19"",""243075""
""focus"",""19"",""248150""
","""event"",""trial"",""time""
""blur"",""2"",""21927""
""blur"",""19"",""243075""
","""event"",""trial"",""time""
""focus"",""2"",""27878""
""focus"",""19"",""248150""
","""event"",""trial"",""time""
""fullscreenenter"",""1"",""18803""
","
","","","","","","788.1999998092651","images/racket2.png","","","learning","1","1","1","1","practice","practice","practice","-1","","",""
"html-keyboard-response","31","321907","0.0-8.0-2.0-0.3","4010","2","13","Male","approach_avoid_spark_v1","""event"",""trial"",""time""
""fullscreenenter"",""1"",""18803""
""blur"",""2"",""21927""
""focus"",""2"",""27878""
""blur"",""19"",""243075""
""focus"",""19"",""248150""
","""event"",""trial"",""time""
""blur"",""2"",""21927""
""blur"",""19"",""243075""
","""event"",""trial"",""time""
""focus"",""2"",""27878""
""focus"",""19"",""248150""
","""event"",""trial"",""time""
""fullscreenenter"",""1"",""18803""
","
","","","","","","null","<div style=""font-size:60px;"">+</div>","null","","fixation","","","","","","","","","","",""
"aa-learning-trial","32","324933","0.0-8.0-2.0-1.3","4010","2","13","Male","approach_avoid_spark_v1","""event"",""trial"",""time""
""fullscreenenter"",""1"",""18803""
""blur"",""2"",""21927""
""focus"",""2"",""27878""
""blur"",""19"",""243075""
""focus"",""19"",""248150""
","""event"",""trial"",""time""
""blur"",""2"",""21927""
""blur"",""19"",""243075""
","""event"",""trial"",""time""
""focus"",""2"",""27878""
""focus"",""19"",""248150""
","""event"",""trial"",""time""
""fullscreenenter"",""1"",""18803""
","
","","","","","","683.3000001907349","images/racket2.png","","","learning","3","3","1","1","practice","practice","practice","-1","","",""
"html-keyboard-response","33","325445","0.0-8.0-2.0-0.4","4010","2","13","Male","approach_avoid_spark_v1","""event"",""trial"",""time""
""fullscreenenter"",""1"",""18803""
""blur"",""2"",""21927""
""focus"",""2"",""27878""
""blur"",""19"",""243075""
""focus"",""19"",""248150""
","""event"",""trial"",""time""
""blur"",""2"",""21927""
""blur"",""19"",""243075""
","""event"",""trial"",""time""
""focus"",""2"",""27878""
""focus"",""19"",""248150""
","""event"",""trial"",""time""
""fullscreenenter"",""1"",""18803""
","
","","","","","","null","<div style=""font-size:60px;"">+</div>","null","","fixation","","","","","","","","","","",""
"aa-learning-trial","34","328465","0.0-8.0-2.0-1.4","4010","2","13","Male","approach_avoid_spark_v1","""event"",""trial"",""time""
""fullscreenenter"",""1"",""18803""
""blur"",""2"",""21927""
""focus"",""2"",""27878""
""blur"",""19"",""243075""
""focus"",""19"",""248150""
","""event"",""trial"",""time""
""blur"",""2"",""21927""
""blur"",""19"",""243075""
","""event"",""trial"",""time""
""focus"",""2"",""27878""
""focus"",""19"",""248150""
","""event"",""trial"",""time""
""fullscreenenter"",""1"",""18803""
","
","","","","","","753.4000005722046","images/ball2.png","","","learning","-8","-8","1","1","practice","practice","practice","-1","","",""
"html-keyboard-response","35","328976","0.0-8.0-2.0-0.5","4010","2","13","Male","approach_avoid_spark_v1","""event"",""trial"",""time""
""fullscreenenter"",""1"",""18803""
""blur"",""2"",""21927""
""focus"",""2"",""27878""
""blur"",""19"",""243075""
""focus"",""19"",""248150""
","""event"",""trial"",""time""
""blur"",""2"",""21927""
""blur"",""19"",""243075""
","""event"",""trial"",""time""
""focus"",""2"",""27878""
""focus"",""19"",""248150""
","""event"",""trial"",""time""
""fullscreenenter"",""1"",""18803""
","
","","","","","","null","<div style=""font-size:60px;"">+</div>","null","","fixation","","","","","","","","","","",""
"aa-learning-trial","36","331983","0.0-8.0-2.0-1.5","4010","2","13","Male","approach_avoid_spark_v1","""event"",""trial"",""time""
""fullscreenenter"",""1"",""18803""
""blur"",""2"",""21927""
""focus"",""2"",""27878""
""blur"",""19"",""243075""
""focus"",""19"",""248150""
","""event"",""trial"",""time""
""blur"",""2"",""21927""
""blur"",""19"",""243075""
","""event"",""trial"",""time""
""focus"",""2"",""27878""
""focus"",""19"",""248150""
","""event"",""trial"",""time""
""fullscreenenter"",""1"",""18803""
","
","","","","","","963.9000005722046","images/ball1.png","","","learning","-8","-8","1","1","practice","practice","practice","-1","","",""
"html-keyboard-response","37","332491","0.0-8.0-2.0-0.6","4010","2","13","Male","approach_avoid_spark_v1","""event"",""trial"",""time""
""fullscreenenter"",""1"",""18803""
""blur"",""2"",""21927""
""focus"",""2"",""27878""
""blur"",""19"",""243075""
""focus"",""19"",""248150""
","""event"",""trial"",""time""
""blur"",""2"",""21927""
""blur"",""19"",""243075""
","""event"",""trial"",""time""
""focus"",""2"",""27878""
""focus"",""19"",""248150""
","""event"",""trial"",""time""
""fullscreenenter"",""1"",""18803""
","
","","","","","","null","<div style=""font-size:60px;"">+</div>","null","","fixation","","","","","","","","","","",""
"aa-learning-trial","38","335502","0.0-8.0-2.0-1.6","4010","2","13","Male","approach_avoid_spark_v1","""event"",""trial"",""time""
""fullscreenenter"",""1"",""18803""
""blur"",""2"",""21927""
""focus"",""2"",""27878""
""blur"",""19"",""243075""
""focus"",""19"",""248150""
","""event"",""trial"",""time""
""blur"",""2"",""21927""
""blur"",""19"",""243075""
","""event"",""trial"",""time""
""focus"",""2"",""27878""
""focus"",""19"",""248150""
","""event"",""trial"",""time""
""fullscreenenter"",""1"",""18803""
","
","","","","","","1024","images/ball1.png","","","learning","-8","-5","audiovolumeup","","practice","practice","practice","-1","","",""
"html-keyboard-response","39","336021","0.0-8.0-2.0-0.7","4010","2","13","Male","approach_avoid_spark_v1","""event"",""trial"",""time""
""fullscreenenter"",""1"",""18803""
""blur"",""2"",""21927""
""focus"",""2"",""27878""
""blur"",""19"",""243075""
""focus"",""19"",""248150""
","""event"",""trial"",""time""
""blur"",""2"",""21927""
""blur"",""19"",""243075""
","""event"",""trial"",""time""
""focus"",""2"",""27878""
""focus"",""19"",""248150""
","""event"",""trial"",""time""
""fullscreenenter"",""1"",""18803""
","
","","","","","","null","<div style=""font-size:60px;"">+</div>","null","","fixation","","","","","","","","","","",""
"aa-learning-trial","40","339032","0.0-8.0-2.0-1.7","4010","2","13","Male","approach_avoid_spark_v1","""event"",""trial"",""time""
""fullscreenenter"",""1"",""18803""
""blur"",""2"",""21927""
""focus"",""2"",""27878""
""blur"",""19"",""243075""
""focus"",""19"",""248150""
","""event"",""trial"",""time""
""blur"",""2"",""21927""
""blur"",""19"",""243075""
","""event"",""trial"",""time""
""focus"",""2"",""27878""
""focus"",""19"",""248150""
","""event"",""trial"",""time""
""fullscreenenter"",""1"",""18803""
","
","","","","","","null","images/racket3.png","","","learning","7","-5","","null","practice","practice","practice","-1","","",""
"html-keyboard-response","41","339551","0.0-8.0-2.0-0.8","4010","2","13","Male","approach_avoid_spark_v1","""event"",""trial"",""time""
""fullscreenenter"",""1"",""18803""
""blur"",""2"",""21927""
""focus"",""2"",""27878""
""blur"",""19"",""243075""
""focus"",""19"",""248150""
","""event"",""trial"",""time""
""blur"",""2"",""21927""
""blur"",""19"",""243075""
","""event"",""trial"",""time""
""focus"",""2"",""27878""
""focus"",""19"",""248150""
","""event"",""trial"",""time""
""fullscreenenter"",""1"",""18803""
","
","","","","","","null","<div style=""font-size:60px;"">+</div>","null","","fixation","","","","","","","","","","",""
"aa-learning-trial","42","342561","0.0-8.0-2.0-1.8","4010","2","13","Male","approach_avoid_spark_v1","""event"",""trial"",""time""
""fullscreenenter"",""1"",""18803""
""blur"",""2"",""21927""
""focus"",""2"",""27878""
""blur"",""19"",""243075""
""focus"",""19"",""248150""
","""event"",""trial"",""time""
""blur"",""2"",""21927""
""blur"",""19"",""243075""
","""event"",""trial"",""time""
""focus"",""2"",""27878""
""focus"",""19"",""248150""
","""event"",""trial"",""time""
""fullscreenenter"",""1"",""18803""
","
","","","","","","2331.300000190735","images/racket3.png","","","learning","1","-5"," ","","practice","practice","practice","-1","","",""
"html-keyboard-response","43","343075","0.0-8.0-2.0-0.9","4010","2","13","Male","approach_avoid_spark_v1","""event"",""trial"",""time""
""fullscreenenter"",""1"",""18803""
""blur"",""2"",""21927""
""focus"",""2"",""27878""
""blur"",""19"",""243075""
""focus"",""19"",""248150""
","""event"",""trial"",""time""
""blur"",""2"",""21927""
""blur"",""19"",""243075""
","""event"",""trial"",""time""
""focus"",""2"",""27878""
""focus"",""19"",""248150""
","""event"",""trial"",""time""
""fullscreenenter"",""1"",""18803""
","
","","","","","","null","<div style=""font-size:60px;"">+</div>","null","","fixation","","","","","","","","","","",""
"aa-learning-trial","44","346083","0.0-8.0-2.0-1.9","4010","2","13","Male","approach_avoid_spark_v1","""event"",""trial"",""time""
""fullscreenenter"",""1"",""18803""
""blur"",""2"",""21927""
""focus"",""2"",""27878""
""blur"",""19"",""243075""
""focus"",""19"",""248150""
","""event"",""trial"",""time""
""blur"",""2"",""21927""
""blur"",""19"",""243075""
","""event"",""trial"",""time""
""focus"",""2"",""27878""
""focus"",""19"",""248150""
","""event"",""trial"",""time""
""fullscreenenter"",""1"",""18803""
","
","","","","","","2729.199999809265","images/racket4.png","","","learning","-5","-5","1","1","practice","practice","practice","-1","","",""
"html-keyboard-response","45","346669","0.0-8.0-2.0-0.10","4010","2","13","Male","approach_avoid_spark_v1","""event"",""trial"",""time""
""fullscreenenter"",""1"",""18803""
""blur"",""2"",""21927""
""focus"",""2"",""27878""
""blur"",""19"",""243075""
""focus"",""19"",""248150""
","""event"",""trial"",""time""
""blur"",""2"",""21927""
""blur"",""19"",""243075""
","""event"",""trial"",""time""
""focus"",""2"",""27878""
""focus"",""19"",""248150""
","""event"",""trial"",""time""
""fullscreenenter"",""1"",""18803""
","
","","","","","","null","<div style=""font-size:60px;"">+</div>","null","","fixation","","","","","","","","","","",""
"aa-learning-trial","46","349674","0.0-8.0-2.0-1.10","4010","2","13","Male","approach_avoid_spark_v1","""event"",""trial"",""time""
""fullscreenenter"",""1"",""18803""
""blur"",""2"",""21927""
""focus"",""2"",""27878""
""blur"",""19"",""243075""
""focus"",""19"",""248150""
","""event"",""trial"",""time""
""blur"",""2"",""21927""
""blur"",""19"",""243075""
","""event"",""trial"",""time""
""focus"",""2"",""27878""
""focus"",""19"",""248150""
","""event"",""trial"",""time""
""fullscreenenter"",""1"",""18803""
","
","","","","","","null","images/racket3.png","","","learning","4","-5","","null","practice","practice","practice","-1","","",""
"html-keyboard-response","47","350179","0.0-8.0-2.0-0.11","4010","2","13","Male","approach_avoid_spark_v1","""event"",""trial"",""time""
""fullscreenenter"",""1"",""18803""
""blur"",""2"",""21927""
""focus"",""2"",""27878""
""blur"",""19"",""243075""
""focus"",""19"",""248150""
","""event"",""trial"",""time""
""blur"",""2"",""21927""
""blur"",""19"",""243075""
","""event"",""trial"",""time""
""focus"",""2"",""27878""
""focus"",""19"",""248150""
","""event"",""trial"",""time""
""fullscreenenter"",""1"",""18803""
","
","","","","","","null","<div style=""font-size:60px;"">+</div>","null","","fixation","","","","","","","","","","",""
"aa-learning-trial","48","353191","0.0-8.0-2.0-1.11","4010","2","13","Male","approach_avoid_spark_v1","""event"",""trial"",""time""
""fullscreenenter"",""1"",""18803""
""blur"",""2"",""21927""
""focus"",""2"",""27878""
""blur"",""19"",""243075""
""focus"",""19"",""248150""
","""event"",""trial"",""time""
""blur"",""2"",""21927""
""blur"",""19"",""243075""
","""event"",""trial"",""time""
""focus"",""2"",""27878""
""focus"",""19"",""248150""
","""event"",""trial"",""time""
""fullscreenenter"",""1"",""18803""
","
","","","","","","468.69999980926514","images/ball2.png","","","learning","-7","-7","1","1","practice","practice","practice","-1","","",""
"html-button-response","49","355643","0.0-8.0-3.0","4010","2","13","Male","approach_avoid_spark_v1","""event"",""trial"",""time""
""fullscreenenter"",""1"",""18803""
""blur"",""2"",""21927""
""focus"",""2"",""27878""
""blur"",""19"",""243075""
""focus"",""19"",""248150""
","""event"",""trial"",""time""
""blur"",""2"",""21927""
""blur"",""19"",""243075""
","""event"",""trial"",""time""
""focus"",""2"",""27878""
""focus"",""19"",""248150""
","""event"",""trial"",""time""
""fullscreenenter"",""1"",""18803""
","
","","","","","","2445.7999992370605","<p> You earned -46 points in the practice round! </p>","0","","break","","","","","","","","","","",""
"learning-instructions","50","364164","0.0-8.0-4.0-0.0","4010","2","13","Male","approach_avoid_spark_v1","""event"",""trial"",""time""
""fullscreenenter"",""1"",""18803""
""blur"",""2"",""21927""
""focus"",""2"",""27878""
""blur"",""19"",""243075""
""focus"",""19"",""248150""
","""event"",""trial"",""time""
""blur"",""2"",""21927""
""blur"",""19"",""243075""
","""event"",""trial"",""time""
""focus"",""2"",""27878""
""focus"",""19"",""248150""
","""event"",""trial"",""time""
""fullscreenenter"",""1"",""18803""
","
","","","","","","1611.5999994277954","<p> It's almost time to start the real game. </p><p> Before you start, we're going to ask you a few questions about how the game works. </p>","","0","instructions","","","","","","","","","","",""
"preload","51","370579","0.0-8.0-5.0","4010","2","13","Male","approach_avoid_spark_v1","""event"",""trial"",""time""
""fullscreenenter"",""1"",""18803""
""blur"",""2"",""21927""
""focus"",""2"",""27878""
""blur"",""19"",""243075""
""focus"",""19"",""248150""
","""event"",""trial"",""time""
""blur"",""2"",""21927""
""blur"",""19"",""243075""
","""event"",""trial"",""time""
""focus"",""2"",""27878""
""focus"",""19"",""248150""
","""event"",""trial"",""time""
""fullscreenenter"",""1"",""18803""
","
","true","false","[]","[]","[]","","","","","","","","","","","","","","","",""
"comp-q","52","377090","0.0-8.0-6.0-0.0","4010","2","13","Male","approach_avoid_spark_v1","""event"",""trial"",""time""
""fullscreenenter"",""1"",""18803""
""blur"",""2"",""21927""
""focus"",""2"",""27878""
""blur"",""19"",""243075""
""focus"",""19"",""248150""
","""event"",""trial"",""time""
""blur"",""2"",""21927""
""blur"",""19"",""243075""
","""event"",""trial"",""time""
""focus"",""2"",""27878""
""focus"",""19"",""248150""
","""event"",""trial"",""time""
""fullscreenenter"",""1"",""18803""
","
","","","","","","1504.1999998092651","<p> <b> True or False? </b> </p><p> If you see a number in GREY, that means you earned that many points. </p>","","0","comp_question","","","","","","","","","false","",""
"comp-q","53","388136","0.0-8.0-6.0-1.0","4010","2","13","Male","approach_avoid_spark_v1","""event"",""trial"",""time""
""fullscreenenter"",""1"",""18803""
""blur"",""2"",""21927""
""focus"",""2"",""27878""
""blur"",""19"",""243075""
""focus"",""19"",""248150""
","""event"",""trial"",""time""
""blur"",""2"",""21927""
""blur"",""19"",""243075""
","""event"",""trial"",""time""
""focus"",""2"",""27878""
""focus"",""19"",""248150""
","""event"",""trial"",""time""
""fullscreenenter"",""1"",""18803""
","
","","","","","","2244.5","<p><b> Incorrect. </b> If you see a grey number, it means you earned ZERO points. <br> The grey numbers show the points you WOULD HAVE earned if you had made the other choice. </p>","","0","comp_answer","","","","","","","","","","",""
"comp-q","54","399050","0.0-8.0-6.1-0.1","4010","2","13","Male","approach_avoid_spark_v1","""event"",""trial"",""time""
""fullscreenenter"",""1"",""18803""
""blur"",""2"",""21927""
""focus"",""2"",""27878""
""blur"",""19"",""243075""
""focus"",""19"",""248150""
","""event"",""trial"",""time""
""blur"",""2"",""21927""
""blur"",""19"",""243075""
","""event"",""trial"",""time""
""focus"",""2"",""27878""
""focus"",""19"",""248150""
","""event"",""trial"",""time""
""fullscreenenter"",""1"",""18803""
","
","","","","","","5782.199999809265","<p> <b> True or False? </b> </p><p> If you see a number in GREY, that means you earned that many points. </p>","","1","comp_question","","","","","","","","","true","",""
"comp-q","55","413996","0.0-8.0-6.1-1.1","4010","2","13","Male","approach_avoid_spark_v1","""event"",""trial"",""time""
""fullscreenenter"",""1"",""18803""
""blur"",""2"",""21927""
""focus"",""2"",""27878""
""blur"",""19"",""243075""
""focus"",""19"",""248150""
","""event"",""trial"",""time""
""blur"",""2"",""21927""
""blur"",""19"",""243075""
","""event"",""trial"",""time""
""focus"",""2"",""27878""
""focus"",""19"",""248150""
","""event"",""trial"",""time""
""fullscreenenter"",""1"",""18803""
","
","","","","","","6573","<p><b> That's right! </b> If you see a grey number, it means you earned ZERO points. <br> The grey numbers show the points you WOULD HAVE earned if you had made the other choice. </p>","","0","comp_answer","","","","","","","","","","",""
"comp-q","56","421587","0.0-8.0-7.0-0.0","4010","2","13","Male","approach_avoid_spark_v1","""event"",""trial"",""time""
""fullscreenenter"",""1"",""18803""
""blur"",""2"",""21927""
""focus"",""2"",""27878""
""blur"",""19"",""243075""
""focus"",""19"",""248150""
","""event"",""trial"",""time""
""blur"",""2"",""21927""
""blur"",""19"",""243075""
","""event"",""trial"",""time""
""focus"",""2"",""27878""
""focus"",""19"",""248150""
","""event"",""trial"",""time""
""fullscreenenter"",""1"",""18803""
","
","","","","","","2893.5","<p> <b> True or False? </b> </p><p> You will have as much time as you want to make each choice. </p>","","1","comp_question","","","","","","","","","true","",""
"comp-q","57","426760","0.0-8.0-7.0-1.0","4010","2","13","Male","approach_avoid_spark_v1","""event"",""trial"",""time""
""fullscreenenter"",""1"",""18803""
""blur"",""2"",""21927""
""focus"",""2"",""27878""
""blur"",""19"",""243075""
""focus"",""19"",""248150""
","""event"",""trial"",""time""
""blur"",""2"",""21927""
""blur"",""19"",""243075""
","""event"",""trial"",""time""
""focus"",""2"",""27878""
""focus"",""19"",""248150""
","""event"",""trial"",""time""
""fullscreenenter"",""1"",""18803""
","
","","","","","","1115","<p> <b> That's right! </b> You will only have 3 seconds to make each choice. </p>","","0","comp_answer","","","","","","","","","","",""
"comp-q","58","433531","0.0-8.0-8.0-0.0","4010","2","13","Male","approach_avoid_spark_v1","""event"",""trial"",""time""
""fullscreenenter"",""1"",""18803""
""blur"",""2"",""21927""
""focus"",""2"",""27878""
""blur"",""19"",""243075""
""focus"",""19"",""248150""
","""event"",""trial"",""time""
""blur"",""2"",""21927""
""blur"",""19"",""243075""
","""event"",""trial"",""time""
""focus"",""2"",""27878""
""focus"",""19"",""248150""
","""event"",""trial"",""time""
""fullscreenenter"",""1"",""18803""
","
","","","","","","2106.199999809265","<p> <b> True or False? </b> </p><p> You should use the '1' and '0' keys to make your choices. </p>","","0","comp_question","","","","","","","","","true","",""
"comp-q","59","442644","0.0-8.0-8.0-1.0","4010","2","13","Male","approach_avoid_spark_v1","""event"",""trial"",""time""
""fullscreenenter"",""1"",""18803""
""blur"",""2"",""21927""
""focus"",""2"",""27878""
""blur"",""19"",""243075""
""focus"",""19"",""248150""
","""event"",""trial"",""time""
""blur"",""2"",""21927""
""blur"",""19"",""243075""
","""event"",""trial"",""time""
""focus"",""2"",""27878""
""focus"",""19"",""248150""
","""event"",""trial"",""time""
""fullscreenenter"",""1"",""18803""
","
","","","","","","4490.299999237061","<p> <b> That's right! </b> You should use the '1' and '0' keys to make each choice. </p>","","0","comp_answer","","","","","","","","","","",""
"learning-instructions","60","450814","0.0-8.0-9.0-0.0","4010","2","13","Male","approach_avoid_spark_v1","""event"",""trial"",""time""
""fullscreenenter"",""1"",""18803""
""blur"",""2"",""21927""
""focus"",""2"",""27878""
""blur"",""19"",""243075""
""focus"",""19"",""248150""
","""event"",""trial"",""time""
""blur"",""2"",""21927""
""blur"",""19"",""243075""
","""event"",""trial"",""time""
""focus"",""2"",""27878""
""focus"",""19"",""248150""
","""event"",""trial"",""time""
""fullscreenenter"",""1"",""18803""
","
","","","","","","1879.6000003814697","<p> It's now time to start the real game. </p>Do your best, because the points you earn in the next rounds will influence your bonus payment. </p>","","0","instructions","","","","","","","","","","",""
"preload","61","450973","0.0-9.0-0.0","4010","2","13","Male","approach_avoid_spark_v1","""event"",""trial"",""time""
""fullscreenenter"",""1"",""18803""
""blur"",""2"",""21927""
""focus"",""2"",""27878""
""blur"",""19"",""243075""
""focus"",""19"",""248150""
","""event"",""trial"",""time""
""blur"",""2"",""21927""
""blur"",""19"",""243075""
","""event"",""trial"",""time""
""focus"",""2"",""27878""
""focus"",""19"",""248150""
","""event"",""trial"",""time""
""fullscreenenter"",""1"",""18803""
","
","true","false","[]","[]","[]","","","","","","","","","","","","","","","",""
"learning-instructions","62","459347","0.0-9.0-1.0-0.0","4010","2","13","Male","approach_avoid_spark_v1","""event"",""trial"",""time""
""fullscreenenter"",""1"",""18803""
""blur"",""2"",""21927""
""focus"",""2"",""27878""
""blur"",""19"",""243075""
""focus"",""19"",""248150""
","""event"",""trial"",""time""
""blur"",""2"",""21927""
""blur"",""19"",""243075""
","""event"",""trial"",""time""
""focus"",""2"",""27878""
""focus"",""19"",""248150""
","""event"",""trial"",""time""
""fullscreenenter"",""1"",""18803""
","
","","","","","","763.3000001907349","<p> Your goal in this round is to take care of lots of animals. </p></div>","","0","instructions","","","","","","","","","","",""
"learning-instructions","63","476624","0.0-9.0-1.0-0.1","4010","2","13","Male","approach_avoid_spark_v1","""event"",""trial"",""time""
""fullscreenenter"",""1"",""18803""
""blur"",""2"",""21927""
""focus"",""2"",""27878""
""blur"",""19"",""243075""
""focus"",""19"",""248150""
","""event"",""trial"",""time""
""blur"",""2"",""21927""
""blur"",""19"",""243075""
","""event"",""trial"",""time""
""focus"",""2"",""27878""
""focus"",""19"",""248150""
","""event"",""trial"",""time""
""fullscreenenter"",""1"",""18803""
","
","","","","","","830.6999998092651","<p> Some animals want to be pet, while other animals want to be left alone.  </p><p> On each turn, you will see an animal.   </p><p> You need to decide whether to pet it or not.  </p>","","0","instructions","","","","","","","","","","",""
"learning-instructions","64","488156","0.0-9.0-1.0-0.2","4010","2","13","Male","approach_avoid_spark_v1","""event"",""trial"",""time""
""fullscreenenter"",""1"",""18803""
""blur"",""2"",""21927""
""focus"",""2"",""27878""
""blur"",""19"",""243075""
""focus"",""19"",""248150""
","""event"",""trial"",""time""
""blur"",""2"",""21927""
""blur"",""19"",""243075""
","""event"",""trial"",""time""
""focus"",""2"",""27878""
""focus"",""19"",""248150""
","""event"",""trial"",""time""
""fullscreenenter"",""1"",""18803""
","
","","","","","","1773.8000001907349","<p> You can pet the animal by pressing 1 and leave the animal alone by pressing 0. </p><br><div class=""choice-instructions-grid""> <div class=""choice-option""><img src=""images/approach.png"" class=""choice-option-img"" stage=""instructions"" position=""0"" ><div class=""choice-option-text""> Press ""1."" </div></div><div class=""choice-option""><img src=""images/avoid.png"" class=""choice-option-img"" stage=""instructions"" position=""1"" ><div class=""choice-option-text""> Press ""0."" </div></div>","","0","instructions","","","","","","","","","","",""
"learning-instructions","65","504829","0.0-9.0-1.0-0.3","4010","2","13","Male","approach_avoid_spark_v1","""event"",""trial"",""time""
""fullscreenenter"",""1"",""18803""
""blur"",""2"",""21927""
""focus"",""2"",""27878""
""blur"",""19"",""243075""
""focus"",""19"",""248150""
","""event"",""trial"",""time""
""blur"",""2"",""21927""
""blur"",""19"",""243075""
","""event"",""trial"",""time""
""focus"",""2"",""27878""
""focus"",""19"",""248150""
","""event"",""trial"",""time""
""fullscreenenter"",""1"",""18803""
","
","","","","","","2474.300000190735","<p> If you pet an animal that wants to be pet, you will make it feel happy! </p><p> But if you pet an animal that wants to be left alone, you will make it feel angry. </p>","","0","instructions","","","","","","","","","","",""
"learning-instructions","66","523630","0.0-9.0-1.0-0.4","4010","2","13","Male","approach_avoid_spark_v1","""event"",""trial"",""time""
""fullscreenenter"",""1"",""18803""
""blur"",""2"",""21927""
""focus"",""2"",""27878""
""blur"",""19"",""243075""
""focus"",""19"",""248150""
","""event"",""trial"",""time""
""blur"",""2"",""21927""
""blur"",""19"",""243075""
","""event"",""trial"",""time""
""focus"",""2"",""27878""
""focus"",""19"",""248150""
","""event"",""trial"",""time""
""fullscreenenter"",""1"",""18803""
","
","","","","","","765.3999996185303","<p> You will earn points based on how you made the animal feel. </p><p> If you made it feel happy, you will WIN anywhere from 1 - 9 points, </p><p> but if you made it feel angry, you will LOSE anywhere from 1 - 9 points. </p>","","0","instructions","","","","","","","","","","",""
"learning-instructions","67","536592","0.0-9.0-1.0-0.5","4010","2","13","Male","approach_avoid_spark_v1","""event"",""trial"",""time""
""fullscreenenter"",""1"",""18803""
""blur"",""2"",""21927""
""focus"",""2"",""27878""
""blur"",""19"",""243075""
""focus"",""19"",""248150""
","""event"",""trial"",""time""
""blur"",""2"",""21927""
""blur"",""19"",""243075""
","""event"",""trial"",""time""
""focus"",""2"",""27878""
""focus"",""19"",""248150""
","""event"",""trial"",""time""
""fullscreenenter"",""1"",""18803""
","
","","","","","","1380.9000005722046","<p> You will see how many points you won or lost in the center of the screen. </p><p> Here is what you would see if you won 5 points: </p><p style=""color:green;font-size:50px;font-weight:bolder"">5</p>","","0","instructions","","","","","","","","","","",""
"learning-instructions","68","544987","0.0-9.0-1.0-0.6","4010","2","13","Male","approach_avoid_spark_v1","""event"",""trial"",""time""
""fullscreenenter"",""1"",""18803""
""blur"",""2"",""21927""
""focus"",""2"",""27878""
""blur"",""19"",""243075""
""focus"",""19"",""248150""
","""event"",""trial"",""time""
""blur"",""2"",""21927""
""blur"",""19"",""243075""
","""event"",""trial"",""time""
""focus"",""2"",""27878""
""focus"",""19"",""248150""
","""event"",""trial"",""time""
""fullscreenenter"",""1"",""18803""
","
","","","","","","1963.1999998092651","<p> And here is what you would see if you lost 3 points: </p><p style=""color:red;font-size:50px;font-weight:bolder"">-3</p>","","0","instructions","","","","","","","","","","",""
"learning-instructions","69","568229","0.0-9.0-1.0-0.7","4010","2","13","Male","approach_avoid_spark_v1","""event"",""trial"",""time""
""fullscreenenter"",""1"",""18803""
""blur"",""2"",""21927""
""focus"",""2"",""27878""
""blur"",""19"",""243075""
""focus"",""19"",""248150""
","""event"",""trial"",""time""
""blur"",""2"",""21927""
""blur"",""19"",""243075""
","""event"",""trial"",""time""
""focus"",""2"",""27878""
""focus"",""19"",""248150""
","""event"",""trial"",""time""
""fullscreenenter"",""1"",""18803""
","
","","","","","","3004","<p> Some animals will become very happy or very angry. </p><p> These animals will make you win or lose LOTS of points. </p><p> Other animals have less strong feelings. </p><p> These animals will make you win or lose small amounts of points. </p>","","0","instructions","","","","","","","","","","",""
"learning-instructions","70","587650","0.0-9.0-1.0-0.8","4010","2","13","Male","approach_avoid_spark_v1","""event"",""trial"",""time""
""fullscreenenter"",""1"",""18803""
""blur"",""2"",""21927""
""focus"",""2"",""27878""
""blur"",""19"",""243075""
""focus"",""19"",""248150""
","""event"",""trial"",""time""
""blur"",""2"",""21927""
""blur"",""19"",""243075""
","""event"",""trial"",""time""
""focus"",""2"",""27878""
""focus"",""19"",""248150""
","""event"",""trial"",""time""
""fullscreenenter"",""1"",""18803""
","
","","","","","","1289.0999994277954","<p> If you choose to leave the animal alone, you will not win or lose any points. </p><p>  However, in the center of the screen, you will see the number of points you WOULD HAVE won or lost if you had pet the animal. </p>","","0","instructions","","","","","","","","","","",""
"learning-instructions","71","652658","0.0-9.0-1.0-0.9","4010","2","13","Male","approach_avoid_spark_v1","""event"",""trial"",""time""
""fullscreenenter"",""1"",""18803""
""blur"",""2"",""21927""
""focus"",""2"",""27878""
""blur"",""19"",""243075""
""focus"",""19"",""248150""
","""event"",""trial"",""time""
""blur"",""2"",""21927""
""blur"",""19"",""243075""
","""event"",""trial"",""time""
""focus"",""2"",""27878""
""focus"",""19"",""248150""
","""event"",""trial"",""time""
""fullscreenenter"",""1"",""18803""
","
","","","","","","49916.699999809265","<p> Here is what you might see if you did not pet the animal but the animal wanted to be pet: </p><p style=""color:grey; font-size:50px; display: inline-block; border-spacing: 15px; border-width:3px; border-style:solid; border-color:red"">  &nbsp; 6 &nbsp; </p><p> Remember, in this case, you would not win or lose ANY points because you did not pet the animal.  </p>","","0","instructions","","","","","","","","","","",""
"learning-instructions","72","668375","0.0-9.0-1.0-0.10","4010","2","13","Male","approach_avoid_spark_v1","""event"",""trial"",""time""
""fullscreenenter"",""1"",""18803""
""blur"",""2"",""21927""
""focus"",""2"",""27878""
""blur"",""19"",""243075""
""focus"",""19"",""248150""
","""event"",""trial"",""time""
""blur"",""2"",""21927""
""blur"",""19"",""243075""
","""event"",""trial"",""time""
""focus"",""2"",""27878""
""focus"",""19"",""248150""
","""event"",""trial"",""time""
""fullscreenenter"",""1"",""18803""
","
","","","","","","3856.300000190735","<p> Try to make the best choice for each animal because </p><p> at the end of the game, you will earn bonus money based on how many points you earned. </p>","","0","instructions","","","","","","","","","","",""
"learning-instructions","73","677263","0.0-9.0-1.0-0.11","4010","2","13","Male","approach_avoid_spark_v1","""event"",""trial"",""time""
""fullscreenenter"",""1"",""18803""
""blur"",""2"",""21927""
""focus"",""2"",""27878""
""blur"",""19"",""243075""
""focus"",""19"",""248150""
","""event"",""trial"",""time""
""blur"",""2"",""21927""
""blur"",""19"",""243075""
","""event"",""trial"",""time""
""focus"",""2"",""27878""
""focus"",""19"",""248150""
","""event"",""trial"",""time""
""fullscreenenter"",""1"",""18803""
","
","","","","","","675.6999998092651","<p> You will have 3 seconds to make each choice. Try to respond before time runs out! </p><p> You will lose 5 points each time you do not make a response. </p>","","0","instructions","","","","","","","","","","",""
"html-keyboard-response","74","677893","0.0-9.0-2.0-0.0","4010","2","13","Male","approach_avoid_spark_v1","""event"",""trial"",""time""
""fullscreenenter"",""1"",""18803""
""blur"",""2"",""21927""
""focus"",""2"",""27878""
""blur"",""19"",""243075""
""focus"",""19"",""248150""
","""event"",""trial"",""time""
""blur"",""2"",""21927""
""blur"",""19"",""243075""
","""event"",""trial"",""time""
""focus"",""2"",""27878""
""focus"",""19"",""248150""
","""event"",""trial"",""time""
""fullscreenenter"",""1"",""18803""
","
","","","","","","null","<div style=""font-size:60px;"">+</div>","null","","fixation","","","","","","","","","","",""
"aa-learning-trial","75","680906","0.0-9.0-2.0-1.0","4010","2","13","Male","approach_avoid_spark_v1","""event"",""trial"",""time""
""fullscreenenter"",""1"",""18803""
""blur"",""2"",""21927""
""focus"",""2"",""27878""
""blur"",""19"",""243075""
""focus"",""19"",""248150""
","""event"",""trial"",""time""
""blur"",""2"",""21927""
""blur"",""19"",""243075""
","""event"",""trial"",""time""
""focus"",""2"",""27878""
""focus"",""19"",""248150""
","""event"",""trial"",""time""
""fullscreenenter"",""1"",""18803""
","
","","","","","","1813.3000001907349","images/rodent2.png","","","learning","5","5","1","1","rodent","pets","2","0","","bad","[-4]"
"html-keyboard-response","76","681425","0.0-9.0-2.0-0.1","4010","2","13","Male","approach_avoid_spark_v1","""event"",""trial"",""time""
""fullscreenenter"",""1"",""18803""
""blur"",""2"",""21927""
""focus"",""2"",""27878""
""blur"",""19"",""243075""
""focus"",""19"",""248150""
","""event"",""trial"",""time""
""blur"",""2"",""21927""
""blur"",""19"",""243075""
","""event"",""trial"",""time""
""focus"",""2"",""27878""
""focus"",""19"",""248150""
","""event"",""trial"",""time""
""fullscreenenter"",""1"",""18803""
","
","","","","","","null","<div style=""font-size:60px;"">+</div>","null","","fixation","","","","","","","","","","",""
"aa-learning-trial","77","684445","0.0-9.0-2.0-1.1","4010","2","13","Male","approach_avoid_spark_v1","""event"",""trial"",""time""
""fullscreenenter"",""1"",""18803""
""blur"",""2"",""21927""
""focus"",""2"",""27878""
""blur"",""19"",""243075""
""focus"",""19"",""248150""
","""event"",""trial"",""time""
""blur"",""2"",""21927""
""blur"",""19"",""243075""
","""event"",""trial"",""time""
""focus"",""2"",""27878""
""focus"",""19"",""248150""
","""event"",""trial"",""time""
""fullscreenenter"",""1"",""18803""
","
","","","","","","1489.5","images/rodent1.png","","","learning","-7","-7","1","1","rodent","pets","2","0","","bad","[-4]"
"html-keyboard-response","78","684953","0.0-9.0-2.0-0.2","4010","2","13","Male","approach_avoid_spark_v1","""event"",""trial"",""time""
""fullscreenenter"",""1"",""18803""
""blur"",""2"",""21927""
""focus"",""2"",""27878""
""blur"",""19"",""243075""
""focus"",""19"",""248150""
","""event"",""trial"",""time""
""blur"",""2"",""21927""
""blur"",""19"",""243075""
","""event"",""trial"",""time""
""focus"",""2"",""27878""
""focus"",""19"",""248150""
","""event"",""trial"",""time""
""fullscreenenter"",""1"",""18803""
","
","","","","","","null","<div style=""font-size:60px;"">+</div>","null","","fixation","","","","","","","","","","",""
"aa-learning-trial","79","687965","0.0-9.0-2.0-1.2","4010","2","13","Male","approach_avoid_spark_v1","""event"",""trial"",""time""
""fullscreenenter"",""1"",""18803""
""blur"",""2"",""21927""
""focus"",""2"",""27878""
""blur"",""19"",""243075""
""focus"",""19"",""248150""
","""event"",""trial"",""time""
""blur"",""2"",""21927""
""blur"",""19"",""243075""
","""event"",""trial"",""time""
""focus"",""2"",""27878""
""focus"",""19"",""248150""
","""event"",""trial"",""time""
""fullscreenenter"",""1"",""18803""
","
","","","","","","881","images/rabbit5.png","","","learning","3","3","1","1","rabbit","pets","2","0","","good","[5]"
"html-keyboard-response","80","688485","0.0-9.0-2.0-0.3","4010","2","13","Male","approach_avoid_spark_v1","""event"",""trial"",""time""
""fullscreenenter"",""1"",""18803""
""blur"",""2"",""21927""
""focus"",""2"",""27878""
""blur"",""19"",""243075""
""focus"",""19"",""248150""
","""event"",""trial"",""time""
""blur"",""2"",""21927""
""blur"",""19"",""243075""
","""event"",""trial"",""time""
""focus"",""2"",""27878""
""focus"",""19"",""248150""
","""event"",""trial"",""time""
""fullscreenenter"",""1"",""18803""
","
","","","","","","null","<div style=""font-size:60px;"">+</div>","null","","fixation","","","","","","","","","","",""
"aa-learning-trial","81","691505","0.0-9.0-2.0-1.3","4010","2","13","Male","approach_avoid_spark_v1","""event"",""trial"",""time""
""fullscreenenter"",""1"",""18803""
""blur"",""2"",""21927""
""focus"",""2"",""27878""
""blur"",""19"",""243075""
""focus"",""19"",""248150""
","""event"",""trial"",""time""
""blur"",""2"",""21927""
""blur"",""19"",""243075""
","""event"",""trial"",""time""
""focus"",""2"",""27878""
""focus"",""19"",""248150""
","""event"",""trial"",""time""
""fullscreenenter"",""1"",""18803""
","
","","","","","","1199","images/cat7.png","","","learning","4","4","1","1","cat","pets","2","0","","neutral","0"
"html-keyboard-response","82","692023","0.0-9.0-2.0-0.4","4010","2","13","Male","approach_avoid_spark_v1","""event"",""trial"",""time""
""fullscreenenter"",""1"",""18803""
""blur"",""2"",""21927""
""focus"",""2"",""27878""
""blur"",""19"",""243075""
""focus"",""19"",""248150""
","""event"",""trial"",""time""
""blur"",""2"",""21927""
""blur"",""19"",""243075""
","""event"",""trial"",""time""
""focus"",""2"",""27878""
""focus"",""19"",""248150""
","""event"",""trial"",""time""
""fullscreenenter"",""1"",""18803""
","
","","","","","","null","<div style=""font-size:60px;"">+</div>","null","","fixation","","","","","","","","","","",""
"aa-learning-trial","83","695035","0.0-9.0-2.0-1.4","4010","2","13","Male","approach_avoid_spark_v1","""event"",""trial"",""time""
""fullscreenenter"",""1"",""18803""
""blur"",""2"",""21927""
""focus"",""2"",""27878""
""blur"",""19"",""243075""
""focus"",""19"",""248150""
","""event"",""trial"",""time""
""blur"",""2"",""21927""
""blur"",""19"",""243075""
","""event"",""trial"",""time""
""focus"",""2"",""27878""
""focus"",""19"",""248150""
","""event"",""trial"",""time""
""fullscreenenter"",""1"",""18803""
","
","","","","","","1161.3000001907349","images/cat4.png","","","learning","8","8","1","1","cat","pets","2","0","","neutral","0"
"html-keyboard-response","84","695544","0.0-9.0-2.0-0.5","4010","2","13","Male","approach_avoid_spark_v1","""event"",""trial"",""time""
""fullscreenenter"",""1"",""18803""
""blur"",""2"",""21927""
""focus"",""2"",""27878""
""blur"",""19"",""243075""
""focus"",""19"",""248150""
","""event"",""trial"",""time""
""blur"",""2"",""21927""
""blur"",""19"",""243075""
","""event"",""trial"",""time""
""focus"",""2"",""27878""
""focus"",""19"",""248150""
","""event"",""trial"",""time""
""fullscreenenter"",""1"",""18803""
","
","","","","","","null","<div style=""font-size:60px;"">+</div>","null","","fixation","","","","","","","","","","",""
"aa-learning-trial","85","698569","0.0-9.0-2.0-1.5","4010","2","13","Male","approach_avoid_spark_v1","""event"",""trial"",""time""
""fullscreenenter"",""1"",""18803""
""blur"",""2"",""21927""
""focus"",""2"",""27878""
""blur"",""19"",""243075""
""focus"",""19"",""248150""
","""event"",""trial"",""time""
""blur"",""2"",""21927""
""blur"",""19"",""243075""
","""event"",""trial"",""time""
""focus"",""2"",""27878""
""focus"",""19"",""248150""
","""event"",""trial"",""time""
""fullscreenenter"",""1"",""18803""
","
","","","","","","1308.7999992370605","images/rabbit8.png","","","learning","9","0","0","0","rabbit","pets","2","0","","good","[5]"
"html-keyboard-response","86","699091","0.0-9.0-2.0-0.6","4010","2","13","Male","approach_avoid_spark_v1","""event"",""trial"",""time""
""fullscreenenter"",""1"",""18803""
""blur"",""2"",""21927""
""focus"",""2"",""27878""
""blur"",""19"",""243075""
""focus"",""19"",""248150""
","""event"",""trial"",""time""
""blur"",""2"",""21927""
""blur"",""19"",""243075""
","""event"",""trial"",""time""
""focus"",""2"",""27878""
""focus"",""19"",""248150""
","""event"",""trial"",""time""
""fullscreenenter"",""1"",""18803""
","
","","","","","","null","<div style=""font-size:60px;"">+</div>","null","","fixation","","","","","","","","","","",""
"aa-learning-trial","87","702109","0.0-9.0-2.0-1.6","4010","2","13","Male","approach_avoid_spark_v1","""event"",""trial"",""time""
""fullscreenenter"",""1"",""18803""
""blur"",""2"",""21927""
""focus"",""2"",""27878""
""blur"",""19"",""243075""
""focus"",""19"",""248150""
","""event"",""trial"",""time""
""blur"",""2"",""21927""
""blur"",""19"",""243075""
","""event"",""trial"",""time""
""focus"",""2"",""27878""
""focus"",""19"",""248150""
","""event"",""trial"",""time""
""fullscreenenter"",""1"",""18803""
","
","","","","","","1301.1999998092651","images/rabbit6.png","","","learning","-5","-5","1","1","rabbit","pets","2","0","","good","[5]"
"html-keyboard-response","88","702629","0.0-9.0-2.0-0.7","4010","2","13","Male","approach_avoid_spark_v1","""event"",""trial"",""time""
""fullscreenenter"",""1"",""18803""
""blur"",""2"",""21927""
""focus"",""2"",""27878""
""blur"",""19"",""243075""
""focus"",""19"",""248150""
","""event"",""trial"",""time""
""blur"",""2"",""21927""
""blur"",""19"",""243075""
","""event"",""trial"",""time""
""focus"",""2"",""27878""
""focus"",""19"",""248150""
","""event"",""trial"",""time""
""fullscreenenter"",""1"",""18803""
","
","","","","","","null","<div style=""font-size:60px;"">+</div>","null","","fixation","","","","","","","","","","",""
"aa-learning-trial","89","705655","0.0-9.0-2.0-1.7","4010","2","13","Male","approach_avoid_spark_v1","""event"",""trial"",""time""
""fullscreenenter"",""1"",""18803""
""blur"",""2"",""21927""
""focus"",""2"",""27878""
""blur"",""19"",""243075""
""focus"",""19"",""248150""
","""event"",""trial"",""time""
""blur"",""2"",""21927""
""blur"",""19"",""243075""
","""event"",""trial"",""time""
""focus"",""2"",""27878""
""focus"",""19"",""248150""
","""event"",""trial"",""time""
""fullscreenenter"",""1"",""18803""
","
","","","","","","2037.0999994277954","images/rodent4.png","","","learning","-3","0","0","0","rodent","pets","2","0","","bad","[-4]"
"html-keyboard-response","90","706169","0.0-9.0-2.0-0.8","4010","2","13","Male","approach_avoid_spark_v1","""event"",""trial"",""time""
""fullscreenenter"",""1"",""18803""
""blur"",""2"",""21927""
""focus"",""2"",""27878""
""blur"",""19"",""243075""
""focus"",""19"",""248150""
","""event"",""trial"",""time""
""blur"",""2"",""21927""
""blur"",""19"",""243075""
","""event"",""trial"",""time""
""focus"",""2"",""27878""
""focus"",""19"",""248150""
","""event"",""trial"",""time""
""fullscreenenter"",""1"",""18803""
","
","","","","","","null","<div style=""font-size:60px;"">+</div>","null","","fixation","","","","","","","","","","",""
"aa-learning-trial","91","709178","0.0-9.0-2.0-1.8","4010","2","13","Male","approach_avoid_spark_v1","""event"",""trial"",""time""
""fullscreenenter"",""1"",""18803""
""blur"",""2"",""21927""
""focus"",""2"",""27878""
""blur"",""19"",""243075""
""focus"",""19"",""248150""
","""event"",""trial"",""time""
""blur"",""2"",""21927""
""blur"",""19"",""243075""
","""event"",""trial"",""time""
""focus"",""2"",""27878""
""focus"",""19"",""248150""
","""event"",""trial"",""time""
""fullscreenenter"",""1"",""18803""
","
","","","","","","1786.3999996185303","images/cat4.png","","","learning","8","8","1","1","cat","pets","2","0","","neutral","0"
"html-keyboard-response","92","709684","0.0-9.0-2.0-0.9","4010","2","13","Male","approach_avoid_spark_v1","""event"",""trial"",""time""
""fullscreenenter"",""1"",""18803""
""blur"",""2"",""21927""
""focus"",""2"",""27878""
""blur"",""19"",""243075""
""focus"",""19"",""248150""
","""event"",""trial"",""time""
""blur"",""2"",""21927""
""blur"",""19"",""243075""
","""event"",""trial"",""time""
""focus"",""2"",""27878""
""focus"",""19"",""248150""
","""event"",""trial"",""time""
""fullscreenenter"",""1"",""18803""
","
","","","","","","null","<div style=""font-size:60px;"">+</div>","null","","fixation","","","","","","","","","","",""
"aa-learning-trial","93","712691","0.0-9.0-2.0-1.9","4010","2","13","Male","approach_avoid_spark_v1","""event"",""trial"",""time""
""fullscreenenter"",""1"",""18803""
""blur"",""2"",""21927""
""focus"",""2"",""27878""
""blur"",""19"",""243075""
""focus"",""19"",""248150""
","""event"",""trial"",""time""
""blur"",""2"",""21927""
""blur"",""19"",""243075""
","""event"",""trial"",""time""
""focus"",""2"",""27878""
""focus"",""19"",""248150""
","""event"",""trial"",""time""
""fullscreenenter"",""1"",""18803""
","
","","","","","","742.8000001907349","images/rabbit5.png","","","learning","3","3","1","1","rabbit","pets","2","0","","good","[5]"
"html-keyboard-response","94","713206","0.0-9.0-2.0-0.10","4010","2","13","Male","approach_avoid_spark_v1","""event"",""trial"",""time""
""fullscreenenter"",""1"",""18803""
""blur"",""2"",""21927""
""focus"",""2"",""27878""
""blur"",""19"",""243075""
""focus"",""19"",""248150""
","""event"",""trial"",""time""
""blur"",""2"",""21927""
""blur"",""19"",""243075""
","""event"",""trial"",""time""
""focus"",""2"",""27878""
""focus"",""19"",""248150""
","""event"",""trial"",""time""
""fullscreenenter"",""1"",""18803""
","
","","","","","","null","<div style=""font-size:60px;"">+</div>","null","","fixation","","","","","","","","","","",""
"aa-learning-trial","95","716216","0.0-9.0-2.0-1.10","4010","2","13","Male","approach_avoid_spark_v1","""event"",""trial"",""time""
""fullscreenenter"",""1"",""18803""
""blur"",""2"",""21927""
""focus"",""2"",""27878""
""blur"",""19"",""243075""
""focus"",""19"",""248150""
","""event"",""trial"",""time""
""blur"",""2"",""21927""
""blur"",""19"",""243075""
","""event"",""trial"",""time""
""focus"",""2"",""27878""
""focus"",""19"",""248150""
","""event"",""trial"",""time""
""fullscreenenter"",""1"",""18803""
","
","","","","","","1143.3999996185303","images/cat8.png","","","learning","-4","-4","1","1","cat","pets","2","0","","neutral","0"
"html-keyboard-response","96","716721","0.0-9.0-2.0-0.11","4010","2","13","Male","approach_avoid_spark_v1","""event"",""trial"",""time""
""fullscreenenter"",""1"",""18803""
""blur"",""2"",""21927""
""focus"",""2"",""27878""
""blur"",""19"",""243075""
""focus"",""19"",""248150""
","""event"",""trial"",""time""
""blur"",""2"",""21927""
""blur"",""19"",""243075""
","""event"",""trial"",""time""
""focus"",""2"",""27878""
""focus"",""19"",""248150""
","""event"",""trial"",""time""
""fullscreenenter"",""1"",""18803""
","
","","","","","","null","<div style=""font-size:60px;"">+</div>","null","","fixation","","","","","","","","","","",""
"aa-learning-trial","97","719756","0.0-9.0-2.0-1.11","4010","2","13","Male","approach_avoid_spark_v1","""event"",""trial"",""time""
""fullscreenenter"",""1"",""18803""
""blur"",""2"",""21927""
""focus"",""2"",""27878""
""blur"",""19"",""243075""
""focus"",""19"",""248150""
","""event"",""trial"",""time""
""blur"",""2"",""21927""
""blur"",""19"",""243075""
","""event"",""trial"",""time""
""focus"",""2"",""27878""
""focus"",""19"",""248150""
","""event"",""trial"",""time""
""fullscreenenter"",""1"",""18803""
","
","","","","","","769.5999994277954","images/cat8.png","","","learning","-4","0","0","0","cat","pets","2","0","","neutral","0"
"html-keyboard-response","98","720267","0.0-9.0-2.0-0.12","4010","2","13","Male","approach_avoid_spark_v1","""event"",""trial"",""time""
""fullscreenenter"",""1"",""18803""
""blur"",""2"",""21927""
""focus"",""2"",""27878""
""blur"",""19"",""243075""
""focus"",""19"",""248150""
","""event"",""trial"",""time""
""blur"",""2"",""21927""
""blur"",""19"",""243075""
","""event"",""trial"",""time""
""focus"",""2"",""27878""
""focus"",""19"",""248150""
","""event"",""trial"",""time""
""fullscreenenter"",""1"",""18803""
","
","","","","","","null","<div style=""font-size:60px;"">+</div>","null","","fixation","","","","","","","","","","",""
"aa-learning-trial","99","723281","0.0-9.0-2.0-1.12","4010","2","13","Male","approach_avoid_spark_v1","""event"",""trial"",""time""
""fullscreenenter"",""1"",""18803""
""blur"",""2"",""21927""
""focus"",""2"",""27878""
""blur"",""19"",""243075""
""focus"",""19"",""248150""
","""event"",""trial"",""time""
""blur"",""2"",""21927""
""blur"",""19"",""243075""
","""event"",""trial"",""time""
""focus"",""2"",""27878""
""focus"",""19"",""248150""
","""event"",""trial"",""time""
""fullscreenenter"",""1"",""18803""
","
","","","","","","2522.5999994277954","images/rodent4.png","","","learning","-3","-3","1","1","rodent","pets","2","0","","bad","[-4]"
"html-keyboard-response","100","723784","0.0-9.0-2.0-0.13","4010","2","13","Male","approach_avoid_spark_v1","""event"",""trial"",""time""
""fullscreenenter"",""1"",""18803""
""blur"",""2"",""21927""
""focus"",""2"",""27878""
""blur"",""19"",""243075""
""focus"",""19"",""248150""
","""event"",""trial"",""time""
""blur"",""2"",""21927""
""blur"",""19"",""243075""
","""event"",""trial"",""time""
""focus"",""2"",""27878""
""focus"",""19"",""248150""
","""event"",""trial"",""time""
""fullscreenenter"",""1"",""18803""
","
","","","","","","null","<div style=""font-size:60px;"">+</div>","null","","fixation","","","","","","","","","","",""
"aa-learning-trial","101","726794","0.0-9.0-2.0-1.13","4010","2","13","Male","approach_avoid_spark_v1","""event"",""trial"",""time""
""fullscreenenter"",""1"",""18803""
""blur"",""2"",""21927""
""focus"",""2"",""27878""
""blur"",""19"",""243075""
""focus"",""19"",""248150""
","""event"",""trial"",""time""
""blur"",""2"",""21927""
""blur"",""19"",""243075""
","""event"",""trial"",""time""
""focus"",""2"",""27878""
""focus"",""19"",""248150""
","""event"",""trial"",""time""
""fullscreenenter"",""1"",""18803""
","
","","","","","","668.1999998092651","images/rodent2.png","","","learning","5","5","1","1","rodent","pets","2","0","","bad","[-4]"
"html-keyboard-response","102","727303","0.0-9.0-2.0-0.14","4010","2","13","Male","approach_avoid_spark_v1","""event"",""trial"",""time""
""fullscreenenter"",""1"",""18803""
""blur"",""2"",""21927""
""focus"",""2"",""27878""
""blur"",""19"",""243075""
""focus"",""19"",""248150""
","""event"",""trial"",""time""
""blur"",""2"",""21927""
""blur"",""19"",""243075""
","""event"",""trial"",""time""
""focus"",""2"",""27878""
""focus"",""19"",""248150""
","""event"",""trial"",""time""
""fullscreenenter"",""1"",""18803""
","
","","","","","","null","<div style=""font-size:60px;"">+</div>","null","","fixation","","","","","","","","","","",""
"aa-learning-trial","103","730317","0.0-9.0-2.0-1.14","4010","2","13","Male","approach_avoid_spark_v1","""event"",""trial"",""time""
""fullscreenenter"",""1"",""18803""
""blur"",""2"",""21927""
""focus"",""2"",""27878""
""blur"",""19"",""243075""
""focus"",""19"",""248150""
","""event"",""trial"",""time""
""blur"",""2"",""21927""
""blur"",""19"",""243075""
","""event"",""trial"",""time""
""focus"",""2"",""27878""
""focus"",""19"",""248150""
","""event"",""trial"",""time""
""fullscreenenter"",""1"",""18803""
","
","","","","","","869","images/rabbit8.png","","","learning","9","0","0","0","rabbit","pets","2","0","","good","[5]"
"html-keyboard-response","104","730859","0.0-9.0-2.0-0.15","4010","2","13","Male","approach_avoid_spark_v1","""event"",""trial"",""time""
""fullscreenenter"",""1"",""18803""
""blur"",""2"",""21927""
""focus"",""2"",""27878""
""blur"",""19"",""243075""
""focus"",""19"",""248150""
","""event"",""trial"",""time""
""blur"",""2"",""21927""
""blur"",""19"",""243075""
","""event"",""trial"",""time""
""focus"",""2"",""27878""
""focus"",""19"",""248150""
","""event"",""trial"",""time""
""fullscreenenter"",""1"",""18803""
","
","","","","","","null","<div style=""font-size:60px;"">+</div>","null","","fixation","","","","","","","","","","",""
"aa-learning-trial","105","733874","0.0-9.0-2.0-1.15","4010","2","13","Male","approach_avoid_spark_v1","""event"",""trial"",""time""
""fullscreenenter"",""1"",""18803""
""blur"",""2"",""21927""
""focus"",""2"",""27878""
""blur"",""19"",""243075""
""focus"",""19"",""248150""
","""event"",""trial"",""time""
""blur"",""2"",""21927""
""blur"",""19"",""243075""
","""event"",""trial"",""time""
""focus"",""2"",""27878""
""focus"",""19"",""248150""
","""event"",""trial"",""time""
""fullscreenenter"",""1"",""18803""
","
","","","","","","1071.1999998092651","images/cat5.png","","","learning","-9","-9","1","1","cat","pets","2","0","","neutral","0"
"html-keyboard-response","106","734379","0.0-9.0-2.0-0.16","4010","2","13","Male","approach_avoid_spark_v1","""event"",""trial"",""time""
""fullscreenenter"",""1"",""18803""
""blur"",""2"",""21927""
""focus"",""2"",""27878""
""blur"",""19"",""243075""
""focus"",""19"",""248150""
","""event"",""trial"",""time""
""blur"",""2"",""21927""
""blur"",""19"",""243075""
","""event"",""trial"",""time""
""focus"",""2"",""27878""
""focus"",""19"",""248150""
","""event"",""trial"",""time""
""fullscreenenter"",""1"",""18803""
","
","","","","","","null","<div style=""font-size:60px;"">+</div>","null","","fixation","","","","","","","","","","",""
"aa-learning-trial","107","737387","0.0-9.0-2.0-1.16","4010","2","13","Male","approach_avoid_spark_v1","""event"",""trial"",""time""
""fullscreenenter"",""1"",""18803""
""blur"",""2"",""21927""
""focus"",""2"",""27878""
""blur"",""19"",""243075""
""focus"",""19"",""248150""
","""event"",""trial"",""time""
""blur"",""2"",""21927""
""blur"",""19"",""243075""
","""event"",""trial"",""time""
""focus"",""2"",""27878""
""focus"",""19"",""248150""
","""event"",""trial"",""time""
""fullscreenenter"",""1"",""18803""
","
","","","","","","2358.8999996185303","images/cat4.png","","","learning","8","8","1","1","cat","pets","2","0","","neutral","0"
"html-keyboard-response","108","737897","0.0-9.0-2.0-0.17","4010","2","13","Male","approach_avoid_spark_v1","""event"",""trial"",""time""
""fullscreenenter"",""1"",""18803""
""blur"",""2"",""21927""
""focus"",""2"",""27878""
""blur"",""19"",""243075""
""focus"",""19"",""248150""
","""event"",""trial"",""time""
""blur"",""2"",""21927""
""blur"",""19"",""243075""
","""event"",""trial"",""time""
""focus"",""2"",""27878""
""focus"",""19"",""248150""
","""event"",""trial"",""time""
""fullscreenenter"",""1"",""18803""
","
","","","","","","null","<div style=""font-size:60px;"">+</div>","null","","fixation","","","","","","","","","","",""
"aa-learning-trial","109","740905","0.0-9.0-2.0-1.17","4010","2","13","Male","approach_avoid_spark_v1","""event"",""trial"",""time""
""fullscreenenter"",""1"",""18803""
""blur"",""2"",""21927""
""focus"",""2"",""27878""
""blur"",""19"",""243075""
""focus"",""19"",""248150""
","""event"",""trial"",""time""
""blur"",""2"",""21927""
""blur"",""19"",""243075""
","""event"",""trial"",""time""
""focus"",""2"",""27878""
""focus"",""19"",""248150""
","""event"",""trial"",""time""
""fullscreenenter"",""1"",""18803""
","
","","","","","","1304.8000001907349","images/rodent1.png","","","learning","-7","-7","1","1","rodent","pets","2","0","","bad","[-4]"
"html-keyboard-response","110","741411","0.0-9.0-2.0-0.18","4010","2","13","Male","approach_avoid_spark_v1","""event"",""trial"",""time""
""fullscreenenter"",""1"",""18803""
""blur"",""2"",""21927""
""focus"",""2"",""27878""
""blur"",""19"",""243075""
""focus"",""19"",""248150""
","""event"",""trial"",""time""
""blur"",""2"",""21927""
""blur"",""19"",""243075""
","""event"",""trial"",""time""
""focus"",""2"",""27878""
""focus"",""19"",""248150""
","""event"",""trial"",""time""
""fullscreenenter"",""1"",""18803""
","
","","","","","","null","<div style=""font-size:60px;"">+</div>","null","","fixation","","","","","","","","","","",""
"aa-learning-trial","111","744421","0.0-9.0-2.0-1.18","4010","2","13","Male","approach_avoid_spark_v1","""event"",""trial"",""time""
""fullscreenenter"",""1"",""18803""
""blur"",""2"",""21927""
""focus"",""2"",""27878""
""blur"",""19"",""243075""
""focus"",""19"",""248150""
","""event"",""trial"",""time""
""blur"",""2"",""21927""
""blur"",""19"",""243075""
","""event"",""trial"",""time""
""focus"",""2"",""27878""
""focus"",""19"",""248150""
","""event"",""trial"",""time""
""fullscreenenter"",""1"",""18803""
","
","","","","","","651.3999996185303","images/rodent2.png","","","learning","5","5","1","1","rodent","pets","2","0","","bad","[-4]"
"html-keyboard-response","112","744928","0.0-9.0-2.0-0.19","4010","2","13","Male","approach_avoid_spark_v1","""event"",""trial"",""time""
""fullscreenenter"",""1"",""18803""
""blur"",""2"",""21927""
""focus"",""2"",""27878""
""blur"",""19"",""243075""
""focus"",""19"",""248150""
","""event"",""trial"",""time""
""blur"",""2"",""21927""
""blur"",""19"",""243075""
","""event"",""trial"",""time""
""focus"",""2"",""27878""
""focus"",""19"",""248150""
","""event"",""trial"",""time""
""fullscreenenter"",""1"",""18803""
","
","","","","","","null","<div style=""font-size:60px;"">+</div>","null","","fixation","","","","","","","","","","",""
"aa-learning-trial","113","747937","0.0-9.0-2.0-1.19","4010","2","13","Male","approach_avoid_spark_v1","""event"",""trial"",""time""
""fullscreenenter"",""1"",""18803""
""blur"",""2"",""21927""
""focus"",""2"",""27878""
""blur"",""19"",""243075""
""focus"",""19"",""248150""
","""event"",""trial"",""time""
""blur"",""2"",""21927""
""blur"",""19"",""243075""
","""event"",""trial"",""time""
""focus"",""2"",""27878""
""focus"",""19"",""248150""
","""event"",""trial"",""time""
""fullscreenenter"",""1"",""18803""
","
","","","","","","729.1000003814697","images/rabbit8.png","","","learning","9","0","0","0","rabbit","pets","2","0","","good","[5]"
"html-keyboard-response","114","748439","0.0-9.0-2.0-0.20","4010","2","13","Male","approach_avoid_spark_v1","""event"",""trial"",""time""
""fullscreenenter"",""1"",""18803""
""blur"",""2"",""21927""
""focus"",""2"",""27878""
""blur"",""19"",""243075""
""focus"",""19"",""248150""
""blur"",""115"",""749840""
","""event"",""trial"",""time""
""blur"",""2"",""21927""
""blur"",""19"",""243075""
""blur"",""115"",""749840""
","""event"",""trial"",""time""
""focus"",""2"",""27878""
""focus"",""19"",""248150""
","""event"",""trial"",""time""
""fullscreenenter"",""1"",""18803""
","
","","","","","","null","<div style=""font-size:60px;"">+</div>","null","","fixation","","","","","","","","","","",""
"aa-learning-trial","115","751451","0.0-9.0-2.0-1.20","4010","2","13","Male","approach_avoid_spark_v1","""event"",""trial"",""time""
""fullscreenenter"",""1"",""18803""
""blur"",""2"",""21927""
""focus"",""2"",""27878""
""blur"",""19"",""243075""
""focus"",""19"",""248150""
""blur"",""115"",""749840""
","""event"",""trial"",""time""
""blur"",""2"",""21927""
""blur"",""19"",""243075""
""blur"",""115"",""749840""
","""event"",""trial"",""time""
""focus"",""2"",""27878""
""focus"",""19"",""248150""
","""event"",""trial"",""time""
""fullscreenenter"",""1"",""18803""
","
","","","","","","1326.8000001907349","images/rodent2.png","","","learning","5","5","1","1","rodent","pets","2","0","","bad","[-4]"
"html-keyboard-response","116","751961","0.0-9.0-2.0-0.21","4010","2","13","Male","approach_avoid_spark_v1","""event"",""trial"",""time""
""fullscreenenter"",""1"",""18803""
""blur"",""2"",""21927""
""focus"",""2"",""27878""
""blur"",""19"",""243075""
""focus"",""19"",""248150""
""blur"",""115"",""749840""
""focus"",""117"",""754003""
","""event"",""trial"",""time""
""blur"",""2"",""21927""
""blur"",""19"",""243075""
""blur"",""115"",""749840""
","""event"",""trial"",""time""
""focus"",""2"",""27878""
""focus"",""19"",""248150""
""focus"",""117"",""754003""
","""event"",""trial"",""time""
""fullscreenenter"",""1"",""18803""
","
","","","","","","null","<div style=""font-size:60px;"">+</div>","null","","fixation","","","","","","","","","","",""
"aa-learning-trial","117","754973","0.0-9.0-2.0-1.21","4010","2","13","Male","approach_avoid_spark_v1","""event"",""trial"",""time""
""fullscreenenter"",""1"",""18803""
""blur"",""2"",""21927""
""focus"",""2"",""27878""
""blur"",""19"",""243075""
""focus"",""19"",""248150""
""blur"",""115"",""749840""
""focus"",""117"",""754003""
","""event"",""trial"",""time""
""blur"",""2"",""21927""
""blur"",""19"",""243075""
""blur"",""115"",""749840""
","""event"",""trial"",""time""
""focus"",""2"",""27878""
""focus"",""19"",""248150""
""focus"",""117"",""754003""
","""event"",""trial"",""time""
""fullscreenenter"",""1"",""18803""
","
","","","","","","null","images/cat8.png","","","learning","-4","-5","","null","cat","pets","2","0","","neutral","0"
"html-keyboard-response","118","755475","0.0-9.0-2.0-0.22","4010","2","13","Male","approach_avoid_spark_v1","""event"",""trial"",""time""
""fullscreenenter"",""1"",""18803""
""blur"",""2"",""21927""
""focus"",""2"",""27878""
""blur"",""19"",""243075""
""focus"",""19"",""248150""
""blur"",""115"",""749840""
""focus"",""117"",""754003""
","""event"",""trial"",""time""
""blur"",""2"",""21927""
""blur"",""19"",""243075""
""blur"",""115"",""749840""
","""event"",""trial"",""time""
""focus"",""2"",""27878""
""focus"",""19"",""248150""
""focus"",""117"",""754003""
","""event"",""trial"",""time""
""fullscreenenter"",""1"",""18803""
","
","","","","","","null","<div style=""font-size:60px;"">+</div>","null","","fixation","","","","","","","","","","",""
"aa-learning-trial","119","758492","0.0-9.0-2.0-1.22","4010","2","13","Male","approach_avoid_spark_v1","""event"",""trial"",""time""
""fullscreenenter"",""1"",""18803""
""blur"",""2"",""21927""
""focus"",""2"",""27878""
""blur"",""19"",""243075""
""focus"",""19"",""248150""
""blur"",""115"",""749840""
""focus"",""117"",""754003""
","""event"",""trial"",""time""
""blur"",""2"",""21927""
""blur"",""19"",""243075""
""blur"",""115"",""749840""
","""event"",""trial"",""time""
""focus"",""2"",""27878""
""focus"",""19"",""248150""
""focus"",""117"",""754003""
","""event"",""trial"",""time""
""fullscreenenter"",""1"",""18803""
","
","","","","","","556.2999992370605","images/cat8.png","","","learning","-4","-4","1","1","cat","pets","2","0","","neutral","0"
"html-keyboard-response","120","758998","0.0-9.0-2.0-0.23","4010","2","13","Male","approach_avoid_spark_v1","""event"",""trial"",""time""
""fullscreenenter"",""1"",""18803""
""blur"",""2"",""21927""
""focus"",""2"",""27878""
""blur"",""19"",""243075""
""focus"",""19"",""248150""
""blur"",""115"",""749840""
""focus"",""117"",""754003""
","""event"",""trial"",""time""
""blur"",""2"",""21927""
""blur"",""19"",""243075""
""blur"",""115"",""749840""
","""event"",""trial"",""time""
""focus"",""2"",""27878""
""focus"",""19"",""248150""
""focus"",""117"",""754003""
","""event"",""trial"",""time""
""fullscreenenter"",""1"",""18803""
","
","","","","","","null","<div style=""font-size:60px;"">+</div>","null","","fixation","","","","","","","","","","",""
"aa-learning-trial","121","762012","0.0-9.0-2.0-1.23","4010","2","13","Male","approach_avoid_spark_v1","""event"",""trial"",""time""
""fullscreenenter"",""1"",""18803""
""blur"",""2"",""21927""
""focus"",""2"",""27878""
""blur"",""19"",""243075""
""focus"",""19"",""248150""
""blur"",""115"",""749840""
""focus"",""117"",""754003""
","""event"",""trial"",""time""
""blur"",""2"",""21927""
""blur"",""19"",""243075""
""blur"",""115"",""749840""
","""event"",""trial"",""time""
""focus"",""2"",""27878""
""focus"",""19"",""248150""
""focus"",""117"",""754003""
","""event"",""trial"",""time""
""fullscreenenter"",""1"",""18803""
","
","","","","","","1453.1000003814697","images/rodent4.png","","","learning","-3","-3","1","1","rodent","pets","2","0","","bad","[-4]"
"html-keyboard-response","122","762522","0.0-9.0-2.0-0.24","4010","2","13","Male","approach_avoid_spark_v1","""event"",""trial"",""time""
""fullscreenenter"",""1"",""18803""
""blur"",""2"",""21927""
""focus"",""2"",""27878""
""blur"",""19"",""243075""
""focus"",""19"",""248150""
""blur"",""115"",""749840""
""focus"",""117"",""754003""
","""event"",""trial"",""time""
""blur"",""2"",""21927""
""blur"",""19"",""243075""
""blur"",""115"",""749840""
","""event"",""trial"",""time""
""focus"",""2"",""27878""
""focus"",""19"",""248150""
""focus"",""117"",""754003""
","""event"",""trial"",""time""
""fullscreenenter"",""1"",""18803""
","
","","","","","","null","<div style=""font-size:60px;"">+</div>","null","","fixation","","","","","","","","","","",""
"aa-learning-trial","123","765529","0.0-9.0-2.0-1.24","4010","2","13","Male","approach_avoid_spark_v1","""event"",""trial"",""time""
""fullscreenenter"",""1"",""18803""
""blur"",""2"",""21927""
""focus"",""2"",""27878""
""blur"",""19"",""243075""
""focus"",""19"",""248150""
""blur"",""115"",""749840""
""focus"",""117"",""754003""
","""event"",""trial"",""time""
""blur"",""2"",""21927""
""blur"",""19"",""243075""
""blur"",""115"",""749840""
","""event"",""trial"",""time""
""focus"",""2"",""27878""
""focus"",""19"",""248150""
""focus"",""117"",""754003""
","""event"",""trial"",""time""
""fullscreenenter"",""1"",""18803""
","
","","","","","","2026.8999996185303","images/rabbit5.png","","","learning","3","3","1","1","rabbit","pets","2","0","","good","[5]"
"html-keyboard-response","124","766037","0.0-9.0-2.0-0.25","4010","2","13","Male","approach_avoid_spark_v1","""event"",""trial"",""time""
""fullscreenenter"",""1"",""18803""
""blur"",""2"",""21927""
""focus"",""2"",""27878""
""blur"",""19"",""243075""
""focus"",""19"",""248150""
""blur"",""115"",""749840""
""focus"",""117"",""754003""
","""event"",""trial"",""time""
""blur"",""2"",""21927""
""blur"",""19"",""243075""
""blur"",""115"",""749840""
","""event"",""trial"",""time""
""focus"",""2"",""27878""
""focus"",""19"",""248150""
""focus"",""117"",""754003""
","""event"",""trial"",""time""
""fullscreenenter"",""1"",""18803""
","
","","","","","","null","<div style=""font-size:60px;"">+</div>","null","","fixation","","","","","","","","","","",""
"aa-learning-trial","125","769049","0.0-9.0-2.0-1.25","4010","2","13","Male","approach_avoid_spark_v1","""event"",""trial"",""time""
""fullscreenenter"",""1"",""18803""
""blur"",""2"",""21927""
""focus"",""2"",""27878""
""blur"",""19"",""243075""
""focus"",""19"",""248150""
""blur"",""115"",""749840""
""focus"",""117"",""754003""
","""event"",""trial"",""time""
""blur"",""2"",""21927""
""blur"",""19"",""243075""
""blur"",""115"",""749840""
","""event"",""trial"",""time""
""focus"",""2"",""27878""
""focus"",""19"",""248150""
""focus"",""117"",""754003""
","""event"",""trial"",""time""
""fullscreenenter"",""1"",""18803""
","
","","","","","","1359.6000003814697","images/rabbit8.png","","","learning","9","0","0","0","rabbit","pets","2","0","","good","[5]"
"html-keyboard-response","126","769555","0.0-9.0-2.0-0.26","4010","2","13","Male","approach_avoid_spark_v1","""event"",""trial"",""time""
""fullscreenenter"",""1"",""18803""
""blur"",""2"",""21927""
""focus"",""2"",""27878""
""blur"",""19"",""243075""
""focus"",""19"",""248150""
""blur"",""115"",""749840""
""focus"",""117"",""754003""
","""event"",""trial"",""time""
""blur"",""2"",""21927""
""blur"",""19"",""243075""
""blur"",""115"",""749840""
","""event"",""trial"",""time""
""focus"",""2"",""27878""
""focus"",""19"",""248150""
""focus"",""117"",""754003""
","""event"",""trial"",""time""
""fullscreenenter"",""1"",""18803""
","
","","","","","","null","<div style=""font-size:60px;"">+</div>","null","","fixation","","","","","","","","","","",""
"aa-learning-trial","127","772562","0.0-9.0-2.0-1.26","4010","2","13","Male","approach_avoid_spark_v1","""event"",""trial"",""time""
""fullscreenenter"",""1"",""18803""
""blur"",""2"",""21927""
""focus"",""2"",""27878""
""blur"",""19"",""243075""
""focus"",""19"",""248150""
""blur"",""115"",""749840""
""focus"",""117"",""754003""
","""event"",""trial"",""time""
""blur"",""2"",""21927""
""blur"",""19"",""243075""
""blur"",""115"",""749840""
","""event"",""trial"",""time""
""focus"",""2"",""27878""
""focus"",""19"",""248150""
""focus"",""117"",""754003""
","""event"",""trial"",""time""
""fullscreenenter"",""1"",""18803""
","
","","","","","","1545.1999998092651","images/rodent4.png","","","learning","-3","-3","1","1","rodent","pets","2","0","","bad","[-4]"
"html-keyboard-response","128","773065","0.0-9.0-2.0-0.27","4010","2","13","Male","approach_avoid_spark_v1","""event"",""trial"",""time""
""fullscreenenter"",""1"",""18803""
""blur"",""2"",""21927""
""focus"",""2"",""27878""
""blur"",""19"",""243075""
""focus"",""19"",""248150""
""blur"",""115"",""749840""
""focus"",""117"",""754003""
","""event"",""trial"",""time""
""blur"",""2"",""21927""
""blur"",""19"",""243075""
""blur"",""115"",""749840""
","""event"",""trial"",""time""
""focus"",""2"",""27878""
""focus"",""19"",""248150""
""focus"",""117"",""754003""
","""event"",""trial"",""time""
""fullscreenenter"",""1"",""18803""
","
","","","","","","null","<div style=""font-size:60px;"">+</div>","null","","fixation","","","","","","","","","","",""
"aa-learning-trial","129","776074","0.0-9.0-2.0-1.27","4010","2","13","Male","approach_avoid_spark_v1","""event"",""trial"",""time""
""fullscreenenter"",""1"",""18803""
""blur"",""2"",""21927""
""focus"",""2"",""27878""
""blur"",""19"",""243075""
""focus"",""19"",""248150""
""blur"",""115"",""749840""
""focus"",""117"",""754003""
","""event"",""trial"",""time""
""blur"",""2"",""21927""
""blur"",""19"",""243075""
""blur"",""115"",""749840""
","""event"",""trial"",""time""
""focus"",""2"",""27878""
""focus"",""19"",""248150""
""focus"",""117"",""754003""
","""event"",""trial"",""time""
""fullscreenenter"",""1"",""18803""
","
","","","","","","1268.5","images/rabbit8.png","","","learning","9","9","1","1","rabbit","pets","2","0","","good","[5]"
"html-keyboard-response","130","776578","0.0-9.0-2.0-0.28","4010","2","13","Male","approach_avoid_spark_v1","""event"",""trial"",""time""
""fullscreenenter"",""1"",""18803""
""blur"",""2"",""21927""
""focus"",""2"",""27878""
""blur"",""19"",""243075""
""focus"",""19"",""248150""
""blur"",""115"",""749840""
""focus"",""117"",""754003""
","""event"",""trial"",""time""
""blur"",""2"",""21927""
""blur"",""19"",""243075""
""blur"",""115"",""749840""
","""event"",""trial"",""time""
""focus"",""2"",""27878""
""focus"",""19"",""248150""
""focus"",""117"",""754003""
","""event"",""trial"",""time""
""fullscreenenter"",""1"",""18803""
","
","","","","","","null","<div style=""font-size:60px;"">+</div>","null","","fixation","","","","","","","","","","",""
"aa-learning-trial","131","779583","0.0-9.0-2.0-1.28","4010","2","13","Male","approach_avoid_spark_v1","""event"",""trial"",""time""
""fullscreenenter"",""1"",""18803""
""blur"",""2"",""21927""
""focus"",""2"",""27878""
""blur"",""19"",""243075""
""focus"",""19"",""248150""
""blur"",""115"",""749840""
""focus"",""117"",""754003""
","""event"",""trial"",""time""
""blur"",""2"",""21927""
""blur"",""19"",""243075""
""blur"",""115"",""749840""
","""event"",""trial"",""time""
""focus"",""2"",""27878""
""focus"",""19"",""248150""
""focus"",""117"",""754003""
","""event"",""trial"",""time""
""fullscreenenter"",""1"",""18803""
","
","","","","","","941.1000003814697","images/rabbit2.png","","","learning","-6","0","0","0","rabbit","pets","2","0","","good","[5]"
"html-keyboard-response","132","780085","0.0-9.0-2.0-0.29","4010","2","13","Male","approach_avoid_spark_v1","""event"",""trial"",""time""
""fullscreenenter"",""1"",""18803""
""blur"",""2"",""21927""
""focus"",""2"",""27878""
""blur"",""19"",""243075""
""focus"",""19"",""248150""
""blur"",""115"",""749840""
""focus"",""117"",""754003""
","""event"",""trial"",""time""
""blur"",""2"",""21927""
""blur"",""19"",""243075""
""blur"",""115"",""749840""
","""event"",""trial"",""time""
""focus"",""2"",""27878""
""focus"",""19"",""248150""
""focus"",""117"",""754003""
","""event"",""trial"",""time""
""fullscreenenter"",""1"",""18803""
","
","","","","","","null","<div style=""font-size:60px;"">+</div>","null","","fixation","","","","","","","","","","",""
"aa-learning-trial","133","783097","0.0-9.0-2.0-1.29","4010","2","13","Male","approach_avoid_spark_v1","""event"",""trial"",""time""
""fullscreenenter"",""1"",""18803""
""blur"",""2"",""21927""
""focus"",""2"",""27878""
""blur"",""19"",""243075""
""focus"",""19"",""248150""
""blur"",""115"",""749840""
""focus"",""117"",""754003""
","""event"",""trial"",""time""
""blur"",""2"",""21927""
""blur"",""19"",""243075""
""blur"",""115"",""749840""
","""event"",""trial"",""time""
""focus"",""2"",""27878""
""focus"",""19"",""248150""
""focus"",""117"",""754003""
","""event"",""trial"",""time""
""fullscreenenter"",""1"",""18803""
","
","","","","","","1855.6000003814697","images/rodent8.png","","","learning","2","0","0","0","rodent","pets","2","0","","bad","[-4]"
"html-keyboard-response","134","783603","0.0-9.0-2.0-0.30","4010","2","13","Male","approach_avoid_spark_v1","""event"",""trial"",""time""
""fullscreenenter"",""1"",""18803""
""blur"",""2"",""21927""
""focus"",""2"",""27878""
""blur"",""19"",""243075""
""focus"",""19"",""248150""
""blur"",""115"",""749840""
""focus"",""117"",""754003""
","""event"",""trial"",""time""
""blur"",""2"",""21927""
""blur"",""19"",""243075""
""blur"",""115"",""749840""
","""event"",""trial"",""time""
""focus"",""2"",""27878""
""focus"",""19"",""248150""
""focus"",""117"",""754003""
","""event"",""trial"",""time""
""fullscreenenter"",""1"",""18803""
","
","","","","","","null","<div style=""font-size:60px;"">+</div>","null","","fixation","","","","","","","","","","",""
"aa-learning-trial","135","786613","0.0-9.0-2.0-1.30","4010","2","13","Male","approach_avoid_spark_v1","""event"",""trial"",""time""
""fullscreenenter"",""1"",""18803""
""blur"",""2"",""21927""
""focus"",""2"",""27878""
""blur"",""19"",""243075""
""focus"",""19"",""248150""
""blur"",""115"",""749840""
""focus"",""117"",""754003""
","""event"",""trial"",""time""
""blur"",""2"",""21927""
""blur"",""19"",""243075""
""blur"",""115"",""749840""
","""event"",""trial"",""time""
""focus"",""2"",""27878""
""focus"",""19"",""248150""
""focus"",""117"",""754003""
","""event"",""trial"",""time""
""fullscreenenter"",""1"",""18803""
","
","","","","","","1393","images/rodent3.png","","","learning","7","7","1","1","rodent","pets","2","0","","bad","[-4]"
"html-keyboard-response","136","787123","0.0-9.0-2.0-0.31","4010","2","13","Male","approach_avoid_spark_v1","""event"",""trial"",""time""
""fullscreenenter"",""1"",""18803""
""blur"",""2"",""21927""
""focus"",""2"",""27878""
""blur"",""19"",""243075""
""focus"",""19"",""248150""
""blur"",""115"",""749840""
""focus"",""117"",""754003""
","""event"",""trial"",""time""
""blur"",""2"",""21927""
""blur"",""19"",""243075""
""blur"",""115"",""749840""
","""event"",""trial"",""time""
""focus"",""2"",""27878""
""focus"",""19"",""248150""
""focus"",""117"",""754003""
","""event"",""trial"",""time""
""fullscreenenter"",""1"",""18803""
","
","","","","","","null","<div style=""font-size:60px;"">+</div>","null","","fixation","","","","","","","","","","",""
"aa-learning-trial","137","790134","0.0-9.0-2.0-1.31","4010","2","13","Male","approach_avoid_spark_v1","""event"",""trial"",""time""
""fullscreenenter"",""1"",""18803""
""blur"",""2"",""21927""
""focus"",""2"",""27878""
""blur"",""19"",""243075""
""focus"",""19"",""248150""
""blur"",""115"",""749840""
""focus"",""117"",""754003""
","""event"",""trial"",""time""
""blur"",""2"",""21927""
""blur"",""19"",""243075""
""blur"",""115"",""749840""
","""event"",""trial"",""time""
""focus"",""2"",""27878""
""focus"",""19"",""248150""
""focus"",""117"",""754003""
","""event"",""trial"",""time""
""fullscreenenter"",""1"",""18803""
","
","","","","","","1434","images/cat4.png","","","learning","8","8","1","1","cat","pets","2","0","","neutral","0"
"html-keyboard-response","138","790644","0.0-9.0-2.0-0.32","4010","2","13","Male","approach_avoid_spark_v1","""event"",""trial"",""time""
""fullscreenenter"",""1"",""18803""
""blur"",""2"",""21927""
""focus"",""2"",""27878""
""blur"",""19"",""243075""
""focus"",""19"",""248150""
""blur"",""115"",""749840""
""focus"",""117"",""754003""
","""event"",""trial"",""time""
""blur"",""2"",""21927""
""blur"",""19"",""243075""
""blur"",""115"",""749840""
","""event"",""trial"",""time""
""focus"",""2"",""27878""
""focus"",""19"",""248150""
""focus"",""117"",""754003""
","""event"",""trial"",""time""
""fullscreenenter"",""1"",""18803""
","
","","","","","","null","<div style=""font-size:60px;"">+</div>","null","","fixation","","","","","","","","","","",""
"aa-learning-trial","139","793655","0.0-9.0-2.0-1.32","4010","2","13","Male","approach_avoid_spark_v1","""event"",""trial"",""time""
""fullscreenenter"",""1"",""18803""
""blur"",""2"",""21927""
""focus"",""2"",""27878""
""blur"",""19"",""243075""
""focus"",""19"",""248150""
""blur"",""115"",""749840""
""focus"",""117"",""754003""
","""event"",""trial"",""time""
""blur"",""2"",""21927""
""blur"",""19"",""243075""
""blur"",""115"",""749840""
","""event"",""trial"",""time""
""focus"",""2"",""27878""
""focus"",""19"",""248150""
""focus"",""117"",""754003""
","""event"",""trial"",""time""
""fullscreenenter"",""1"",""18803""
","
","","","","","","1375.1999998092651","images/cat8.png","","","learning","-4","0","0","0","cat","pets","2","0","","neutral","0"
