"trial_type","trial_index","time_elapsed","internal_node_id","subject_id","task_condition","age","gender","task_version","interactions","blur_events","focus_events","fullscreenenter_events","fullscreenexit_events","success","timeout","failed_images","failed_audio","failed_video","rt","stimulus","response","button_pressed","task_part","approach_reward","points","key_press","option_selected","stim_cat","task_block","block_condition","block_number","correct","cat_type","mean_cat_reward"
"pavlovia","0","6","0.0-0.0","4508","1","20","Female","approach_avoid_spark_v1","""event"",""trial"",""time""
""fullscreenenter"",""1"",""2745""
","
","
","""event"",""trial"",""time""
""fullscreenenter"",""1"",""2745""
","
","","","","","","","","","","","","","","","","","","","","",""
"fullscreen","1","3664","0.0-1.0","4508","1","20","Female","approach_avoid_spark_v1","""event"",""trial"",""time""
""fullscreenenter"",""1"",""2745""
","
","
","""event"",""trial"",""time""
""fullscreenenter"",""1"",""2745""
","
","true","","","","","","","","","","","","","","","","","","","",""
"preload","2","33448","0.0-2.0","4508","1","20","Female","approach_avoid_spark_v1","""event"",""trial"",""time""
""fullscreenenter"",""1"",""2745""
","
","
","""event"",""trial"",""time""
""fullscreenenter"",""1"",""2745""
","
","true","false","[]","[]","[]","","","","","","","","","","","","","","","",""
"audio-keyboard-response","3","37577","0.0-3.0","4508","1","20","Female","approach_avoid_spark_v1","""event"",""trial"",""time""
""fullscreenenter"",""1"",""2745""
","
","
","""event"",""trial"",""time""
""fullscreenenter"",""1"",""2745""
","
","","","","","","4119.999999999997","audio/beep_loop.wav"," ","","","","","","","","","","","","",""
"audio-button-response","4","41384","0.0-4.0","4508","1","20","Female","approach_avoid_spark_v1","""event"",""trial"",""time""
""fullscreenenter"",""1"",""2745""
","
","
","""event"",""trial"",""time""
""fullscreenenter"",""1"",""2745""
","
","","","","","","3800","audio/shark.wav","4","","","","","","","","","","","","",""
"audio-button-response","5","47111","0.0-5.0","4508","1","20","Female","approach_avoid_spark_v1","""event"",""trial"",""time""
""fullscreenenter"",""1"",""2745""
","
","
","""event"",""trial"",""time""
""fullscreenenter"",""1"",""2745""
","
","","","","","","4709","audio/turtle.wav","1","","","","","","","","","","","","",""
"preload","6","53024","0.0-6.0","4508","1","20","Female","approach_avoid_spark_v1","""event"",""trial"",""time""
""fullscreenenter"",""1"",""2745""
","
","
","""event"",""trial"",""time""
""fullscreenenter"",""1"",""2745""
","
","true","false","[]","[]","[]","","","","","","","","","","","","","","","",""
"html-keyboard-response","7","57893","0.0-7.0","4508","1","20","Female","approach_avoid_spark_v1","""event"",""trial"",""time""
""fullscreenenter"",""1"",""2745""
","
","
","""event"",""trial"",""time""
""fullscreenenter"",""1"",""2745""
","
","","","","","","4866.10000000149","Welcome to the experiment. Press any key to begin and to advance the instructions.","j","","","","","","","","","","","","",""
"learning-instructions","8","66723","0.0-8.0-0.0-0.0","4508","1","20","Female","approach_avoid_spark_v1","""event"",""trial"",""time""
""fullscreenenter"",""1"",""2745""
","
","
","""event"",""trial"",""time""
""fullscreenenter"",""1"",""2745""
","
","","","","","","1871.7000000029802","<p> Welcome! Today you are going to play 6 different rounds of a decision-making game. </p><p> Use the mouse to click next to continue. </p>","","0","instructions","","","","","","","","","","",""
"learning-instructions","9","71111","0.0-8.0-0.0-0.1","4508","1","20","Female","approach_avoid_spark_v1","""event"",""trial"",""time""
""fullscreenenter"",""1"",""2745""
","
","
","""event"",""trial"",""time""
""fullscreenenter"",""1"",""2745""
","
","","","","","","1650.8999999985099","<p> You will start with a practice round to learn the rules. </p>","","0","instructions","","","","","","","","","","",""
"learning-instructions","10","75822","0.0-8.0-0.0-0.2","4508","1","20","Female","approach_avoid_spark_v1","""event"",""trial"",""time""
""fullscreenenter"",""1"",""2745""
","
","
","""event"",""trial"",""time""
""fullscreenenter"",""1"",""2745""
","
","","","","","","1251.6000000014901","<p> Your goal in this round is to give out sports equipment to kids. </p></div>","","0","instructions","","","","","","","","","","",""
"learning-instructions","11","85030","0.0-8.0-0.0-0.3","4508","1","20","Female","approach_avoid_spark_v1","""event"",""trial"",""time""
""fullscreenenter"",""1"",""2745""
","
","
","""event"",""trial"",""time""
""fullscreenenter"",""1"",""2745""
","
","","","","","","1639.6000000014901","<p> The kids only like some of the equipment.  </p><p> On each turn, you will see a piece of sports equipment.   </p><p> You need to decide whether to give it to the kids or not.  </p>","","0","instructions","","","","","","","","","","",""
"learning-instructions","12","92191","0.0-8.0-0.0-0.4","4508","1","20","Female","approach_avoid_spark_v1","""event"",""trial"",""time""
""fullscreenenter"",""1"",""2745""
","
","
","""event"",""trial"",""time""
""fullscreenenter"",""1"",""2745""
","
","","","","","","2388.9000000059605","<p> You can give them the equipment by pressing 1 and choose not to give it to them by pressing 0. </p><br><div class=""choice-instructions-grid""> <div class=""choice-option""><img src=""images/approach.png"" class=""choice-option-img"" stage=""instructions"" position=""0"" ><div class=""choice-option-text""> Press ""1."" </div></div><div class=""choice-option""><img src=""images/avoid.png"" class=""choice-option-img"" stage=""instructions"" position=""1"" ><div class=""choice-option-text""> Press ""0."" </div></div>","","0","instructions","","","","","","","","","","",""
"learning-instructions","13","102163","0.0-8.0-0.0-0.5","4508","1","20","Female","approach_avoid_spark_v1","""event"",""trial"",""time""
""fullscreenenter"",""1"",""2745""
","
","
","""event"",""trial"",""time""
""fullscreenenter"",""1"",""2745""
","
","","","","","","2573","<p> If you give them a piece of equipment they like, they will be happy! </p><p> But if you give them a piece of equipment they do not like, they will be sad. </p>","","0","instructions","","","","","","","","","","",""
"learning-instructions","14","113412","0.0-8.0-0.0-0.6","4508","1","20","Female","approach_avoid_spark_v1","""event"",""trial"",""time""
""fullscreenenter"",""1"",""2745""
","
","
","""event"",""trial"",""time""
""fullscreenenter"",""1"",""2745""
","
","","","","","","722.3999999985099","<p> You will earn points based on how you make kids feel. </p><p> If you make them happy, you will WIN anywhere from 1 - 9 points, </p><p> but if you make them sad, you will LOSE anywhere from 1 - 9 points. </p>","","0","instructions","","","","","","","","","","",""
"learning-instructions","15","124073","0.0-8.0-0.0-0.7","4508","1","20","Female","approach_avoid_spark_v1","""event"",""trial"",""time""
""fullscreenenter"",""1"",""2745""
","
","
","""event"",""trial"",""time""
""fullscreenenter"",""1"",""2745""
","
","","","","","","1091.8999999985099","<p> You will see how many points you won or lost in the center of the screen. </p><p> Here is what you would see if you won 6 points: </p><p style=""color:green;font-size:50px;font-weight:bolder"">6</p><p style=""color:green"">The text is GREEN because you WON points.</p>","","0","instructions","","","","","","","","","","",""
"learning-instructions","16","130652","0.0-8.0-0.0-0.8","4508","1","20","Female","approach_avoid_spark_v1","""event"",""trial"",""time""
""fullscreenenter"",""1"",""2745""
","
","
","""event"",""trial"",""time""
""fullscreenenter"",""1"",""2745""
","
","","","","","","1061.1000000014901","<p> And here is what you would see if you lost 4 points: </p><p style=""color:red;font-size:50px;font-weight:bolder"">-4</p><p style=""color:red"">The text is RED because you LOST points. </p>","","0","instructions","","","","","","","","","","",""
"learning-instructions","17","146832","0.0-8.0-0.0-0.9","4508","1","20","Female","approach_avoid_spark_v1","""event"",""trial"",""time""
""fullscreenenter"",""1"",""2745""
","
","
","""event"",""trial"",""time""
""fullscreenenter"",""1"",""2745""
","
","","","","","","1441.2000000029802","<p> Some of the equipment will make the kids VERY happy or sad. </p><p> These pieces of equipment will make you win or lose LOTS of points. </p><p> Other pieces of equipment will only make the kids a little happy or sad. </p><p> These pieces of equipment will make you win or lose small amounts of points. </p>","","0","instructions","","","","","","","","","","",""
"learning-instructions","18","161292","0.0-8.0-0.0-0.10","4508","1","20","Female","approach_avoid_spark_v1","""event"",""trial"",""time""
""fullscreenenter"",""1"",""2745""
","
","
","""event"",""trial"",""time""
""fullscreenenter"",""1"",""2745""
","
","","","","","","3821.60000000149","<p> If you choose not to give them the equipment, you will not win or lose any points. </p><p>  However, in the center of the screen, you will see the number of points you WOULD HAVE won or lost if you had given them the equipment. </p>","","0","instructions","","","","","","","","","","",""
"learning-instructions","19","193524","0.0-8.0-0.0-0.11","4508","1","20","Female","approach_avoid_spark_v1","""event"",""trial"",""time""
""fullscreenenter"",""1"",""2745""
","
","
","""event"",""trial"",""time""
""fullscreenenter"",""1"",""2745""
","
","","","","","","10693.60000000149","<p> Here is what you might see if you did not give the equipment to the kids but it would have made them happy: </p><p style=""color:grey; font-size:50px; display: inline-block; border-spacing: 15px; border-width:3px; border-style:solid; border-color:red"">  &nbsp; 7 &nbsp; </p><p> Remember, in this case, you would not win or lose ANY points because you did not give them the equipment.  </p><p style=""color:grey"">The text is GREY because you earned ZERO points. </p><p style=""color:red"">However, choosing to give the kids the equipment would have made you win points. The box around the text is RED because you chose the worse option. </p>","","0","instructions","","","","","","","","","","",""
"learning-instructions","20","215723","0.0-8.0-0.0-0.12","4508","1","20","Female","approach_avoid_spark_v1","""event"",""trial"",""time""
""fullscreenenter"",""1"",""2745""
","
","
","""event"",""trial"",""time""
""fullscreenenter"",""1"",""2745""
","
","","","","","","1112.7000000029802","<p> Here is what you might see if you did not give the equipment to the kids but it would have made them sad: </p><p style=""color:grey;font-size:50px; display: inline-block; border-spacing: 15px; border-width:3px; border-style:solid; border-color:green"">  &nbsp; -8 &nbsp; </p><p> Remember, in this case, you would not win or lose ANY points because you did not give them the equipment.  </p><p style=""color:grey"">The text is GREY because you earned ZERO points. </p><p  style=""color:green""> Choosing to give the kids the equipment would have made you lose points. The box around the text is GREEN because you chose the better option.</p>","","0","instructions","","","","","","","","","","",""
"learning-instructions","21","229551","0.0-8.0-0.0-0.13","4508","1","20","Female","approach_avoid_spark_v1","""event"",""trial"",""time""
""fullscreenenter"",""1"",""2745""
","
","
","""event"",""trial"",""time""
""fullscreenenter"",""1"",""2745""
","
","","","","","","4221","<p> You will have 3 seconds to make each choice. Try to respond before time runs out! </p><p> You will lose 5 points each time you do not make a response. </p>","","0","instructions","","","","","","","","","","",""
"learning-instructions","22","236233","0.0-8.0-0.0-0.14","4508","1","20","Female","approach_avoid_spark_v1","""event"",""trial"",""time""
""fullscreenenter"",""1"",""2745""
","
","
","""event"",""trial"",""time""
""fullscreenenter"",""1"",""2745""
","
","","","","","","1252","<p> This is just a practice round, but in the real game, your bonus payment will depend on your total number of points.","","0","instructions","","","","","","","","","","",""
"learning-instructions","23","242801","0.0-8.0-0.0-0.15","4508","1","20","Female","approach_avoid_spark_v1","""event"",""trial"",""time""
""fullscreenenter"",""1"",""2745""
","
","
","""event"",""trial"",""time""
""fullscreenenter"",""1"",""2745""
","
","","","","","","799.7000000029802","<p> Remember, you can give them the equipment by pressing 1 and choose not to give it to them by pressing 0. </p><br><div class=""choice-instructions-grid""> <div class=""choice-option""><img src=""images/approach.png"" class=""choice-option-img"" stage=""instructions"" position=""0"" ><div class=""choice-option-text""> Press ""1."" </div></div><div class=""choice-option""><img src=""images/avoid.png"" class=""choice-option-img"" stage=""instructions"" position=""1"" ><div class=""choice-option-text""> Press ""0."" </div></div>","","0","instructions","","","","","","","","","","",""
"html-button-response","24","244576","0.0-8.0-1.0","4508","1","20","Female","approach_avoid_spark_v1","""event"",""trial"",""time""
""fullscreenenter"",""1"",""2745""
","
","
","""event"",""trial"",""time""
""fullscreenenter"",""1"",""2745""
","
","","","","","","1655","<p> Ready to practice? </p>","0","","","","","","","","","","","","",""
"html-keyboard-response","25","245204","0.0-8.0-2.0-0.0","4508","1","20","Female","approach_avoid_spark_v1","""event"",""trial"",""time""
""fullscreenenter"",""1"",""2745""
","
","
","""event"",""trial"",""time""
""fullscreenenter"",""1"",""2745""
","
","","","","","","null","<div style=""font-size:60px;"">+</div>","null","","fixation","","","","","","","","","","",""
"aa-learning-trial","26","248218","0.0-8.0-2.0-1.0","4508","1","20","Female","approach_avoid_spark_v1","""event"",""trial"",""time""
""fullscreenenter"",""1"",""2745""
","
","
","""event"",""trial"",""time""
""fullscreenenter"",""1"",""2745""
","
","","","","","","2248.8000000044703","images/racket4.png","","","learning","-4","-4","1","1","practice","practice","practice","-1","","",""
"html-keyboard-response","27","248729","0.0-8.0-2.0-0.1","4508","1","20","Female","approach_avoid_spark_v1","""event"",""trial"",""time""
""fullscreenenter"",""1"",""2745""
","
","
","""event"",""trial"",""time""
""fullscreenenter"",""1"",""2745""
","
","","","","","","null","<div style=""font-size:60px;"">+</div>","null","","fixation","","","","","","","","","","",""
"aa-learning-trial","28","251750","0.0-8.0-2.0-1.1","4508","1","20","Female","approach_avoid_spark_v1","""event"",""trial"",""time""
""fullscreenenter"",""1"",""2745""
","
","
","""event"",""trial"",""time""
""fullscreenenter"",""1"",""2745""
","
","","","","","","1239.7000000029802","images/racket3.png","","","learning","1","1","1","1","practice","practice","practice","-1","","",""
"html-keyboard-response","29","252268","0.0-8.0-2.0-0.2","4508","1","20","Female","approach_avoid_spark_v1","""event"",""trial"",""time""
""fullscreenenter"",""1"",""2745""
","
","
","""event"",""trial"",""time""
""fullscreenenter"",""1"",""2745""
","
","","","","","","null","<div style=""font-size:60px;"">+</div>","null","","fixation","","","","","","","","","","",""
"aa-learning-trial","30","255287","0.0-8.0-2.0-1.2","4508","1","20","Female","approach_avoid_spark_v1","""event"",""trial"",""time""
""fullscreenenter"",""1"",""2745""
","
","
","""event"",""trial"",""time""
""fullscreenenter"",""1"",""2745""
","
","","","","","","1405.4000000059605","images/ball3.png","","","learning","4","4","1","1","practice","practice","practice","-1","","",""
"html-keyboard-response","31","255796","0.0-8.0-2.0-0.3","4508","1","20","Female","approach_avoid_spark_v1","""event"",""trial"",""time""
""fullscreenenter"",""1"",""2745""
","
","
","""event"",""trial"",""time""
""fullscreenenter"",""1"",""2745""
","
","","","","","","null","<div style=""font-size:60px;"">+</div>","null","","fixation","","","","","","","","","","",""
"aa-learning-trial","32","258804","0.0-8.0-2.0-1.3","4508","1","20","Female","approach_avoid_spark_v1","""event"",""trial"",""time""
""fullscreenenter"",""1"",""2745""
","
","
","""event"",""trial"",""time""
""fullscreenenter"",""1"",""2745""
","
","","","","","","1507.7999999970198","images/ball1.png","","","learning","4","4","1","1","practice","practice","practice","-1","","",""
"html-keyboard-response","33","259317","0.0-8.0-2.0-0.4","4508","1","20","Female","approach_avoid_spark_v1","""event"",""trial"",""time""
""fullscreenenter"",""1"",""2745""
","
","
","""event"",""trial"",""time""
""fullscreenenter"",""1"",""2745""
","
","","","","","","null","<div style=""font-size:60px;"">+</div>","null","","fixation","","","","","","","","","","",""
"aa-learning-trial","34","262328","0.0-8.0-2.0-1.4","4508","1","20","Female","approach_avoid_spark_v1","""event"",""trial"",""time""
""fullscreenenter"",""1"",""2745""
","
","
","""event"",""trial"",""time""
""fullscreenenter"",""1"",""2745""
","
","","","","","","1772.6000000014901","images/racket2.png","","","learning","-4","0","0","0","practice","practice","practice","-1","","",""
"html-keyboard-response","35","262837","0.0-8.0-2.0-0.5","4508","1","20","Female","approach_avoid_spark_v1","""event"",""trial"",""time""
""fullscreenenter"",""1"",""2745""
","
","
","""event"",""trial"",""time""
""fullscreenenter"",""1"",""2745""
","
","","","","","","null","<div style=""font-size:60px;"">+</div>","null","","fixation","","","","","","","","","","",""
"aa-learning-trial","36","265847","0.0-8.0-2.0-1.5","4508","1","20","Female","approach_avoid_spark_v1","""event"",""trial"",""time""
""fullscreenenter"",""1"",""2745""
","
","
","""event"",""trial"",""time""
""fullscreenenter"",""1"",""2745""
","
","","","","","","1844.6999999955297","images/racket2.png","","","learning","-7","0","0","0","practice","practice","practice","-1","","",""
"html-keyboard-response","37","266367","0.0-8.0-2.0-0.6","4508","1","20","Female","approach_avoid_spark_v1","""event"",""trial"",""time""
""fullscreenenter"",""1"",""2745""
","
","
","""event"",""trial"",""time""
""fullscreenenter"",""1"",""2745""
","
","","","","","","null","<div style=""font-size:60px;"">+</div>","null","","fixation","","","","","","","","","","",""
"aa-learning-trial","38","269383","0.0-8.0-2.0-1.6","4508","1","20","Female","approach_avoid_spark_v1","""event"",""trial"",""time""
""fullscreenenter"",""1"",""2745""
","
","
","""event"",""trial"",""time""
""fullscreenenter"",""1"",""2745""
","
","","","","","","1357.6000000014901","images/ball4.png","","","learning","-8","-8","1","1","practice","practice","practice","-1","","",""
"html-keyboard-response","39","269898","0.0-8.0-2.0-0.7","4508","1","20","Female","approach_avoid_spark_v1","""event"",""trial"",""time""
""fullscreenenter"",""1"",""2745""
","
","
","""event"",""trial"",""time""
""fullscreenenter"",""1"",""2745""
","
","","","","","","null","<div style=""font-size:60px;"">+</div>","null","","fixation","","","","","","","","","","",""
"aa-learning-trial","40","272910","0.0-8.0-2.0-1.7","4508","1","20","Female","approach_avoid_spark_v1","""event"",""trial"",""time""
""fullscreenenter"",""1"",""2745""
","
","
","""event"",""trial"",""time""
""fullscreenenter"",""1"",""2745""
","
","","","","","","1823.2999999970198","images/ball3.png","","","learning","-5","-5","1","1","practice","practice","practice","-1","","",""
"html-keyboard-response","41","273415","0.0-8.0-2.0-0.8","4508","1","20","Female","approach_avoid_spark_v1","""event"",""trial"",""time""
""fullscreenenter"",""1"",""2745""
","
","
","""event"",""trial"",""time""
""fullscreenenter"",""1"",""2745""
","
","","","","","","null","<div style=""font-size:60px;"">+</div>","null","","fixation","","","","","","","","","","",""
"aa-learning-trial","42","276423","0.0-8.0-2.0-1.8","4508","1","20","Female","approach_avoid_spark_v1","""event"",""trial"",""time""
""fullscreenenter"",""1"",""2745""
","
","
","""event"",""trial"",""time""
""fullscreenenter"",""1"",""2745""
","
","","","","","","1768","images/ball1.png","","","learning","-3","-3","1","1","practice","practice","practice","-1","","",""
"html-keyboard-response","43","276931","0.0-8.0-2.0-0.9","4508","1","20","Female","approach_avoid_spark_v1","""event"",""trial"",""time""
""fullscreenenter"",""1"",""2745""
","
","
","""event"",""trial"",""time""
""fullscreenenter"",""1"",""2745""
","
","","","","","","null","<div style=""font-size:60px;"">+</div>","null","","fixation","","","","","","","","","","",""
"aa-learning-trial","44","279955","0.0-8.0-2.0-1.9","4508","1","20","Female","approach_avoid_spark_v1","""event"",""trial"",""time""
""fullscreenenter"",""1"",""2745""
","
","
","""event"",""trial"",""time""
""fullscreenenter"",""1"",""2745""
","
","","","","","","1562.9000000059605","images/ball4.png","","","learning","1","0","0","0","practice","practice","practice","-1","","",""
"html-keyboard-response","45","280465","0.0-8.0-2.0-0.10","4508","1","20","Female","approach_avoid_spark_v1","""event"",""trial"",""time""
""fullscreenenter"",""1"",""2745""
","
","
","""event"",""trial"",""time""
""fullscreenenter"",""1"",""2745""
","
","","","","","","null","<div style=""font-size:60px;"">+</div>","null","","fixation","","","","","","","","","","",""
"aa-learning-trial","46","283475","0.0-8.0-2.0-1.10","4508","1","20","Female","approach_avoid_spark_v1","""event"",""trial"",""time""
""fullscreenenter"",""1"",""2745""
","
","
","""event"",""trial"",""time""
""fullscreenenter"",""1"",""2745""
","
","","","","","","1072.3999999985099","images/racket4.png","","","learning","-6","0","0","0","practice","practice","practice","-1","","",""
"html-keyboard-response","47","283998","0.0-8.0-2.0-0.11","4508","1","20","Female","approach_avoid_spark_v1","""event"",""trial"",""time""
""fullscreenenter"",""1"",""2745""
","
","
","""event"",""trial"",""time""
""fullscreenenter"",""1"",""2745""
","
","","","","","","null","<div style=""font-size:60px;"">+</div>","null","","fixation","","","","","","","","","","",""
"aa-learning-trial","48","287015","0.0-8.0-2.0-1.11","4508","1","20","Female","approach_avoid_spark_v1","""event"",""trial"",""time""
""fullscreenenter"",""1"",""2745""
","
","
","""event"",""trial"",""time""
""fullscreenenter"",""1"",""2745""
","
","","","","","","1876","images/ball4.png","","","learning","8","8","1","1","practice","practice","practice","-1","","",""
"html-button-response","49","320485","0.0-8.0-3.0","4508","1","20","Female","approach_avoid_spark_v1","""event"",""trial"",""time""
""fullscreenenter"",""1"",""2745""
","
","
","""event"",""trial"",""time""
""fullscreenenter"",""1"",""2745""
","
","","","","","","33465.79999999702","<p> You earned -3 points in the practice round! </p>","0","","break","","","","","","","","","","",""
"learning-instructions","50","330734","0.0-8.0-4.0-0.0","4508","1","20","Female","approach_avoid_spark_v1","""event"",""trial"",""time""
""fullscreenenter"",""1"",""2745""
","
","
","""event"",""trial"",""time""
""fullscreenenter"",""1"",""2745""
","
","","","","","","3592.10000000149","<p> It's almost time to start the real game. </p><p> Before you start, we're going to ask you a few questions about how the game works. </p>","","0","instructions","","","","","","","","","","",""
"preload","51","333165","0.0-8.0-5.0","4508","1","20","Female","approach_avoid_spark_v1","""event"",""trial"",""time""
""fullscreenenter"",""1"",""2745""
","
","
","""event"",""trial"",""time""
""fullscreenenter"",""1"",""2745""
","
","true","false","[]","[]","[]","","","","","","","","","","","","","","","",""
"comp-q","52","339894","0.0-8.0-6.0-0.0","4508","1","20","Female","approach_avoid_spark_v1","""event"",""trial"",""time""
""fullscreenenter"",""1"",""2745""
","
","
","""event"",""trial"",""time""
""fullscreenenter"",""1"",""2745""
","
","","","","","","1731.8999999985099","<p> <b> True or False? </b> </p><p> If you see a number in GREY, that means you earned that many points. </p>","","1","comp_question","","","","","","","","","true","",""
"comp-q","53","349702","0.0-8.0-6.0-1.0","4508","1","20","Female","approach_avoid_spark_v1","""event"",""trial"",""time""
""fullscreenenter"",""1"",""2745""
","
","
","""event"",""trial"",""time""
""fullscreenenter"",""1"",""2745""
","
","","","","","","1430.1000000014901","<p><b> That's right! </b> If you see a grey number, it means you earned ZERO points. <br> The grey numbers show the points you WOULD HAVE earned if you had made the other choice. </p>","","0","comp_answer","","","","","","","","","","",""
"comp-q","54","355604","0.0-8.0-7.0-0.0","4508","1","20","Female","approach_avoid_spark_v1","""event"",""trial"",""time""
""fullscreenenter"",""1"",""2745""
","
","
","""event"",""trial"",""time""
""fullscreenenter"",""1"",""2745""
","
","","","","","","1201.7999999970198","<p> <b> True or False? </b> </p><p> You will have as much time as you want to make each choice. </p>","","1","comp_question","","","","","","","","","true","",""
"comp-q","55","361004","0.0-8.0-7.0-1.0","4508","1","20","Female","approach_avoid_spark_v1","""event"",""trial"",""time""
""fullscreenenter"",""1"",""2745""
","
","
","""event"",""trial"",""time""
""fullscreenenter"",""1"",""2745""
","
","","","","","","1341.3999999985099","<p> <b> That's right! </b> You will only have 3 seconds to make each choice. </p>","","0","comp_answer","","","","","","","","","","",""
"comp-q","56","367074","0.0-8.0-8.0-0.0","4508","1","20","Female","approach_avoid_spark_v1","""event"",""trial"",""time""
""fullscreenenter"",""1"",""2745""
","
","
","""event"",""trial"",""time""
""fullscreenenter"",""1"",""2745""
","
","","","","","","1392","<p> <b> True or False? </b> </p><p> You should use the '1' and '0' keys to make your choices. </p>","","0","comp_question","","","","","","","","","true","",""
"comp-q","57","375443","0.0-8.0-8.0-1.0","4508","1","20","Female","approach_avoid_spark_v1","""event"",""trial"",""time""
""fullscreenenter"",""1"",""2745""
","
","
","""event"",""trial"",""time""
""fullscreenenter"",""1"",""2745""
","
","","","","","","3751","<p> <b> That's right! </b> You should use the '1' and '0' keys to make each choice. </p>","","0","comp_answer","","","","","","","","","","",""
"learning-instructions","58","400118","0.0-8.0-9.0-0.0","4508","1","20","Female","approach_avoid_spark_v1","""event"",""trial"",""time""
""fullscreenenter"",""1"",""2745""
","
","
","""event"",""trial"",""time""
""fullscreenenter"",""1"",""2745""
","
","","","","","","18386.60000000149","<p> It's now time to start the real game. </p>Do your best, because the points you earn in the next rounds will influence your bonus payment. </p>","","0","instructions","","","","","","","","","","",""
"preload","59","400277","0.0-9.0-0.0","4508","1","20","Female","approach_avoid_spark_v1","""event"",""trial"",""time""
""fullscreenenter"",""1"",""2745""
","
","
","""event"",""trial"",""time""
""fullscreenenter"",""1"",""2745""
","
","true","false","[]","[]","[]","","","","","","","","","","","","","","","",""
"learning-instructions","60","405742","0.0-9.0-1.0-0.0","4508","1","20","Female","approach_avoid_spark_v1","""event"",""trial"",""time""
""fullscreenenter"",""1"",""2745""
","
","
","""event"",""trial"",""time""
""fullscreenenter"",""1"",""2745""
","
","","","","","","1670.3000000044703","<p> Your goal in this round is to eat tasty fruit. </p></div>","","0","instructions","","","","","","","","","","",""
"learning-instructions","61","416392","0.0-9.0-1.0-0.1","4508","1","20","Female","approach_avoid_spark_v1","""event"",""trial"",""time""
""fullscreenenter"",""1"",""2745""
","
","
","""event"",""trial"",""time""
""fullscreenenter"",""1"",""2745""
","
","","","","","","630.8000000044703","<p> Some of the fruits you will see are tasty. Others are rotten on the inside.  </p><p> On each turn, you will see a fruit.   </p><p> You need to decide whether to eat it or not.  </p>","","0","instructions","","","","","","","","","","",""
"learning-instructions","62","422384","0.0-9.0-1.0-0.2","4508","1","20","Female","approach_avoid_spark_v1","""event"",""trial"",""time""
""fullscreenenter"",""1"",""2745""
","
","
","""event"",""trial"",""time""
""fullscreenenter"",""1"",""2745""
","
","","","","","","761.9000000059605","<p> You can eat the fruit by pressing 1 and choose not to eat it by pressing 0. </p><br><div class=""choice-instructions-grid""> <div class=""choice-option""><img src=""images/approach.png"" class=""choice-option-img"" stage=""instructions"" position=""0"" ><div class=""choice-option-text""> Press ""1."" </div></div><div class=""choice-option""><img src=""images/avoid.png"" class=""choice-option-img"" stage=""instructions"" position=""1"" ><div class=""choice-option-text""> Press ""0."" </div></div>","","0","instructions","","","","","","","","","","",""
"learning-instructions","63","430799","0.0-9.0-1.0-0.3","4508","1","20","Female","approach_avoid_spark_v1","""event"",""trial"",""time""
""fullscreenenter"",""1"",""2745""
","
","
","""event"",""trial"",""time""
""fullscreenenter"",""1"",""2745""
","
","","","","","","667.8000000044703","<p> If you eat the fruit and it was tasty, you will win points! </p><p> But if you eat the fruit and it was rotten, you will lose points. </p>","","0","instructions","","","","","","","","","","",""
"learning-instructions","64","443058","0.0-9.0-1.0-0.4","4508","1","20","Female","approach_avoid_spark_v1","""event"",""trial"",""time""
""fullscreenenter"",""1"",""2745""
","
","
","""event"",""trial"",""time""
""fullscreenenter"",""1"",""2745""
","
","","","","","","746.2000000029802","<p> You will earn points based on how tasty or rotten the fruit was. </p><p> If it was tasty, you will WIN anywhere from 1 - 9 points, </p><p> but if it was rotten, you will LOSE anywhere from 1 - 9 points. </p>","","0","instructions","","","","","","","","","","",""
"learning-instructions","65","451613","0.0-9.0-1.0-0.5","4508","1","20","Female","approach_avoid_spark_v1","""event"",""trial"",""time""
""fullscreenenter"",""1"",""2745""
","
","
","""event"",""trial"",""time""
""fullscreenenter"",""1"",""2745""
","
","","","","","","621.5","<p> You will see how many points you won or lost in the center of the screen. </p><p> Here is what you would see if you earned 5 points: </p><p style=""color:green;font-size:50px;font-weight:bolder"">5</p>","","0","instructions","","","","","","","","","","",""
"learning-instructions","66","456293","0.0-9.0-1.0-0.6","4508","1","20","Female","approach_avoid_spark_v1","""event"",""trial"",""time""
""fullscreenenter"",""1"",""2745""
","
","
","""event"",""trial"",""time""
""fullscreenenter"",""1"",""2745""
","
","","","","","","741.1999999955297","<p> And here is what you would see if you lost 3 points: </p><p style=""color:red;font-size:50px;font-weight:bolder"">-3</p>","","0","instructions","","","","","","","","","","",""
"learning-instructions","67","471114","0.0-9.0-1.0-0.7","4508","1","20","Female","approach_avoid_spark_v1","""event"",""trial"",""time""
""fullscreenenter"",""1"",""2745""
","
","
","""event"",""trial"",""time""
""fullscreenenter"",""1"",""2745""
","
","","","","","","771.7000000029802","<p> Some fruit is very tasty or very rotten. </p><p> These fruits will make you win or lose LOTS of points. </p><p> Other fruits are only kind of tasty or kind of rotten. </p><p> These fruits will make you win or lose small amounts of points. </p>","","0","instructions","","","","","","","","","","",""
"learning-instructions","68","483092","0.0-9.0-1.0-0.8","4508","1","20","Female","approach_avoid_spark_v1","""event"",""trial"",""time""
""fullscreenenter"",""1"",""2745""
","
","
","""event"",""trial"",""time""
""fullscreenenter"",""1"",""2745""
","
","","","","","","1360.1000000014901","<p> If you choose to not eat the fruit, you will not win or lose any points. </p><p>  However, in the center of the screen, you will see the number of points you WOULD HAVE earned if you had eaten the fruit. </p>","","0","instructions","","","","","","","","","","",""
"learning-instructions","69","494143","0.0-9.0-1.0-0.9","4508","1","20","Female","approach_avoid_spark_v1","""event"",""trial"",""time""
""fullscreenenter"",""1"",""2745""
","
","
","""event"",""trial"",""time""
""fullscreenenter"",""1"",""2745""
","
","","","","","","921.6000000014901","<p> Here is what you might see if you did not eat the fruit but the fruit was tasty: </p><p style=""color:grey; font-size:50px; display: inline-block; border-spacing: 15px; border-width:3px; border-style:solid; border-color:red"">  &nbsp; 6 &nbsp; </p><p> Remember, in this case, you would not win or lose ANY points because you did not eat the fruit.  </p>","","0","instructions","","","","","","","","","","",""
"learning-instructions","70","503242","0.0-9.0-1.0-0.10","4508","1","20","Female","approach_avoid_spark_v1","""event"",""trial"",""time""
""fullscreenenter"",""1"",""2745""
","
","
","""event"",""trial"",""time""
""fullscreenenter"",""1"",""2745""
","
","","","","","","850.8999999985099","<p> Try to make the best choice for each fruit because </p><p> at the end of the game, you will earn bonus money based on how many points you earned. </p>","","0","instructions","","","","","","","","","","",""
"learning-instructions","71","512282","0.0-9.0-1.0-0.11","4508","1","20","Female","approach_avoid_spark_v1","""event"",""trial"",""time""
""fullscreenenter"",""1"",""2745""
","
","
","""event"",""trial"",""time""
""fullscreenenter"",""1"",""2745""
","
","","","","","","840.3999999985099","<p> You will have 3 seconds to make each choice. Try to respond before time runs out! </p><p> You will lose 5 points each time you do not make a response. </p>","","0","instructions","","","","","","","","","","",""
"html-keyboard-response","72","512894","0.0-9.0-2.0-0.0","4508","1","20","Female","approach_avoid_spark_v1","""event"",""trial"",""time""
""fullscreenenter"",""1"",""2745""
","
","
","""event"",""trial"",""time""
""fullscreenenter"",""1"",""2745""
","
","","","","","","null","<div style=""font-size:60px;"">+</div>","null","","fixation","","","","","","","","","","",""
"aa-learning-trial","73","515919","0.0-9.0-2.0-1.0","4508","1","20","Female","approach_avoid_spark_v1","""event"",""trial"",""time""
""fullscreenenter"",""1"",""2745""
","
","
","""event"",""trial"",""time""
""fullscreenenter"",""1"",""2745""
","
","","","","","","1267.6000000014901","images/straw6.png","","","learning","-7","-7","1","1","straw","fruit","1","0","","bad","[-5]"
"html-keyboard-response","74","516429","0.0-9.0-2.0-0.1","4508","1","20","Female","approach_avoid_spark_v1","""event"",""trial"",""time""
""fullscreenenter"",""1"",""2745""
","
","
","""event"",""trial"",""time""
""fullscreenenter"",""1"",""2745""
","
","","","","","","null","<div style=""font-size:60px;"">+</div>","null","","fixation","","","","","","","","","","",""
"aa-learning-trial","75","519447","0.0-9.0-2.0-1.1","4508","1","20","Female","approach_avoid_spark_v1","""event"",""trial"",""time""
""fullscreenenter"",""1"",""2745""
","
","
","""event"",""trial"",""time""
""fullscreenenter"",""1"",""2745""
","
","","","","","","858.6000000014901","images/orange3.png","","","learning","4","4","1","1","orange","fruit","1","0","","good","[4]"
"html-keyboard-response","76","519969","0.0-9.0-2.0-0.2","4508","1","20","Female","approach_avoid_spark_v1","""event"",""trial"",""time""
""fullscreenenter"",""1"",""2745""
","
","
","""event"",""trial"",""time""
""fullscreenenter"",""1"",""2745""
","
","","","","","","null","<div style=""font-size:60px;"">+</div>","null","","fixation","","","","","","","","","","",""
"aa-learning-trial","77","522979","0.0-9.0-2.0-1.2","4508","1","20","Female","approach_avoid_spark_v1","""event"",""trial"",""time""
""fullscreenenter"",""1"",""2745""
","
","
","""event"",""trial"",""time""
""fullscreenenter"",""1"",""2745""
","
","","","","","","1081.5","images/apple8.png","","","learning","-1","-1","1","1","apple","fruit","1","0","","neutral","0"
"html-keyboard-response","78","523489","0.0-9.0-2.0-0.3","4508","1","20","Female","approach_avoid_spark_v1","""event"",""trial"",""time""
""fullscreenenter"",""1"",""2745""
","
","
","""event"",""trial"",""time""
""fullscreenenter"",""1"",""2745""
","
","","","","","","null","<div style=""font-size:60px;"">+</div>","null","","fixation","","","","","","","","","","",""
"aa-learning-trial","79","526499","0.0-9.0-2.0-1.3","4508","1","20","Female","approach_avoid_spark_v1","""event"",""trial"",""time""
""fullscreenenter"",""1"",""2745""
","
","
","""event"",""trial"",""time""
""fullscreenenter"",""1"",""2745""
","
","","","","","","709.1999999955297","images/apple6.png","","","learning","[-1]","0","0","0","apple","fruit","1","0","","neutral","0"
"html-keyboard-response","80","527019","0.0-9.0-2.0-0.4","4508","1","20","Female","approach_avoid_spark_v1","""event"",""trial"",""time""
""fullscreenenter"",""1"",""2745""
","
","
","""event"",""trial"",""time""
""fullscreenenter"",""1"",""2745""
","
","","","","","","null","<div style=""font-size:60px;"">+</div>","null","","fixation","","","","","","","","","","",""
"aa-learning-trial","81","530049","0.0-9.0-2.0-1.4","4508","1","20","Female","approach_avoid_spark_v1","""event"",""trial"",""time""
""fullscreenenter"",""1"",""2745""
","
","
","""event"",""trial"",""time""
""fullscreenenter"",""1"",""2745""
","
","","","","","","1063.6000000014901","images/straw1.png","","","learning","-4","-4","1","1","straw","fruit","1","0","","bad","[-5]"
"html-keyboard-response","82","530558","0.0-9.0-2.0-0.5","4508","1","20","Female","approach_avoid_spark_v1","""event"",""trial"",""time""
""fullscreenenter"",""1"",""2745""
","
","
","""event"",""trial"",""time""
""fullscreenenter"",""1"",""2745""
","
","","","","","","null","<div style=""font-size:60px;"">+</div>","null","","fixation","","","","","","","","","","",""
"aa-learning-trial","83","533578","0.0-9.0-2.0-1.5","4508","1","20","Female","approach_avoid_spark_v1","""event"",""trial"",""time""
""fullscreenenter"",""1"",""2745""
","
","
","""event"",""trial"",""time""
""fullscreenenter"",""1"",""2745""
","
","","","","","","874.3000000044703","images/straw6.png","","","learning","-6","0","0","0","straw","fruit","1","0","","bad","[-5]"
"html-keyboard-response","84","534099","0.0-9.0-2.0-0.6","4508","1","20","Female","approach_avoid_spark_v1","""event"",""trial"",""time""
""fullscreenenter"",""1"",""2745""
","
","
","""event"",""trial"",""time""
""fullscreenenter"",""1"",""2745""
","
","","","","","","null","<div style=""font-size:60px;"">+</div>","null","","fixation","","","","","","","","","","",""
"aa-learning-trial","85","537129","0.0-9.0-2.0-1.6","4508","1","20","Female","approach_avoid_spark_v1","""event"",""trial"",""time""
""fullscreenenter"",""1"",""2745""
","
","
","""event"",""trial"",""time""
""fullscreenenter"",""1"",""2745""
","
","","","","","","1117.5","images/apple8.png","","","learning","-1","0","0","0","apple","fruit","1","0","","neutral","0"
"html-keyboard-response","86","537645","0.0-9.0-2.0-0.7","4508","1","20","Female","approach_avoid_spark_v1","""event"",""trial"",""time""
""fullscreenenter"",""1"",""2745""
","
","
","""event"",""trial"",""time""
""fullscreenenter"",""1"",""2745""
","
","","","","","","null","<div style=""font-size:60px;"">+</div>","null","","fixation","","","","","","","","","","",""
"aa-learning-trial","87","540661","0.0-9.0-2.0-1.7","4508","1","20","Female","approach_avoid_spark_v1","""event"",""trial"",""time""
""fullscreenenter"",""1"",""2745""
","
","
","""event"",""trial"",""time""
""fullscreenenter"",""1"",""2745""
","
","","","","","","970.1000000014901","images/apple7.png","","","learning","-4","-4","1","1","apple","fruit","1","0","","neutral","0"
"html-keyboard-response","88","541172","0.0-9.0-2.0-0.8","4508","1","20","Female","approach_avoid_spark_v1","""event"",""trial"",""time""
""fullscreenenter"",""1"",""2745""
","
","
","""event"",""trial"",""time""
""fullscreenenter"",""1"",""2745""
","
","","","","","","null","<div style=""font-size:60px;"">+</div>","null","","fixation","","","","","","","","","","",""
"aa-learning-trial","89","544190","0.0-9.0-2.0-1.8","4508","1","20","Female","approach_avoid_spark_v1","""event"",""trial"",""time""
""fullscreenenter"",""1"",""2745""
","
","
","""event"",""trial"",""time""
""fullscreenenter"",""1"",""2745""
","
","","","","","","982.5","images/orange7.png","","","learning","4","4","1","1","orange","fruit","1","0","","good","[4]"
"html-keyboard-response","90","544702","0.0-9.0-2.0-0.9","4508","1","20","Female","approach_avoid_spark_v1","""event"",""trial"",""time""
""fullscreenenter"",""1"",""2745""
","
","
","""event"",""trial"",""time""
""fullscreenenter"",""1"",""2745""
","
","","","","","","null","<div style=""font-size:60px;"">+</div>","null","","fixation","","","","","","","","","","",""
"aa-learning-trial","91","547711","0.0-9.0-2.0-1.9","4508","1","20","Female","approach_avoid_spark_v1","""event"",""trial"",""time""
""fullscreenenter"",""1"",""2745""
","
","
","""event"",""trial"",""time""
""fullscreenenter"",""1"",""2745""
","
","","","","","","1620.8999999985099","images/orange4.png","","","learning","4","4","1","1","orange","fruit","1","0","","good","[4]"
"html-keyboard-response","92","548219","0.0-9.0-2.0-0.10","4508","1","20","Female","approach_avoid_spark_v1","""event"",""trial"",""time""
""fullscreenenter"",""1"",""2745""
","
","
","""event"",""trial"",""time""
""fullscreenenter"",""1"",""2745""
","
","","","","","","null","<div style=""font-size:60px;"">+</div>","null","","fixation","","","","","","","","","","",""
"aa-learning-trial","93","551235","0.0-9.0-2.0-1.10","4508","1","20","Female","approach_avoid_spark_v1","""event"",""trial"",""time""
""fullscreenenter"",""1"",""2745""
","
","
","""event"",""trial"",""time""
""fullscreenenter"",""1"",""2745""
","
","","","","","","1007.2000000029802","images/straw4.png","","","learning","-5","-5","1","1","straw","fruit","1","0","","bad","[-5]"
"html-keyboard-response","94","551747","0.0-9.0-2.0-0.11","4508","1","20","Female","approach_avoid_spark_v1","""event"",""trial"",""time""
""fullscreenenter"",""1"",""2745""
","
","
","""event"",""trial"",""time""
""fullscreenenter"",""1"",""2745""
","
","","","","","","null","<div style=""font-size:60px;"">+</div>","null","","fixation","","","","","","","","","","",""
"aa-learning-trial","95","554765","0.0-9.0-2.0-1.11","4508","1","20","Female","approach_avoid_spark_v1","""event"",""trial"",""time""
""fullscreenenter"",""1"",""2745""
","
","
","""event"",""trial"",""time""
""fullscreenenter"",""1"",""2745""
","
","","","","","","1012.7000000029802","images/apple6.png","","","learning","3","0","0","0","apple","fruit","1","0","","neutral","0"
"html-keyboard-response","96","555284","0.0-9.0-2.0-0.12","4508","1","20","Female","approach_avoid_spark_v1","""event"",""trial"",""time""
""fullscreenenter"",""1"",""2745""
","
","
","""event"",""trial"",""time""
""fullscreenenter"",""1"",""2745""
","
","","","","","","null","<div style=""font-size:60px;"">+</div>","null","","fixation","","","","","","","","","","",""
"aa-learning-trial","97","558302","0.0-9.0-2.0-1.12","4508","1","20","Female","approach_avoid_spark_v1","""event"",""trial"",""time""
""fullscreenenter"",""1"",""2745""
","
","
","""event"",""trial"",""time""
""fullscreenenter"",""1"",""2745""
","
","","","","","","1134.1000000014901","images/orange3.png","","","learning","6","6","1","1","orange","fruit","1","0","","good","[4]"
"html-keyboard-response","98","558807","0.0-9.0-2.0-0.13","4508","1","20","Female","approach_avoid_spark_v1","""event"",""trial"",""time""
""fullscreenenter"",""1"",""2745""
","
","
","""event"",""trial"",""time""
""fullscreenenter"",""1"",""2745""
","
","","","","","","null","<div style=""font-size:60px;"">+</div>","null","","fixation","","","","","","","","","","",""
"aa-learning-trial","99","561818","0.0-9.0-2.0-1.13","4508","1","20","Female","approach_avoid_spark_v1","""event"",""trial"",""time""
""fullscreenenter"",""1"",""2745""
","
","
","""event"",""trial"",""time""
""fullscreenenter"",""1"",""2745""
","
","","","","","","1334.7000000029802","images/straw4.png","","","learning","-2","0","0","0","straw","fruit","1","0","","bad","[-5]"
"html-keyboard-response","100","562333","0.0-9.0-2.0-0.14","4508","1","20","Female","approach_avoid_spark_v1","""event"",""trial"",""time""
""fullscreenenter"",""1"",""2745""
","
","
","""event"",""trial"",""time""
""fullscreenenter"",""1"",""2745""
","
","","","","","","null","<div style=""font-size:60px;"">+</div>","null","","fixation","","","","","","","","","","",""
"aa-learning-trial","101","565343","0.0-9.0-2.0-1.14","4508","1","20","Female","approach_avoid_spark_v1","""event"",""trial"",""time""
""fullscreenenter"",""1"",""2745""
","
","
","""event"",""trial"",""time""
""fullscreenenter"",""1"",""2745""
","
","","","","","","1643.5","images/orange4.png","","","learning","2","2","1","1","orange","fruit","1","0","","good","[4]"
"html-keyboard-response","102","565856","0.0-9.0-2.0-0.15","4508","1","20","Female","approach_avoid_spark_v1","""event"",""trial"",""time""
""fullscreenenter"",""1"",""2745""
","
","
","""event"",""trial"",""time""
""fullscreenenter"",""1"",""2745""
","
","","","","","","null","<div style=""font-size:60px;"">+</div>","null","","fixation","","","","","","","","","","",""
"aa-learning-trial","103","568873","0.0-9.0-2.0-1.15","4508","1","20","Female","approach_avoid_spark_v1","""event"",""trial"",""time""
""fullscreenenter"",""1"",""2745""
","
","
","""event"",""trial"",""time""
""fullscreenenter"",""1"",""2745""
","
","","","","","","848.8000000044703","images/straw1.png","","","learning","-8","-8","1","1","straw","fruit","1","0","","bad","[-5]"
"html-keyboard-response","104","569383","0.0-9.0-2.0-0.16","4508","1","20","Female","approach_avoid_spark_v1","""event"",""trial"",""time""
""fullscreenenter"",""1"",""2745""
","
","
","""event"",""trial"",""time""
""fullscreenenter"",""1"",""2745""
","
","","","","","","null","<div style=""font-size:60px;"">+</div>","null","","fixation","","","","","","","","","","",""
"aa-learning-trial","105","572401","0.0-9.0-2.0-1.16","4508","1","20","Female","approach_avoid_spark_v1","""event"",""trial"",""time""
""fullscreenenter"",""1"",""2745""
","
","
","""event"",""trial"",""time""
""fullscreenenter"",""1"",""2745""
","
","","","","","","864.5","images/apple8.png","","","learning","-1","0","0","0","apple","fruit","1","0","","neutral","0"
"html-keyboard-response","106","572912","0.0-9.0-2.0-0.17","4508","1","20","Female","approach_avoid_spark_v1","""event"",""trial"",""time""
""fullscreenenter"",""1"",""2745""
","
","
","""event"",""trial"",""time""
""fullscreenenter"",""1"",""2745""
","
","","","","","","null","<div style=""font-size:60px;"">+</div>","null","","fixation","","","","","","","","","","",""
"aa-learning-trial","107","575927","0.0-9.0-2.0-1.17","4508","1","20","Female","approach_avoid_spark_v1","""event"",""trial"",""time""
""fullscreenenter"",""1"",""2745""
","
","
","""event"",""trial"",""time""
""fullscreenenter"",""1"",""2745""
","
","","","","","","943.2000000029802","images/orange4.png","","","learning","2","2","1","1","orange","fruit","1","0","","good","[4]"
"html-keyboard-response","108","576437","0.0-9.0-2.0-0.18","4508","1","20","Female","approach_avoid_spark_v1","""event"",""trial"",""time""
""fullscreenenter"",""1"",""2745""
","
","
","""event"",""trial"",""time""
""fullscreenenter"",""1"",""2745""
","
","","","","","","null","<div style=""font-size:60px;"">+</div>","null","","fixation","","","","","","","","","","",""
"aa-learning-trial","109","579450","0.0-9.0-2.0-1.18","4508","1","20","Female","approach_avoid_spark_v1","""event"",""trial"",""time""
""fullscreenenter"",""1"",""2745""
","
","
","""event"",""trial"",""time""
""fullscreenenter"",""1"",""2745""
","
","","","","","","832.8999999985099","images/straw6.png","","","learning","-4","0","0","0","straw","fruit","1","0","","bad","[-5]"
"html-keyboard-response","110","579965","0.0-9.0-2.0-0.19","4508","1","20","Female","approach_avoid_spark_v1","""event"",""trial"",""time""
""fullscreenenter"",""1"",""2745""
","
","
","""event"",""trial"",""time""
""fullscreenenter"",""1"",""2745""
","
","","","","","","null","<div style=""font-size:60px;"">+</div>","null","","fixation","","","","","","","","","","",""
"aa-learning-trial","111","582984","0.0-9.0-2.0-1.19","4508","1","20","Female","approach_avoid_spark_v1","""event"",""trial"",""time""
""fullscreenenter"",""1"",""2745""
","
","
","""event"",""trial"",""time""
""fullscreenenter"",""1"",""2745""
","
","","","","","","714.2999999970198","images/orange7.png","","","learning","3","3","1","1","orange","fruit","1","0","","good","[4]"
"html-keyboard-response","112","583496","0.0-9.0-2.0-0.20","4508","1","20","Female","approach_avoid_spark_v1","""event"",""trial"",""time""
""fullscreenenter"",""1"",""2745""
","
","
","""event"",""trial"",""time""
""fullscreenenter"",""1"",""2745""
","
","","","","","","null","<div style=""font-size:60px;"">+</div>","null","","fixation","","","","","","","","","","",""
"aa-learning-trial","113","586519","0.0-9.0-2.0-1.20","4508","1","20","Female","approach_avoid_spark_v1","""event"",""trial"",""time""
""fullscreenenter"",""1"",""2745""
","
","
","""event"",""trial"",""time""
""fullscreenenter"",""1"",""2745""
","
","","","","","","1057.6999999955297","images/apple7.png","","","learning","2","0","0","0","apple","fruit","1","0","","neutral","0"
"html-keyboard-response","114","587027","0.0-9.0-2.0-0.21","4508","1","20","Female","approach_avoid_spark_v1","""event"",""trial"",""time""
""fullscreenenter"",""1"",""2745""
","
","
","""event"",""trial"",""time""
""fullscreenenter"",""1"",""2745""
","
","","","","","","null","<div style=""font-size:60px;"">+</div>","null","","fixation","","","","","","","","","","",""
"aa-learning-trial","115","590037","0.0-9.0-2.0-1.21","4508","1","20","Female","approach_avoid_spark_v1","""event"",""trial"",""time""
""fullscreenenter"",""1"",""2745""
","
","
","""event"",""trial"",""time""
""fullscreenenter"",""1"",""2745""
","
","","","","","","1182.2000000029802","images/orange4.png","","","learning","3","0","0","0","orange","fruit","1","0","","good","[4]"
"html-keyboard-response","116","590547","0.0-9.0-2.0-0.22","4508","1","20","Female","approach_avoid_spark_v1","""event"",""trial"",""time""
""fullscreenenter"",""1"",""2745""
","
","
","""event"",""trial"",""time""
""fullscreenenter"",""1"",""2745""
","
","","","","","","null","<div style=""font-size:60px;"">+</div>","null","","fixation","","","","","","","","","","",""
"aa-learning-trial","117","593562","0.0-9.0-2.0-1.22","4508","1","20","Female","approach_avoid_spark_v1","""event"",""trial"",""time""
""fullscreenenter"",""1"",""2745""
","
","
","""event"",""trial"",""time""
""fullscreenenter"",""1"",""2745""
","
","","","","","","1028.1000000014901","images/apple7.png","","","learning","-2","0","0","0","apple","fruit","1","0","","neutral","0"
"html-keyboard-response","118","594074","0.0-9.0-2.0-0.23","4508","1","20","Female","approach_avoid_spark_v1","""event"",""trial"",""time""
""fullscreenenter"",""1"",""2745""
","
","
","""event"",""trial"",""time""
""fullscreenenter"",""1"",""2745""
","
","","","","","","null","<div style=""font-size:60px;"">+</div>","null","","fixation","","","","","","","","","","",""
"aa-learning-trial","119","597083","0.0-9.0-2.0-1.23","4508","1","20","Female","approach_avoid_spark_v1","""event"",""trial"",""time""
""fullscreenenter"",""1"",""2745""
","
","
","""event"",""trial"",""time""
""fullscreenenter"",""1"",""2745""
","
","","","","","","894.5","images/straw6.png","","","learning","-4","0","0","0","straw","fruit","1","0","","bad","[-5]"
"html-keyboard-response","120","597598","0.0-9.0-2.0-0.24","4508","1","20","Female","approach_avoid_spark_v1","""event"",""trial"",""time""
""fullscreenenter"",""1"",""2745""
","
","
","""event"",""trial"",""time""
""fullscreenenter"",""1"",""2745""
","
","","","","","","null","<div style=""font-size:60px;"">+</div>","null","","fixation","","","","","","","","","","",""
"aa-learning-trial","121","600607","0.0-9.0-2.0-1.24","4508","1","20","Female","approach_avoid_spark_v1","""event"",""trial"",""time""
""fullscreenenter"",""1"",""2745""
","
","
","""event"",""trial"",""time""
""fullscreenenter"",""1"",""2745""
","
","","","","","","1622.1000000014901","images/straw4.png","","","learning","-4","0","0","0","straw","fruit","1","0","","bad","[-5]"
"html-keyboard-response","122","601111","0.0-9.0-2.0-0.25","4508","1","20","Female","approach_avoid_spark_v1","""event"",""trial"",""time""
""fullscreenenter"",""1"",""2745""
","
","
","""event"",""trial"",""time""
""fullscreenenter"",""1"",""2745""
","
","","","","","","null","<div style=""font-size:60px;"">+</div>","null","","fixation","","","","","","","","","","",""
"aa-learning-trial","123","604120","0.0-9.0-2.0-1.25","4508","1","20","Female","approach_avoid_spark_v1","""event"",""trial"",""time""
""fullscreenenter"",""1"",""2745""
","
","
","""event"",""trial"",""time""
""fullscreenenter"",""1"",""2745""
","
","","","","","","994.1999999955297","images/straw1.png","","","learning","-6","-6","1","1","straw","fruit","1","0","","bad","[-5]"
"html-keyboard-response","124","604630","0.0-9.0-2.0-0.26","4508","1","20","Female","approach_avoid_spark_v1","""event"",""trial"",""time""
""fullscreenenter"",""1"",""2745""
","
","
","""event"",""trial"",""time""
""fullscreenenter"",""1"",""2745""
","
","","","","","","null","<div style=""font-size:60px;"">+</div>","null","","fixation","","","","","","","","","","",""
"aa-learning-trial","125","607640","0.0-9.0-2.0-1.26","4508","1","20","Female","approach_avoid_spark_v1","""event"",""trial"",""time""
""fullscreenenter"",""1"",""2745""
","
","
","""event"",""trial"",""time""
""fullscreenenter"",""1"",""2745""
","
","","","","","","1107.1999999955297","images/apple5.png","","","learning","[-1]","-1","1","1","apple","fruit","1","0","","neutral","0"
"html-keyboard-response","126","608147","0.0-9.0-2.0-0.27","4508","1","20","Female","approach_avoid_spark_v1","""event"",""trial"",""time""
""fullscreenenter"",""1"",""2745""
","
","
","""event"",""trial"",""time""
""fullscreenenter"",""1"",""2745""
","
","","","","","","null","<div style=""font-size:60px;"">+</div>","null","","fixation","","","","","","","","","","",""
"aa-learning-trial","127","611165","0.0-9.0-2.0-1.27","4508","1","20","Female","approach_avoid_spark_v1","""event"",""trial"",""time""
""fullscreenenter"",""1"",""2745""
","
","
","""event"",""trial"",""time""
""fullscreenenter"",""1"",""2745""
","
","","","","","","1037.8999999985099","images/straw6.png","","","learning","-4","0","0","0","straw","fruit","1","0","","bad","[-5]"
"html-keyboard-response","128","611678","0.0-9.0-2.0-0.28","4508","1","20","Female","approach_avoid_spark_v1","""event"",""trial"",""time""
""fullscreenenter"",""1"",""2745""
","
","
","""event"",""trial"",""time""
""fullscreenenter"",""1"",""2745""
","
","","","","","","null","<div style=""font-size:60px;"">+</div>","null","","fixation","","","","","","","","","","",""
"aa-learning-trial","129","614692","0.0-9.0-2.0-1.28","4508","1","20","Female","approach_avoid_spark_v1","""event"",""trial"",""time""
""fullscreenenter"",""1"",""2745""
","
","
","""event"",""trial"",""time""
""fullscreenenter"",""1"",""2745""
","
","","","","","","1108.1000000014901","images/orange4.png","","","learning","3","3","1","1","orange","fruit","1","0","","good","[4]"
"html-keyboard-response","130","615202","0.0-9.0-2.0-0.29","4508","1","20","Female","approach_avoid_spark_v1","""event"",""trial"",""time""
""fullscreenenter"",""1"",""2745""
","
","
","""event"",""trial"",""time""
""fullscreenenter"",""1"",""2745""
","
","","","","","","null","<div style=""font-size:60px;"">+</div>","null","","fixation","","","","","","","","","","",""
"aa-learning-trial","131","618216","0.0-9.0-2.0-1.29","4508","1","20","Female","approach_avoid_spark_v1","""event"",""trial"",""time""
""fullscreenenter"",""1"",""2745""
","
","
","""event"",""trial"",""time""
""fullscreenenter"",""1"",""2745""
","
","","","","","","1204.3999999985099","images/straw7.png","","","learning","-5","-5","1","1","straw","fruit","1","0","","bad","[-5]"
"html-keyboard-response","132","618727","0.0-9.0-2.0-0.30","4508","1","20","Female","approach_avoid_spark_v1","""event"",""trial"",""time""
""fullscreenenter"",""1"",""2745""
","
","
","""event"",""trial"",""time""
""fullscreenenter"",""1"",""2745""
","
","","","","","","null","<div style=""font-size:60px;"">+</div>","null","","fixation","","","","","","","","","","",""
"aa-learning-trial","133","621741","0.0-9.0-2.0-1.30","4508","1","20","Female","approach_avoid_spark_v1","""event"",""trial"",""time""
""fullscreenenter"",""1"",""2745""
","
","
","""event"",""trial"",""time""
""fullscreenenter"",""1"",""2745""
","
","","","","","","1382.6000000014901","images/orange2.png","","","learning","4","0","0","0","orange","fruit","1","0","","good","[4]"
"html-keyboard-response","134","622254","0.0-9.0-2.0-0.31","4508","1","20","Female","approach_avoid_spark_v1","""event"",""trial"",""time""
""fullscreenenter"",""1"",""2745""
","
","
","""event"",""trial"",""time""
""fullscreenenter"",""1"",""2745""
","
","","","","","","null","<div style=""font-size:60px;"">+</div>","null","","fixation","","","","","","","","","","",""
"aa-learning-trial","135","625267","0.0-9.0-2.0-1.31","4508","1","20","Female","approach_avoid_spark_v1","""event"",""trial"",""time""
""fullscreenenter"",""1"",""2745""
","
","
","""event"",""trial"",""time""
""fullscreenenter"",""1"",""2745""
","
","","","","","","666.7000000029802","images/apple6.png","","","learning","-3","0","0","0","apple","fruit","1","0","","neutral","0"
"html-keyboard-response","136","625783","0.0-9.0-2.0-0.32","4508","1","20","Female","approach_avoid_spark_v1","""event"",""trial"",""time""
""fullscreenenter"",""1"",""2745""
","
","
","""event"",""trial"",""time""
""fullscreenenter"",""1"",""2745""
","
","","","","","","null","<div style=""font-size:60px;"">+</div>","null","","fixation","","","","","","","","","","",""
"aa-learning-trial","137","628793","0.0-9.0-2.0-1.32","4508","1","20","Female","approach_avoid_spark_v1","""event"",""trial"",""time""
""fullscreenenter"",""1"",""2745""
","
","
","""event"",""trial"",""time""
""fullscreenenter"",""1"",""2745""
","
","","","","","","1307.1999999955297","images/apple2.png","","","learning","-1","0","0","0","apple","fruit","1","0","","neutral","0"
"html-keyboard-response","138","629300","0.0-9.0-2.0-0.33","4508","1","20","Female","approach_avoid_spark_v1","""event"",""trial"",""time""
""fullscreenenter"",""1"",""2745""
","
","
","""event"",""trial"",""time""
""fullscreenenter"",""1"",""2745""
","
","","","","","","null","<div style=""font-size:60px;"">+</div>","null","","fixation","","","","","","","","","","",""
"aa-learning-trial","139","632313","0.0-9.0-2.0-1.33","4508","1","20","Female","approach_avoid_spark_v1","""event"",""trial"",""time""
""fullscreenenter"",""1"",""2745""
","
","
","""event"",""trial"",""time""
""fullscreenenter"",""1"",""2745""
","
","","","","","","749","images/apple6.png","","","learning","1","0","0","0","apple","fruit","1","0","","neutral","0"
"html-keyboard-response","140","632825","0.0-9.0-2.0-0.34","4508","1","20","Female","approach_avoid_spark_v1","""event"",""trial"",""time""
""fullscreenenter"",""1"",""2745""
","
","
","""event"",""trial"",""time""
""fullscreenenter"",""1"",""2745""
","
","","","","","","null","<div style=""font-size:60px;"">+</div>","null","","fixation","","","","","","","","","","",""
"aa-learning-trial","141","635840","0.0-9.0-2.0-1.34","4508","1","20","Female","approach_avoid_spark_v1","""event"",""trial"",""time""
""fullscreenenter"",""1"",""2745""
","
","
","""event"",""trial"",""time""
""fullscreenenter"",""1"",""2745""
","
","","","","","","788.5","images/apple8.png","","","learning","-2","0","0","0","apple","fruit","1","0","","neutral","0"
"html-keyboard-response","142","636345","0.0-9.0-2.0-0.35","4508","1","20","Female","approach_avoid_spark_v1","""event"",""trial"",""time""
""fullscreenenter"",""1"",""2745""
","
","
","""event"",""trial"",""time""
""fullscreenenter"",""1"",""2745""
","
","","","","","","null","<div style=""font-size:60px;"">+</div>","null","","fixation","","","","","","","","","","",""
"aa-learning-trial","143","639354","0.0-9.0-2.0-1.35","4508","1","20","Female","approach_avoid_spark_v1","""event"",""trial"",""time""
""fullscreenenter"",""1"",""2745""
","
","
","""event"",""trial"",""time""
""fullscreenenter"",""1"",""2745""
","
","","","","","","787","images/orange4.png","","","learning","5","5","1","1","orange","fruit","1","0","","good","[4]"
"html-keyboard-response","144","639865","0.0-9.0-2.0-0.36","4508","1","20","Female","approach_avoid_spark_v1","""event"",""trial"",""time""
""fullscreenenter"",""1"",""2745""
","
","
","""event"",""trial"",""time""
""fullscreenenter"",""1"",""2745""
","
","","","","","","null","<div style=""font-size:60px;"">+</div>","null","","fixation","","","","","","","","","","",""
"aa-learning-trial","145","642880","0.0-9.0-2.0-1.36","4508","1","20","Female","approach_avoid_spark_v1","""event"",""trial"",""time""
""fullscreenenter"",""1"",""2745""
","
","
","""event"",""trial"",""time""
""fullscreenenter"",""1"",""2745""
","
","","","","","","714","images/straw6.png","","","learning","-5","0","0","0","straw","fruit","1","0","","bad","[-5]"
"html-keyboard-response","146","643389","0.0-9.0-2.0-0.37","4508","1","20","Female","approach_avoid_spark_v1","""event"",""trial"",""time""
""fullscreenenter"",""1"",""2745""
","
","
","""event"",""trial"",""time""
""fullscreenenter"",""1"",""2745""
","
","","","","","","null","<div style=""font-size:60px;"">+</div>","null","","fixation","","","","","","","","","","",""
"aa-learning-trial","147","646408","0.0-9.0-2.0-1.37","4508","1","20","Female","approach_avoid_spark_v1","""event"",""trial"",""time""
""fullscreenenter"",""1"",""2745""
","
","
","""event"",""trial"",""time""
""fullscreenenter"",""1"",""2745""
","
","","","","","","789.3000000044703","images/apple8.png","","","learning","2","0","0","0","apple","fruit","1","0","","neutral","0"
"html-keyboard-response","148","646919","0.0-9.0-2.0-0.38","4508","1","20","Female","approach_avoid_spark_v1","""event"",""trial"",""time""
""fullscreenenter"",""1"",""2745""
","
","
","""event"",""trial"",""time""
""fullscreenenter"",""1"",""2745""
","
","","","","","","null","<div style=""font-size:60px;"">+</div>","null","","fixation","","","","","","","","","","",""
"aa-learning-trial","149","649930","0.0-9.0-2.0-1.38","4508","1","20","Female","approach_avoid_spark_v1","""event"",""trial"",""time""
""fullscreenenter"",""1"",""2745""
","
","
","""event"",""trial"",""time""
""fullscreenenter"",""1"",""2745""
","
","","","","","","819.8999999985099","images/straw4.png","","","learning","-7","0","0","0","straw","fruit","1","0","","bad","[-5]"
"html-keyboard-response","150","650451","0.0-9.0-2.0-0.39","4508","1","20","Female","approach_avoid_spark_v1","""event"",""trial"",""time""
""fullscreenenter"",""1"",""2745""
","
","
","""event"",""trial"",""time""
""fullscreenenter"",""1"",""2745""
","
","","","","","","null","<div style=""font-size:60px;"">+</div>","null","","fixation","","","","","","","","","","",""
"aa-learning-trial","151","653461","0.0-9.0-2.0-1.39","4508","1","20","Female","approach_avoid_spark_v1","""event"",""trial"",""time""
""fullscreenenter"",""1"",""2745""
","
","
","""event"",""trial"",""time""
""fullscreenenter"",""1"",""2745""
","
","","","","","","784.5","images/apple8.png","","","learning","-4","0","0","0","apple","fruit","1","0","","neutral","0"
"html-keyboard-response","152","653976","0.0-9.0-2.0-0.40","4508","1","20","Female","approach_avoid_spark_v1","""event"",""trial"",""time""
""fullscreenenter"",""1"",""2745""
","
","
","""event"",""trial"",""time""
""fullscreenenter"",""1"",""2745""
","
","","","","","","null","<div style=""font-size:60px;"">+</div>","null","","fixation","","","","","","","","","","",""
"aa-learning-trial","153","656991","0.0-9.0-2.0-1.40","4508","1","20","Female","approach_avoid_spark_v1","""event"",""trial"",""time""
""fullscreenenter"",""1"",""2745""
","
","
","""event"",""trial"",""time""
""fullscreenenter"",""1"",""2745""
","
","","","","","","1201.7999999970198","images/straw4.png","","","learning","-6","-6","1","1","straw","fruit","1","0","","bad","[-5]"
"html-keyboard-response","154","657494","0.0-9.0-2.0-0.41","4508","1","20","Female","approach_avoid_spark_v1","""event"",""trial"",""time""
""fullscreenenter"",""1"",""2745""
","
","
","""event"",""trial"",""time""
""fullscreenenter"",""1"",""2745""
","
","","","","","","null","<div style=""font-size:60px;"">+</div>","null","","fixation","","","","","","","","","","",""
"aa-learning-trial","155","660504","0.0-9.0-2.0-1.41","4508","1","20","Female","approach_avoid_spark_v1","""event"",""trial"",""time""
""fullscreenenter"",""1"",""2745""
","
","
","""event"",""trial"",""time""
""fullscreenenter"",""1"",""2745""
","
","","","","","","1016.8999999985099","images/orange3.png","","","learning","7","7","1","1","orange","fruit","1","0","","good","[4]"
"html-keyboard-response","156","661008","0.0-9.0-2.0-0.42","4508","1","20","Female","approach_avoid_spark_v1","""event"",""trial"",""time""
""fullscreenenter"",""1"",""2745""
","
","
","""event"",""trial"",""time""
""fullscreenenter"",""1"",""2745""
","
","","","","","","null","<div style=""font-size:60px;"">+</div>","null","","fixation","","","","","","","","","","",""
"aa-learning-trial","157","664022","0.0-9.0-2.0-1.42","4508","1","20","Female","approach_avoid_spark_v1","""event"",""trial"",""time""
""fullscreenenter"",""1"",""2745""
","
","
","""event"",""trial"",""time""
""fullscreenenter"",""1"",""2745""
","
","","","","","","738.3999999985099","images/apple6.png","","","learning","-1","0","0","0","apple","fruit","1","0","","neutral","0"
"html-keyboard-response","158","664531","0.0-9.0-2.0-0.43","4508","1","20","Female","approach_avoid_spark_v1","""event"",""trial"",""time""
""fullscreenenter"",""1"",""2745""
","
","
","""event"",""trial"",""time""
""fullscreenenter"",""1"",""2745""
","
","","","","","","null","<div style=""font-size:60px;"">+</div>","null","","fixation","","","","","","","","","","",""
"aa-learning-trial","159","667551","0.0-9.0-2.0-1.43","4508","1","20","Female","approach_avoid_spark_v1","""event"",""trial"",""time""
""fullscreenenter"",""1"",""2745""
","
","
","""event"",""trial"",""time""
""fullscreenenter"",""1"",""2745""
","
","","","","","","942.8000000044703","images/orange3.png","","","learning","5","5","1","1","orange","fruit","1","0","","good","[4]"
"html-keyboard-response","160","668061","0.0-9.0-2.0-0.44","4508","1","20","Female","approach_avoid_spark_v1","""event"",""trial"",""time""
""fullscreenenter"",""1"",""2745""
","
","
","""event"",""trial"",""time""
""fullscreenenter"",""1"",""2745""
","
","","","","","","null","<div style=""font-size:60px;"">+</div>","null","","fixation","","","","","","","","","","",""
"aa-learning-trial","161","671072","0.0-9.0-2.0-1.44","4508","1","20","Female","approach_avoid_spark_v1","""event"",""trial"",""time""
""fullscreenenter"",""1"",""2745""
","
","
","""event"",""trial"",""time""
""fullscreenenter"",""1"",""2745""
","
","","","","","","1628.4000000059605","images/orange7.png","","","learning","5","5","1","1","orange","fruit","1","0","","good","[4]"
"html-keyboard-response","162","671579","0.0-9.0-2.0-0.45","4508","1","20","Female","approach_avoid_spark_v1","""event"",""trial"",""time""
""fullscreenenter"",""1"",""2745""
","
","
","""event"",""trial"",""time""
""fullscreenenter"",""1"",""2745""
","
","","","","","","null","<div style=""font-size:60px;"">+</div>","null","","fixation","","","","","","","","","","",""
"aa-learning-trial","163","674593","0.0-9.0-2.0-1.45","4508","1","20","Female","approach_avoid_spark_v1","""event"",""trial"",""time""
""fullscreenenter"",""1"",""2745""
","
","
","""event"",""trial"",""time""
""fullscreenenter"",""1"",""2745""
","
","","","","","","788","images/orange3.png","","","learning","6","6","1","1","orange","fruit","1","0","","good","[4]"
"html-keyboard-response","164","675109","0.0-9.0-2.0-0.46","4508","1","20","Female","approach_avoid_spark_v1","""event"",""trial"",""time""
""fullscreenenter"",""1"",""2745""
","
","
","""event"",""trial"",""time""
""fullscreenenter"",""1"",""2745""
","
","","","","","","null","<div style=""font-size:60px;"">+</div>","null","","fixation","","","","","","","","","","",""
"aa-learning-trial","165","678125","0.0-9.0-2.0-1.46","4508","1","20","Female","approach_avoid_spark_v1","""event"",""trial"",""time""
""fullscreenenter"",""1"",""2745""
","
","
","""event"",""trial"",""time""
""fullscreenenter"",""1"",""2745""
","
","","","","","","664.2000000029802","images/orange3.png","","","learning","2","2","1","1","orange","fruit","1","0","","good","[4]"
"html-keyboard-response","166","678635","0.0-9.0-2.0-0.47","4508","1","20","Female","approach_avoid_spark_v1","""event"",""trial"",""time""
""fullscreenenter"",""1"",""2745""
","
","
","""event"",""trial"",""time""
""fullscreenenter"",""1"",""2745""
","
","","","","","","null","<div style=""font-size:60px;"">+</div>","null","","fixation","","","","","","","","","","",""
"aa-learning-trial","167","681647","0.0-9.0-2.0-1.47","4508","1","20","Female","approach_avoid_spark_v1","""event"",""trial"",""time""
""fullscreenenter"",""1"",""2745""
","
","
","""event"",""trial"",""time""
""fullscreenenter"",""1"",""2745""
","
","","","","","","653.2000000029802","images/apple6.png","","","learning","[1]","0","0","0","apple","fruit","1","0","","neutral","0"
"html-keyboard-response","168","682159","0.0-9.0-2.0-0.48","4508","1","20","Female","approach_avoid_spark_v1","""event"",""trial"",""time""
""fullscreenenter"",""1"",""2745""
","
","
","""event"",""trial"",""time""
""fullscreenenter"",""1"",""2745""
","
","","","","","","null","<div style=""font-size:60px;"">+</div>","null","","fixation","","","","","","","","","","",""
"aa-learning-trial","169","685167","0.0-9.0-2.0-1.48","4508","1","20","Female","approach_avoid_spark_v1","""event"",""trial"",""time""
""fullscreenenter"",""1"",""2745""
","
","
","""event"",""trial"",""time""
""fullscreenenter"",""1"",""2745""
","
","","","","","","806.3999999985099","images/straw4.png","","","learning","-2","0","0","0","straw","fruit","1","0","","bad","[-5]"
"html-keyboard-response","170","685680","0.0-9.0-2.0-0.49","4508","1","20","Female","approach_avoid_spark_v1","""event"",""trial"",""time""
""fullscreenenter"",""1"",""2745""
","
","
","""event"",""trial"",""time""
""fullscreenenter"",""1"",""2745""
","
","","","","","","null","<div style=""font-size:60px;"">+</div>","null","","fixation","","","","","","","","","","",""
"aa-learning-trial","171","688694","0.0-9.0-2.0-1.49","4508","1","20","Female","approach_avoid_spark_v1","""event"",""trial"",""time""
""fullscreenenter"",""1"",""2745""
","
","
","""event"",""trial"",""time""
""fullscreenenter"",""1"",""2745""
","
","","","","","","1276.3999999985099","images/straw8.png","","","learning","-5","-5","1","1","straw","fruit","1","0","","bad","[-5]"
"html-keyboard-response","172","689211","0.0-9.0-2.0-0.50","4508","1","20","Female","approach_avoid_spark_v1","""event"",""trial"",""time""
""fullscreenenter"",""1"",""2745""
","
","
","""event"",""trial"",""time""
""fullscreenenter"",""1"",""2745""
","
","","","","","","null","<div style=""font-size:60px;"">+</div>","null","","fixation","","","","","","","","","","",""
"aa-learning-trial","173","692228","0.0-9.0-2.0-1.50","4508","1","20","Female","approach_avoid_spark_v1","""event"",""trial"",""time""
""fullscreenenter"",""1"",""2745""
","
","
","""event"",""trial"",""time""
""fullscreenenter"",""1"",""2745""
","
","","","","","","1191.7999999970198","images/orange5.png","","","learning","6","0","0","0","orange","fruit","1","0","","good","[4]"
"html-button-response","174","695358","0.0-9.0-3.0","4508","1","20","Female","approach_avoid_spark_v1","""event"",""trial"",""time""
""fullscreenenter"",""1"",""2745""
","
","
","""event"",""trial"",""time""
""fullscreenenter"",""1"",""2745""
","
","","","","","","3128.2999999970198","<p> You have completed the round! <p> In this round, you earned 6 points! </p>","0","","break","","","","","","","","","","",""
"html-button-response","175","696482","0.0-10.0","4508","1","20","Female","approach_avoid_spark_v1","""event"",""trial"",""time""
""fullscreenenter"",""1"",""2745""
","
","
","""event"",""trial"",""time""
""fullscreenenter"",""1"",""2745""
","
","","","","","","1122.2000000029802","<p> Now it's time to play another round. </p>","0","","transition_screen","","","","","","","","","","",""
"preload","176","696630","0.0-11.0-0.0","4508","1","20","Female","approach_avoid_spark_v1","""event"",""trial"",""time""
""fullscreenenter"",""1"",""2745""
","
","
","""event"",""trial"",""time""
""fullscreenenter"",""1"",""2745""
","
","true","false","[]","[]","[]","","","","","","","","","","","","","","","",""
"learning-instructions","177","704934","0.0-11.0-1.0-0.0","4508","1","20","Female","approach_avoid_spark_v1","""event"",""trial"",""time""
""fullscreenenter"",""1"",""2745""
","
","
","""event"",""trial"",""time""
""fullscreenenter"",""1"",""2745""
","
","","","","","","1761.6999999955297","<p> Your goal in this round is to decorate your friend's new house with furniture. </p></div>","","0","instructions","","","","","","","","","","",""
"learning-instructions","178","716812","0.0-11.0-1.0-0.1","4508","1","20","Female","approach_avoid_spark_v1","""event"",""trial"",""time""
""fullscreenenter"",""1"",""2745""
","
","
","""event"",""trial"",""time""
""fullscreenenter"",""1"",""2745""
","
","","","","","","740.2999999970198","<p> Your friend likes some pieces of furniture but not others.  </p><p> On each turn, you will see a piece of furniture.   </p><p> You need to decide whether to put it in your friend's house or not.  </p>","","0","instructions","","","","","","","","","","",""
"learning-instructions","179","723543","0.0-11.0-1.0-0.2","4508","1","20","Female","approach_avoid_spark_v1","""event"",""trial"",""time""
""fullscreenenter"",""1"",""2745""
","
","
","""event"",""trial"",""time""
""fullscreenenter"",""1"",""2745""
","
","","","","","","250.10000000149012","<p> You can put the furniture in her house by pressing 1 and deliver it elsewhere by pressing 0. </p><br><div class=""choice-instructions-grid""> <div class=""choice-option""><img src=""images/approach.png"" class=""choice-option-img"" stage=""instructions"" position=""0"" ><div class=""choice-option-text""> Press ""1."" </div></div><div class=""choice-option""><img src=""images/avoid.png"" class=""choice-option-img"" stage=""instructions"" position=""1"" ><div class=""choice-option-text""> Press ""0."" </div></div>","","0","instructions","","","","","","","","","","",""
"learning-instructions","180","735083","0.0-11.0-1.0-0.3","4508","1","20","Female","approach_avoid_spark_v1","""event"",""trial"",""time""
""fullscreenenter"",""1"",""2745""
","
","
","""event"",""trial"",""time""
""fullscreenenter"",""1"",""2745""
","
","","","","","","2221.60000000149","<p> If you decorate your friend's house with furniture she likes, she will be happy! </p><p> But if you give her furniture that she does not like, she will be annoyed. </p>","","0","instructions","","","","","","","","","","",""
"learning-instructions","181","748424","0.0-11.0-1.0-0.4","4508","1","20","Female","approach_avoid_spark_v1","""event"",""trial"",""time""
""fullscreenenter"",""1"",""2745""
","
","
","""event"",""trial"",""time""
""fullscreenenter"",""1"",""2745""
","
","","","","","","722","<p> You will earn points based on how you made your friend feel. </p><p> If you made her happy, you will WIN anywhere from 1 - 9 points, </p><p> but if you made her annoyed you will LOSE anywhere from 1 - 9 points. </p>","","0","instructions","","","","","","","","","","",""
"learning-instructions","182","755683","0.0-11.0-1.0-0.5","4508","1","20","Female","approach_avoid_spark_v1","""event"",""trial"",""time""
""fullscreenenter"",""1"",""2745""
","
","
","""event"",""trial"",""time""
""fullscreenenter"",""1"",""2745""
","
","","","","","","591.3999999985099","<p> You will see how many points you won or lost in the center of the screen. </p><p> Here is what you would see if you won 5 points: </p><p style=""color:green;font-size:50px;font-weight:bolder"">5</p>","","0","instructions","","","","","","","","","","",""
"learning-instructions","183","759200","0.0-11.0-1.0-0.6","4508","1","20","Female","approach_avoid_spark_v1","""event"",""trial"",""time""
""fullscreenenter"",""1"",""2745""
","
","
","""event"",""trial"",""time""
""fullscreenenter"",""1"",""2745""
","
","","","","","","678.3999999985099","<p> And here is what you would see if you lost 3 points: </p><p style=""color:red;font-size:50px;font-weight:bolder"">-3</p>","","0","instructions","","","","","","","","","","",""
"learning-instructions","184","778233","0.0-11.0-1.0-0.7","4508","1","20","Female","approach_avoid_spark_v1","""event"",""trial"",""time""
""fullscreenenter"",""1"",""2745""
","
","
","""event"",""trial"",""time""
""fullscreenenter"",""1"",""2745""
","
","","","","","","941.3999999985099","<p> Some pieces of furniture will make her feel very happy or very annoyed. </p><p> These pieces of furniture will make you win or lose LOTS of points. </p><p> Other pieces of furniture will only make her feel a little happy or a little annoyed. </p><p> These pieces of furniture will make you win or lose small amounts of points. </p>","","0","instructions","","","","","","","","","","",""
"learning-instructions","185","791873","0.0-11.0-1.0-0.8","4508","1","20","Female","approach_avoid_spark_v1","""event"",""trial"",""time""
""fullscreenenter"",""1"",""2745""
","
","
","""event"",""trial"",""time""
""fullscreenenter"",""1"",""2745""
","
","","","","","","421","<p> If you choose to deliver a piece of furniture elsewhere, you will not win or lose any points. </p><p>  However, in the center of the screen, you will see the number of points you WOULD HAVE won or lost if you had given the furniture to your friend. </p>","","0","instructions","","","","","","","","","","",""
"learning-instructions","186","804410","0.0-11.0-1.0-0.9","4508","1","20","Female","approach_avoid_spark_v1","""event"",""trial"",""time""
""fullscreenenter"",""1"",""2745""
","
","
","""event"",""trial"",""time""
""fullscreenenter"",""1"",""2745""
","
","","","","","","727.8999999985099","<p> Here is what you might see if you did not give a piece of furniture to your friend that would have made her happy: </p><p style=""color:grey; font-size:50px; display: inline-block; border-spacing: 15px; border-width:3px; border-style:solid; border-color:red"">  &nbsp; 6 &nbsp; </p><p> Remember, in this case, you would not win or lose ANY points because you did not give her the furniture.  </p>","","0","instructions","","","","","","","","","","",""
"learning-instructions","187","813063","0.0-11.0-1.0-0.10","4508","1","20","Female","approach_avoid_spark_v1","""event"",""trial"",""time""
""fullscreenenter"",""1"",""2745""
","
","
","""event"",""trial"",""time""
""fullscreenenter"",""1"",""2745""
","
","","","","","","841.0999999940395","<p> Try to make the best choice for each piece of furniture because </p><p> at the end of the game, you will earn bonus money based on how many points you earned. </p>","","0","instructions","","","","","","","","","","",""
"learning-instructions","188","821934","0.0-11.0-1.0-0.11","4508","1","20","Female","approach_avoid_spark_v1","""event"",""trial"",""time""
""fullscreenenter"",""1"",""2745""
","
","
","""event"",""trial"",""time""
""fullscreenenter"",""1"",""2745""
","
","","","","","","672.6999999955297","<p> You will have 3 seconds to make each choice. Try to respond before time runs out! </p><p> You will lose 5 points each time you do not make a response. </p>","","0","instructions","","","","","","","","","","",""
"html-keyboard-response","189","822569","0.0-11.0-2.0-0.0","4508","1","20","Female","approach_avoid_spark_v1","""event"",""trial"",""time""
""fullscreenenter"",""1"",""2745""
","
","
","""event"",""trial"",""time""
""fullscreenenter"",""1"",""2745""
","
","","","","","","null","<div style=""font-size:60px;"">+</div>","null","","fixation","","","","","","","","","","",""
"aa-learning-trial","190","825580","0.0-11.0-2.0-1.0","4508","1","20","Female","approach_avoid_spark_v1","""event"",""trial"",""time""
""fullscreenenter"",""1"",""2745""
","
","
","""event"",""trial"",""time""
""fullscreenenter"",""1"",""2745""
","
","","","","","","1351.2999999970198","images/table8.png","","","learning","-1","-1","1","1","table","furniture","2","1","","good","[5]"
"html-keyboard-response","191","826099","0.0-11.0-2.0-0.1","4508","1","20","Female","approach_avoid_spark_v1","""event"",""trial"",""time""
""fullscreenenter"",""1"",""2745""
","
","
","""event"",""trial"",""time""
""fullscreenenter"",""1"",""2745""
","
","","","","","","null","<div style=""font-size:60px;"">+</div>","null","","fixation","","","","","","","","","","",""
"aa-learning-trial","192","829115","0.0-11.0-2.0-1.1","4508","1","20","Female","approach_avoid_spark_v1","""event"",""trial"",""time""
""fullscreenenter"",""1"",""2745""
","
","
","""event"",""trial"",""time""
""fullscreenenter"",""1"",""2745""
","
","","","","","","720.6000000014901","images/bed5.png","","","learning","-3","-3","1","1","bed","furniture","2","1","","neutral","0"
"html-keyboard-response","193","829640","0.0-11.0-2.0-0.2","4508","1","20","Female","approach_avoid_spark_v1","""event"",""trial"",""time""
""fullscreenenter"",""1"",""2745""
","
","
","""event"",""trial"",""time""
""fullscreenenter"",""1"",""2745""
","
","","","","","","null","<div style=""font-size:60px;"">+</div>","null","","fixation","","","","","","","","","","",""
"aa-learning-trial","194","832660","0.0-11.0-2.0-1.2","4508","1","20","Female","approach_avoid_spark_v1","""event"",""trial"",""time""
""fullscreenenter"",""1"",""2745""
","
","
","""event"",""trial"",""time""
""fullscreenenter"",""1"",""2745""
","
","","","","","","809.6999999955297","images/bed7.png","","","learning","9","0","0","0","bed","furniture","2","1","","neutral","0"
"html-keyboard-response","195","833176","0.0-11.0-2.0-0.3","4508","1","20","Female","approach_avoid_spark_v1","""event"",""trial"",""time""
""fullscreenenter"",""1"",""2745""
","
","
","""event"",""trial"",""time""
""fullscreenenter"",""1"",""2745""
","
","","","","","","null","<div style=""font-size:60px;"">+</div>","null","","fixation","","","","","","","","","","",""
"aa-learning-trial","196","836192","0.0-11.0-2.0-1.3","4508","1","20","Female","approach_avoid_spark_v1","""event"",""trial"",""time""
""fullscreenenter"",""1"",""2745""
","
","
","""event"",""trial"",""time""
""fullscreenenter"",""1"",""2745""
","
","","","","","","1181.7999999970198","images/chair7.png","","","learning","5","5","1","1","chair","furniture","2","1","","bad","[-3]"
"html-keyboard-response","197","836699","0.0-11.0-2.0-0.4","4508","1","20","Female","approach_avoid_spark_v1","""event"",""trial"",""time""
""fullscreenenter"",""1"",""2745""
","
","
","""event"",""trial"",""time""
""fullscreenenter"",""1"",""2745""
","
","","","","","","null","<div style=""font-size:60px;"">+</div>","null","","fixation","","","","","","","","","","",""
"aa-learning-trial","198","839720","0.0-11.0-2.0-1.4","4508","1","20","Female","approach_avoid_spark_v1","""event"",""trial"",""time""
""fullscreenenter"",""1"",""2745""
","
","
","""event"",""trial"",""time""
""fullscreenenter"",""1"",""2745""
","
","","","","","","842.2999999970198","images/chair2.png","","","learning","-5","-5","1","1","chair","furniture","2","1","","bad","[-3]"
"html-keyboard-response","199","840239","0.0-11.0-2.0-0.5","4508","1","20","Female","approach_avoid_spark_v1","""event"",""trial"",""time""
""fullscreenenter"",""1"",""2745""
","
","
","""event"",""trial"",""time""
""fullscreenenter"",""1"",""2745""
","
","","","","","","null","<div style=""font-size:60px;"">+</div>","null","","fixation","","","","","","","","","","",""
"aa-learning-trial","200","843250","0.0-11.0-2.0-1.5","4508","1","20","Female","approach_avoid_spark_v1","""event"",""trial"",""time""
""fullscreenenter"",""1"",""2745""
","
","
","""event"",""trial"",""time""
""fullscreenenter"",""1"",""2745""
","
","","","","","","778.3000000044703","images/table5.png","","","learning","4","0","0","0","table","furniture","2","1","","good","[5]"
"html-keyboard-response","201","843769","0.0-11.0-2.0-0.6","4508","1","20","Female","approach_avoid_spark_v1","""event"",""trial"",""time""
""fullscreenenter"",""1"",""2745""
","
","
","""event"",""trial"",""time""
""fullscreenenter"",""1"",""2745""
","
","","","","","","null","<div style=""font-size:60px;"">+</div>","null","","fixation","","","","","","","","","","",""
"aa-learning-trial","202","846790","0.0-11.0-2.0-1.6","4508","1","20","Female","approach_avoid_spark_v1","""event"",""trial"",""time""
""fullscreenenter"",""1"",""2745""
","
","
","""event"",""trial"",""time""
""fullscreenenter"",""1"",""2745""
","
","","","","","","986.8000000044703","images/table1.png","","","learning","-4","0","0","0","table","furniture","2","1","","good","[5]"
"html-keyboard-response","203","847299","0.0-11.0-2.0-0.7","4508","1","20","Female","approach_avoid_spark_v1","""event"",""trial"",""time""
""fullscreenenter"",""1"",""2745""
","
","
","""event"",""trial"",""time""
""fullscreenenter"",""1"",""2745""
","
","","","","","","null","<div style=""font-size:60px;"">+</div>","null","","fixation","","","","","","","","","","",""
"aa-learning-trial","204","850321","0.0-11.0-2.0-1.7","4508","1","20","Female","approach_avoid_spark_v1","""event"",""trial"",""time""
""fullscreenenter"",""1"",""2745""
","
","
","""event"",""trial"",""time""
""fullscreenenter"",""1"",""2745""
","
","","","","","","1266.1000000014901","images/chair6.png","","","learning","8","8","1","1","chair","furniture","2","1","","bad","[-3]"
"html-keyboard-response","205","850842","0.0-11.0-2.0-0.8","4508","1","20","Female","approach_avoid_spark_v1","""event"",""trial"",""time""
""fullscreenenter"",""1"",""2745""
","
","
","""event"",""trial"",""time""
""fullscreenenter"",""1"",""2745""
","
","","","","","","null","<div style=""font-size:60px;"">+</div>","null","","fixation","","","","","","","","","","",""
"aa-learning-trial","206","853863","0.0-11.0-2.0-1.8","4508","1","20","Female","approach_avoid_spark_v1","""event"",""trial"",""time""
""fullscreenenter"",""1"",""2745""
","
","
","""event"",""trial"",""time""
""fullscreenenter"",""1"",""2745""
","
","","","","","","599.1000000014901","images/bed7.png","","","learning","9","9","1","1","bed","furniture","2","1","","neutral","0"
"html-keyboard-response","207","854368","0.0-11.0-2.0-0.9","4508","1","20","Female","approach_avoid_spark_v1","""event"",""trial"",""time""
""fullscreenenter"",""1"",""2745""
","
","
","""event"",""trial"",""time""
""fullscreenenter"",""1"",""2745""
","
","","","","","","null","<div style=""font-size:60px;"">+</div>","null","","fixation","","","","","","","","","","",""
"aa-learning-trial","208","857381","0.0-11.0-2.0-1.9","4508","1","20","Female","approach_avoid_spark_v1","""event"",""trial"",""time""
""fullscreenenter"",""1"",""2745""
","
","
","""event"",""trial"",""time""
""fullscreenenter"",""1"",""2745""
","
","","","","","","763.3000000044703","images/bed5.png","","","learning","-3","0","0","0","bed","furniture","2","1","","neutral","0"
"html-keyboard-response","209","857891","0.0-11.0-2.0-0.10","4508","1","20","Female","approach_avoid_spark_v1","""event"",""trial"",""time""
""fullscreenenter"",""1"",""2745""
","
","
","""event"",""trial"",""time""
""fullscreenenter"",""1"",""2745""
","
","","","","","","null","<div style=""font-size:60px;"">+</div>","null","","fixation","","","","","","","","","","",""
"aa-learning-trial","210","860911","0.0-11.0-2.0-1.10","4508","1","20","Female","approach_avoid_spark_v1","""event"",""trial"",""time""
""fullscreenenter"",""1"",""2745""
","
","
","""event"",""trial"",""time""
""fullscreenenter"",""1"",""2745""
","
","","","","","","823.3000000044703","images/chair2.png","","","learning","-5","0","0","0","chair","furniture","2","1","","bad","[-3]"
"html-keyboard-response","211","861423","0.0-11.0-2.0-0.11","4508","1","20","Female","approach_avoid_spark_v1","""event"",""trial"",""time""
""fullscreenenter"",""1"",""2745""
","
","
","""event"",""trial"",""time""
""fullscreenenter"",""1"",""2745""
","
","","","","","","null","<div style=""font-size:60px;"">+</div>","null","","fixation","","","","","","","","","","",""
"aa-learning-trial","212","864437","0.0-11.0-2.0-1.11","4508","1","20","Female","approach_avoid_spark_v1","""event"",""trial"",""time""
""fullscreenenter"",""1"",""2745""
","
","
","""event"",""trial"",""time""
""fullscreenenter"",""1"",""2745""
","
","","","","","","1283","images/chair7.png","","","learning","5","5","1","1","chair","furniture","2","1","","bad","[-3]"
"html-keyboard-response","213","864960","0.0-11.0-2.0-0.12","4508","1","20","Female","approach_avoid_spark_v1","""event"",""trial"",""time""
""fullscreenenter"",""1"",""2745""
","
","
","""event"",""trial"",""time""
""fullscreenenter"",""1"",""2745""
","
","","","","","","null","<div style=""font-size:60px;"">+</div>","null","","fixation","","","","","","","","","","",""
"aa-learning-trial","214","867968","0.0-11.0-2.0-1.12","4508","1","20","Female","approach_avoid_spark_v1","""event"",""trial"",""time""
""fullscreenenter"",""1"",""2745""
","
","
","""event"",""trial"",""time""
""fullscreenenter"",""1"",""2745""
","
","","","","","","1215.8000000044703","images/bed1.png","","","learning","2","0","0","0","bed","furniture","2","1","","neutral","0"
"html-keyboard-response","215","868478","0.0-11.0-2.0-0.13","4508","1","20","Female","approach_avoid_spark_v1","""event"",""trial"",""time""
""fullscreenenter"",""1"",""2745""
","
","
","""event"",""trial"",""time""
""fullscreenenter"",""1"",""2745""
","
","","","","","","null","<div style=""font-size:60px;"">+</div>","null","","fixation","","","","","","","","","","",""
"aa-learning-trial","216","871496","0.0-11.0-2.0-1.13","4508","1","20","Female","approach_avoid_spark_v1","""event"",""trial"",""time""
""fullscreenenter"",""1"",""2745""
","
","
","""event"",""trial"",""time""
""fullscreenenter"",""1"",""2745""
","
","","","","","","726.6999999955297","images/table1.png","","","learning","-4","0","0","0","table","furniture","2","1","","good","[5]"
"html-keyboard-response","217","872006","0.0-11.0-2.0-0.14","4508","1","20","Female","approach_avoid_spark_v1","""event"",""trial"",""time""
""fullscreenenter"",""1"",""2745""
","
","
","""event"",""trial"",""time""
""fullscreenenter"",""1"",""2745""
","
","","","","","","null","<div style=""font-size:60px;"">+</div>","null","","fixation","","","","","","","","","","",""
"aa-learning-trial","218","875023","0.0-11.0-2.0-1.14","4508","1","20","Female","approach_avoid_spark_v1","""event"",""trial"",""time""
""fullscreenenter"",""1"",""2745""
","
","
","""event"",""trial"",""time""
""fullscreenenter"",""1"",""2745""
","
","","","","","","820.8999999985099","images/table8.png","","","learning","-1","0","0","0","table","furniture","2","1","","good","[5]"
"html-keyboard-response","219","875537","0.0-11.0-2.0-0.15","4508","1","20","Female","approach_avoid_spark_v1","""event"",""trial"",""time""
""fullscreenenter"",""1"",""2745""
","
","
","""event"",""trial"",""time""
""fullscreenenter"",""1"",""2745""
","
","","","","","","null","<div style=""font-size:60px;"">+</div>","null","","fixation","","","","","","","","","","",""
"aa-learning-trial","220","878544","0.0-11.0-2.0-1.15","4508","1","20","Female","approach_avoid_spark_v1","""event"",""trial"",""time""
""fullscreenenter"",""1"",""2745""
","
","
","""event"",""trial"",""time""
""fullscreenenter"",""1"",""2745""
","
","","","","","","766.5","images/chair2.png","","","learning","-5","0","0","0","chair","furniture","2","1","","bad","[-3]"
"html-keyboard-response","221","879054","0.0-11.0-2.0-0.16","4508","1","20","Female","approach_avoid_spark_v1","""event"",""trial"",""time""
""fullscreenenter"",""1"",""2745""
","
","
","""event"",""trial"",""time""
""fullscreenenter"",""1"",""2745""
","
","","","","","","null","<div style=""font-size:60px;"">+</div>","null","","fixation","","","","","","","","","","",""
"aa-learning-trial","222","882072","0.0-11.0-2.0-1.16","4508","1","20","Female","approach_avoid_spark_v1","""event"",""trial"",""time""
""fullscreenenter"",""1"",""2745""
","
","
","""event"",""trial"",""time""
""fullscreenenter"",""1"",""2745""
","
","","","","","","567.8999999985099","images/table8.png","","","learning","-1","0","0","0","table","furniture","2","1","","good","[5]"
"html-keyboard-response","223","882583","0.0-11.0-2.0-0.17","4508","1","20","Female","approach_avoid_spark_v1","""event"",""trial"",""time""
""fullscreenenter"",""1"",""2745""
","
","
","""event"",""trial"",""time""
""fullscreenenter"",""1"",""2745""
","
","","","","","","null","<div style=""font-size:60px;"">+</div>","null","","fixation","","","","","","","","","","",""
"aa-learning-trial","224","885594","0.0-11.0-2.0-1.17","4508","1","20","Female","approach_avoid_spark_v1","""event"",""trial"",""time""
""fullscreenenter"",""1"",""2745""
","
","
","""event"",""trial"",""time""
""fullscreenenter"",""1"",""2745""
","
","","","","","","1191.1999999955297","images/bed7.png","","","learning","9","9","1","1","bed","furniture","2","1","","neutral","0"
"html-keyboard-response","225","886106","0.0-11.0-2.0-0.18","4508","1","20","Female","approach_avoid_spark_v1","""event"",""trial"",""time""
""fullscreenenter"",""1"",""2745""
","
","
","""event"",""trial"",""time""
""fullscreenenter"",""1"",""2745""
","
","","","","","","null","<div style=""font-size:60px;"">+</div>","null","","fixation","","","","","","","","","","",""
"aa-learning-trial","226","889115","0.0-11.0-2.0-1.18","4508","1","20","Female","approach_avoid_spark_v1","""event"",""trial"",""time""
""fullscreenenter"",""1"",""2745""
","
","
","""event"",""trial"",""time""
""fullscreenenter"",""1"",""2745""
","
","","","","","","589.9000000059605","images/table8.png","","","learning","-1","0","0","0","table","furniture","2","1","","good","[5]"
"html-keyboard-response","227","889627","0.0-11.0-2.0-0.19","4508","1","20","Female","approach_avoid_spark_v1","""event"",""trial"",""time""
""fullscreenenter"",""1"",""2745""
","
","
","""event"",""trial"",""time""
""fullscreenenter"",""1"",""2745""
","
","","","","","","null","<div style=""font-size:60px;"">+</div>","null","","fixation","","","","","","","","","","",""
"aa-learning-trial","228","892640","0.0-11.0-2.0-1.19","4508","1","20","Female","approach_avoid_spark_v1","""event"",""trial"",""time""
""fullscreenenter"",""1"",""2745""
","
","
","""event"",""trial"",""time""
""fullscreenenter"",""1"",""2745""
","
","","","","","","645.2000000029802","images/bed1.png","","","learning","2","0","0","0","bed","furniture","2","1","","neutral","0"
"html-keyboard-response","229","893144","0.0-11.0-2.0-0.20","4508","1","20","Female","approach_avoid_spark_v1","""event"",""trial"",""time""
""fullscreenenter"",""1"",""2745""
","
","
","""event"",""trial"",""time""
""fullscreenenter"",""1"",""2745""
","
","","","","","","null","<div style=""font-size:60px;"">+</div>","null","","fixation","","","","","","","","","","",""
"aa-learning-trial","230","896158","0.0-11.0-2.0-1.20","4508","1","20","Female","approach_avoid_spark_v1","""event"",""trial"",""time""
""fullscreenenter"",""1"",""2745""
","
","
","""event"",""trial"",""time""
""fullscreenenter"",""1"",""2745""
","
","","","","","","628.1000000014901","images/table8.png","","","learning","-1","0","0","0","table","furniture","2","1","","good","[5]"
"html-keyboard-response","231","896669","0.0-11.0-2.0-0.21","4508","1","20","Female","approach_avoid_spark_v1","""event"",""trial"",""time""
""fullscreenenter"",""1"",""2745""
","
","
","""event"",""trial"",""time""
""fullscreenenter"",""1"",""2745""
","
","","","","","","null","<div style=""font-size:60px;"">+</div>","null","","fixation","","","","","","","","","","",""
"aa-learning-trial","232","899682","0.0-11.0-2.0-1.21","4508","1","20","Female","approach_avoid_spark_v1","""event"",""trial"",""time""
""fullscreenenter"",""1"",""2745""
","
","
","""event"",""trial"",""time""
""fullscreenenter"",""1"",""2745""
","
","","","","","","635.4000000059605","images/table1.png","","","learning","-4","0","0","0","table","furniture","2","1","","good","[5]"
"html-keyboard-response","233","900196","0.0-11.0-2.0-0.22","4508","1","20","Female","approach_avoid_spark_v1","""event"",""trial"",""time""
""fullscreenenter"",""1"",""2745""
","
","
","""event"",""trial"",""time""
""fullscreenenter"",""1"",""2745""
","
","","","","","","null","<div style=""font-size:60px;"">+</div>","null","","fixation","","","","","","","","","","",""
"aa-learning-trial","234","903212","0.0-11.0-2.0-1.22","4508","1","20","Female","approach_avoid_spark_v1","""event"",""trial"",""time""
""fullscreenenter"",""1"",""2745""
","
","
","""event"",""trial"",""time""
""fullscreenenter"",""1"",""2745""
","
","","","","","","958","images/table4.png","","","learning","-8","-8","1","1","table","furniture","2","1","","good","[5]"
"html-keyboard-response","235","903725","0.0-11.0-2.0-0.23","4508","1","20","Female","approach_avoid_spark_v1","""event"",""trial"",""time""
""fullscreenenter"",""1"",""2745""
","
","
","""event"",""trial"",""time""
""fullscreenenter"",""1"",""2745""
","
","","","","","","null","<div style=""font-size:60px;"">+</div>","null","","fixation","","","","","","","","","","",""
"aa-learning-trial","236","906740","0.0-11.0-2.0-1.23","4508","1","20","Female","approach_avoid_spark_v1","""event"",""trial"",""time""
