"trial_type","trial_index","time_elapsed","internal_node_id","subject_id","task_condition","age","gender","task_version","interactions","blur_events","focus_events","fullscreenenter_events","fullscreenexit_events","success","timeout","failed_images","failed_audio","failed_video","rt","stimulus","response","button_pressed","task_part","approach_reward","points","key_press","option_selected","stim_cat","task_block","block_condition","block_number","correct","cat_type","mean_cat_reward"
"pavlovia","0","7","0.0-0.0","5888","2","13","Female","approach_avoid_spark_v1","""event"",""trial"",""time""
""fullscreenenter"",""1"",""3972""
","
","
","""event"",""trial"",""time""
""fullscreenenter"",""1"",""3972""
","
","","","","","","","","","","","","","","","","","","","","",""
"fullscreen","1","4936","0.0-1.0","5888","2","13","Female","approach_avoid_spark_v1","""event"",""trial"",""time""
""fullscreenenter"",""1"",""3972""
","
","
","""event"",""trial"",""time""
""fullscreenenter"",""1"",""3972""
","
","true","","","","","","","","","","","","","","","","","","","",""
"preload","2","62027","0.0-2.0","5888","2","13","Female","approach_avoid_spark_v1","""event"",""trial"",""time""
""fullscreenenter"",""1"",""3972""
","
","
","""event"",""trial"",""time""
""fullscreenenter"",""1"",""3972""
","
","true","false","[]","[]","[]","","","","","","","","","","","","","","","",""
"audio-keyboard-response","3","67667","0.0-3.0","5888","2","13","Female","approach_avoid_spark_v1","""event"",""trial"",""time""
""fullscreenenter"",""1"",""3972""
","
","
","""event"",""trial"",""time""
""fullscreenenter"",""1"",""3972""
","
","","","","","","4896.000000000001","audio/beep_loop.wav"," ","","","","","","","","","","","","",""
"audio-button-response","4","70944","0.0-4.0","5888","2","13","Female","approach_avoid_spark_v1","""event"",""trial"",""time""
""fullscreenenter"",""1"",""3972""
","
","
","""event"",""trial"",""time""
""fullscreenenter"",""1"",""3972""
","
","","","","","","3275","audio/shark.wav","1","","","","","","","","","","","","",""
"audio-button-response","5","73108","0.0-5.0","5888","2","13","Female","approach_avoid_spark_v1","""event"",""trial"",""time""
""fullscreenenter"",""1"",""3972""
","
","
","""event"",""trial"",""time""
""fullscreenenter"",""1"",""3972""
","
","","","","","","1131","audio/turtle.wav","1","","","","","","","","","","","","",""
"preload","6","80208","0.0-6.0","5888","2","13","Female","approach_avoid_spark_v1","""event"",""trial"",""time""
""fullscreenenter"",""1"",""3972""
","
","
","""event"",""trial"",""time""
""fullscreenenter"",""1"",""3972""
","
","true","false","[]","[]","[]","","","","","","","","","","","","","","","",""
"html-keyboard-response","7","83282","0.0-7.0","5888","2","13","Female","approach_avoid_spark_v1","""event"",""trial"",""time""
""fullscreenenter"",""1"",""3972""
","
","
","""event"",""trial"",""time""
""fullscreenenter"",""1"",""3972""
","
","","","","","","3072.100000023842","Welcome to the experiment. Press any key to begin and to advance the instructions."," ","","","","","","","","","","","","",""
"learning-instructions","8","92381","0.0-8.0-0.0-0.0","5888","2","13","Female","approach_avoid_spark_v1","""event"",""trial"",""time""
""fullscreenenter"",""1"",""3972""
","
","
","""event"",""trial"",""time""
""fullscreenenter"",""1"",""3972""
","
","","","","","","2150.600000023842","<p> Welcome! Today you are going to play 6 different rounds of a decision-making game. </p><p> Use the mouse to click next to continue. </p>","","0","instructions","","","","","","","","","","",""
"learning-instructions","9","96214","0.0-8.0-0.0-0.1","5888","2","13","Female","approach_avoid_spark_v1","""event"",""trial"",""time""
""fullscreenenter"",""1"",""3972""
","
","
","""event"",""trial"",""time""
""fullscreenenter"",""1"",""3972""
","
","","","","","","1086.8000000715256","<p> You will start with a practice round to learn the rules. </p>","","0","instructions","","","","","","","","","","",""
"learning-instructions","10","100187","0.0-8.0-0.0-0.2","5888","2","13","Female","approach_avoid_spark_v1","""event"",""trial"",""time""
""fullscreenenter"",""1"",""3972""
","
","
","""event"",""trial"",""time""
""fullscreenenter"",""1"",""3972""
","
","","","","","","505.89999997615814","<p> Your goal in this round is to give out sports equipment to kids. </p></div>","","0","instructions","","","","","","","","","","",""
"learning-instructions","11","109089","0.0-8.0-0.0-0.3","5888","2","13","Female","approach_avoid_spark_v1","""event"",""trial"",""time""
""fullscreenenter"",""1"",""3972""
","
","
","""event"",""trial"",""time""
""fullscreenenter"",""1"",""3972""
","
","","","","","","1332.7000000476837","<p> The kids only like some of the equipment.  </p><p> On each turn, you will see a piece of sports equipment.   </p><p> You need to decide whether to give it to the kids or not.  </p>","","0","instructions","","","","","","","","","","",""
"learning-instructions","12","116117","0.0-8.0-0.0-0.4","5888","2","13","Female","approach_avoid_spark_v1","""event"",""trial"",""time""
""fullscreenenter"",""1"",""3972""
","
","
","""event"",""trial"",""time""
""fullscreenenter"",""1"",""3972""
","
","","","","","","2259.4000000953674","<p> You can give them the equipment by pressing 1 and choose not to give it to them by pressing 0. </p><br><div class=""choice-instructions-grid""> <div class=""choice-option""><img src=""images/approach.png"" class=""choice-option-img"" stage=""instructions"" position=""0"" ><div class=""choice-option-text""> Press ""1."" </div></div><div class=""choice-option""><img src=""images/avoid.png"" class=""choice-option-img"" stage=""instructions"" position=""1"" ><div class=""choice-option-text""> Press ""0."" </div></div>","","0","instructions","","","","","","","","","","",""
"learning-instructions","13","124810","0.0-8.0-0.0-0.5","5888","2","13","Female","approach_avoid_spark_v1","""event"",""trial"",""time""
""fullscreenenter"",""1"",""3972""
","
","
","""event"",""trial"",""time""
""fullscreenenter"",""1"",""3972""
","
","","","","","","1301.1000000238419","<p> If you give them a piece of equipment they like, they will be happy! </p><p> But if you give them a piece of equipment they do not like, they will be sad. </p>","","0","instructions","","","","","","","","","","",""
"learning-instructions","14","136575","0.0-8.0-0.0-0.6","5888","2","13","Female","approach_avoid_spark_v1","""event"",""trial"",""time""
""fullscreenenter"",""1"",""3972""
","
","
","""event"",""trial"",""time""
""fullscreenenter"",""1"",""3972""
","
","","","","","","1235.5","<p> You will earn points based on how you make kids feel. </p><p> If you make them happy, you will WIN anywhere from 1 - 9 points, </p><p> but if you make them sad, you will LOSE anywhere from 1 - 9 points. </p>","","0","instructions","","","","","","","","","","",""
"learning-instructions","15","146620","0.0-8.0-0.0-0.7","5888","2","13","Female","approach_avoid_spark_v1","""event"",""trial"",""time""
""fullscreenenter"",""1"",""3972""
","
","
","""event"",""trial"",""time""
""fullscreenenter"",""1"",""3972""
","
","","","","","","476","<p> You will see how many points you won or lost in the center of the screen. </p><p> Here is what you would see if you won 6 points: </p><p style=""color:green;font-size:50px;font-weight:bolder"">6</p><p style=""color:green"">The text is GREEN because you WON points.</p>","","0","instructions","","","","","","","","","","",""
"learning-instructions","16","152840","0.0-8.0-0.0-0.8","5888","2","13","Female","approach_avoid_spark_v1","""event"",""trial"",""time""
""fullscreenenter"",""1"",""3972""
","
","
","""event"",""trial"",""time""
""fullscreenenter"",""1"",""3972""
","
","","","","","","700.8999999761581","<p> And here is what you would see if you lost 4 points: </p><p style=""color:red;font-size:50px;font-weight:bolder"">-4</p><p style=""color:red"">The text is RED because you LOST points. </p>","","0","instructions","","","","","","","","","","",""
"learning-instructions","17","169017","0.0-8.0-0.0-0.9","5888","2","13","Female","approach_avoid_spark_v1","""event"",""trial"",""time""
""fullscreenenter"",""1"",""3972""
","
","
","""event"",""trial"",""time""
""fullscreenenter"",""1"",""3972""
","
","","","","","","1454.3000000715256","<p> Some of the equipment will make the kids VERY happy or sad. </p><p> These pieces of equipment will make you win or lose LOTS of points. </p><p> Other pieces of equipment will only make the kids a little happy or sad. </p><p> These pieces of equipment will make you win or lose small amounts of points. </p>","","0","instructions","","","","","","","","","","",""
"learning-instructions","18","181174","0.0-8.0-0.0-0.10","5888","2","13","Female","approach_avoid_spark_v1","""event"",""trial"",""time""
""fullscreenenter"",""1"",""3972""
","
","
","""event"",""trial"",""time""
""fullscreenenter"",""1"",""3972""
","
","","","","","","1504.1999999284744","<p> If you choose not to give them the equipment, you will not win or lose any points. </p><p>  However, in the center of the screen, you will see the number of points you WOULD HAVE won or lost if you had given them the equipment. </p>","","0","instructions","","","","","","","","","","",""
"learning-instructions","19","203580","0.0-8.0-0.0-0.11","5888","2","13","Female","approach_avoid_spark_v1","""event"",""trial"",""time""
""fullscreenenter"",""1"",""3972""
","
","
","""event"",""trial"",""time""
""fullscreenenter"",""1"",""3972""
","
","","","","","","848.6000000238419","<p> Here is what you might see if you did not give the equipment to the kids but it would have made them happy: </p><p style=""color:grey; font-size:50px; display: inline-block; border-spacing: 15px; border-width:3px; border-style:solid; border-color:red"">  &nbsp; 7 &nbsp; </p><p> Remember, in this case, you would not win or lose ANY points because you did not give them the equipment.  </p><p style=""color:grey"">The text is GREY because you earned ZERO points. </p><p style=""color:red"">However, choosing to give the kids the equipment would have made you win points. The box around the text is RED because you chose the worse option. </p>","","0","instructions","","","","","","","","","","",""
"learning-instructions","20","225326","0.0-8.0-0.0-0.12","5888","2","13","Female","approach_avoid_spark_v1","""event"",""trial"",""time""
""fullscreenenter"",""1"",""3972""
","
","
","""event"",""trial"",""time""
""fullscreenenter"",""1"",""3972""
","
","","","","","","663.7000000476837","<p> Here is what you might see if you did not give the equipment to the kids but it would have made them sad: </p><p style=""color:grey;font-size:50px; display: inline-block; border-spacing: 15px; border-width:3px; border-style:solid; border-color:green"">  &nbsp; -8 &nbsp; </p><p> Remember, in this case, you would not win or lose ANY points because you did not give them the equipment.  </p><p style=""color:grey"">The text is GREY because you earned ZERO points. </p><p  style=""color:green""> Choosing to give the kids the equipment would have made you lose points. The box around the text is GREEN because you chose the better option.</p>","","0","instructions","","","","","","","","","","",""
"learning-instructions","21","237135","0.0-8.0-0.0-0.13","5888","2","13","Female","approach_avoid_spark_v1","""event"",""trial"",""time""
""fullscreenenter"",""1"",""3972""
","
","
","""event"",""trial"",""time""
""fullscreenenter"",""1"",""3972""
","
","","","","","","1251.6000000238419","<p> You will have 3 seconds to make each choice. Try to respond before time runs out! </p><p> You will lose 5 points each time you do not make a response. </p>","","0","instructions","","","","","","","","","","",""
"learning-instructions","22","243990","0.0-8.0-0.0-0.14","5888","2","13","Female","approach_avoid_spark_v1","""event"",""trial"",""time""
""fullscreenenter"",""1"",""3972""
","
","
","""event"",""trial"",""time""
""fullscreenenter"",""1"",""3972""
","
","","","","","","1429.8000000715256","<p> This is just a practice round, but in the real game, your bonus payment will depend on your total number of points.","","0","instructions","","","","","","","","","","",""
"learning-instructions","23","252565","0.0-8.0-0.0-0.15","5888","2","13","Female","approach_avoid_spark_v1","""event"",""trial"",""time""
""fullscreenenter"",""1"",""3972""
","
","
","""event"",""trial"",""time""
""fullscreenenter"",""1"",""3972""
","
","","","","","","2805","<p> Remember, you can give them the equipment by pressing 1 and choose not to give it to them by pressing 0. </p><br><div class=""choice-instructions-grid""> <div class=""choice-option""><img src=""images/approach.png"" class=""choice-option-img"" stage=""instructions"" position=""0"" ><div class=""choice-option-text""> Press ""1."" </div></div><div class=""choice-option""><img src=""images/avoid.png"" class=""choice-option-img"" stage=""instructions"" position=""1"" ><div class=""choice-option-text""> Press ""0."" </div></div>","","0","instructions","","","","","","","","","","",""
"html-button-response","24","254594","0.0-8.0-1.0","5888","2","13","Female","approach_avoid_spark_v1","""event"",""trial"",""time""
""fullscreenenter"",""1"",""3972""
","
","
","""event"",""trial"",""time""
""fullscreenenter"",""1"",""3972""
","
","","","","","","1913.8999999761581","<p> Ready to practice? </p>","0","","","","","","","","","","","","",""
"html-keyboard-response","25","255220","0.0-8.0-2.0-0.0","5888","2","13","Female","approach_avoid_spark_v1","""event"",""trial"",""time""
""fullscreenenter"",""1"",""3972""
","
","
","""event"",""trial"",""time""
""fullscreenenter"",""1"",""3972""
","
","","","","","","null","<div style=""font-size:60px;"">+</div>","null","","fixation","","","","","","","","","","",""
"aa-learning-trial","26","258249","0.0-8.0-2.0-1.0","5888","2","13","Female","approach_avoid_spark_v1","""event"",""trial"",""time""
""fullscreenenter"",""1"",""3972""
","
","
","""event"",""trial"",""time""
""fullscreenenter"",""1"",""3972""
","
","","","","","","1594.2999999523163","images/ball4.png","","","learning","-6","-6","1","1","practice","practice","practice","-1","","",""
"html-keyboard-response","27","258773","0.0-8.0-2.0-0.1","5888","2","13","Female","approach_avoid_spark_v1","""event"",""trial"",""time""
""fullscreenenter"",""1"",""3972""
","
","
","""event"",""trial"",""time""
""fullscreenenter"",""1"",""3972""
","
","","","","","","null","<div style=""font-size:60px;"">+</div>","null","","fixation","","","","","","","","","","",""
"aa-learning-trial","28","261787","0.0-8.0-2.0-1.1","5888","2","13","Female","approach_avoid_spark_v1","""event"",""trial"",""time""
""fullscreenenter"",""1"",""3972""
","
","
","""event"",""trial"",""time""
""fullscreenenter"",""1"",""3972""
","
","","","","","","2848.399999976158","images/ball1.png","","","learning","7","7","1","1","practice","practice","practice","-1","","",""
"html-keyboard-response","29","262314","0.0-8.0-2.0-0.2","5888","2","13","Female","approach_avoid_spark_v1","""event"",""trial"",""time""
""fullscreenenter"",""1"",""3972""
","
","
","""event"",""trial"",""time""
""fullscreenenter"",""1"",""3972""
","
","","","","","","null","<div style=""font-size:60px;"">+</div>","null","","fixation","","","","","","","","","","",""
"aa-learning-trial","30","265322","0.0-8.0-2.0-1.2","5888","2","13","Female","approach_avoid_spark_v1","""event"",""trial"",""time""
""fullscreenenter"",""1"",""3972""
","
","
","""event"",""trial"",""time""
""fullscreenenter"",""1"",""3972""
","
","","","","","","1549","images/ball2.png","","","learning","8","0","0","0","practice","practice","practice","-1","","",""
"html-keyboard-response","31","265844","0.0-8.0-2.0-0.3","5888","2","13","Female","approach_avoid_spark_v1","""event"",""trial"",""time""
""fullscreenenter"",""1"",""3972""
","
","
","""event"",""trial"",""time""
""fullscreenenter"",""1"",""3972""
","
","","","","","","null","<div style=""font-size:60px;"">+</div>","null","","fixation","","","","","","","","","","",""
"aa-learning-trial","32","268847","0.0-8.0-2.0-1.3","5888","2","13","Female","approach_avoid_spark_v1","""event"",""trial"",""time""
""fullscreenenter"",""1"",""3972""
","
","
","""event"",""trial"",""time""
""fullscreenenter"",""1"",""3972""
","
","","","","","","2000.3999999761581","images/ball2.png","","","learning","-8","-8","1","1","practice","practice","practice","-1","","",""
"html-keyboard-response","33","269353","0.0-8.0-2.0-0.4","5888","2","13","Female","approach_avoid_spark_v1","""event"",""trial"",""time""
""fullscreenenter"",""1"",""3972""
","
","
","""event"",""trial"",""time""
""fullscreenenter"",""1"",""3972""
","
","","","","","","null","<div style=""font-size:60px;"">+</div>","null","","fixation","","","","","","","","","","",""
"aa-learning-trial","34","272362","0.0-8.0-2.0-1.4","5888","2","13","Female","approach_avoid_spark_v1","""event"",""trial"",""time""
""fullscreenenter"",""1"",""3972""
","
","
","""event"",""trial"",""time""
""fullscreenenter"",""1"",""3972""
","
","","","","","","1027.1999999284744","images/ball3.png","","","learning","2","2","1","1","practice","practice","practice","-1","","",""
"html-keyboard-response","35","272884","0.0-8.0-2.0-0.5","5888","2","13","Female","approach_avoid_spark_v1","""event"",""trial"",""time""
""fullscreenenter"",""1"",""3972""
","
","
","""event"",""trial"",""time""
""fullscreenenter"",""1"",""3972""
","
","","","","","","null","<div style=""font-size:60px;"">+</div>","null","","fixation","","","","","","","","","","",""
"aa-learning-trial","36","275892","0.0-8.0-2.0-1.5","5888","2","13","Female","approach_avoid_spark_v1","""event"",""trial"",""time""
""fullscreenenter"",""1"",""3972""
","
","
","""event"",""trial"",""time""
""fullscreenenter"",""1"",""3972""
","
","","","","","","836.6999999284744","images/ball4.png","","","learning","3","0","0","0","practice","practice","practice","-1","","",""
"html-keyboard-response","37","276415","0.0-8.0-2.0-0.6","5888","2","13","Female","approach_avoid_spark_v1","""event"",""trial"",""time""
""fullscreenenter"",""1"",""3972""
","
","
","""event"",""trial"",""time""
""fullscreenenter"",""1"",""3972""
","
","","","","","","null","<div style=""font-size:60px;"">+</div>","null","","fixation","","","","","","","","","","",""
"aa-learning-trial","38","279444","0.0-8.0-2.0-1.6","5888","2","13","Female","approach_avoid_spark_v1","""event"",""trial"",""time""
""fullscreenenter"",""1"",""3972""
","
","
","""event"",""trial"",""time""
""fullscreenenter"",""1"",""3972""
","
","","","","","","842.2999999523163","images/ball3.png","","","learning","4","4","1","1","practice","practice","practice","-1","","",""
"html-keyboard-response","39","279956","0.0-8.0-2.0-0.7","5888","2","13","Female","approach_avoid_spark_v1","""event"",""trial"",""time""
""fullscreenenter"",""1"",""3972""
","
","
","""event"",""trial"",""time""
""fullscreenenter"",""1"",""3972""
","
","","","","","","null","<div style=""font-size:60px;"">+</div>","null","","fixation","","","","","","","","","","",""
"aa-learning-trial","40","282960","0.0-8.0-2.0-1.7","5888","2","13","Female","approach_avoid_spark_v1","""event"",""trial"",""time""
""fullscreenenter"",""1"",""3972""
","
","
","""event"",""trial"",""time""
""fullscreenenter"",""1"",""3972""
","
","","","","","","1643.6000000238419","images/racket2.png","","","learning","6","6","1","1","practice","practice","practice","-1","","",""
"html-keyboard-response","41","283470","0.0-8.0-2.0-0.8","5888","2","13","Female","approach_avoid_spark_v1","""event"",""trial"",""time""
""fullscreenenter"",""1"",""3972""
","
","
","""event"",""trial"",""time""
""fullscreenenter"",""1"",""3972""
","
","","","","","","null","<div style=""font-size:60px;"">+</div>","null","","fixation","","","","","","","","","","",""
"aa-learning-trial","42","286486","0.0-8.0-2.0-1.8","5888","2","13","Female","approach_avoid_spark_v1","""event"",""trial"",""time""
""fullscreenenter"",""1"",""3972""
","
","
","""event"",""trial"",""time""
""fullscreenenter"",""1"",""3972""
","
","","","","","","1704.5","images/ball2.png","","","learning","-9","-9","1","1","practice","practice","practice","-1","","",""
"html-keyboard-response","43","287001","0.0-8.0-2.0-0.9","5888","2","13","Female","approach_avoid_spark_v1","""event"",""trial"",""time""
""fullscreenenter"",""1"",""3972""
","
","
","""event"",""trial"",""time""
""fullscreenenter"",""1"",""3972""
","
","","","","","","null","<div style=""font-size:60px;"">+</div>","null","","fixation","","","","","","","","","","",""
"aa-learning-trial","44","290010","0.0-8.0-2.0-1.9","5888","2","13","Female","approach_avoid_spark_v1","""event"",""trial"",""time""
""fullscreenenter"",""1"",""3972""
","
","
","""event"",""trial"",""time""
""fullscreenenter"",""1"",""3972""
","
","","","","","","1686.4000000953674","images/ball3.png","","","learning","2","2","1","1","practice","practice","practice","-1","","",""
"html-keyboard-response","45","290527","0.0-8.0-2.0-0.10","5888","2","13","Female","approach_avoid_spark_v1","""event"",""trial"",""time""
""fullscreenenter"",""1"",""3972""
","
","
","""event"",""trial"",""time""
""fullscreenenter"",""1"",""3972""
","
","","","","","","null","<div style=""font-size:60px;"">+</div>","null","","fixation","","","","","","","","","","",""
"aa-learning-trial","46","293538","0.0-8.0-2.0-1.10","5888","2","13","Female","approach_avoid_spark_v1","""event"",""trial"",""time""
""fullscreenenter"",""1"",""3972""
","
","
","""event"",""trial"",""time""
""fullscreenenter"",""1"",""3972""
","
","","","","","","2097.600000023842","images/racket3.png","","","learning","5","5","1","1","practice","practice","practice","-1","","",""
"html-keyboard-response","47","294040","0.0-8.0-2.0-0.11","5888","2","13","Female","approach_avoid_spark_v1","""event"",""trial"",""time""
""fullscreenenter"",""1"",""3972""
","
","
","""event"",""trial"",""time""
""fullscreenenter"",""1"",""3972""
","
","","","","","","null","<div style=""font-size:60px;"">+</div>","null","","fixation","","","","","","","","","","",""
"aa-learning-trial","48","297052","0.0-8.0-2.0-1.11","5888","2","13","Female","approach_avoid_spark_v1","""event"",""trial"",""time""
""fullscreenenter"",""1"",""3972""
","
","
","""event"",""trial"",""time""
""fullscreenenter"",""1"",""3972""
","
","","","","","","997.1000000238419","images/ball3.png","","","learning","-3","-3","1","1","practice","practice","practice","-1","","",""
"html-button-response","49","301057","0.0-8.0-3.0","5888","2","13","Female","approach_avoid_spark_v1","""event"",""trial"",""time""
""fullscreenenter"",""1"",""3972""
","
","
","""event"",""trial"",""time""
""fullscreenenter"",""1"",""3972""
","
","","","","","","4002.2999999523163","<p> You earned 0 points in the practice round! </p>","0","","break","","","","","","","","","","",""
"learning-instructions","50","309883","0.0-8.0-4.0-0.0","5888","2","13","Female","approach_avoid_spark_v1","""event"",""trial"",""time""
""fullscreenenter"",""1"",""3972""
","
","
","""event"",""trial"",""time""
""fullscreenenter"",""1"",""3972""
","
","","","","","","2131.399999976158","<p> It's almost time to start the real game. </p><p> Before you start, we're going to ask you a few questions about how the game works. </p>","","0","instructions","","","","","","","","","","",""
"preload","51","312486","0.0-8.0-5.0","5888","2","13","Female","approach_avoid_spark_v1","""event"",""trial"",""time""
""fullscreenenter"",""1"",""3972""
","
","
","""event"",""trial"",""time""
""fullscreenenter"",""1"",""3972""
","
","true","false","[]","[]","[]","","","","","","","","","","","","","","","",""
"comp-q","52","319267","0.0-8.0-6.0-0.0","5888","2","13","Female","approach_avoid_spark_v1","""event"",""trial"",""time""
""fullscreenenter"",""1"",""3972""
","
","
","""event"",""trial"",""time""
""fullscreenenter"",""1"",""3972""
","
","","","","","","1775.5","<p> <b> True or False? </b> </p><p> If you see a number in GREY, that means you earned that many points. </p>","","1","comp_question","","","","","","","","","true","",""
"comp-q","53","328542","0.0-8.0-6.0-1.0","5888","2","13","Female","approach_avoid_spark_v1","""event"",""trial"",""time""
""fullscreenenter"",""1"",""3972""
","
","
","""event"",""trial"",""time""
""fullscreenenter"",""1"",""3972""
","
","","","","","","907.5","<p><b> That's right! </b> If you see a grey number, it means you earned ZERO points. <br> The grey numbers show the points you WOULD HAVE earned if you had made the other choice. </p>","","0","comp_answer","","","","","","","","","","",""
"comp-q","54","333802","0.0-8.0-7.0-0.0","5888","2","13","Female","approach_avoid_spark_v1","""event"",""trial"",""time""
""fullscreenenter"",""1"",""3972""
","
","
","""event"",""trial"",""time""
""fullscreenenter"",""1"",""3972""
","
","","","","","","566.7999999523163","<p> <b> True or False? </b> </p><p> You will have as much time as you want to make each choice. </p>","","1","comp_question","","","","","","","","","true","",""
"comp-q","55","342848","0.0-8.0-7.0-1.0","5888","2","13","Female","approach_avoid_spark_v1","""event"",""trial"",""time""
""fullscreenenter"",""1"",""3972""
","
","
","""event"",""trial"",""time""
""fullscreenenter"",""1"",""3972""
","
","","","","","","5004.600000023842","<p> <b> That's right! </b> You will only have 3 seconds to make each choice. </p>","","0","comp_answer","","","","","","","","","","",""
"comp-q","56","348079","0.0-8.0-8.0-0.0","5888","2","13","Female","approach_avoid_spark_v1","""event"",""trial"",""time""
""fullscreenenter"",""1"",""3972""
","
","
","""event"",""trial"",""time""
""fullscreenenter"",""1"",""3972""
","
","","","","","","562.1999999284744","<p> <b> True or False? </b> </p><p> You should use the '1' and '0' keys to make your choices. </p>","","0","comp_question","","","","","","","","","true","",""
"comp-q","57","353741","0.0-8.0-8.0-1.0","5888","2","13","Female","approach_avoid_spark_v1","""event"",""trial"",""time""
""fullscreenenter"",""1"",""3972""
","
","
","""event"",""trial"",""time""
""fullscreenenter"",""1"",""3972""
","
","","","","","","1028.6000000238419","<p> <b> That's right! </b> You should use the '1' and '0' keys to make each choice. </p>","","0","comp_answer","","","","","","","","","","",""
"learning-instructions","58","361896","0.0-8.0-9.0-0.0","5888","2","13","Female","approach_avoid_spark_v1","""event"",""trial"",""time""
""fullscreenenter"",""1"",""3972""
","
","
","""event"",""trial"",""time""
""fullscreenenter"",""1"",""3972""
","
","","","","","","1866.1000000238419","<p> It's now time to start the real game. </p>Do your best, because the points you earn in the next rounds will influence your bonus payment. </p>","","0","instructions","","","","","","","","","","",""
"preload","59","362023","0.0-9.0-0.0","5888","2","13","Female","approach_avoid_spark_v1","""event"",""trial"",""time""
""fullscreenenter"",""1"",""3972""
","
","
","""event"",""trial"",""time""
""fullscreenenter"",""1"",""3972""
","
","true","false","[]","[]","[]","","","","","","","","","","","","","","","",""
"learning-instructions","60","370398","0.0-9.0-1.0-0.0","5888","2","13","Female","approach_avoid_spark_v1","""event"",""trial"",""time""
""fullscreenenter"",""1"",""3972""
","
","
","""event"",""trial"",""time""
""fullscreenenter"",""1"",""3972""
","
","","","","","","3062.2000000476837","<p> Your goal in this round is to take care of lots of farm animals. </p></div>","","0","instructions","","","","","","","","","","",""
"learning-instructions","61","384812","0.0-9.0-1.0-0.1","5888","2","13","Female","approach_avoid_spark_v1","""event"",""trial"",""time""
""fullscreenenter"",""1"",""3972""
","
","
","""event"",""trial"",""time""
""fullscreenenter"",""1"",""3972""
","
","","","","","","1178.2000000476837","<p> Some farm animals are hungry, while other farm animals are already full.  </p><p> On each turn, you will see a farm animal.   </p><p> You need to decide whether to feed it or not.  </p>","","0","instructions","","","","","","","","","","",""
"learning-instructions","62","392359","0.0-9.0-1.0-0.2","5888","2","13","Female","approach_avoid_spark_v1","""event"",""trial"",""time""
""fullscreenenter"",""1"",""3972""
","
","
","""event"",""trial"",""time""
""fullscreenenter"",""1"",""3972""
","
","","","","","","1545.6000000238419","<p> You can feed the farm animal by pressing 1 and leave the farm animal alone by pressing 0. </p><br><div class=""choice-instructions-grid""> <div class=""choice-option""><img src=""images/approach.png"" class=""choice-option-img"" stage=""instructions"" position=""0"" ><div class=""choice-option-text""> Press ""1."" </div></div><div class=""choice-option""><img src=""images/avoid.png"" class=""choice-option-img"" stage=""instructions"" position=""1"" ><div class=""choice-option-text""> Press ""0."" </div></div>","","0","instructions","","","","","","","","","","",""
"learning-instructions","63","402663","0.0-9.0-1.0-0.3","5888","2","13","Female","approach_avoid_spark_v1","""event"",""trial"",""time""
""fullscreenenter"",""1"",""3972""
","
","
","""event"",""trial"",""time""
""fullscreenenter"",""1"",""3972""
","
","","","","","","778.1000000238419","<p> If you feed a hungry farm animal, you will make it feel satisfied! </p><p> But if you feed the farm animal and it was already full, you will make it feel sick. </p>","","0","instructions","","","","","","","","","","",""
"learning-instructions","64","418050","0.0-9.0-1.0-0.4","5888","2","13","Female","approach_avoid_spark_v1","""event"",""trial"",""time""
""fullscreenenter"",""1"",""3972""
","
","
","""event"",""trial"",""time""
""fullscreenenter"",""1"",""3972""
","
","","","","","","570.5","<p> You will earn points based on how you made the farm animal feel. </p><p> If you made it satisfied, you will WIN anywhere from 1 - 9 points, </p><p> but if you made it sick, you will LOSE anywhere from 1 - 9 points. </p>","","0","instructions","","","","","","","","","","",""
"learning-instructions","65","430041","0.0-9.0-1.0-0.5","5888","2","13","Female","approach_avoid_spark_v1","""event"",""trial"",""time""
""fullscreenenter"",""1"",""3972""
","
","
","""event"",""trial"",""time""
""fullscreenenter"",""1"",""3972""
","
","","","","","","1584.7999999523163","<p> You will see how many points you won or lost in the center of the screen. </p><p> Here is what you would see if you won 5 points: </p><p style=""color:green;font-size:50px;font-weight:bolder"">5</p>","","0","instructions","","","","","","","","","","",""
"learning-instructions","66","434808","0.0-9.0-1.0-0.6","5888","2","13","Female","approach_avoid_spark_v1","""event"",""trial"",""time""
""fullscreenenter"",""1"",""3972""
","
","
","""event"",""trial"",""time""
""fullscreenenter"",""1"",""3972""
","
","","","","","","644.6000000238419","<p> And here is what you would see if you lost 3 points: </p><p style=""color:red;font-size:50px;font-weight:bolder"">-3</p>","","0","instructions","","","","","","","","","","",""
"learning-instructions","67","453244","0.0-9.0-1.0-0.7","5888","2","13","Female","approach_avoid_spark_v1","""event"",""trial"",""time""
""fullscreenenter"",""1"",""3972""
","
","
","""event"",""trial"",""time""
""fullscreenenter"",""1"",""3972""
","
","","","","","","895","<p> Some farm animals will become very satisfied or very sick. </p><p> These farm animals will make you win or lose LOTS of points. </p><p> Other farm animals have less strong feelings. </p><p> These farm animals will make you win or lose small amounts of points. </p>","","0","instructions","","","","","","","","","","",""
"learning-instructions","68","465826","0.0-9.0-1.0-0.8","5888","2","13","Female","approach_avoid_spark_v1","""event"",""trial"",""time""
""fullscreenenter"",""1"",""3972""
","
","
","""event"",""trial"",""time""
""fullscreenenter"",""1"",""3972""
","
","","","","","","464","<p> If you choose to leave the farm animal alone, you will not win or lose any points. </p><p>  However, in the center of the screen, you will see the number of points you WOULD HAVE won or lost if you had fed the farm animal. </p>","","0","instructions","","","","","","","","","","",""
"learning-instructions","69","479068","0.0-9.0-1.0-0.9","5888","2","13","Female","approach_avoid_spark_v1","""event"",""trial"",""time""
""fullscreenenter"",""1"",""3972""
","
","
","""event"",""trial"",""time""
""fullscreenenter"",""1"",""3972""
","
","","","","","","1321.8999999761581","<p> Here is what you might see if you did not feed the farm animal but the animal was hungry: </p><p style=""color:grey; font-size:50px; display: inline-block; border-spacing: 15px; border-width:3px; border-style:solid; border-color:red"">  &nbsp; 6 &nbsp; </p><p> Remember, in this case, you would not win or lose ANY points because you did not feed the farm animal.  </p>","","0","instructions","","","","","","","","","","",""
"learning-instructions","70","490155","0.0-9.0-1.0-0.10","5888","2","13","Female","approach_avoid_spark_v1","""event"",""trial"",""time""
""fullscreenenter"",""1"",""3972""
","
","
","""event"",""trial"",""time""
""fullscreenenter"",""1"",""3972""
","
","","","","","","2968.5","<p> Try to make the best choice for each farm animal because </p><p> at the end of the game, you will earn bonus money based on how many points you earned. </p>","","0","instructions","","","","","","","","","","",""
"learning-instructions","71","498919","0.0-9.0-1.0-0.11","5888","2","13","Female","approach_avoid_spark_v1","""event"",""trial"",""time""
""fullscreenenter"",""1"",""3972""
","
","
","""event"",""trial"",""time""
""fullscreenenter"",""1"",""3972""
","
","","","","","","575.1999999284744","<p> You will have 3 seconds to make each choice. Try to respond before time runs out! </p><p> You will lose 5 points each time you do not make a response. </p>","","0","instructions","","","","","","","","","","",""
"html-keyboard-response","72","499547","0.0-9.0-2.0-0.0","5888","2","13","Female","approach_avoid_spark_v1","""event"",""trial"",""time""
""fullscreenenter"",""1"",""3972""
","
","
","""event"",""trial"",""time""
""fullscreenenter"",""1"",""3972""
","
","","","","","","null","<div style=""font-size:60px;"">+</div>","null","","fixation","","","","","","","","","","",""
"aa-learning-trial","73","502556","0.0-9.0-2.0-1.0","5888","2","13","Female","approach_avoid_spark_v1","""event"",""trial"",""time""
""fullscreenenter"",""1"",""3972""
","
","
","""event"",""trial"",""time""
""fullscreenenter"",""1"",""3972""
","
","","","","","","2279.9000000953674","images/horse6.png","","","learning","-4","0","0","0","horse","animals","2","0","","good","[5]"
"html-keyboard-response","74","503078","0.0-9.0-2.0-0.1","5888","2","13","Female","approach_avoid_spark_v1","""event"",""trial"",""time""
""fullscreenenter"",""1"",""3972""
","
","
","""event"",""trial"",""time""
""fullscreenenter"",""1"",""3972""
","
","","","","","","null","<div style=""font-size:60px;"">+</div>","null","","fixation","","","","","","","","","","",""
"aa-learning-trial","75","506091","0.0-9.0-2.0-1.1","5888","2","13","Female","approach_avoid_spark_v1","""event"",""trial"",""time""
""fullscreenenter"",""1"",""3972""
","
","
","""event"",""trial"",""time""
""fullscreenenter"",""1"",""3972""
","
","","","","","","1916.2000000476837","images/sheep4.png","","","learning","1","1","1","1","sheep","animals","2","0","","bad","[-6]"
"html-keyboard-response","76","506607","0.0-9.0-2.0-0.2","5888","2","13","Female","approach_avoid_spark_v1","""event"",""trial"",""time""
""fullscreenenter"",""1"",""3972""
","
","
","""event"",""trial"",""time""
""fullscreenenter"",""1"",""3972""
","
","","","","","","null","<div style=""font-size:60px;"">+</div>","null","","fixation","","","","","","","","","","",""
"aa-learning-trial","77","509613","0.0-9.0-2.0-1.2","5888","2","13","Female","approach_avoid_spark_v1","""event"",""trial"",""time""
""fullscreenenter"",""1"",""3972""
","
","
","""event"",""trial"",""time""
""fullscreenenter"",""1"",""3972""
","
","","","","","","651.6000000238419","images/sheep4.png","","","learning","1","1","1","1","sheep","animals","2","0","","bad","[-6]"
"html-keyboard-response","78","510129","0.0-9.0-2.0-0.3","5888","2","13","Female","approach_avoid_spark_v1","""event"",""trial"",""time""
""fullscreenenter"",""1"",""3972""
","
","
","""event"",""trial"",""time""
""fullscreenenter"",""1"",""3972""
","
","","","","","","null","<div style=""font-size:60px;"">+</div>","null","","fixation","","","","","","","","","","",""
"aa-learning-trial","79","513138","0.0-9.0-2.0-1.3","5888","2","13","Female","approach_avoid_spark_v1","""event"",""trial"",""time""
""fullscreenenter"",""1"",""3972""
","
","
","""event"",""trial"",""time""
""fullscreenenter"",""1"",""3972""
","
","","","","","","1009.2000000476837","images/cow5.png","","","learning","-8","-8","1","1","cow","animals","2","0","","neutral","0"
"html-keyboard-response","80","513660","0.0-9.0-2.0-0.4","5888","2","13","Female","approach_avoid_spark_v1","""event"",""trial"",""time""
""fullscreenenter"",""1"",""3972""
","
","
","""event"",""trial"",""time""
""fullscreenenter"",""1"",""3972""
","
","","","","","","null","<div style=""font-size:60px;"">+</div>","null","","fixation","","","","","","","","","","",""
"aa-learning-trial","81","516669","0.0-9.0-2.0-1.4","5888","2","13","Female","approach_avoid_spark_v1","""event"",""trial"",""time""
""fullscreenenter"",""1"",""3972""
","
","
","""event"",""trial"",""time""
""fullscreenenter"",""1"",""3972""
","
","","","","","","1103.1000000238419","images/sheep2.png","","","learning","-7","0","0","0","sheep","animals","2","0","","bad","[-6]"
"html-keyboard-response","82","517180","0.0-9.0-2.0-0.5","5888","2","13","Female","approach_avoid_spark_v1","""event"",""trial"",""time""
""fullscreenenter"",""1"",""3972""
","
","
","""event"",""trial"",""time""
""fullscreenenter"",""1"",""3972""
","
","","","","","","null","<div style=""font-size:60px;"">+</div>","null","","fixation","","","","","","","","","","",""
"aa-learning-trial","83","520189","0.0-9.0-2.0-1.5","5888","2","13","Female","approach_avoid_spark_v1","""event"",""trial"",""time""
""fullscreenenter"",""1"",""3972""
","
","
","""event"",""trial"",""time""
""fullscreenenter"",""1"",""3972""
","
","","","","","","2030.7999999523163","images/cow6.png","","","learning","-2","-2","1","1","cow","animals","2","0","","neutral","0"
"html-keyboard-response","84","520700","0.0-9.0-2.0-0.6","5888","2","13","Female","approach_avoid_spark_v1","""event"",""trial"",""time""
""fullscreenenter"",""1"",""3972""
","
","
","""event"",""trial"",""time""
""fullscreenenter"",""1"",""3972""
","
","","","","","","null","<div style=""font-size:60px;"">+</div>","null","","fixation","","","","","","","","","","",""
"aa-learning-trial","85","523710","0.0-9.0-2.0-1.6","5888","2","13","Female","approach_avoid_spark_v1","""event"",""trial"",""time""
""fullscreenenter"",""1"",""3972""
","
","
","""event"",""trial"",""time""
""fullscreenenter"",""1"",""3972""
","
","","","","","","2482.3000000715256","images/cow5.png","","","learning","-8","0","0","0","cow","animals","2","0","","neutral","0"
"html-keyboard-response","86","524231","0.0-9.0-2.0-0.7","5888","2","13","Female","approach_avoid_spark_v1","""event"",""trial"",""time""
""fullscreenenter"",""1"",""3972""
","
","
","""event"",""trial"",""time""
""fullscreenenter"",""1"",""3972""
","
","","","","","","null","<div style=""font-size:60px;"">+</div>","null","","fixation","","","","","","","","","","",""
"aa-learning-trial","87","527250","0.0-9.0-2.0-1.7","5888","2","13","Female","approach_avoid_spark_v1","""event"",""trial"",""time""
""fullscreenenter"",""1"",""3972""
","
","
","""event"",""trial"",""time""
""fullscreenenter"",""1"",""3972""
","
","","","","","","1196.3999999761581","images/sheep2.png","","","learning","-7","-7","1","1","sheep","animals","2","0","","bad","[-6]"
"html-keyboard-response","88","527772","0.0-9.0-2.0-0.8","5888","2","13","Female","approach_avoid_spark_v1","""event"",""trial"",""time""
""fullscreenenter"",""1"",""3972""
","
","
","""event"",""trial"",""time""
""fullscreenenter"",""1"",""3972""
","
","","","","","","null","<div style=""font-size:60px;"">+</div>","null","","fixation","","","","","","","","","","",""
"aa-learning-trial","89","530784","0.0-9.0-2.0-1.8","5888","2","13","Female","approach_avoid_spark_v1","""event"",""trial"",""time""
""fullscreenenter"",""1"",""3972""
","
","
","""event"",""trial"",""time""
""fullscreenenter"",""1"",""3972""
","
","","","","","","1234.5","images/horse2.png","","","learning","-9","-9","1","1","horse","animals","2","0","","good","[5]"
"html-keyboard-response","90","531297","0.0-9.0-2.0-0.9","5888","2","13","Female","approach_avoid_spark_v1","""event"",""trial"",""time""
""fullscreenenter"",""1"",""3972""
","
","
","""event"",""trial"",""time""
""fullscreenenter"",""1"",""3972""
","
","","","","","","null","<div style=""font-size:60px;"">+</div>","null","","fixation","","","","","","","","","","",""
"aa-learning-trial","91","534306","0.0-9.0-2.0-1.9","5888","2","13","Female","approach_avoid_spark_v1","""event"",""trial"",""time""
""fullscreenenter"",""1"",""3972""
","
","
","""event"",""trial"",""time""
""fullscreenenter"",""1"",""3972""
","
","","","","","","889.5","images/horse1.png","","","learning","2","2","1","1","horse","animals","2","0","","good","[5]"
"html-keyboard-response","92","534810","0.0-9.0-2.0-0.10","5888","2","13","Female","approach_avoid_spark_v1","""event"",""trial"",""time""
""fullscreenenter"",""1"",""3972""
","
","
","""event"",""trial"",""time""
""fullscreenenter"",""1"",""3972""
","
","","","","","","null","<div style=""font-size:60px;"">+</div>","null","","fixation","","","","","","","","","","",""
"aa-learning-trial","93","537824","0.0-9.0-2.0-1.10","5888","2","13","Female","approach_avoid_spark_v1","""event"",""trial"",""time""
""fullscreenenter"",""1"",""3972""
","
","
","""event"",""trial"",""time""
""fullscreenenter"",""1"",""3972""
","
","","","","","","870.5","images/cow6.png","","","learning","-2","0","0","0","cow","animals","2","0","","neutral","0"
"html-keyboard-response","94","538331","0.0-9.0-2.0-0.11","5888","2","13","Female","approach_avoid_spark_v1","""event"",""trial"",""time""
""fullscreenenter"",""1"",""3972""
","
","
","""event"",""trial"",""time""
""fullscreenenter"",""1"",""3972""
","
","","","","","","null","<div style=""font-size:60px;"">+</div>","null","","fixation","","","","","","","","","","",""
"aa-learning-trial","95","541340","0.0-9.0-2.0-1.11","5888","2","13","Female","approach_avoid_spark_v1","""event"",""trial"",""time""
""fullscreenenter"",""1"",""3972""
","
","
","""event"",""trial"",""time""
""fullscreenenter"",""1"",""3972""
","
","","","","","","621.8000000715256","images/horse6.png","","","learning","-4","-4","1","1","horse","animals","2","0","","good","[5]"
"html-keyboard-response","96","541856","0.0-9.0-2.0-0.12","5888","2","13","Female","approach_avoid_spark_v1","""event"",""trial"",""time""
""fullscreenenter"",""1"",""3972""
","
","
","""event"",""trial"",""time""
""fullscreenenter"",""1"",""3972""
","
","","","","","","null","<div style=""font-size:60px;"">+</div>","null","","fixation","","","","","","","","","","",""
"aa-learning-trial","97","544869","0.0-9.0-2.0-1.12","5888","2","13","Female","approach_avoid_spark_v1","""event"",""trial"",""time""
""fullscreenenter"",""1"",""3972""
","
","
","""event"",""trial"",""time""
""fullscreenenter"",""1"",""3972""
","
","","","","","","534.0999999046326","images/horse2.png","","","learning","-9","0","0","0","horse","animals","2","0","","good","[5]"
"html-keyboard-response","98","545377","0.0-9.0-2.0-0.13","5888","2","13","Female","approach_avoid_spark_v1","""event"",""trial"",""time""
""fullscreenenter"",""1"",""3972""
","
","
","""event"",""trial"",""time""
""fullscreenenter"",""1"",""3972""
","
","","","","","","null","<div style=""font-size:60px;"">+</div>","null","","fixation","","","","","","","","","","",""
"aa-learning-trial","99","548391","0.0-9.0-2.0-1.13","5888","2","13","Female","approach_avoid_spark_v1","""event"",""trial"",""time""
""fullscreenenter"",""1"",""3972""
","
","
","""event"",""trial"",""time""
""fullscreenenter"",""1"",""3972""
","
","","","","","","1052.6999999284744","images/sheep8.png","","","learning","-5","0","0","0","sheep","animals","2","0","","bad","[-6]"
"html-keyboard-response","100","548899","0.0-9.0-2.0-0.14","5888","2","13","Female","approach_avoid_spark_v1","""event"",""trial"",""time""
""fullscreenenter"",""1"",""3972""
","
","
","""event"",""trial"",""time""
""fullscreenenter"",""1"",""3972""
","
","","","","","","null","<div style=""font-size:60px;"">+</div>","null","","fixation","","","","","","","","","","",""
"aa-learning-trial","101","551913","0.0-9.0-2.0-1.14","5888","2","13","Female","approach_avoid_spark_v1","""event"",""trial"",""time""
""fullscreenenter"",""1"",""3972""
","
","
","""event"",""trial"",""time""
""fullscreenenter"",""1"",""3972""
","
","","","","","","1381.5","images/cow8.png","","","learning","6","6","1","1","cow","animals","2","0","","neutral","0"
"html-keyboard-response","102","552419","0.0-9.0-2.0-0.15","5888","2","13","Female","approach_avoid_spark_v1","""event"",""trial"",""time""
""fullscreenenter"",""1"",""3972""
","
","
","""event"",""trial"",""time""
""fullscreenenter"",""1"",""3972""
","
","","","","","","null","<div style=""font-size:60px;"">+</div>","null","","fixation","","","","","","","","","","",""
"aa-learning-trial","103","555428","0.0-9.0-2.0-1.15","5888","2","13","Female","approach_avoid_spark_v1","""event"",""trial"",""time""
""fullscreenenter"",""1"",""3972""
","
","
","""event"",""trial"",""time""
""fullscreenenter"",""1"",""3972""
","
","","","","","","626.1000000238419","images/cow8.png","","","learning","6","6","1","1","cow","animals","2","0","","neutral","0"
"html-keyboard-response","104","555946","0.0-9.0-2.0-0.16","5888","2","13","Female","approach_avoid_spark_v1","""event"",""trial"",""time""
""fullscreenenter"",""1"",""3972""
","
","
","""event"",""trial"",""time""
""fullscreenenter"",""1"",""3972""
","
","","","","","","null","<div style=""font-size:60px;"">+</div>","null","","fixation","","","","","","","","","","",""
"aa-learning-trial","105","558957","0.0-9.0-2.0-1.16","5888","2","13","Female","approach_avoid_spark_v1","""event"",""trial"",""time""
""fullscreenenter"",""1"",""3972""
","
","
","""event"",""trial"",""time""
""fullscreenenter"",""1"",""3972""
","
","","","","","","1198","images/cow6.png","","","learning","-2","0","0","0","cow","animals","2","0","","neutral","0"
"html-keyboard-response","106","559478","0.0-9.0-2.0-0.17","5888","2","13","Female","approach_avoid_spark_v1","""event"",""trial"",""time""
""fullscreenenter"",""1"",""3972""
","
","
","""event"",""trial"",""time""
""fullscreenenter"",""1"",""3972""
","
","","","","","","null","<div style=""font-size:60px;"">+</div>","null","","fixation","","","","","","","","","","",""
"aa-learning-trial","107","562495","0.0-9.0-2.0-1.17","5888","2","13","Female","approach_avoid_spark_v1","""event"",""trial"",""time""
""fullscreenenter"",""1"",""3972""
","
","
","""event"",""trial"",""time""
""fullscreenenter"",""1"",""3972""
","
","","","","","","915.8999999761581","images/horse1.png","","","learning","2","0","0","0","horse","animals","2","0","","good","[5]"
"html-keyboard-response","108","563002","0.0-9.0-2.0-0.18","5888","2","13","Female","approach_avoid_spark_v1","""event"",""trial"",""time""
""fullscreenenter"",""1"",""3972""
","
","
","""event"",""trial"",""time""
""fullscreenenter"",""1"",""3972""
","
","","","","","","null","<div style=""font-size:60px;"">+</div>","null","","fixation","","","","","","","","","","",""
"aa-learning-trial","109","566010","0.0-9.0-2.0-1.18","5888","2","13","Female","approach_avoid_spark_v1","""event"",""trial"",""time""
""fullscreenenter"",""1"",""3972""
","
","
","""event"",""trial"",""time""
""fullscreenenter"",""1"",""3972""
","
","","","","","","734.5","images/horse2.png","","","learning","-9","-9","1","1","horse","animals","2","0","","good","[5]"
"html-keyboard-response","110","566520","0.0-9.0-2.0-0.19","5888","2","13","Female","approach_avoid_spark_v1","""event"",""trial"",""time""
""fullscreenenter"",""1"",""3972""
","
","
","""event"",""trial"",""time""
""fullscreenenter"",""1"",""3972""
","
","","","","","","null","<div style=""font-size:60px;"">+</div>","null","","fixation","","","","","","","","","","",""
"aa-learning-trial","111","569530","0.0-9.0-2.0-1.19","5888","2","13","Female","approach_avoid_spark_v1","""event"",""trial"",""time""
""fullscreenenter"",""1"",""3972""
","
","
","""event"",""trial"",""time""
""fullscreenenter"",""1"",""3972""
","
","","","","","","1187","images/sheep5.png","","","learning","7","0","0","0","sheep","animals","2","0","","bad","[-6]"
"html-keyboard-response","112","570035","0.0-9.0-2.0-0.20","5888","2","13","Female","approach_avoid_spark_v1","""event"",""trial"",""time""
""fullscreenenter"",""1"",""3972""
","
","
","""event"",""trial"",""time""
""fullscreenenter"",""1"",""3972""
","
","","","","","","null","<div style=""font-size:60px;"">+</div>","null","","fixation","","","","","","","","","","",""
"aa-learning-trial","113","573047","0.0-9.0-2.0-1.20","5888","2","13","Female","approach_avoid_spark_v1","""event"",""trial"",""time""
""fullscreenenter"",""1"",""3972""
","
","
","""event"",""trial"",""time""
""fullscreenenter"",""1"",""3972""
","
","","","","","","2514","images/horse2.png","","","learning","-9","-9","1","1","horse","animals","2","0","","good","[5]"
"html-keyboard-response","114","573554","0.0-9.0-2.0-0.21","5888","2","13","Female","approach_avoid_spark_v1","""event"",""trial"",""time""
""fullscreenenter"",""1"",""3972""
","
","
","""event"",""trial"",""time""
""fullscreenenter"",""1"",""3972""
","
","","","","","","null","<div style=""font-size:60px;"">+</div>","null","","fixation","","","","","","","","","","",""
"aa-learning-trial","115","576568","0.0-9.0-2.0-1.21","5888","2","13","Female","approach_avoid_spark_v1","""event"",""trial"",""time""
""fullscreenenter"",""1"",""3972""
","
","
","""event"",""trial"",""time""
""fullscreenenter"",""1"",""3972""
","
","","","","","","null","images/cow5.png","","","learning","-8","-5","","null","cow","animals","2","0","","neutral","0"
"html-keyboard-response","116","577072","0.0-9.0-2.0-0.22","5888","2","13","Female","approach_avoid_spark_v1","""event"",""trial"",""time""
""fullscreenenter"",""1"",""3972""
","
","
","""event"",""trial"",""time""
""fullscreenenter"",""1"",""3972""
","
","","","","","","null","<div style=""font-size:60px;"">+</div>","null","","fixation","","","","","","","","","","",""
"aa-learning-trial","117","580087","0.0-9.0-2.0-1.22","5888","2","13","Female","approach_avoid_spark_v1","""event"",""trial"",""time""
""fullscreenenter"",""1"",""3972""
","
","
","""event"",""trial"",""time""
""fullscreenenter"",""1"",""3972""
","
","","","","","","1587.7000000476837","images/cow3.png","","","learning","5","5","1","1","cow","animals","2","0","","neutral","0"
"html-keyboard-response","118","580596","0.0-9.0-2.0-0.23","5888","2","13","Female","approach_avoid_spark_v1","""event"",""trial"",""time""
""fullscreenenter"",""1"",""3972""
","
","
","""event"",""trial"",""time""
""fullscreenenter"",""1"",""3972""
","
","","","","","","null","<div style=""font-size:60px;"">+</div>","null","","fixation","","","","","","","","","","",""
"aa-learning-trial","119","583617","0.0-9.0-2.0-1.23","5888","2","13","Female","approach_avoid_spark_v1","""event"",""trial"",""time""
""fullscreenenter"",""1"",""3972""
","
","
","""event"",""trial"",""time""
""fullscreenenter"",""1"",""3972""
","
","","","","","","778.6000000238419","images/cow6.png","","","learning","-2","0","0","0","cow","animals","2","0","","neutral","0"
"html-keyboard-response","120","584121","0.0-9.0-2.0-0.24","5888","2","13","Female","approach_avoid_spark_v1","""event"",""trial"",""time""
""fullscreenenter"",""1"",""3972""
","
","
","""event"",""trial"",""time""
""fullscreenenter"",""1"",""3972""
","
","","","","","","null","<div style=""font-size:60px;"">+</div>","null","","fixation","","","","","","","","","","",""
"aa-learning-trial","121","587130","0.0-9.0-2.0-1.24","5888","2","13","Female","approach_avoid_spark_v1","""event"",""trial"",""time""
""fullscreenenter"",""1"",""3972""
","
","
","""event"",""trial"",""time""
""fullscreenenter"",""1"",""3972""
","
","","","","","","896.3999999761581","images/sheep2.png","","","learning","-7","0","0","0","sheep","animals","2","0","","bad","[-6]"
"html-keyboard-response","122","587638","0.0-9.0-2.0-0.25","5888","2","13","Female","approach_avoid_spark_v1","""event"",""trial"",""time""
""fullscreenenter"",""1"",""3972""
","
","
","""event"",""trial"",""time""
""fullscreenenter"",""1"",""3972""
","
","","","","","","null","<div style=""font-size:60px;"">+</div>","null","","fixation","","","","","","","","","","",""
"aa-learning-trial","123","590649","0.0-9.0-2.0-1.25","5888","2","13","Female","approach_avoid_spark_v1","""event"",""trial"",""time""
""fullscreenenter"",""1"",""3972""
","
","
","""event"",""trial"",""time""
""fullscreenenter"",""1"",""3972""
","
","","","","","","1569.7000000476837","images/horse1.png","","","learning","2","2","1","1","horse","animals","2","0","","good","[5]"
"html-keyboard-response","124","591156","0.0-9.0-2.0-0.26","5888","2","13","Female","approach_avoid_spark_v1","""event"",""trial"",""time""
""fullscreenenter"",""1"",""3972""
","
","
","""event"",""trial"",""time""
""fullscreenenter"",""1"",""3972""
","
","","","","","","null","<div style=""font-size:60px;"">+</div>","null","","fixation","","","","","","","","","","",""
"aa-learning-trial","125","594160","0.0-9.0-2.0-1.26","5888","2","13","Female","approach_avoid_spark_v1","""event"",""trial"",""time""
""fullscreenenter"",""1"",""3972""
","
","
","""event"",""trial"",""time""
""fullscreenenter"",""1"",""3972""
","
","","","","","","1466.3000000715256","images/horse6.png","","","learning","-4","0","0","0","horse","animals","2","0","","good","[5]"
"html-keyboard-response","126","594672","0.0-9.0-2.0-0.27","5888","2","13","Female","approach_avoid_spark_v1","""event"",""trial"",""time""
""fullscreenenter"",""1"",""3972""
","
","
","""event"",""trial"",""time""
""fullscreenenter"",""1"",""3972""
","
","","","","","","null","<div style=""font-size:60px;"">+</div>","null","","fixation","","","","","","","","","","",""
"aa-learning-trial","127","597690","0.0-9.0-2.0-1.27","5888","2","13","Female","approach_avoid_spark_v1","""event"",""trial"",""time""
""fullscreenenter"",""1"",""3972""
","
","
","""event"",""trial"",""time""
""fullscreenenter"",""1"",""3972""
","
","","","","","","1496.2999999523163","images/cow6.png","","","learning","-2","0","0","0","cow","animals","2","0","","neutral","0"
"html-keyboard-response","128","598196","0.0-9.0-2.0-0.28","5888","2","13","Female","approach_avoid_spark_v1","""event"",""trial"",""time""
""fullscreenenter"",""1"",""3972""
","
","
","""event"",""trial"",""time""
""fullscreenenter"",""1"",""3972""
","
","","","","","","null","<div style=""font-size:60px;"">+</div>","null","","fixation","","","","","","","","","","",""
"aa-learning-trial","129","601202","0.0-9.0-2.0-1.28","5888","2","13","Female","approach_avoid_spark_v1","""event"",""trial"",""time""
""fullscreenenter"",""1"",""3972""
","
","
","""event"",""trial"",""time""
""fullscreenenter"",""1"",""3972""
","
","","","","","","915.0999999046326","images/sheep2.png","","","learning","-7","0","0","0","sheep","animals","2","0","","bad","[-6]"
"html-keyboard-response","130","601707","0.0-9.0-2.0-0.29","5888","2","13","Female","approach_avoid_spark_v1","""event"",""trial"",""time""
""fullscreenenter"",""1"",""3972""
","
","
","""event"",""trial"",""time""
""fullscreenenter"",""1"",""3972""
","
","","","","","","null","<div style=""font-size:60px;"">+</div>","null","","fixation","","","","","","","","","","",""
"aa-learning-trial","131","604720","0.0-9.0-2.0-1.29","5888","2","13","Female","approach_avoid_spark_v1","""event"",""trial"",""time""
""fullscreenenter"",""1"",""3972""
","
","
","""event"",""trial"",""time""
""fullscreenenter"",""1"",""3972""
","
","","","","","","777","images/sheep4.png","","","learning","1","1","1","1","sheep","animals","2","0","","bad","[-6]"
"html-keyboard-response","132","605225","0.0-9.0-2.0-0.30","5888","2","13","Female","approach_avoid_spark_v1","""event"",""trial"",""time""
""fullscreenenter"",""1"",""3972""
","
","
","""event"",""trial"",""time""
""fullscreenenter"",""1"",""3972""
","
","","","","","","null","<div style=""font-size:60px;"">+</div>","null","","fixation","","","","","","","","","","",""
"aa-learning-trial","133","608237","0.0-9.0-2.0-1.30","5888","2","13","Female","approach_avoid_spark_v1","""event"",""trial"",""time""
""fullscreenenter"",""1"",""3972""
","
","
","""event"",""trial"",""time""
""fullscreenenter"",""1"",""3972""
","
","","","","","","833.1999999284744","images/sheep4.png","","","learning","1","1","1","1","sheep","animals","2","0","","bad","[-6]"
"html-keyboard-response","134","608746","0.0-9.0-2.0-0.31","5888","2","13","Female","approach_avoid_spark_v1","""event"",""trial"",""time""
""fullscreenenter"",""1"",""3972""
","
","
","""event"",""trial"",""time""
""fullscreenenter"",""1"",""3972""
","
","","","","","","null","<div style=""font-size:60px;"">+</div>","null","","fixation","","","","","","","","","","",""
"aa-learning-trial","135","611756","0.0-9.0-2.0-1.31","5888","2","13","Female","approach_avoid_spark_v1","""event"",""trial"",""time""
""fullscreenenter"",""1"",""3972""
","
","
","""event"",""trial"",""time""
""fullscreenenter"",""1"",""3972""
","
","","","","","","1128.8999999761581","images/cow8.png","","","learning","6","0","0","0","cow","animals","2","0","","neutral","0"
"html-keyboard-response","136","612272","0.0-9.0-2.0-0.32","5888","2","13","Female","approach_avoid_spark_v1","""event"",""trial"",""time""
""fullscreenenter"",""1"",""3972""
","
","
","""event"",""trial"",""time""
""fullscreenenter"",""1"",""3972""
","
","","","","","","null","<div style=""font-size:60px;"">+</div>","null","","fixation","","","","","","","","","","",""
"aa-learning-trial","137","615297","0.0-9.0-2.0-1.32","5888","2","13","Female","approach_avoid_spark_v1","""event"",""trial"",""time""
""fullscreenenter"",""1"",""3972""
","
","
","""event"",""trial"",""time""
""fullscreenenter"",""1"",""3972""
","
","","","","","","1022.6999999284744","images/cow5.png","","","learning","-8","0","0","0","cow","animals","2","0","","neutral","0"
"html-keyboard-response","138","615801","0.0-9.0-2.0-0.33","5888","2","13","Female","approach_avoid_spark_v1","""event"",""trial"",""time""
""fullscreenenter"",""1"",""3972""
","
","
","""event"",""trial"",""time""
""fullscreenenter"",""1"",""3972""
","
","","","","","","null","<div style=""font-size:60px;"">+</div>","null","","fixation","","","","","","","","","","",""
"aa-learning-trial","139","618812","0.0-9.0-2.0-1.33","5888","2","13","Female","approach_avoid_spark_v1","""event"",""trial"",""time""
""fullscreenenter"",""1"",""3972""
","
","
","""event"",""trial"",""time""
""fullscreenenter"",""1"",""3972""
","
","","","","","","820","images/horse5.png","","","learning","9","0","0","0","horse","animals","2","0","","good","[5]"
"html-keyboard-response","140","619329","0.0-9.0-2.0-0.34","5888","2","13","Female","approach_avoid_spark_v1","""event"",""trial"",""time""
""fullscreenenter"",""1"",""3972""
","
","
","""event"",""trial"",""time""
""fullscreenenter"",""1"",""3972""
","
","","","","","","null","<div style=""font-size:60px;"">+</div>","null","","fixation","","","","","","","","","","",""
"aa-learning-trial","141","622337","0.0-9.0-2.0-1.34","5888","2","13","Female","approach_avoid_spark_v1","""event"",""trial"",""time""
""fullscreenenter"",""1"",""3972""
","
","
","""event"",""trial"",""time""
""fullscreenenter"",""1"",""3972""
","
","","","","","","1363.7999999523163","images/sheep4.png","","","learning","1","0","0","0","sheep","animals","2","0","","bad","[-6]"
"html-keyboard-response","142","622843","0.0-9.0-2.0-0.35","5888","2","13","Female","approach_avoid_spark_v1","""event"",""trial"",""time""
""fullscreenenter"",""1"",""3972""
","
","
","""event"",""trial"",""time""
""fullscreenenter"",""1"",""3972""
","
","","","","","","null","<div style=""font-size:60px;"">+</div>","null","","fixation","","","","","","","","","","",""
"aa-learning-trial","143","625854","0.0-9.0-2.0-1.35","5888","2","13","Female","approach_avoid_spark_v1","""event"",""trial"",""time""
""fullscreenenter"",""1"",""3972""
","
","
","""event"",""trial"",""time""
""fullscreenenter"",""1"",""3972""
","
","","","","","","883.3000000715256","images/horse6.png","","","learning","-4","-4","1","1","horse","animals","2","0","","good","[5]"
"html-keyboard-response","144","626361","0.0-9.0-2.0-0.36","5888","2","13","Female","approach_avoid_spark_v1","""event"",""trial"",""time""
""fullscreenenter"",""1"",""3972""
","
","
","""event"",""trial"",""time""
""fullscreenenter"",""1"",""3972""
","
","","","","","","null","<div style=""font-size:60px;"">+</div>","null","","fixation","","","","","","","","","","",""
"aa-learning-trial","145","629377","0.0-9.0-2.0-1.36","5888","2","13","Female","approach_avoid_spark_v1","""event"",""trial"",""time""
""fullscreenenter"",""1"",""3972""
","
","
","""event"",""trial"",""time""
""fullscreenenter"",""1"",""3972""
","
","","","","","","510","images/sheep8.png","","","learning","-5","0","0","0","sheep","animals","2","0","","bad","[-6]"
"html-keyboard-response","146","629887","0.0-9.0-2.0-0.37","5888","2","13","Female","approach_avoid_spark_v1","""event"",""trial"",""time""
""fullscreenenter"",""1"",""3972""
","
","
","""event"",""trial"",""time""
""fullscreenenter"",""1"",""3972""
","
","","","","","","null","<div style=""font-size:60px;"">+</div>","null","","fixation","","","","","","","","","","",""
"aa-learning-trial","147","632896","0.0-9.0-2.0-1.37","5888","2","13","Female","approach_avoid_spark_v1","""event"",""trial"",""time""
""fullscreenenter"",""1"",""3972""
","
","
","""event"",""trial"",""time""
""fullscreenenter"",""1"",""3972""
","
","","","","","","788.4000000953674","images/cow5.png","","","learning","-8","-8","1","1","cow","animals","2","0","","neutral","0"
"html-keyboard-response","148","633405","0.0-9.0-2.0-0.38","5888","2","13","Female","approach_avoid_spark_v1","""event"",""trial"",""time""
""fullscreenenter"",""1"",""3972""
","
","
","""event"",""trial"",""time""
""fullscreenenter"",""1"",""3972""
","
","","","","","","null","<div style=""font-size:60px;"">+</div>","null","","fixation","","","","","","","","","","",""
"aa-learning-trial","149","636411","0.0-9.0-2.0-1.38","5888","2","13","Female","approach_avoid_spark_v1","""event"",""trial"",""time""
""fullscreenenter"",""1"",""3972""
","
","
","""event"",""trial"",""time""
""fullscreenenter"",""1"",""3972""
","
","","","","","","1209","images/cow6.png","","","learning","-2","0","0","0","cow","animals","2","0","","neutral","0"
"html-keyboard-response","150","636935","0.0-9.0-2.0-0.39","5888","2","13","Female","approach_avoid_spark_v1","""event"",""trial"",""time""
""fullscreenenter"",""1"",""3972""
","
","
","""event"",""trial"",""time""
""fullscreenenter"",""1"",""3972""
","
","","","","","","null","<div style=""font-size:60px;"">+</div>","null","","fixation","","","","","","","","","","",""
"aa-learning-trial","151","639945","0.0-9.0-2.0-1.39","5888","2","13","Female","approach_avoid_spark_v1","""event"",""trial"",""time""
""fullscreenenter"",""1"",""3972""
","
","
","""event"",""trial"",""time""
""fullscreenenter"",""1"",""3972""
","
","","","","","","911.8999999761581","images/horse2.png","","","learning","-9","-9","1","1","horse","animals","2","0","","good","[5]"
"html-keyboard-response","152","640455","0.0-9.0-2.0-0.40","5888","2","13","Female","approach_avoid_spark_v1","""event"",""trial"",""time""
""fullscreenenter"",""1"",""3972""
","
","
","""event"",""trial"",""time""
""fullscreenenter"",""1"",""3972""
","
","","","","","","null","<div style=""font-size:60px;"">+</div>","null","","fixation","","","","","","","","","","",""
"aa-learning-trial","153","643472","0.0-9.0-2.0-1.40","5888","2","13","Female","approach_avoid_spark_v1","""event"",""trial"",""time""
""fullscreenenter"",""1"",""3972""
","
","
","""event"",""trial"",""time""
""fullscreenenter"",""1"",""3972""
","
","","","","","","1020.8999999761581","images/horse6.png","","","learning","-4","-4","1","1","horse","animals","2","0","","good","[5]"
"html-keyboard-response","154","643985","0.0-9.0-2.0-0.41","5888","2","13","Female","approach_avoid_spark_v1","""event"",""trial"",""time""
""fullscreenenter"",""1"",""3972""
","
","
","""event"",""trial"",""time""
""fullscreenenter"",""1"",""3972""
","
","","","","","","null","<div style=""font-size:60px;"">+</div>","null","","fixation","","","","","","","","","","",""
"aa-learning-trial","155","646999","0.0-9.0-2.0-1.41","5888","2","13","Female","approach_avoid_spark_v1","""event"",""trial"",""time""
""fullscreenenter"",""1"",""3972""
","
","
","""event"",""trial"",""time""
""fullscreenenter"",""1"",""3972""
","
","","","","","","695.6000000238419","images/horse3.png","","","learning","3","0","0","0","horse","animals","2","0","","good","[5]"
"html-keyboard-response","156","647504","0.0-9.0-2.0-0.42","5888","2","13","Female","approach_avoid_spark_v1","""event"",""trial"",""time""
""fullscreenenter"",""1"",""3972""
","
","
","""event"",""trial"",""time""
""fullscreenenter"",""1"",""3972""
","
","","","","","","null","<div style=""font-size:60px;"">+</div>","null","","fixation","","","","","","","","","","",""
"aa-learning-trial","157","650528","0.0-9.0-2.0-1.42","5888","2","13","Female","approach_avoid_spark_v1","""event"",""trial"",""time""
""fullscreenenter"",""1"",""3972""
","
","
","""event"",""trial"",""time""
""fullscreenenter"",""1"",""3972""
","
","","","","","","465.7000000476837","images/cow4.png","","","learning","-3","-3","1","1","cow","animals","2","0","","neutral","0"
"html-keyboard-response","158","651034","0.0-9.0-2.0-0.43","5888","2","13","Female","approach_avoid_spark_v1","""event"",""trial"",""time""
""fullscreenenter"",""1"",""3972""
","
","
","""event"",""trial"",""time""
""fullscreenenter"",""1"",""3972""
","
","","","","","","null","<div style=""font-size:60px;"">+</div>","null","","fixation","","","","","","","","","","",""
"aa-learning-trial","159","654050","0.0-9.0-2.0-1.43","5888","2","13","Female","approach_avoid_spark_v1","""event"",""trial"",""time""
""fullscreenenter"",""1"",""3972""
","
","
","""event"",""trial"",""time""
""fullscreenenter"",""1"",""3972""
","
","","","","","","504.3000000715256","images/sheep8.png","","","learning","-5","-5","1","1","sheep","animals","2","0","","bad","[-6]"
"html-keyboard-response","160","654558","0.0-9.0-2.0-0.44","5888","2","13","Female","approach_avoid_spark_v1","""event"",""trial"",""time""
""fullscreenenter"",""1"",""3972""
","
","
","""event"",""trial"",""time""
""fullscreenenter"",""1"",""3972""
","
","","","","","","null","<div style=""font-size:60px;"">+</div>","null","","fixation","","","","","","","","","","",""
"aa-learning-trial","161","657584","0.0-9.0-2.0-1.44","5888","2","13","Female","approach_avoid_spark_v1","""event"",""trial"",""time""
""fullscreenenter"",""1"",""3972""
","
","
","""event"",""trial"",""time""
""fullscreenenter"",""1"",""3972""
","
","","","","","","759.1000000238419","images/cow5.png","","","learning","-8","-8","1","1","cow","animals","2","0","","neutral","0"
"html-keyboard-response","162","658089","0.0-9.0-2.0-0.45","5888","2","13","Female","approach_avoid_spark_v1","""event"",""trial"",""time""
""fullscreenenter"",""1"",""3972""
","
","
","""event"",""trial"",""time""
""fullscreenenter"",""1"",""3972""
","
","","","","","","null","<div style=""font-size:60px;"">+</div>","null","","fixation","","","","","","","","","","",""
"aa-learning-trial","163","661099","0.0-9.0-2.0-1.45","5888","2","13","Female","approach_avoid_spark_v1","""event"",""trial"",""time""
""fullscreenenter"",""1"",""3972""
","
","
","""event"",""trial"",""time""
""fullscreenenter"",""1"",""3972""
","
","","","","","","570.5","images/horse2.png","","","learning","-9","0","0","0","horse","animals","2","0","","good","[5]"
"html-keyboard-response","164","661610","0.0-9.0-2.0-0.46","5888","2","13","Female","approach_avoid_spark_v1","""event"",""trial"",""time""
""fullscreenenter"",""1"",""3972""
","
","
","""event"",""trial"",""time""
""fullscreenenter"",""1"",""3972""
","
","","","","","","null","<div style=""font-size:60px;"">+</div>","null","","fixation","","","","","","","","","","",""
"aa-learning-trial","165","664628","0.0-9.0-2.0-1.46","5888","2","13","Female","approach_avoid_spark_v1","""event"",""trial"",""time""
""fullscreenenter"",""1"",""3972""
","
","
","""event"",""trial"",""time""
""fullscreenenter"",""1"",""3972""
","
","","","","","","491.5","images/sheep4.png","","","learning","1","0","0","0","sheep","animals","2","0","","bad","[-6]"
"html-keyboard-response","166","665136","0.0-9.0-2.0-0.47","5888","2","13","Female","approach_avoid_spark_v1","""event"",""trial"",""time""
""fullscreenenter"",""1"",""3972""
","
","
","""event"",""trial"",""time""
""fullscreenenter"",""1"",""3972""
","
","","","","","","null","<div style=""font-size:60px;"">+</div>","null","","fixation","","","","","","","","","","",""
"aa-learning-trial","167","668147","0.0-9.0-2.0-1.47","5888","2","13","Female","approach_avoid_spark_v1","""event"",""trial"",""time""
""fullscreenenter"",""1"",""3972""
","
","
","""event"",""trial"",""time""
""fullscreenenter"",""1"",""3972""
","
","","","","","","340","images/horse6.png","","","learning","-4","-4","1","1","horse","animals","2","0","","good","[5]"
"html-keyboard-response","168","668663","0.0-9.0-2.0-0.48","5888","2","13","Female","approach_avoid_spark_v1","""event"",""trial"",""time""
""fullscreenenter"",""1"",""3972""
","
","
","""event"",""trial"",""time""
""fullscreenenter"",""1"",""3972""
","
","","","","","","null","<div style=""font-size:60px;"">+</div>","null","","fixation","","","","","","","","","","",""
"aa-learning-trial","169","671674","0.0-9.0-2.0-1.48","5888","2","13","Female","approach_avoid_spark_v1","""event"",""trial"",""time""
""fullscreenenter"",""1"",""3972""
","
","
","""event"",""trial"",""time""
""fullscreenenter"",""1"",""3972""
","
","","","","","","326.7999999523163","images/sheep2.png","","","learning","-7","0","0","0","sheep","animals","2","0","","bad","[-6]"
"html-keyboard-response","170","672185","0.0-9.0-2.0-0.49","5888","2","13","Female","approach_avoid_spark_v1","""event"",""trial"",""time""
""fullscreenenter"",""1"",""3972""
","
","
","""event"",""trial"",""time""
""fullscreenenter"",""1"",""3972""
","
","","","","","","null","<div style=""font-size:60px;"">+</div>","null","","fixation","","","","","","","","","","",""
"aa-learning-trial","171","675200","0.0-9.0-2.0-1.49","5888","2","13","Female","approach_avoid_spark_v1","""event"",""trial"",""time""
""fullscreenenter"",""1"",""3972""
","
","
","""event"",""trial"",""time""
""fullscreenenter"",""1"",""3972""
","
","","","","","","745.3999999761581","images/sheep6.png","","","learning","4","4","1","1","sheep","animals","2","0","","bad","[-6]"
"html-keyboard-response","172","675706","0.0-9.0-2.0-0.50","5888","2","13","Female","approach_avoid_spark_v1","""event"",""trial"",""time""
""fullscreenenter"",""1"",""3972""
","
","
","""event"",""trial"",""time""
""fullscreenenter"",""1"",""3972""
","
","","","","","","null","<div style=""font-size:60px;"">+</div>","null","","fixation","","","","","","","","","","",""
"aa-learning-trial","173","678719","0.0-9.0-2.0-1.50","5888","2","13","Female","approach_avoid_spark_v1","""event"",""trial"",""time""
""fullscreenenter"",""1"",""3972""
","
","
","""event"",""trial"",""time""
""fullscreenenter"",""1"",""3972""
","
","","","","","","725.6000000238419","images/sheep2.png","","","learning","-7","-7","1","1","sheep","animals","2","0","","bad","[-6]"
"html-button-response","174","681550","0.0-9.0-3.0","5888","2","13","Female","approach_avoid_spark_v1","""event"",""trial"",""time""
""fullscreenenter"",""1"",""3972""
","
","
","""event"",""trial"",""time""
""fullscreenenter"",""1"",""3972""
","
","","","","","","2829.600000023842","<p> You have completed the round! <p> In this round, you earned -76 points! </p>","0","","break","","","","","","","","","","",""
"html-button-response","175","682868","0.0-10.0","5888","2","13","Female","approach_avoid_spark_v1","""event"",""trial"",""time""
""fullscreenenter"",""1"",""3972""
","
","
","""event"",""trial"",""time""
""fullscreenenter"",""1"",""3972""
","
","","","","","","1315.7000000476837","<p> Now it's time to play another round. </p>","0","","transition_screen","","","","","","","","","","",""
"preload","176","683001","0.0-11.0-0.0","5888","2","13","Female","approach_avoid_spark_v1","""event"",""trial"",""time""
""fullscreenenter"",""1"",""3972""
","
","
","""event"",""trial"",""time""
""fullscreenenter"",""1"",""3972""
","
","true","false","[]","[]","[]","","","","","","","","","","","","","","","",""
"learning-instructions","177","691064","0.0-11.0-1.0-0.0","5888","2","13","Female","approach_avoid_spark_v1","""event"",""trial"",""time""
""fullscreenenter"",""1"",""3972""
","
","
","""event"",""trial"",""time""
""fullscreenenter"",""1"",""3972""
","
","","","","","","1196","<p> Your goal in this round is to take your friend for rides in different vehicles. </p></div>","","0","instructions","","","","","","","","","","",""
"learning-instructions","178","704727","0.0-11.0-1.0-0.1","5888","2","13","Female","approach_avoid_spark_v1","""event"",""trial"",""time""
""fullscreenenter"",""1"",""3972""
","
","
","""event"",""trial"",""time""
""fullscreenenter"",""1"",""3972""
","
","","","","","","737.2000000476837","<p> Your friend enjoys riding in some vehicles but not in others.  </p><p> On each turn, you will see a vehicle.   </p><p> You need to decide whether to take your friend for a ride or not.  </p>","","0","instructions","","","","","","","","","","",""
"learning-instructions","179","713352","0.0-11.0-1.0-0.2","5888","2","13","Female","approach_avoid_spark_v1","""event"",""trial"",""time""
""fullscreenenter"",""1"",""3972""
","
","
","""event"",""trial"",""time""
""fullscreenenter"",""1"",""3972""
","
","","","","","","1179.8999999761581","<p> You can take your friend for a ride in the vehicle by pressing 1 and skip the ride by pressing 0. </p><br><div class=""choice-instructions-grid""> <div class=""choice-option""><img src=""images/approach.png"" class=""choice-option-img"" stage=""instructions"" position=""0"" ><div class=""choice-option-text""> Press ""1."" </div></div><div class=""choice-option""><img src=""images/avoid.png"" class=""choice-option-img"" stage=""instructions"" position=""1"" ><div class=""choice-option-text""> Press ""0."" </div></div>","","0","instructions","","","","","","","","","","",""
"learning-instructions","180","724030","0.0-11.0-1.0-0.3","5888","2","13","Female","approach_avoid_spark_v1","""event"",""trial"",""time""
""fullscreenenter"",""1"",""3972""
","
","
","""event"",""trial"",""time""
""fullscreenenter"",""1"",""3972""
","
","","","","","","1139.1000000238419","<p> If you take them for a ride in a vehicle they like, they will be thrilled! </p><p> But if you take them for a ride in a vehicle they do not like, they will be upset. </p>","","0","instructions","","","","","","","","","","",""
"learning-instructions","181","737861","0.0-11.0-1.0-0.4","5888","2","13","Female","approach_avoid_spark_v1","""event"",""trial"",""time""
""fullscreenenter"",""1"",""3972""
","
","
","""event"",""trial"",""time""
""fullscreenenter"",""1"",""3972""
","
","","","","","","707.5999999046326","<p> You will earn points based on how you made your friend feel. </p><p> If you made him thrilled, you will WIN anywhere from 1 - 9 points, </p><p> but if you made him upset, you will LOSE anywhere from 1 - 9 points. </p>","","0","instructions","","","","","","","","","","",""
"learning-instructions","182","745294","0.0-11.0-1.0-0.5","5888","2","13","Female","approach_avoid_spark_v1","""event"",""trial"",""time""
""fullscreenenter"",""1"",""3972""
","
","
","""event"",""trial"",""time""
""fullscreenenter"",""1"",""3972""
","
","","","","","","759","<p> You will see how many points you won or lost in the center of the screen. </p><p> Here is what you would see if you won 5 points: </p><p style=""color:green;font-size:50px;font-weight:bolder"">5</p>","","0","instructions","","","","","","","","","","",""
"learning-instructions","183","749051","0.0-11.0-1.0-0.6","5888","2","13","Female","approach_avoid_spark_v1","""event"",""trial"",""time""
""fullscreenenter"",""1"",""3972""
","
","
","""event"",""trial"",""time""
""fullscreenenter"",""1"",""3972""
","
","","","","","","911.1000000238419","<p> And here is what you would see if you lost 3 points: </p><p style=""color:red;font-size:50px;font-weight:bolder"">-3</p>","","0","instructions","","","","","","","","","","",""
"learning-instructions","184","766352","0.0-11.0-1.0-0.7","5888","2","13","Female","approach_avoid_spark_v1","""event"",""trial"",""time""
""fullscreenenter"",""1"",""3972""
","
","
","""event"",""trial"",""time""
""fullscreenenter"",""1"",""3972""
","
","","","","","","815.6000000238419","<p> Some vehicles will make your friend REALLY thrilled or upset. </p><p> These vehicles will make you win or lose LOTS of points. </p><p> Other vehicles will only make him feel a little thrilled or upset. </p><p> These vehicles will make you win or lose small amounts of points. </p>","","0","instructions","","","","","","","","","","",""
"learning-instructions","185","780052","0.0-11.0-1.0-0.8","5888","2","13","Female","approach_avoid_spark_v1","""event"",""trial"",""time""
""fullscreenenter"",""1"",""3972""
","
","
","""event"",""trial"",""time""
""fullscreenenter"",""1"",""3972""
","
","","","","","","1075","<p> If you choose to skip the ride, you will not win or lose any points. </p><p>  However, in the center of the screen, you will see the number of points you WOULD HAVE won or lost if you had taken your friend for a ride. </p>","","0","instructions","","","","","","","","","","",""
"learning-instructions","186","793459","0.0-11.0-1.0-0.9","5888","2","13","Female","approach_avoid_spark_v1","""event"",""trial"",""time""
""fullscreenenter"",""1"",""3972""
","
","
","""event"",""trial"",""time""
""fullscreenenter"",""1"",""3972""
","
","","","","","","1639.9000000953674","<p> Here is what you might see if you did not take your friend for a ride but he would have enjoyed it: </p><p style=""color:grey; font-size:50px; display: inline-block; border-spacing: 15px; border-width:3px; border-style:solid; border-color:red"">  &nbsp; 6 &nbsp; </p><p> Remember, in this case, you would not win or lose ANY points because you skipped the ride.  </p>","","0","instructions","","","","","","","","","","",""
"learning-instructions","187","802817","0.0-11.0-1.0-0.10","5888","2","13","Female","approach_avoid_spark_v1","""event"",""trial"",""time""
""fullscreenenter"",""1"",""3972""
","
","
","""event"",""trial"",""time""
""fullscreenenter"",""1"",""3972""
","
","","","","","","895.6000000238419","<p> Try to make the best choice for each vehicle because </p><p> at the end of the game, you will earn bonus money based on how many points you earned. </p>","","0","instructions","","","","","","","","","","",""
"learning-instructions","188","811718","0.0-11.0-1.0-0.11","5888","2","13","Female","approach_avoid_spark_v1","""event"",""trial"",""time""
""fullscreenenter"",""1"",""3972""
","
","
","""event"",""trial"",""time""
""fullscreenenter"",""1"",""3972""
","
","","","","","","708.7999999523163","<p> You will have 3 seconds to make each choice. Try to respond before time runs out! </p><p> You will lose 5 points each time you do not make a response. </p>","","0","instructions","","","","","","","","","","",""
"html-keyboard-response","189","812362","0.0-11.0-2.0-0.0","5888","2","13","Female","approach_avoid_spark_v1","""event"",""trial"",""time""
""fullscreenenter"",""1"",""3972""
","
","
","""event"",""trial"",""time""
""fullscreenenter"",""1"",""3972""
","
","","","","","","null","<div style=""font-size:60px;"">+</div>","null","","fixation","","","","","","","","","","",""
"aa-learning-trial","190","815380","0.0-11.0-2.0-1.0","5888","2","13","Female","approach_avoid_spark_v1","""event"",""trial"",""time""
""fullscreenenter"",""1"",""3972""
","
","
","""event"",""trial"",""time""
""fullscreenenter"",""1"",""3972""
","
","","","","","","1730.2000000476837","images/train1.png","","","learning","1","0","0","0","train","vehicles","1","1","","good","[6]"
"html-keyboard-response","191","815892","0.0-11.0-2.0-0.1","5888","2","13","Female","approach_avoid_spark_v1","""event"",""trial"",""time""
""fullscreenenter"",""1"",""3972""
","
","
","""event"",""trial"",""time""
""fullscreenenter"",""1"",""3972""
","
","","","","","","null","<div style=""font-size:60px;"">+</div>","null","","fixation","","","","","","","","","","",""
"aa-learning-trial","192","818912","0.0-11.0-2.0-1.1","5888","2","13","Female","approach_avoid_spark_v1","""event"",""trial"",""time""
""fullscreenenter"",""1"",""3972""
","
","
","""event"",""trial"",""time""
""fullscreenenter"",""1"",""3972""
","
","","","","","","1127.2000000476837","images/plane2.png","","","learning","3","3","1","1","plane","vehicles","1","1","","neutral","0"
"html-keyboard-response","193","819427","0.0-11.0-2.0-0.2","5888","2","13","Female","approach_avoid_spark_v1","""event"",""trial"",""time""
""fullscreenenter"",""1"",""3972""
","
","
","""event"",""trial"",""time""
""fullscreenenter"",""1"",""3972""
","
","","","","","","null","<div style=""font-size:60px;"">+</div>","null","","fixation","","","","","","","","","","",""
"aa-learning-trial","194","822442","0.0-11.0-2.0-1.2","5888","2","13","Female","approach_avoid_spark_v1","""event"",""trial"",""time""
""fullscreenenter"",""1"",""3972""
","
","
","""event"",""trial"",""time""
""fullscreenenter"",""1"",""3972""
","
","","","","","","562.1999999284744","images/boat3.png","","","learning","-6","-6","1","1","boat","vehicles","1","1","","bad","[-5]"
"html-keyboard-response","195","822964","0.0-11.0-2.0-0.3","5888","2","13","Female","approach_avoid_spark_v1","""event"",""trial"",""time""
""fullscreenenter"",""1"",""3972""
","
","
","""event"",""trial"",""time""
""fullscreenenter"",""1"",""3972""
","
","","","","","","null","<div style=""font-size:60px;"">+</div>","null","","fixation","","","","","","","","","","",""
"aa-learning-trial","196","825984","0.0-11.0-2.0-1.3","5888","2","13","Female","approach_avoid_spark_v1","""event"",""trial"",""time""
""fullscreenenter"",""1"",""3972""
","
","
","""event"",""trial"",""time""
""fullscreenenter"",""1"",""3972""
","
","","","","","","911.3000000715256","images/train3.png","","","learning","9","9","1","1","train","vehicles","1","1","","good","[6]"
"html-keyboard-response","197","826506","0.0-11.0-2.0-0.4","5888","2","13","Female","approach_avoid_spark_v1","""event"",""trial"",""time""
""fullscreenenter"",""1"",""3972""
","
","
","""event"",""trial"",""time""
""fullscreenenter"",""1"",""3972""
","
","","","","","","null","<div style=""font-size:60px;"">+</div>","null","","fixation","","","","","","","","","","",""
"aa-learning-trial","198","829525","0.0-11.0-2.0-1.4","5888","2","13","Female","approach_avoid_spark_v1","""event"",""trial"",""time""
""fullscreenenter"",""1"",""3972""
","
","
","""event"",""trial"",""time""
""fullscreenenter"",""1"",""3972""
","
","","","","","","589.8000000715256","images/train1.png","","","learning","6","6","1","1","train","vehicles","1","1","","good","[6]"
"html-keyboard-response","199","830037","0.0-11.0-2.0-0.5","5888","2","13","Female","approach_avoid_spark_v1","""event"",""trial"",""time""
""fullscreenenter"",""1"",""3972""
","
","
","""event"",""trial"",""time""
""fullscreenenter"",""1"",""3972""
","
","","","","","","null","<div style=""font-size:60px;"">+</div>","null","","fixation","","","","","","","","","","",""
"aa-learning-trial","200","833066","0.0-11.0-2.0-1.5","5888","2","13","Female","approach_avoid_spark_v1","""event"",""trial"",""time""
""fullscreenenter"",""1"",""3972""
","
","
","""event"",""trial"",""time""
""fullscreenenter"",""1"",""3972""
","
","","","","","","750.5","images/boat3.png","","","learning","-4","0","0","0","boat","vehicles","1","1","","bad","[-5]"
"html-keyboard-response","201","833583","0.0-11.0-2.0-0.6","5888","2","13","Female","approach_avoid_spark_v1","""event"",""trial"",""time""
""fullscreenenter"",""1"",""3972""
","
","
","""event"",""trial"",""time""
""fullscreenenter"",""1"",""3972""
","
","","","","","","null","<div style=""font-size:60px;"">+</div>","null","","fixation","","","","","","","","","","",""
"aa-learning-trial","202","836608","0.0-11.0-2.0-1.6","5888","2","13","Female","approach_avoid_spark_v1","""event"",""trial"",""time""
""fullscreenenter"",""1"",""3972""
","
","
","""event"",""trial"",""time""
""fullscreenenter"",""1"",""3972""
","
","","","","","","1105.8999999761581","images/plane5.png","","","learning","1","1","1","1","plane","vehicles","1","1","","neutral","0"
"html-keyboard-response","203","837131","0.0-11.0-2.0-0.7","5888","2","13","Female","approach_avoid_spark_v1","""event"",""trial"",""time""
""fullscreenenter"",""1"",""3972""
","
","
","""event"",""trial"",""time""
""fullscreenenter"",""1"",""3972""
","
","","","","","","null","<div style=""font-size:60px;"">+</div>","null","","fixation","","","","","","","","","","",""
"aa-learning-trial","204","840139","0.0-11.0-2.0-1.7","5888","2","13","Female","approach_avoid_spark_v1","""event"",""trial"",""time""
""fullscreenenter"",""1"",""3972""
","
","
","""event"",""trial"",""time""
""fullscreenenter"",""1"",""3972""
","
","","","","","","793.5999999046326","images/train3.png","","","learning","4","4","1","1","train","vehicles","1","1","","good","[6]"
"html-keyboard-response","205","840661","0.0-11.0-2.0-0.8","5888","2","13","Female","approach_avoid_spark_v1","""event"",""trial"",""time""
""fullscreenenter"",""1"",""3972""
","
","
","""event"",""trial"",""time""
""fullscreenenter"",""1"",""3972""
","
","","","","","","null","<div style=""font-size:60px;"">+</div>","null","","fixation","","","","","","","","","","",""
"aa-learning-trial","206","843672","0.0-11.0-2.0-1.8","5888","2","13","Female","approach_avoid_spark_v1","""event"",""trial"",""time""
""fullscreenenter"",""1"",""3972""
","
","
","""event"",""trial"",""time""
""fullscreenenter"",""1"",""3972""
","
","","","","","","896.8999999761581","images/plane5.png","","","learning","[-1]","0","0","0","plane","vehicles","1","1","","neutral","0"
"html-keyboard-response","207","844184","0.0-11.0-2.0-0.9","5888","2","13","Female","approach_avoid_spark_v1","""event"",""trial"",""time""
""fullscreenenter"",""1"",""3972""
","
","
","""event"",""trial"",""time""
""fullscreenenter"",""1"",""3972""
","
","","","","","","null","<div style=""font-size:60px;"">+</div>","null","","fixation","","","","","","","","","","",""
"aa-learning-trial","208","847196","0.0-11.0-2.0-1.9","5888","2","13","Female","approach_avoid_spark_v1","""event"",""trial"",""time""
""fullscreenenter"",""1"",""3972""
","
","
","""event"",""trial"",""time""
""fullscreenenter"",""1"",""3972""
","
","","","","","","1331.6000000238419","images/plane3.png","","","learning","[-1]","0","0","0","plane","vehicles","1","1","","neutral","0"
"html-keyboard-response","209","847710","0.0-11.0-2.0-0.10","5888","2","13","Female","approach_avoid_spark_v1","""event"",""trial"",""time""
""fullscreenenter"",""1"",""3972""
","
","
","""event"",""trial"",""time""
""fullscreenenter"",""1"",""3972""
","
","","","","","","null","<div style=""font-size:60px;"">+</div>","null","","fixation","","","","","","","","","","",""
"aa-learning-trial","210","850722","0.0-11.0-2.0-1.10","5888","2","13","Female","approach_avoid_spark_v1","""event"",""trial"",""time""
""fullscreenenter"",""1"",""3972""
","
","
","""event"",""trial"",""time""
""fullscreenenter"",""1"",""3972""
","
","","","","","","696","images/train4.png","","","learning","5","5","1","1","train","vehicles","1","1","","good","[6]"
"html-keyboard-response","211","851231","0.0-11.0-2.0-0.11","5888","2","13","Female","approach_avoid_spark_v1","""event"",""trial"",""time""
""fullscreenenter"",""1"",""3972""
","
","
","""event"",""trial"",""time""
""fullscreenenter"",""1"",""3972""
","
","","","","","","null","<div style=""font-size:60px;"">+</div>","null","","fixation","","","","","","","","","","",""
"aa-learning-trial","212","854241","0.0-11.0-2.0-1.11","5888","2","13","Female","approach_avoid_spark_v1","""event"",""trial"",""time""
""fullscreenenter"",""1"",""3972""
","
","
","""event"",""trial"",""time""
""fullscreenenter"",""1"",""3972""
","
","","","","","","936.1000000238419","images/boat4.png","","","learning","-3","0","0","0","boat","vehicles","1","1","","bad","[-5]"
"html-keyboard-response","213","854748","0.0-11.0-2.0-0.12","5888","2","13","Female","approach_avoid_spark_v1","""event"",""trial"",""time""
""fullscreenenter"",""1"",""3972""
","
","
","""event"",""trial"",""time""
""fullscreenenter"",""1"",""3972""
","
","","","","","","null","<div style=""font-size:60px;"">+</div>","null","","fixation","","","","","","","","","","",""
"aa-learning-trial","214","857758","0.0-11.0-2.0-1.12","5888","2","13","Female","approach_avoid_spark_v1","""event"",""trial"",""time""
""fullscreenenter"",""1"",""3972""
","
","
","""event"",""trial"",""time""
""fullscreenenter"",""1"",""3972""
","
","","","","","","553.8999999761581","images/boat4.png","","","learning","-4","0","0","0","boat","vehicles","1","1","","bad","[-5]"
"html-keyboard-response","215","858269","0.0-11.0-2.0-0.13","5888","2","13","Female","approach_avoid_spark_v1","""event"",""trial"",""time""
""fullscreenenter"",""1"",""3972""
","
","
","""event"",""trial"",""time""
""fullscreenenter"",""1"",""3972""
","
","","","","","","null","<div style=""font-size:60px;"">+</div>","null","","fixation","","","","","","","","","","",""
"aa-learning-trial","216","861287","0.0-11.0-2.0-1.13","5888","2","13","Female","approach_avoid_spark_v1","""event"",""trial"",""time""
""fullscreenenter"",""1"",""3972""
","
","
","""event"",""trial"",""time""
""fullscreenenter"",""1"",""3972""
","
","","","","","","1202.1999999284744","images/boat1.png","","","learning","-5","0","0","0","boat","vehicles","1","1","","bad","[-5]"
"html-keyboard-response","217","861798","0.0-11.0-2.0-0.14","5888","2","13","Female","approach_avoid_spark_v1","""event"",""trial"",""time""
""fullscreenenter"",""1"",""3972""
","
","
","""event"",""trial"",""time""
""fullscreenenter"",""1"",""3972""
","
","","","","","","null","<div style=""font-size:60px;"">+</div>","null","","fixation","","","","","","","","","","",""
"aa-learning-trial","218","864812","0.0-11.0-2.0-1.14","5888","2","13","Female","approach_avoid_spark_v1","""event"",""trial"",""time""
""fullscreenenter"",""1"",""3972""
","
","
","""event"",""trial"",""time""
""fullscreenenter"",""1"",""3972""
","
","","","","","","1272.7999999523163","images/plane3.png","","","learning","-1","0","0","0","plane","vehicles","1","1","","neutral","0"
"html-keyboard-response","219","865329","0.0-11.0-2.0-0.15","5888","2","13","Female","approach_avoid_spark_v1","""event"",""trial"",""time""
""fullscreenenter"",""1"",""3972""
","
","
","""event"",""trial"",""time""
""fullscreenenter"",""1"",""3972""
","
","","","","","","null","<div style=""font-size:60px;"">+</div>","null","","fixation","","","","","","","","","","",""
"aa-learning-trial","220","868337","0.0-11.0-2.0-1.15","5888","2","13","Female","approach_avoid_spark_v1","""event"",""trial"",""time""
""fullscreenenter"",""1"",""3972""
","
","
","""event"",""trial"",""time""
""fullscreenenter"",""1"",""3972""
","
","","","","","","706.8999999761581","images/boat1.png","","","learning","-7","0","0","0","boat","vehicles","1","1","","bad","[-5]"
"html-keyboard-response","221","868841","0.0-11.0-2.0-0.16","5888","2","13","Female","approach_avoid_spark_v1","""event"",""trial"",""time""
""fullscreenenter"",""1"",""3972""
","
","
","""event"",""trial"",""time""
""fullscreenenter"",""1"",""3972""
","
","","","","","","null","<div style=""font-size:60px;"">+</div>","null","","fixation","","","","","","","","","","",""
"aa-learning-trial","222","871855","0.0-11.0-2.0-1.16","5888","2","13","Female","approach_avoid_spark_v1","""event"",""trial"",""time""
""fullscreenenter"",""1"",""3972""
","
","
","""event"",""trial"",""time""
""fullscreenenter"",""1"",""3972""
","
","","","","","","624.5","images/train3.png","","","learning","7","7","1","1","train","vehicles","1","1","","good","[6]"
"html-keyboard-response","223","872365","0.0-11.0-2.0-0.17","5888","2","13","Female","approach_avoid_spark_v1","""event"",""trial"",""time""
""fullscreenenter"",""1"",""3972""
","
","
","""event"",""trial"",""time""
""fullscreenenter"",""1"",""3972""
","
","","","","","","null","<div style=""font-size:60px;"">+</div>","null","","fixation","","","","","","","","","","",""
"aa-learning-trial","224","875374","0.0-11.0-2.0-1.17","5888","2","13","Female","approach_avoid_spark_v1","""event"",""trial"",""time""
""fullscreenenter"",""1"",""3972""
","
","
","""event"",""trial"",""time""
""fullscreenenter"",""1"",""3972""
","
","","","","","","645.1000000238419","images/boat6.png","","","learning","-3","0","0","0","boat","vehicles","1","1","","bad","[-5]"
"html-keyboard-response","225","875887","0.0-11.0-2.0-0.18","5888","2","13","Female","approach_avoid_spark_v1","""event"",""trial"",""time""
""fullscreenenter"",""1"",""3972""
","
","
","""event"",""trial"",""time""
""fullscreenenter"",""1"",""3972""
","
","","","","","","null","<div style=""font-size:60px;"">+</div>","null","","fixation","","","","","","","","","","",""
"aa-learning-trial","226","878902","0.0-11.0-2.0-1.18","5888","2","13","Female","approach_avoid_spark_v1","""event"",""trial"",""time""
""fullscreenenter"",""1"",""3972""
","
","
","""event"",""trial"",""time""
""fullscreenenter"",""1"",""3972""
","
","","","","","","631.1000000238419","images/train3.png","","","learning","7","0","0","0","train","vehicles","1","1","","good","[6]"
"html-keyboard-response","227","879408","0.0-11.0-2.0-0.19","5888","2","13","Female","approach_avoid_spark_v1","""event"",""trial"",""time""
""fullscreenenter"",""1"",""3972""
","
","
","""event"",""trial"",""time""
""fullscreenenter"",""1"",""3972""
","
","","","","","","null","<div style=""font-size:60px;"">+</div>","null","","fixation","","","","","","","","","","",""
"aa-learning-trial","228","882422","0.0-11.0-2.0-1.19","5888","2","13","Female","approach_avoid_spark_v1","""event"",""trial"",""time""
""fullscreenenter"",""1"",""3972""
","
","
","""event"",""trial"",""time""
""fullscreenenter"",""1"",""3972""
","
","","","","","","909.5","images/plane2.png","","","learning","-1","0","0","0","plane","vehicles","1","1","","neutral","0"
"html-keyboard-response","229","882929","0.0-11.0-2.0-0.20","5888","2","13","Female","approach_avoid_spark_v1","""event"",""trial"",""time""
""fullscreenenter"",""1"",""3972""
","
","
","""event"",""trial"",""time""
""fullscreenenter"",""1"",""3972""
","
","","","","","","null","<div style=""font-size:60px;"">+</div>","null","","fixation","","","","","","","","","","",""
"aa-learning-trial","230","885940","0.0-11.0-2.0-1.20","5888","2","13","Female","approach_avoid_spark_v1","""event"",""trial"",""time""
""fullscreenenter"",""1"",""3972""
","
","
","""event"",""trial"",""time""
""fullscreenenter"",""1"",""3972""
","
","","","","","","652","images/boat1.png","","","learning","-5","0","0","0","boat","vehicles","1","1","","bad","[-5]"
"html-keyboard-response","231","886452","0.0-11.0-2.0-0.21","5888","2","13","Female","approach_avoid_spark_v1","""event"",""trial"",""time""
""fullscreenenter"",""1"",""3972""
","
","
","""event"",""trial"",""time""
""fullscreenenter"",""1"",""3972""
","
","","","","","","null","<div style=""font-size:60px;"">+</div>","null","","fixation","","","","","","","","","","",""
"aa-learning-trial","232","889466","0.0-11.0-2.0-1.21","5888","2","13","Female","approach_avoid_spark_v1","""event"",""trial"",""time""
""fullscreenenter"",""1"",""3972""
","
","
","""event"",""trial"",""time""
""fullscreenenter"",""1"",""3972""
","
","","","","","","614.4000000953674","images/boat4.png","","","learning","-6","0","0","0","boat","vehicles","1","1","","bad","[-5]"
"html-keyboard-response","233","889974","0.0-11.0-2.0-0.22","5888","2","13","Female","approach_avoid_spark_v1","""event"",""trial"",""time""
""fullscreenenter"",""1"",""3972""
","
","
","""event"",""trial"",""time""
""fullscreenenter"",""1"",""3972""
","
","","","","","","null","<div style=""font-size:60px;"">+</div>","null","","fixation","","","","","","","","","","",""
"aa-learning-trial","234","892990","0.0-11.0-2.0-1.22","5888","2","13","Female","approach_avoid_spark_v1","""event"",""trial"",""time""
""fullscreenenter"",""1"",""3972""
","
","
","""event"",""trial"",""time""
""fullscreenenter"",""1"",""3972""
","
","","","","","","849.9000000953674","images/train4.png","","","learning","4","4","1","1","train","vehicles","1","1","","good","[6]"
"html-keyboard-response","235","893507","0.0-11.0-2.0-0.23","5888","2","13","Female","approach_avoid_spark_v1","""event"",""trial"",""time""
""fullscreenenter"",""1"",""3972""
","
","
","""event"",""trial"",""time""
""fullscreenenter"",""1"",""3972""
","
","","","","","","null","<div style=""font-size:60px;"">+</div>","null","","fixation","","","","","","","","","","",""
"aa-learning-trial","236","896514","0.0-11.0-2.0-1.23","5888","2","13","Female","approach_avoid_spark_v1","""event"",""trial"",""time""
""fullscreenenter"",""1"",""3972""
","
","
","""event"",""trial"",""time""
""fullscreenenter"",""1"",""3972""
","
