"trial_type","trial_index","time_elapsed","internal_node_id","subject_id","task_condition","age","gender","task_version","interactions","blur_events","focus_events","fullscreenenter_events","fullscreenexit_events","success","timeout","failed_images","failed_audio","failed_video","rt","stimulus","response","button_pressed","task_part","approach_reward","points","key_press","option_selected","stim_cat","task_block","block_condition","block_number","correct","cat_type","mean_cat_reward"
"pavlovia","0","2","0.0-0.0","5884","1","9","Male","approach_avoid_spark_v1","""event"",""trial"",""time""
""blur"",""1"",""14095""
""focus"",""1"",""16418""
""fullscreenenter"",""1"",""24491""
","""event"",""trial"",""time""
""blur"",""1"",""14095""
","""event"",""trial"",""time""
""focus"",""1"",""16418""
","""event"",""trial"",""time""
""fullscreenenter"",""1"",""24491""
","
","","","","","","","","","","","","","","","","","","","","",""
"fullscreen","1","25461","0.0-1.0","5884","1","9","Male","approach_avoid_spark_v1","""event"",""trial"",""time""
""blur"",""1"",""14095""
""focus"",""1"",""16418""
""fullscreenenter"",""1"",""24491""
","""event"",""trial"",""time""
""blur"",""1"",""14095""
","""event"",""trial"",""time""
""focus"",""1"",""16418""
","""event"",""trial"",""time""
""fullscreenenter"",""1"",""24491""
","
","true","","","","","","","","","","","","","","","","","","","",""
"preload","2","32592","0.0-2.0","5884","1","9","Male","approach_avoid_spark_v1","""event"",""trial"",""time""
""blur"",""1"",""14095""
""focus"",""1"",""16418""
""fullscreenenter"",""1"",""24491""
","""event"",""trial"",""time""
""blur"",""1"",""14095""
","""event"",""trial"",""time""
""focus"",""1"",""16418""
","""event"",""trial"",""time""
""fullscreenenter"",""1"",""24491""
","
","true","false","[]","[]","[]","","","","","","","","","","","","","","","",""
"audio-keyboard-response","3","36966","0.0-3.0","5884","1","9","Male","approach_avoid_spark_v1","""event"",""trial"",""time""
""blur"",""1"",""14095""
""focus"",""1"",""16418""
""fullscreenenter"",""1"",""24491""
","""event"",""trial"",""time""
""blur"",""1"",""14095""
","""event"",""trial"",""time""
""focus"",""1"",""16418""
","""event"",""trial"",""time""
""fullscreenenter"",""1"",""24491""
","
","","","","","","4370.666666666667","audio/beep_loop.wav"," ","","","","","","","","","","","","",""
"audio-button-response","4","38893","0.0-4.0","5884","1","9","Male","approach_avoid_spark_v1","""event"",""trial"",""time""
""blur"",""1"",""14095""
""focus"",""1"",""16418""
""fullscreenenter"",""1"",""24491""
","""event"",""trial"",""time""
""blur"",""1"",""14095""
","""event"",""trial"",""time""
""focus"",""1"",""16418""
","""event"",""trial"",""time""
""fullscreenenter"",""1"",""24491""
","
","","","","","","1928","audio/shark.wav","4","","","","","","","","","","","","",""
"audio-button-response","5","44501","0.0-5.0","5884","1","9","Male","approach_avoid_spark_v1","""event"",""trial"",""time""
""blur"",""1"",""14095""
""focus"",""1"",""16418""
""fullscreenenter"",""1"",""24491""
","""event"",""trial"",""time""
""blur"",""1"",""14095""
","""event"",""trial"",""time""
""focus"",""1"",""16418""
","""event"",""trial"",""time""
""fullscreenenter"",""1"",""24491""
","
","","","","","","4568","audio/turtle.wav","0","","","","","","","","","","","","",""
"preload","6","48412","0.0-6.0","5884","1","9","Male","approach_avoid_spark_v1","""event"",""trial"",""time""
""blur"",""1"",""14095""
""focus"",""1"",""16418""
""fullscreenenter"",""1"",""24491""
","""event"",""trial"",""time""
""blur"",""1"",""14095""
","""event"",""trial"",""time""
""focus"",""1"",""16418""
","""event"",""trial"",""time""
""fullscreenenter"",""1"",""24491""
","
","true","false","[]","[]","[]","","","","","","","","","","","","","","","",""
"html-keyboard-response","7","51573","0.0-7.0","5884","1","9","Male","approach_avoid_spark_v1","""event"",""trial"",""time""
""blur"",""1"",""14095""
""focus"",""1"",""16418""
""fullscreenenter"",""1"",""24491""
","""event"",""trial"",""time""
""blur"",""1"",""14095""
","""event"",""trial"",""time""
""focus"",""1"",""16418""
","""event"",""trial"",""time""
""fullscreenenter"",""1"",""24491""
","
","","","","","","3159.7999999970198","Welcome to the experiment. Press any key to begin and to advance the instructions.","y","","","","","","","","","","","","",""
"learning-instructions","8","59686","0.0-8.0-0.0-0.0","5884","1","9","Male","approach_avoid_spark_v1","""event"",""trial"",""time""
""blur"",""1"",""14095""
""focus"",""1"",""16418""
""fullscreenenter"",""1"",""24491""
","""event"",""trial"",""time""
""blur"",""1"",""14095""
","""event"",""trial"",""time""
""focus"",""1"",""16418""
","""event"",""trial"",""time""
""fullscreenenter"",""1"",""24491""
","
","","","","","","1152.5","<p> Welcome! Today you are going to play 6 different rounds of a decision-making game. </p><p> Use the mouse to click next to continue. </p>","","0","instructions","","","","","","","","","","",""
"learning-instructions","9","63509","0.0-8.0-0.0-0.1","5884","1","9","Male","approach_avoid_spark_v1","""event"",""trial"",""time""
""blur"",""1"",""14095""
""focus"",""1"",""16418""
""fullscreenenter"",""1"",""24491""
","""event"",""trial"",""time""
""blur"",""1"",""14095""
","""event"",""trial"",""time""
""focus"",""1"",""16418""
","""event"",""trial"",""time""
""fullscreenenter"",""1"",""24491""
","
","","","","","","1086.2999999970198","<p> You will start with a practice round to learn the rules. </p>","","0","instructions","","","","","","","","","","",""
"learning-instructions","10","67445","0.0-8.0-0.0-0.2","5884","1","9","Male","approach_avoid_spark_v1","""event"",""trial"",""time""
""blur"",""1"",""14095""
""focus"",""1"",""16418""
""fullscreenenter"",""1"",""24491""
","""event"",""trial"",""time""
""blur"",""1"",""14095""
","""event"",""trial"",""time""
""focus"",""1"",""16418""
","""event"",""trial"",""time""
""fullscreenenter"",""1"",""24491""
","
","","","","","","472","<p> Your goal in this round is to give out sports equipment to kids. </p></div>","","0","instructions","","","","","","","","","","",""
"learning-instructions","11","75533","0.0-8.0-0.0-0.3","5884","1","9","Male","approach_avoid_spark_v1","""event"",""trial"",""time""
""blur"",""1"",""14095""
""focus"",""1"",""16418""
""fullscreenenter"",""1"",""24491""
","""event"",""trial"",""time""
""blur"",""1"",""14095""
","""event"",""trial"",""time""
""focus"",""1"",""16418""
","""event"",""trial"",""time""
""fullscreenenter"",""1"",""24491""
","
","","","","","","529.8999999910593","<p> The kids only like some of the equipment.  </p><p> On each turn, you will see a piece of sports equipment.   </p><p> You need to decide whether to give it to the kids or not.  </p>","","0","instructions","","","","","","","","","","",""
"learning-instructions","12","80773","0.0-8.0-0.0-0.4","5884","1","9","Male","approach_avoid_spark_v1","""event"",""trial"",""time""
""blur"",""1"",""14095""
""focus"",""1"",""16418""
""fullscreenenter"",""1"",""24491""
","""event"",""trial"",""time""
""blur"",""1"",""14095""
","""event"",""trial"",""time""
""focus"",""1"",""16418""
","""event"",""trial"",""time""
""fullscreenenter"",""1"",""24491""
","
","","","","","","479.59999999403954","<p> You can give them the equipment by pressing 1 and choose not to give it to them by pressing 0. </p><br><div class=""choice-instructions-grid""> <div class=""choice-option""><img src=""images/approach.png"" class=""choice-option-img"" stage=""instructions"" position=""0"" ><div class=""choice-option-text""> Press ""1."" </div></div><div class=""choice-option""><img src=""images/avoid.png"" class=""choice-option-img"" stage=""instructions"" position=""1"" ><div class=""choice-option-text""> Press ""0."" </div></div>","","0","instructions","","","","","","","","","","",""
"learning-instructions","13","88670","0.0-8.0-0.0-0.5","5884","1","9","Male","approach_avoid_spark_v1","""event"",""trial"",""time""
""blur"",""1"",""14095""
""focus"",""1"",""16418""
""fullscreenenter"",""1"",""24491""
","""event"",""trial"",""time""
""blur"",""1"",""14095""
","""event"",""trial"",""time""
""focus"",""1"",""16418""
","""event"",""trial"",""time""
""fullscreenenter"",""1"",""24491""
","
","","","","","","496.30000001192093","<p> If you give them a piece of equipment they like, they will be happy! </p><p> But if you give them a piece of equipment they do not like, they will be sad. </p>","","0","instructions","","","","","","","","","","",""
"learning-instructions","14","99677","0.0-8.0-0.0-0.6","5884","1","9","Male","approach_avoid_spark_v1","""event"",""trial"",""time""
""blur"",""1"",""14095""
""focus"",""1"",""16418""
""fullscreenenter"",""1"",""24491""
","""event"",""trial"",""time""
""blur"",""1"",""14095""
","""event"",""trial"",""time""
""focus"",""1"",""16418""
","""event"",""trial"",""time""
""fullscreenenter"",""1"",""24491""
","
","","","","","","493.59999999403954","<p> You will earn points based on how you make kids feel. </p><p> If you make them happy, you will WIN anywhere from 1 - 9 points, </p><p> but if you make them sad, you will LOSE anywhere from 1 - 9 points. </p>","","0","instructions","","","","","","","","","","",""
"learning-instructions","15","109629","0.0-8.0-0.0-0.7","5884","1","9","Male","approach_avoid_spark_v1","""event"",""trial"",""time""
""blur"",""1"",""14095""
""focus"",""1"",""16418""
""fullscreenenter"",""1"",""24491""
","""event"",""trial"",""time""
""blur"",""1"",""14095""
","""event"",""trial"",""time""
""focus"",""1"",""16418""
","""event"",""trial"",""time""
""fullscreenenter"",""1"",""24491""
","
","","","","","","386.09999999403954","<p> You will see how many points you won or lost in the center of the screen. </p><p> Here is what you would see if you won 6 points: </p><p style=""color:green;font-size:50px;font-weight:bolder"">6</p><p style=""color:green"">The text is GREEN because you WON points.</p>","","0","instructions","","","","","","","","","","",""
"learning-instructions","16","115805","0.0-8.0-0.0-0.8","5884","1","9","Male","approach_avoid_spark_v1","""event"",""trial"",""time""
""blur"",""1"",""14095""
""focus"",""1"",""16418""
""fullscreenenter"",""1"",""24491""
","""event"",""trial"",""time""
""blur"",""1"",""14095""
","""event"",""trial"",""time""
""focus"",""1"",""16418""
","""event"",""trial"",""time""
""fullscreenenter"",""1"",""24491""
","
","","","","","","662.2999999970198","<p> And here is what you would see if you lost 4 points: </p><p style=""color:red;font-size:50px;font-weight:bolder"">-4</p><p style=""color:red"">The text is RED because you LOST points. </p>","","0","instructions","","","","","","","","","","",""
"learning-instructions","17","131037","0.0-8.0-0.0-0.9","5884","1","9","Male","approach_avoid_spark_v1","""event"",""trial"",""time""
""blur"",""1"",""14095""
""focus"",""1"",""16418""
""fullscreenenter"",""1"",""24491""
","""event"",""trial"",""time""
""blur"",""1"",""14095""
","""event"",""trial"",""time""
""focus"",""1"",""16418""
","""event"",""trial"",""time""
""fullscreenenter"",""1"",""24491""
","
","","","","","","524.2999999970198","<p> Some of the equipment will make the kids VERY happy or sad. </p><p> These pieces of equipment will make you win or lose LOTS of points. </p><p> Other pieces of equipment will only make the kids a little happy or sad. </p><p> These pieces of equipment will make you win or lose small amounts of points. </p>","","0","instructions","","","","","","","","","","",""
"learning-instructions","18","142797","0.0-8.0-0.0-0.10","5884","1","9","Male","approach_avoid_spark_v1","""event"",""trial"",""time""
""blur"",""1"",""14095""
""focus"",""1"",""16418""
""fullscreenenter"",""1"",""24491""
","""event"",""trial"",""time""
""blur"",""1"",""14095""
","""event"",""trial"",""time""
""focus"",""1"",""16418""
","""event"",""trial"",""time""
""fullscreenenter"",""1"",""24491""
","
","","","","","","1134.3999999910593","<p> If you choose not to give them the equipment, you will not win or lose any points. </p><p>  However, in the center of the screen, you will see the number of points you WOULD HAVE won or lost if you had given them the equipment. </p>","","0","instructions","","","","","","","","","","",""
"learning-instructions","19","165189","0.0-8.0-0.0-0.11","5884","1","9","Male","approach_avoid_spark_v1","""event"",""trial"",""time""
""blur"",""1"",""14095""
""focus"",""1"",""16418""
""fullscreenenter"",""1"",""24491""
","""event"",""trial"",""time""
""blur"",""1"",""14095""
","""event"",""trial"",""time""
""focus"",""1"",""16418""
","""event"",""trial"",""time""
""fullscreenenter"",""1"",""24491""
","
","","","","","","866.2999999970198","<p> Here is what you might see if you did not give the equipment to the kids but it would have made them happy: </p><p style=""color:grey; font-size:50px; display: inline-block; border-spacing: 15px; border-width:3px; border-style:solid; border-color:red"">  &nbsp; 7 &nbsp; </p><p> Remember, in this case, you would not win or lose ANY points because you did not give them the equipment.  </p><p style=""color:grey"">The text is GREY because you earned ZERO points. </p><p style=""color:red"">However, choosing to give the kids the equipment would have made you win points. The box around the text is RED because you chose the worse option. </p>","","0","instructions","","","","","","","","","","",""
"learning-instructions","20","186709","0.0-8.0-0.0-0.12","5884","1","9","Male","approach_avoid_spark_v1","""event"",""trial"",""time""
""blur"",""1"",""14095""
""focus"",""1"",""16418""
""fullscreenenter"",""1"",""24491""
","""event"",""trial"",""time""
""blur"",""1"",""14095""
","""event"",""trial"",""time""
""focus"",""1"",""16418""
","""event"",""trial"",""time""
""fullscreenenter"",""1"",""24491""
","
","","","","","","436","<p> Here is what you might see if you did not give the equipment to the kids but it would have made them sad: </p><p style=""color:grey;font-size:50px; display: inline-block; border-spacing: 15px; border-width:3px; border-style:solid; border-color:green"">  &nbsp; -8 &nbsp; </p><p> Remember, in this case, you would not win or lose ANY points because you did not give them the equipment.  </p><p style=""color:grey"">The text is GREY because you earned ZERO points. </p><p  style=""color:green""> Choosing to give the kids the equipment would have made you lose points. The box around the text is GREEN because you chose the better option.</p>","","0","instructions","","","","","","","","","","",""
"learning-instructions","21","196054","0.0-8.0-0.0-0.13","5884","1","9","Male","approach_avoid_spark_v1","""event"",""trial"",""time""
""blur"",""1"",""14095""
""focus"",""1"",""16418""
""fullscreenenter"",""1"",""24491""
","""event"",""trial"",""time""
""blur"",""1"",""14095""
","""event"",""trial"",""time""
""focus"",""1"",""16418""
","""event"",""trial"",""time""
""fullscreenenter"",""1"",""24491""
","
","","","","","","540.3999999910593","<p> You will have 3 seconds to make each choice. Try to respond before time runs out! </p><p> You will lose 5 points each time you do not make a response. </p>","","0","instructions","","","","","","","","","","",""
"learning-instructions","22","201869","0.0-8.0-0.0-0.14","5884","1","9","Male","approach_avoid_spark_v1","""event"",""trial"",""time""
""blur"",""1"",""14095""
""focus"",""1"",""16418""
""fullscreenenter"",""1"",""24491""
","""event"",""trial"",""time""
""blur"",""1"",""14095""
","""event"",""trial"",""time""
""focus"",""1"",""16418""
","""event"",""trial"",""time""
""fullscreenenter"",""1"",""24491""
","
","","","","","","406.30000001192093","<p> This is just a practice round, but in the real game, your bonus payment will depend on your total number of points.","","0","instructions","","","","","","","","","","",""
"learning-instructions","23","208110","0.0-8.0-0.0-0.15","5884","1","9","Male","approach_avoid_spark_v1","""event"",""trial"",""time""
""blur"",""1"",""14095""
""focus"",""1"",""16418""
""fullscreenenter"",""1"",""24491""
","""event"",""trial"",""time""
""blur"",""1"",""14095""
","""event"",""trial"",""time""
""focus"",""1"",""16418""
","""event"",""trial"",""time""
""fullscreenenter"",""1"",""24491""
","
","","","","","","475.69999998807907","<p> Remember, you can give them the equipment by pressing 1 and choose not to give it to them by pressing 0. </p><br><div class=""choice-instructions-grid""> <div class=""choice-option""><img src=""images/approach.png"" class=""choice-option-img"" stage=""instructions"" position=""0"" ><div class=""choice-option-text""> Press ""1."" </div></div><div class=""choice-option""><img src=""images/avoid.png"" class=""choice-option-img"" stage=""instructions"" position=""1"" ><div class=""choice-option-text""> Press ""0."" </div></div>","","0","instructions","","","","","","","","","","",""
"html-button-response","24","209502","0.0-8.0-1.0","5884","1","9","Male","approach_avoid_spark_v1","""event"",""trial"",""time""
""blur"",""1"",""14095""
""focus"",""1"",""16418""
""fullscreenenter"",""1"",""24491""
","""event"",""trial"",""time""
""blur"",""1"",""14095""
","""event"",""trial"",""time""
""focus"",""1"",""16418""
","""event"",""trial"",""time""
""fullscreenenter"",""1"",""24491""
","
","","","","","","1275.3999999910593","<p> Ready to practice? </p>","0","","","","","","","","","","","","",""
"html-keyboard-response","25","210109","0.0-8.0-2.0-0.0","5884","1","9","Male","approach_avoid_spark_v1","""event"",""trial"",""time""
""blur"",""1"",""14095""
""focus"",""1"",""16418""
""fullscreenenter"",""1"",""24491""
","""event"",""trial"",""time""
""blur"",""1"",""14095""
","""event"",""trial"",""time""
""focus"",""1"",""16418""
","""event"",""trial"",""time""
""fullscreenenter"",""1"",""24491""
","
","","","","","","null","<div style=""font-size:60px;"">+</div>","null","","fixation","","","","","","","","","","",""
"aa-learning-trial","26","213132","0.0-8.0-2.0-1.0","5884","1","9","Male","approach_avoid_spark_v1","""event"",""trial"",""time""
""blur"",""1"",""14095""
""focus"",""1"",""16418""
""fullscreenenter"",""1"",""24491""
","""event"",""trial"",""time""
""blur"",""1"",""14095""
","""event"",""trial"",""time""
""focus"",""1"",""16418""
","""event"",""trial"",""time""
""fullscreenenter"",""1"",""24491""
","
","","","","","","1329.2999999970198","images/racket1.png","","","learning","-4","-4","1","1","practice","practice","practice","-1","","",""
"html-keyboard-response","27","213651","0.0-8.0-2.0-0.1","5884","1","9","Male","approach_avoid_spark_v1","""event"",""trial"",""time""
""blur"",""1"",""14095""
""focus"",""1"",""16418""
""fullscreenenter"",""1"",""24491""
","""event"",""trial"",""time""
""blur"",""1"",""14095""
","""event"",""trial"",""time""
""focus"",""1"",""16418""
","""event"",""trial"",""time""
""fullscreenenter"",""1"",""24491""
","
","","","","","","null","<div style=""font-size:60px;"">+</div>","null","","fixation","","","","","","","","","","",""
"aa-learning-trial","28","216661","0.0-8.0-2.0-1.1","5884","1","9","Male","approach_avoid_spark_v1","""event"",""trial"",""time""
""blur"",""1"",""14095""
""focus"",""1"",""16418""
""fullscreenenter"",""1"",""24491""
","""event"",""trial"",""time""
""blur"",""1"",""14095""
","""event"",""trial"",""time""
""focus"",""1"",""16418""
","""event"",""trial"",""time""
""fullscreenenter"",""1"",""24491""
","
","","","","","","1205.4000000059605","images/racket4.png","","","learning","6","0","0","0","practice","practice","practice","-1","","",""
"html-keyboard-response","29","217181","0.0-8.0-2.0-0.2","5884","1","9","Male","approach_avoid_spark_v1","""event"",""trial"",""time""
""blur"",""1"",""14095""
""focus"",""1"",""16418""
""fullscreenenter"",""1"",""24491""
","""event"",""trial"",""time""
""blur"",""1"",""14095""
","""event"",""trial"",""time""
""focus"",""1"",""16418""
","""event"",""trial"",""time""
""fullscreenenter"",""1"",""24491""
","
","","","","","","null","<div style=""font-size:60px;"">+</div>","null","","fixation","","","","","","","","","","",""
"aa-learning-trial","30","220192","0.0-8.0-2.0-1.2","5884","1","9","Male","approach_avoid_spark_v1","""event"",""trial"",""time""
""blur"",""1"",""14095""
""focus"",""1"",""16418""
""fullscreenenter"",""1"",""24491""
","""event"",""trial"",""time""
""blur"",""1"",""14095""
","""event"",""trial"",""time""
""focus"",""1"",""16418""
","""event"",""trial"",""time""
""fullscreenenter"",""1"",""24491""
","
","","","","","","1099","images/racket4.png","","","learning","-4","0","0","0","practice","practice","practice","-1","","",""
"html-keyboard-response","31","220712","0.0-8.0-2.0-0.3","5884","1","9","Male","approach_avoid_spark_v1","""event"",""trial"",""time""
""blur"",""1"",""14095""
""focus"",""1"",""16418""
""fullscreenenter"",""1"",""24491""
","""event"",""trial"",""time""
""blur"",""1"",""14095""
","""event"",""trial"",""time""
""focus"",""1"",""16418""
","""event"",""trial"",""time""
""fullscreenenter"",""1"",""24491""
","
","","","","","","null","<div style=""font-size:60px;"">+</div>","null","","fixation","","","","","","","","","","",""
"aa-learning-trial","32","223722","0.0-8.0-2.0-1.3","5884","1","9","Male","approach_avoid_spark_v1","""event"",""trial"",""time""
""blur"",""1"",""14095""
""focus"",""1"",""16418""
""fullscreenenter"",""1"",""24491""
","""event"",""trial"",""time""
""blur"",""1"",""14095""
","""event"",""trial"",""time""
""focus"",""1"",""16418""
","""event"",""trial"",""time""
""fullscreenenter"",""1"",""24491""
","
","","","","","","633.5","images/ball1.png","","","learning","2","2","1","1","practice","practice","practice","-1","","",""
"html-keyboard-response","33","224241","0.0-8.0-2.0-0.4","5884","1","9","Male","approach_avoid_spark_v1","""event"",""trial"",""time""
""blur"",""1"",""14095""
""focus"",""1"",""16418""
""fullscreenenter"",""1"",""24491""
","""event"",""trial"",""time""
""blur"",""1"",""14095""
","""event"",""trial"",""time""
""focus"",""1"",""16418""
","""event"",""trial"",""time""
""fullscreenenter"",""1"",""24491""
","
","","","","","","null","<div style=""font-size:60px;"">+</div>","null","","fixation","","","","","","","","","","",""
"aa-learning-trial","34","227271","0.0-8.0-2.0-1.4","5884","1","9","Male","approach_avoid_spark_v1","""event"",""trial"",""time""
""blur"",""1"",""14095""
""focus"",""1"",""16418""
""fullscreenenter"",""1"",""24491""
","""event"",""trial"",""time""
""blur"",""1"",""14095""
","""event"",""trial"",""time""
""focus"",""1"",""16418""
","""event"",""trial"",""time""
""fullscreenenter"",""1"",""24491""
","
","","","","","","1039.2000000029802","images/racket2.png","","","learning","-5","0","0","0","practice","practice","practice","-1","","",""
"html-keyboard-response","35","227791","0.0-8.0-2.0-0.5","5884","1","9","Male","approach_avoid_spark_v1","""event"",""trial"",""time""
""blur"",""1"",""14095""
""focus"",""1"",""16418""
""fullscreenenter"",""1"",""24491""
","""event"",""trial"",""time""
""blur"",""1"",""14095""
","""event"",""trial"",""time""
""focus"",""1"",""16418""
","""event"",""trial"",""time""
""fullscreenenter"",""1"",""24491""
","
","","","","","","null","<div style=""font-size:60px;"">+</div>","null","","fixation","","","","","","","","","","",""
"aa-learning-trial","36","230802","0.0-8.0-2.0-1.5","5884","1","9","Male","approach_avoid_spark_v1","""event"",""trial"",""time""
""blur"",""1"",""14095""
""focus"",""1"",""16418""
""fullscreenenter"",""1"",""24491""
","""event"",""trial"",""time""
""blur"",""1"",""14095""
","""event"",""trial"",""time""
""focus"",""1"",""16418""
","""event"",""trial"",""time""
""fullscreenenter"",""1"",""24491""
","
","","","","","","555.7000000029802","images/ball3.png","","","learning","-1","-1","1","1","practice","practice","practice","-1","","",""
"html-keyboard-response","37","231321","0.0-8.0-2.0-0.6","5884","1","9","Male","approach_avoid_spark_v1","""event"",""trial"",""time""
""blur"",""1"",""14095""
""focus"",""1"",""16418""
""fullscreenenter"",""1"",""24491""
","""event"",""trial"",""time""
""blur"",""1"",""14095""
","""event"",""trial"",""time""
""focus"",""1"",""16418""
","""event"",""trial"",""time""
""fullscreenenter"",""1"",""24491""
","
","","","","","","null","<div style=""font-size:60px;"">+</div>","null","","fixation","","","","","","","","","","",""
"aa-learning-trial","38","234352","0.0-8.0-2.0-1.6","5884","1","9","Male","approach_avoid_spark_v1","""event"",""trial"",""time""
""blur"",""1"",""14095""
""focus"",""1"",""16418""
""fullscreenenter"",""1"",""24491""
","""event"",""trial"",""time""
""blur"",""1"",""14095""
","""event"",""trial"",""time""
""focus"",""1"",""16418""
","""event"",""trial"",""time""
""fullscreenenter"",""1"",""24491""
","
","","","","","","1158.300000011921","images/racket3.png","","","learning","1","1","1","1","practice","practice","practice","-1","","",""
"html-keyboard-response","39","234871","0.0-8.0-2.0-0.7","5884","1","9","Male","approach_avoid_spark_v1","""event"",""trial"",""time""
""blur"",""1"",""14095""
""focus"",""1"",""16418""
""fullscreenenter"",""1"",""24491""
","""event"",""trial"",""time""
""blur"",""1"",""14095""
","""event"",""trial"",""time""
""focus"",""1"",""16418""
","""event"",""trial"",""time""
""fullscreenenter"",""1"",""24491""
","
","","","","","","null","<div style=""font-size:60px;"">+</div>","null","","fixation","","","","","","","","","","",""
"aa-learning-trial","40","237876","0.0-8.0-2.0-1.7","5884","1","9","Male","approach_avoid_spark_v1","""event"",""trial"",""time""
""blur"",""1"",""14095""
""focus"",""1"",""16418""
""fullscreenenter"",""1"",""24491""
","""event"",""trial"",""time""
""blur"",""1"",""14095""
","""event"",""trial"",""time""
""focus"",""1"",""16418""
","""event"",""trial"",""time""
""fullscreenenter"",""1"",""24491""
","
","","","","","","554.6000000089407","images/ball4.png","","","learning","9","0","0","0","practice","practice","practice","-1","","",""
"html-keyboard-response","41","238380","0.0-8.0-2.0-0.8","5884","1","9","Male","approach_avoid_spark_v1","""event"",""trial"",""time""
""blur"",""1"",""14095""
""focus"",""1"",""16418""
""fullscreenenter"",""1"",""24491""
","""event"",""trial"",""time""
""blur"",""1"",""14095""
","""event"",""trial"",""time""
""focus"",""1"",""16418""
","""event"",""trial"",""time""
""fullscreenenter"",""1"",""24491""
","
","","","","","","null","<div style=""font-size:60px;"">+</div>","null","","fixation","","","","","","","","","","",""
"aa-learning-trial","42","241388","0.0-8.0-2.0-1.8","5884","1","9","Male","approach_avoid_spark_v1","""event"",""trial"",""time""
""blur"",""1"",""14095""
""focus"",""1"",""16418""
""fullscreenenter"",""1"",""24491""
","""event"",""trial"",""time""
""blur"",""1"",""14095""
","""event"",""trial"",""time""
""focus"",""1"",""16418""
","""event"",""trial"",""time""
""fullscreenenter"",""1"",""24491""
","
","","","","","","516.5","images/ball3.png","","","learning","9","9","1","1","practice","practice","practice","-1","","",""
"html-keyboard-response","43","241892","0.0-8.0-2.0-0.9","5884","1","9","Male","approach_avoid_spark_v1","""event"",""trial"",""time""
""blur"",""1"",""14095""
""focus"",""1"",""16418""
""fullscreenenter"",""1"",""24491""
","""event"",""trial"",""time""
""blur"",""1"",""14095""
","""event"",""trial"",""time""
""focus"",""1"",""16418""
","""event"",""trial"",""time""
""fullscreenenter"",""1"",""24491""
","
","","","","","","null","<div style=""font-size:60px;"">+</div>","null","","fixation","","","","","","","","","","",""
"aa-learning-trial","44","244901","0.0-8.0-2.0-1.9","5884","1","9","Male","approach_avoid_spark_v1","""event"",""trial"",""time""
""blur"",""1"",""14095""
""focus"",""1"",""16418""
""fullscreenenter"",""1"",""24491""
","""event"",""trial"",""time""
""blur"",""1"",""14095""
","""event"",""trial"",""time""
""focus"",""1"",""16418""
","""event"",""trial"",""time""
""fullscreenenter"",""1"",""24491""
","
","","","","","","700.1000000089407","images/ball4.png","","","learning","3","0","0","0","practice","practice","practice","-1","","",""
"html-keyboard-response","45","245403","0.0-8.0-2.0-0.10","5884","1","9","Male","approach_avoid_spark_v1","""event"",""trial"",""time""
""blur"",""1"",""14095""
""focus"",""1"",""16418""
""fullscreenenter"",""1"",""24491""
","""event"",""trial"",""time""
""blur"",""1"",""14095""
","""event"",""trial"",""time""
""focus"",""1"",""16418""
","""event"",""trial"",""time""
""fullscreenenter"",""1"",""24491""
","
","","","","","","null","<div style=""font-size:60px;"">+</div>","null","","fixation","","","","","","","","","","",""
"aa-learning-trial","46","248412","0.0-8.0-2.0-1.10","5884","1","9","Male","approach_avoid_spark_v1","""event"",""trial"",""time""
""blur"",""1"",""14095""
""focus"",""1"",""16418""
""fullscreenenter"",""1"",""24491""
","""event"",""trial"",""time""
""blur"",""1"",""14095""
","""event"",""trial"",""time""
""focus"",""1"",""16418""
","""event"",""trial"",""time""
""fullscreenenter"",""1"",""24491""
","
","","","","","","1182.2000000029802","images/racket2.png","","","learning","1","1","1","1","practice","practice","practice","-1","","",""
"html-keyboard-response","47","248915","0.0-8.0-2.0-0.11","5884","1","9","Male","approach_avoid_spark_v1","""event"",""trial"",""time""
""blur"",""1"",""14095""
""focus"",""1"",""16418""
""fullscreenenter"",""1"",""24491""
","""event"",""trial"",""time""
""blur"",""1"",""14095""
","""event"",""trial"",""time""
""focus"",""1"",""16418""
","""event"",""trial"",""time""
""fullscreenenter"",""1"",""24491""
","
","","","","","","null","<div style=""font-size:60px;"">+</div>","null","","fixation","","","","","","","","","","",""
"aa-learning-trial","48","251926","0.0-8.0-2.0-1.11","5884","1","9","Male","approach_avoid_spark_v1","""event"",""trial"",""time""
""blur"",""1"",""14095""
""focus"",""1"",""16418""
""fullscreenenter"",""1"",""24491""
","""event"",""trial"",""time""
""blur"",""1"",""14095""
","""event"",""trial"",""time""
""focus"",""1"",""16418""
","""event"",""trial"",""time""
""fullscreenenter"",""1"",""24491""
","
","","","","","","854.4000000059605","images/ball3.png","","","learning","8","8","1","1","practice","practice","practice","-1","","",""
"html-button-response","49","255107","0.0-8.0-3.0","5884","1","9","Male","approach_avoid_spark_v1","""event"",""trial"",""time""
""blur"",""1"",""14095""
""focus"",""1"",""16418""
""fullscreenenter"",""1"",""24491""
","""event"",""trial"",""time""
""blur"",""1"",""14095""
","""event"",""trial"",""time""
""focus"",""1"",""16418""
","""event"",""trial"",""time""
""fullscreenenter"",""1"",""24491""
","
","","","","","","3178","<p> You earned 16 points in the practice round! </p>","0","","break","","","","","","","","","","",""
"learning-instructions","50","261973","0.0-8.0-4.0-0.0","5884","1","9","Male","approach_avoid_spark_v1","""event"",""trial"",""time""
""blur"",""1"",""14095""
""focus"",""1"",""16418""
""fullscreenenter"",""1"",""24491""
","""event"",""trial"",""time""
""blur"",""1"",""14095""
","""event"",""trial"",""time""
""focus"",""1"",""16418""
","""event"",""trial"",""time""
""fullscreenenter"",""1"",""24491""
","
","","","","","","893.1000000089407","<p> It's almost time to start the real game. </p><p> Before you start, we're going to ask you a few questions about how the game works. </p>","","0","instructions","","","","","","","","","","",""
"preload","51","263342","0.0-8.0-5.0","5884","1","9","Male","approach_avoid_spark_v1","""event"",""trial"",""time""
""blur"",""1"",""14095""
""focus"",""1"",""16418""
""fullscreenenter"",""1"",""24491""
","""event"",""trial"",""time""
""blur"",""1"",""14095""
","""event"",""trial"",""time""
""focus"",""1"",""16418""
","""event"",""trial"",""time""
""fullscreenenter"",""1"",""24491""
","
","true","false","[]","[]","[]","","","","","","","","","","","","","","","",""
"comp-q","52","269494","0.0-8.0-6.0-0.0","5884","1","9","Male","approach_avoid_spark_v1","""event"",""trial"",""time""
""blur"",""1"",""14095""
""focus"",""1"",""16418""
""fullscreenenter"",""1"",""24491""
","""event"",""trial"",""time""
""blur"",""1"",""14095""
","""event"",""trial"",""time""
""focus"",""1"",""16418""
","""event"",""trial"",""time""
""fullscreenenter"",""1"",""24491""
","
","","","","","","1153.2000000029802","<p> <b> True or False? </b> </p><p> If you see a number in GREY, that means you earned that many points. </p>","","1","comp_question","","","","","","","","","true","",""
"comp-q","53","280229","0.0-8.0-6.0-1.0","5884","1","9","Male","approach_avoid_spark_v1","""event"",""trial"",""time""
""blur"",""1"",""14095""
""focus"",""1"",""16418""
""fullscreenenter"",""1"",""24491""
","""event"",""trial"",""time""
""blur"",""1"",""14095""
","""event"",""trial"",""time""
""focus"",""1"",""16418""
","""event"",""trial"",""time""
""fullscreenenter"",""1"",""24491""
","
","","","","","","2369.5","<p><b> That's right! </b> If you see a grey number, it means you earned ZERO points. <br> The grey numbers show the points you WOULD HAVE earned if you had made the other choice. </p>","","0","comp_answer","","","","","","","","","","",""
"comp-q","54","285461","0.0-8.0-7.0-0.0","5884","1","9","Male","approach_avoid_spark_v1","""event"",""trial"",""time""
""blur"",""1"",""14095""
""focus"",""1"",""16418""
""fullscreenenter"",""1"",""24491""
","""event"",""trial"",""time""
""blur"",""1"",""14095""
","""event"",""trial"",""time""
""focus"",""1"",""16418""
","""event"",""trial"",""time""
""fullscreenenter"",""1"",""24491""
","
","","","","","","531","<p> <b> True or False? </b> </p><p> You will have as much time as you want to make each choice. </p>","","1","comp_question","","","","","","","","","true","",""
"comp-q","55","291204","0.0-8.0-7.0-1.0","5884","1","9","Male","approach_avoid_spark_v1","""event"",""trial"",""time""
""blur"",""1"",""14095""
""focus"",""1"",""16418""
""fullscreenenter"",""1"",""24491""
","""event"",""trial"",""time""
""blur"",""1"",""14095""
","""event"",""trial"",""time""
""focus"",""1"",""16418""
","""event"",""trial"",""time""
""fullscreenenter"",""1"",""24491""
","
","","","","","","1695.0999999940395","<p> <b> That's right! </b> You will only have 3 seconds to make each choice. </p>","","0","comp_answer","","","","","","","","","","",""
"comp-q","56","296437","0.0-8.0-8.0-0.0","5884","1","9","Male","approach_avoid_spark_v1","""event"",""trial"",""time""
""blur"",""1"",""14095""
""focus"",""1"",""16418""
""fullscreenenter"",""1"",""24491""
","""event"",""trial"",""time""
""blur"",""1"",""14095""
","""event"",""trial"",""time""
""focus"",""1"",""16418""
","""event"",""trial"",""time""
""fullscreenenter"",""1"",""24491""
","
","","","","","","557.2000000029802","<p> <b> True or False? </b> </p><p> You should use the '1' and '0' keys to make your choices. </p>","","0","comp_question","","","","","","","","","true","",""
"comp-q","57","302149","0.0-8.0-8.0-1.0","5884","1","9","Male","approach_avoid_spark_v1","""event"",""trial"",""time""
""blur"",""1"",""14095""
""focus"",""1"",""16418""
""fullscreenenter"",""1"",""24491""
","""event"",""trial"",""time""
""blur"",""1"",""14095""
","""event"",""trial"",""time""
""focus"",""1"",""16418""
","""event"",""trial"",""time""
""fullscreenenter"",""1"",""24491""
","
","","","","","","1099","<p> <b> That's right! </b> You should use the '1' and '0' keys to make each choice. </p>","","0","comp_answer","","","","","","","","","","",""
"learning-instructions","58","309622","0.0-8.0-9.0-0.0","5884","1","9","Male","approach_avoid_spark_v1","""event"",""trial"",""time""
""blur"",""1"",""14095""
""focus"",""1"",""16418""
""fullscreenenter"",""1"",""24491""
","""event"",""trial"",""time""
""blur"",""1"",""14095""
","""event"",""trial"",""time""
""focus"",""1"",""16418""
","""event"",""trial"",""time""
""fullscreenenter"",""1"",""24491""
","
","","","","","","1191.9000000059605","<p> It's now time to start the real game. </p>Do your best, because the points you earn in the next rounds will influence your bonus payment. </p>","","0","instructions","","","","","","","","","","",""
"preload","59","309756","0.0-9.0-0.0","5884","1","9","Male","approach_avoid_spark_v1","""event"",""trial"",""time""
""blur"",""1"",""14095""
""focus"",""1"",""16418""
""fullscreenenter"",""1"",""24491""
","""event"",""trial"",""time""
""blur"",""1"",""14095""
","""event"",""trial"",""time""
""focus"",""1"",""16418""
","""event"",""trial"",""time""
""fullscreenenter"",""1"",""24491""
","
","true","false","[]","[]","[]","","","","","","","","","","","","","","","",""
"learning-instructions","60","314772","0.0-9.0-1.0-0.0","5884","1","9","Male","approach_avoid_spark_v1","""event"",""trial"",""time""
""blur"",""1"",""14095""
""focus"",""1"",""16418""
""fullscreenenter"",""1"",""24491""
","""event"",""trial"",""time""
""blur"",""1"",""14095""
","""event"",""trial"",""time""
""focus"",""1"",""16418""
","""event"",""trial"",""time""
""fullscreenenter"",""1"",""24491""
","
","","","","","","1003.1999999880791","<p> Your goal in this round is to take care of lots of farm animals. </p></div>","","0","instructions","","","","","","","","","","",""
"learning-instructions","61","324780","0.0-9.0-1.0-0.1","5884","1","9","Male","approach_avoid_spark_v1","""event"",""trial"",""time""
""blur"",""1"",""14095""
""focus"",""1"",""16418""
""fullscreenenter"",""1"",""24491""
","""event"",""trial"",""time""
""blur"",""1"",""14095""
","""event"",""trial"",""time""
""focus"",""1"",""16418""
","""event"",""trial"",""time""
""fullscreenenter"",""1"",""24491""
","
","","","","","","420.29999999701977","<p> Some farm animals are hungry, while other farm animals are already full.  </p><p> On each turn, you will see a farm animal.   </p><p> You need to decide whether to feed it or not.  </p>","","0","instructions","","","","","","","","","","",""
"learning-instructions","62","330949","0.0-9.0-1.0-0.2","5884","1","9","Male","approach_avoid_spark_v1","""event"",""trial"",""time""
""blur"",""1"",""14095""
""focus"",""1"",""16418""
""fullscreenenter"",""1"",""24491""
","""event"",""trial"",""time""
""blur"",""1"",""14095""
","""event"",""trial"",""time""
""focus"",""1"",""16418""
","""event"",""trial"",""time""
""fullscreenenter"",""1"",""24491""
","
","","","","","","568.4000000059605","<p> You can feed the farm animal by pressing 1 and leave the farm animal alone by pressing 0. </p><br><div class=""choice-instructions-grid""> <div class=""choice-option""><img src=""images/approach.png"" class=""choice-option-img"" stage=""instructions"" position=""0"" ><div class=""choice-option-text""> Press ""1."" </div></div><div class=""choice-option""><img src=""images/avoid.png"" class=""choice-option-img"" stage=""instructions"" position=""1"" ><div class=""choice-option-text""> Press ""0."" </div></div>","","0","instructions","","","","","","","","","","",""
"learning-instructions","63","340493","0.0-9.0-1.0-0.3","5884","1","9","Male","approach_avoid_spark_v1","""event"",""trial"",""time""
""blur"",""1"",""14095""
""focus"",""1"",""16418""
""fullscreenenter"",""1"",""24491""
","""event"",""trial"",""time""
""blur"",""1"",""14095""
","""event"",""trial"",""time""
""focus"",""1"",""16418""
","""event"",""trial"",""time""
""fullscreenenter"",""1"",""24491""
","
","","","","","","352.59999999403954","<p> If you feed a hungry farm animal, you will make it feel satisfied! </p><p> But if you feed the farm animal and it was already full, you will make it feel sick. </p>","","0","instructions","","","","","","","","","","",""
"learning-instructions","64","353149","0.0-9.0-1.0-0.4","5884","1","9","Male","approach_avoid_spark_v1","""event"",""trial"",""time""
""blur"",""1"",""14095""
""focus"",""1"",""16418""
""fullscreenenter"",""1"",""24491""
","""event"",""trial"",""time""
""blur"",""1"",""14095""
","""event"",""trial"",""time""
""focus"",""1"",""16418""
","""event"",""trial"",""time""
""fullscreenenter"",""1"",""24491""
","
","","","","","","558.9000000059605","<p> You will earn points based on how you made the farm animal feel. </p><p> If you made it satisfied, you will WIN anywhere from 1 - 9 points, </p><p> but if you made it sick, you will LOSE anywhere from 1 - 9 points. </p>","","0","instructions","","","","","","","","","","",""
"learning-instructions","65","360821","0.0-9.0-1.0-0.5","5884","1","9","Male","approach_avoid_spark_v1","""event"",""trial"",""time""
""blur"",""1"",""14095""
""focus"",""1"",""16418""
""fullscreenenter"",""1"",""24491""
","""event"",""trial"",""time""
""blur"",""1"",""14095""
","""event"",""trial"",""time""
""focus"",""1"",""16418""
","""event"",""trial"",""time""
""fullscreenenter"",""1"",""24491""
","
","","","","","","430.3999999910593","<p> You will see how many points you won or lost in the center of the screen. </p><p> Here is what you would see if you won 5 points: </p><p style=""color:green;font-size:50px;font-weight:bolder"">5</p>","","0","instructions","","","","","","","","","","",""
"learning-instructions","66","364837","0.0-9.0-1.0-0.6","5884","1","9","Male","approach_avoid_spark_v1","""event"",""trial"",""time""
""blur"",""1"",""14095""
""focus"",""1"",""16418""
""fullscreenenter"",""1"",""24491""
","""event"",""trial"",""time""
""blur"",""1"",""14095""
","""event"",""trial"",""time""
""focus"",""1"",""16418""
","""event"",""trial"",""time""
""fullscreenenter"",""1"",""24491""
","
","","","","","","787.2000000029802","<p> And here is what you would see if you lost 3 points: </p><p style=""color:red;font-size:50px;font-weight:bolder"">-3</p>","","0","instructions","","","","","","","","","","",""
"learning-instructions","67","380430","0.0-9.0-1.0-0.7","5884","1","9","Male","approach_avoid_spark_v1","""event"",""trial"",""time""
""blur"",""1"",""14095""
""focus"",""1"",""16418""
""fullscreenenter"",""1"",""24491""
","""event"",""trial"",""time""
""blur"",""1"",""14095""
","""event"",""trial"",""time""
""focus"",""1"",""16418""
","""event"",""trial"",""time""
""fullscreenenter"",""1"",""24491""
","
","","","","","","409.20000000298023","<p> Some farm animals will become very satisfied or very sick. </p><p> These farm animals will make you win or lose LOTS of points. </p><p> Other farm animals have less strong feelings. </p><p> These farm animals will make you win or lose small amounts of points. </p>","","0","instructions","","","","","","","","","","",""
"learning-instructions","68","392797","0.0-9.0-1.0-0.8","5884","1","9","Male","approach_avoid_spark_v1","""event"",""trial"",""time""
""blur"",""1"",""14095""
""focus"",""1"",""16418""
""fullscreenenter"",""1"",""24491""
","""event"",""trial"",""time""
""blur"",""1"",""14095""
","""event"",""trial"",""time""
""focus"",""1"",""16418""
","""event"",""trial"",""time""
""fullscreenenter"",""1"",""24491""
","
","","","","","","586.6999999880791","<p> If you choose to leave the farm animal alone, you will not win or lose any points. </p><p>  However, in the center of the screen, you will see the number of points you WOULD HAVE won or lost if you had fed the farm animal. </p>","","0","instructions","","","","","","","","","","",""
"learning-instructions","69","404509","0.0-9.0-1.0-0.9","5884","1","9","Male","approach_avoid_spark_v1","""event"",""trial"",""time""
""blur"",""1"",""14095""
""focus"",""1"",""16418""
""fullscreenenter"",""1"",""24491""
","""event"",""trial"",""time""
""blur"",""1"",""14095""
","""event"",""trial"",""time""
""focus"",""1"",""16418""
","""event"",""trial"",""time""
""fullscreenenter"",""1"",""24491""
","
","","","","","","658.6999999880791","<p> Here is what you might see if you did not feed the farm animal but the animal was hungry: </p><p style=""color:grey; font-size:50px; display: inline-block; border-spacing: 15px; border-width:3px; border-style:solid; border-color:red"">  &nbsp; 6 &nbsp; </p><p> Remember, in this case, you would not win or lose ANY points because you did not feed the farm animal.  </p>","","0","instructions","","","","","","","","","","",""
"learning-instructions","70","412461","0.0-9.0-1.0-0.10","5884","1","9","Male","approach_avoid_spark_v1","""event"",""trial"",""time""
""blur"",""1"",""14095""
""focus"",""1"",""16418""
""fullscreenenter"",""1"",""24491""
","""event"",""trial"",""time""
""blur"",""1"",""14095""
","""event"",""trial"",""time""
""focus"",""1"",""16418""
","""event"",""trial"",""time""
""fullscreenenter"",""1"",""24491""
","
","","","","","","430.69999998807907","<p> Try to make the best choice for each farm animal because </p><p> at the end of the game, you will earn bonus money based on how many points you earned. </p>","","0","instructions","","","","","","","","","","",""
"learning-instructions","71","420941","0.0-9.0-1.0-0.11","5884","1","9","Male","approach_avoid_spark_v1","""event"",""trial"",""time""
""blur"",""1"",""14095""
""focus"",""1"",""16418""
""fullscreenenter"",""1"",""24491""
","""event"",""trial"",""time""
""blur"",""1"",""14095""
","""event"",""trial"",""time""
""focus"",""1"",""16418""
","""event"",""trial"",""time""
""fullscreenenter"",""1"",""24491""
","
","","","","","","280.40000000596046","<p> You will have 3 seconds to make each choice. Try to respond before time runs out! </p><p> You will lose 5 points each time you do not make a response. </p>","","0","instructions","","","","","","","","","","",""
"html-keyboard-response","72","421568","0.0-9.0-2.0-0.0","5884","1","9","Male","approach_avoid_spark_v1","""event"",""trial"",""time""
""blur"",""1"",""14095""
""focus"",""1"",""16418""
""fullscreenenter"",""1"",""24491""
","""event"",""trial"",""time""
""blur"",""1"",""14095""
","""event"",""trial"",""time""
""focus"",""1"",""16418""
","""event"",""trial"",""time""
""fullscreenenter"",""1"",""24491""
","
","","","","","","null","<div style=""font-size:60px;"">+</div>","null","","fixation","","","","","","","","","","",""
"aa-learning-trial","73","424589","0.0-9.0-2.0-1.0","5884","1","9","Male","approach_avoid_spark_v1","""event"",""trial"",""time""
""blur"",""1"",""14095""
""focus"",""1"",""16418""
""fullscreenenter"",""1"",""24491""
","""event"",""trial"",""time""
""blur"",""1"",""14095""
","""event"",""trial"",""time""
""focus"",""1"",""16418""
","""event"",""trial"",""time""
""fullscreenenter"",""1"",""24491""
","
","","","","","","1911.8999999910593","images/cow3.png","","","learning","[-1]","-1","1","1","cow","animals","1","0","","neutral","0"
"html-keyboard-response","74","425098","0.0-9.0-2.0-0.1","5884","1","9","Male","approach_avoid_spark_v1","""event"",""trial"",""time""
""blur"",""1"",""14095""
""focus"",""1"",""16418""
""fullscreenenter"",""1"",""24491""
","""event"",""trial"",""time""
""blur"",""1"",""14095""
","""event"",""trial"",""time""
""focus"",""1"",""16418""
","""event"",""trial"",""time""
""fullscreenenter"",""1"",""24491""
","
","","","","","","null","<div style=""font-size:60px;"">+</div>","null","","fixation","","","","","","","","","","",""
"aa-learning-trial","75","428109","0.0-9.0-2.0-1.1","5884","1","9","Male","approach_avoid_spark_v1","""event"",""trial"",""time""
""blur"",""1"",""14095""
""focus"",""1"",""16418""
""fullscreenenter"",""1"",""24491""
","""event"",""trial"",""time""
""blur"",""1"",""14095""
","""event"",""trial"",""time""
""focus"",""1"",""16418""
","""event"",""trial"",""time""
""fullscreenenter"",""1"",""24491""
","
","","","","","","869.2999999970198","images/goat8.png","","","learning","4","4","1","1","goat","animals","1","0","","good","[3]"
"html-keyboard-response","76","428628","0.0-9.0-2.0-0.2","5884","1","9","Male","approach_avoid_spark_v1","""event"",""trial"",""time""
""blur"",""1"",""14095""
""focus"",""1"",""16418""
""fullscreenenter"",""1"",""24491""
","""event"",""trial"",""time""
""blur"",""1"",""14095""
","""event"",""trial"",""time""
""focus"",""1"",""16418""
","""event"",""trial"",""time""
""fullscreenenter"",""1"",""24491""
","
","","","","","","null","<div style=""font-size:60px;"">+</div>","null","","fixation","","","","","","","","","","",""
"aa-learning-trial","77","431639","0.0-9.0-2.0-1.2","5884","1","9","Male","approach_avoid_spark_v1","""event"",""trial"",""time""
""blur"",""1"",""14095""
""focus"",""1"",""16418""
""fullscreenenter"",""1"",""24491""
","""event"",""trial"",""time""
""blur"",""1"",""14095""
","""event"",""trial"",""time""
""focus"",""1"",""16418""
","""event"",""trial"",""time""
""fullscreenenter"",""1"",""24491""
","
","","","","","","556.5","images/goat1.png","","","learning","3","0","0","0","goat","animals","1","0","","good","[3]"
"html-keyboard-response","78","432158","0.0-9.0-2.0-0.3","5884","1","9","Male","approach_avoid_spark_v1","""event"",""trial"",""time""
""blur"",""1"",""14095""
""focus"",""1"",""16418""
""fullscreenenter"",""1"",""24491""
","""event"",""trial"",""time""
""blur"",""1"",""14095""
","""event"",""trial"",""time""
""focus"",""1"",""16418""
","""event"",""trial"",""time""
""fullscreenenter"",""1"",""24491""
","
","","","","","","null","<div style=""font-size:60px;"">+</div>","null","","fixation","","","","","","","","","","",""
"aa-learning-trial","79","435169","0.0-9.0-2.0-1.3","5884","1","9","Male","approach_avoid_spark_v1","""event"",""trial"",""time""
""blur"",""1"",""14095""
""focus"",""1"",""16418""
""fullscreenenter"",""1"",""24491""
","""event"",""trial"",""time""
""blur"",""1"",""14095""
","""event"",""trial"",""time""
""focus"",""1"",""16418""
","""event"",""trial"",""time""
""fullscreenenter"",""1"",""24491""
","
","","","","","","401.69999998807907","images/goat3.png","","","learning","2","0","0","0","goat","animals","1","0","","good","[3]"
"html-keyboard-response","80","435688","0.0-9.0-2.0-0.4","5884","1","9","Male","approach_avoid_spark_v1","""event"",""trial"",""time""
""blur"",""1"",""14095""
""focus"",""1"",""16418""
""fullscreenenter"",""1"",""24491""
","""event"",""trial"",""time""
""blur"",""1"",""14095""
","""event"",""trial"",""time""
""focus"",""1"",""16418""
","""event"",""trial"",""time""
""fullscreenenter"",""1"",""24491""
","
","","","","","","null","<div style=""font-size:60px;"">+</div>","null","","fixation","","","","","","","","","","",""
"aa-learning-trial","81","438718","0.0-9.0-2.0-1.4","5884","1","9","Male","approach_avoid_spark_v1","""event"",""trial"",""time""
""blur"",""1"",""14095""
""focus"",""1"",""16418""
""fullscreenenter"",""1"",""24491""
","""event"",""trial"",""time""
""blur"",""1"",""14095""
","""event"",""trial"",""time""
""focus"",""1"",""16418""
","""event"",""trial"",""time""
""fullscreenenter"",""1"",""24491""
","
","","","","","","416.29999999701977","images/horse3.png","","","learning","-4","-4","1","1","horse","animals","1","0","","bad","[-4]"
"html-keyboard-response","82","439237","0.0-9.0-2.0-0.5","5884","1","9","Male","approach_avoid_spark_v1","""event"",""trial"",""time""
""blur"",""1"",""14095""
""focus"",""1"",""16418""
""fullscreenenter"",""1"",""24491""
","""event"",""trial"",""time""
""blur"",""1"",""14095""
","""event"",""trial"",""time""
""focus"",""1"",""16418""
","""event"",""trial"",""time""
""fullscreenenter"",""1"",""24491""
","
","","","","","","null","<div style=""font-size:60px;"">+</div>","null","","fixation","","","","","","","","","","",""
"aa-learning-trial","83","442248","0.0-9.0-2.0-1.5","5884","1","9","Male","approach_avoid_spark_v1","""event"",""trial"",""time""
""blur"",""1"",""14095""
""focus"",""1"",""16418""
""fullscreenenter"",""1"",""24491""
","""event"",""trial"",""time""
""blur"",""1"",""14095""
","""event"",""trial"",""time""
""focus"",""1"",""16418""
","""event"",""trial"",""time""
""fullscreenenter"",""1"",""24491""
","
","","","","","","754.1000000089407","images/cow8.png","","","learning","1","1","1","1","cow","animals","1","0","","neutral","0"
"html-keyboard-response","84","442768","0.0-9.0-2.0-0.6","5884","1","9","Male","approach_avoid_spark_v1","""event"",""trial"",""time""
""blur"",""1"",""14095""
""focus"",""1"",""16418""
""fullscreenenter"",""1"",""24491""
","""event"",""trial"",""time""
""blur"",""1"",""14095""
","""event"",""trial"",""time""
""focus"",""1"",""16418""
","""event"",""trial"",""time""
""fullscreenenter"",""1"",""24491""
","
","","","","","","null","<div style=""font-size:60px;"">+</div>","null","","fixation","","","","","","","","","","",""
"aa-learning-trial","85","445798","0.0-9.0-2.0-1.6","5884","1","9","Male","approach_avoid_spark_v1","""event"",""trial"",""time""
""blur"",""1"",""14095""
""focus"",""1"",""16418""
""fullscreenenter"",""1"",""24491""
","""event"",""trial"",""time""
""blur"",""1"",""14095""
","""event"",""trial"",""time""
""focus"",""1"",""16418""
","""event"",""trial"",""time""
""fullscreenenter"",""1"",""24491""
","
","","","","","","352.1000000089407","images/horse8.png","","","learning","-2","-2","1","1","horse","animals","1","0","","bad","[-4]"
"html-keyboard-response","86","446310","0.0-9.0-2.0-0.7","5884","1","9","Male","approach_avoid_spark_v1","""event"",""trial"",""time""
""blur"",""1"",""14095""
""focus"",""1"",""16418""
""fullscreenenter"",""1"",""24491""
","""event"",""trial"",""time""
""blur"",""1"",""14095""
","""event"",""trial"",""time""
""focus"",""1"",""16418""
","""event"",""trial"",""time""
""fullscreenenter"",""1"",""24491""
","
","","","","","","null","<div style=""font-size:60px;"">+</div>","null","","fixation","","","","","","","","","","",""
"aa-learning-trial","87","449328","0.0-9.0-2.0-1.7","5884","1","9","Male","approach_avoid_spark_v1","""event"",""trial"",""time""
""blur"",""1"",""14095""
""focus"",""1"",""16418""
""fullscreenenter"",""1"",""24491""
","""event"",""trial"",""time""
""blur"",""1"",""14095""
","""event"",""trial"",""time""
""focus"",""1"",""16418""
","""event"",""trial"",""time""
""fullscreenenter"",""1"",""24491""
","
","","","","","","664.6000000089407","images/cow3.png","","","learning","3","0","0","0","cow","animals","1","0","","neutral","0"
"html-keyboard-response","88","449847","0.0-9.0-2.0-0.8","5884","1","9","Male","approach_avoid_spark_v1","""event"",""trial"",""time""
""blur"",""1"",""14095""
""focus"",""1"",""16418""
""fullscreenenter"",""1"",""24491""
","""event"",""trial"",""time""
""blur"",""1"",""14095""
","""event"",""trial"",""time""
""focus"",""1"",""16418""
","""event"",""trial"",""time""
""fullscreenenter"",""1"",""24491""
","
","","","","","","null","<div style=""font-size:60px;"">+</div>","null","","fixation","","","","","","","","","","",""
"aa-learning-trial","89","452859","0.0-9.0-2.0-1.8","5884","1","9","Male","approach_avoid_spark_v1","""event"",""trial"",""time""
""blur"",""1"",""14095""
""focus"",""1"",""16418""
""fullscreenenter"",""1"",""24491""
","""event"",""trial"",""time""
""blur"",""1"",""14095""
","""event"",""trial"",""time""
""focus"",""1"",""16418""
","""event"",""trial"",""time""
""fullscreenenter"",""1"",""24491""
","
","","","","","","327.09999999403954","images/goat1.png","","","learning","3","3","1","1","goat","animals","1","0","","good","[3]"
"html-keyboard-response","90","453363","0.0-9.0-2.0-0.9","5884","1","9","Male","approach_avoid_spark_v1","""event"",""trial"",""time""
""blur"",""1"",""14095""
""focus"",""1"",""16418""
""fullscreenenter"",""1"",""24491""
","""event"",""trial"",""time""
""blur"",""1"",""14095""
","""event"",""trial"",""time""
""focus"",""1"",""16418""
","""event"",""trial"",""time""
""fullscreenenter"",""1"",""24491""
","
","","","","","","null","<div style=""font-size:60px;"">+</div>","null","","fixation","","","","","","","","","","",""
"aa-learning-trial","91","456372","0.0-9.0-2.0-1.9","5884","1","9","Male","approach_avoid_spark_v1","""event"",""trial"",""time""
""blur"",""1"",""14095""
""focus"",""1"",""16418""
""fullscreenenter"",""1"",""24491""
","""event"",""trial"",""time""
""blur"",""1"",""14095""
","""event"",""trial"",""time""
""focus"",""1"",""16418""
","""event"",""trial"",""time""
""fullscreenenter"",""1"",""24491""
","
","","","","","","397.20000000298023","images/horse8.png","","","learning","-5","0","0","0","horse","animals","1","0","","bad","[-4]"
"html-keyboard-response","92","456875","0.0-9.0-2.0-0.10","5884","1","9","Male","approach_avoid_spark_v1","""event"",""trial"",""time""
""blur"",""1"",""14095""
""focus"",""1"",""16418""
""fullscreenenter"",""1"",""24491""
","""event"",""trial"",""time""
""blur"",""1"",""14095""
","""event"",""trial"",""time""
""focus"",""1"",""16418""
","""event"",""trial"",""time""
""fullscreenenter"",""1"",""24491""
","
","","","","","","null","<div style=""font-size:60px;"">+</div>","null","","fixation","","","","","","","","","","",""
"aa-learning-trial","93","459884","0.0-9.0-2.0-1.10","5884","1","9","Male","approach_avoid_spark_v1","""event"",""trial"",""time""
""blur"",""1"",""14095""
""focus"",""1"",""16418""
""fullscreenenter"",""1"",""24491""
","""event"",""trial"",""time""
""blur"",""1"",""14095""
","""event"",""trial"",""time""
""focus"",""1"",""16418""
","""event"",""trial"",""time""
""fullscreenenter"",""1"",""24491""
","
","","","","","","316.79999999701977","images/goat8.png","","","learning","2","2","1","1","goat","animals","1","0","","good","[3]"
"html-keyboard-response","94","460387","0.0-9.0-2.0-0.11","5884","1","9","Male","approach_avoid_spark_v1","""event"",""trial"",""time""
""blur"",""1"",""14095""
""focus"",""1"",""16418""
""fullscreenenter"",""1"",""24491""
","""event"",""trial"",""time""
""blur"",""1"",""14095""
","""event"",""trial"",""time""
""focus"",""1"",""16418""
","""event"",""trial"",""time""
""fullscreenenter"",""1"",""24491""
","
","","","","","","null","<div style=""font-size:60px;"">+</div>","null","","fixation","","","","","","","","","","",""
"aa-learning-trial","95","463396","0.0-9.0-2.0-1.11","5884","1","9","Male","approach_avoid_spark_v1","""event"",""trial"",""time""
""blur"",""1"",""14095""
""focus"",""1"",""16418""
""fullscreenenter"",""1"",""24491""
","""event"",""trial"",""time""
""blur"",""1"",""14095""
","""event"",""trial"",""time""
""focus"",""1"",""16418""
","""event"",""trial"",""time""
""fullscreenenter"",""1"",""24491""
","
","","","","","","299.70000000298023","images/cow5.png","","","learning","[1]","1","1","1","cow","animals","1","0","","neutral","0"
"html-keyboard-response","96","463899","0.0-9.0-2.0-0.12","5884","1","9","Male","approach_avoid_spark_v1","""event"",""trial"",""time""
""blur"",""1"",""14095""
""focus"",""1"",""16418""
""fullscreenenter"",""1"",""24491""
","""event"",""trial"",""time""
""blur"",""1"",""14095""
","""event"",""trial"",""time""
""focus"",""1"",""16418""
","""event"",""trial"",""time""
""fullscreenenter"",""1"",""24491""
","
","","","","","","null","<div style=""font-size:60px;"">+</div>","null","","fixation","","","","","","","","","","",""
"aa-learning-trial","97","466908","0.0-9.0-2.0-1.12","5884","1","9","Male","approach_avoid_spark_v1","""event"",""trial"",""time""
""blur"",""1"",""14095""
""focus"",""1"",""16418""
""fullscreenenter"",""1"",""24491""
","""event"",""trial"",""time""
""blur"",""1"",""14095""
","""event"",""trial"",""time""
""focus"",""1"",""16418""
","""event"",""trial"",""time""
""fullscreenenter"",""1"",""24491""
","
","","","","","","500.5","images/horse4.png","","","learning","-6","0","0","0","horse","animals","1","0","","bad","[-4]"
"html-keyboard-response","98","467412","0.0-9.0-2.0-0.13","5884","1","9","Male","approach_avoid_spark_v1","""event"",""trial"",""time""
""blur"",""1"",""14095""
""focus"",""1"",""16418""
""fullscreenenter"",""1"",""24491""
","""event"",""trial"",""time""
""blur"",""1"",""14095""
","""event"",""trial"",""time""
""focus"",""1"",""16418""
","""event"",""trial"",""time""
""fullscreenenter"",""1"",""24491""
","
","","","","","","null","<div style=""font-size:60px;"">+</div>","null","","fixation","","","","","","","","","","",""
"aa-learning-trial","99","470419","0.0-9.0-2.0-1.13","5884","1","9","Male","approach_avoid_spark_v1","""event"",""trial"",""time""
""blur"",""1"",""14095""
""focus"",""1"",""16418""
""fullscreenenter"",""1"",""24491""
","""event"",""trial"",""time""
""blur"",""1"",""14095""
","""event"",""trial"",""time""
""focus"",""1"",""16418""
","""event"",""trial"",""time""
""fullscreenenter"",""1"",""24491""
","
","","","","","","275.80000001192093","images/horse4.png","","","learning","-4","-4","1","1","horse","animals","1","0","","bad","[-4]"
"html-keyboard-response","100","470932","0.0-9.0-2.0-0.14","5884","1","9","Male","approach_avoid_spark_v1","""event"",""trial"",""time""
""blur"",""1"",""14095""
""focus"",""1"",""16418""
""fullscreenenter"",""1"",""24491""
","""event"",""trial"",""time""
""blur"",""1"",""14095""
","""event"",""trial"",""time""
""focus"",""1"",""16418""
","""event"",""trial"",""time""
""fullscreenenter"",""1"",""24491""
","
","","","","","","null","<div style=""font-size:60px;"">+</div>","null","","fixation","","","","","","","","","","",""
"aa-learning-trial","101","473939","0.0-9.0-2.0-1.14","5884","1","9","Male","approach_avoid_spark_v1","""event"",""trial"",""time""
""blur"",""1"",""14095""
""focus"",""1"",""16418""
""fullscreenenter"",""1"",""24491""
","""event"",""trial"",""time""
""blur"",""1"",""14095""
","""event"",""trial"",""time""
""focus"",""1"",""16418""
","""event"",""trial"",""time""
""fullscreenenter"",""1"",""24491""
","
","","","","","","667.9000000059605","images/cow5.png","","","learning","[-1]","0","0","0","cow","animals","1","0","","neutral","0"
"html-keyboard-response","102","474443","0.0-9.0-2.0-0.15","5884","1","9","Male","approach_avoid_spark_v1","""event"",""trial"",""time""
""blur"",""1"",""14095""
""focus"",""1"",""16418""
""fullscreenenter"",""1"",""24491""
","""event"",""trial"",""time""
""blur"",""1"",""14095""
","""event"",""trial"",""time""
""focus"",""1"",""16418""
","""event"",""trial"",""time""
""fullscreenenter"",""1"",""24491""
","
","","","","","","null","<div style=""font-size:60px;"">+</div>","null","","fixation","","","","","","","","","","",""
"aa-learning-trial","103","477451","0.0-9.0-2.0-1.15","5884","1","9","Male","approach_avoid_spark_v1","""event"",""trial"",""time""
""blur"",""1"",""14095""
""focus"",""1"",""16418""
""fullscreenenter"",""1"",""24491""
","""event"",""trial"",""time""
""blur"",""1"",""14095""
","""event"",""trial"",""time""
""focus"",""1"",""16418""
","""event"",""trial"",""time""
""fullscreenenter"",""1"",""24491""
","
","","","","","","604.7000000029802","images/goat1.png","","","learning","2","2","1","1","goat","animals","1","0","","good","[3]"
"html-keyboard-response","104","477955","0.0-9.0-2.0-0.16","5884","1","9","Male","approach_avoid_spark_v1","""event"",""trial"",""time""
""blur"",""1"",""14095""
""focus"",""1"",""16418""
""fullscreenenter"",""1"",""24491""
","""event"",""trial"",""time""
""blur"",""1"",""14095""
","""event"",""trial"",""time""
""focus"",""1"",""16418""
","""event"",""trial"",""time""
""fullscreenenter"",""1"",""24491""
","
","","","","","","null","<div style=""font-size:60px;"">+</div>","null","","fixation","","","","","","","","","","",""
"aa-learning-trial","105","480963","0.0-9.0-2.0-1.16","5884","1","9","Male","approach_avoid_spark_v1","""event"",""trial"",""time""
""blur"",""1"",""14095""
""focus"",""1"",""16418""
""fullscreenenter"",""1"",""24491""
","""event"",""trial"",""time""
""blur"",""1"",""14095""
","""event"",""trial"",""time""
""focus"",""1"",""16418""
","""event"",""trial"",""time""
""fullscreenenter"",""1"",""24491""
","
","","","","","","822","images/horse4.png","","","learning","-2","0","0","0","horse","animals","1","0","","bad","[-4]"
"html-keyboard-response","106","481467","0.0-9.0-2.0-0.17","5884","1","9","Male","approach_avoid_spark_v1","""event"",""trial"",""time""
""blur"",""1"",""14095""
""focus"",""1"",""16418""
""fullscreenenter"",""1"",""24491""
","""event"",""trial"",""time""
""blur"",""1"",""14095""
","""event"",""trial"",""time""
""focus"",""1"",""16418""
","""event"",""trial"",""time""
""fullscreenenter"",""1"",""24491""
","
","","","","","","null","<div style=""font-size:60px;"">+</div>","null","","fixation","","","","","","","","","","",""
"aa-learning-trial","107","484475","0.0-9.0-2.0-1.17","5884","1","9","Male","approach_avoid_spark_v1","""event"",""trial"",""time""
""blur"",""1"",""14095""
""focus"",""1"",""16418""
""fullscreenenter"",""1"",""24491""
","""event"",""trial"",""time""
""blur"",""1"",""14095""
","""event"",""trial"",""time""
""focus"",""1"",""16418""
","""event"",""trial"",""time""
""fullscreenenter"",""1"",""24491""
","
","","","","","","829.2000000029802","images/cow3.png","","","learning","-1","0","0","0","cow","animals","1","0","","neutral","0"
"html-keyboard-response","108","484979","0.0-9.0-2.0-0.18","5884","1","9","Male","approach_avoid_spark_v1","""event"",""trial"",""time""
""blur"",""1"",""14095""
""focus"",""1"",""16418""
""fullscreenenter"",""1"",""24491""
","""event"",""trial"",""time""
""blur"",""1"",""14095""
","""event"",""trial"",""time""
""focus"",""1"",""16418""
","""event"",""trial"",""time""
""fullscreenenter"",""1"",""24491""
","
","","","","","","null","<div style=""font-size:60px;"">+</div>","null","","fixation","","","","","","","","","","",""
"aa-learning-trial","109","487987","0.0-9.0-2.0-1.18","5884","1","9","Male","approach_avoid_spark_v1","""event"",""trial"",""time""
""blur"",""1"",""14095""
""focus"",""1"",""16418""
""fullscreenenter"",""1"",""24491""
","""event"",""trial"",""time""
""blur"",""1"",""14095""
","""event"",""trial"",""time""
""focus"",""1"",""16418""
","""event"",""trial"",""time""
""fullscreenenter"",""1"",""24491""
","
","","","","","","701.0999999940395","images/cow3.png","","","learning","1","0","0","0","cow","animals","1","0","","neutral","0"
"html-keyboard-response","110","488491","0.0-9.0-2.0-0.19","5884","1","9","Male","approach_avoid_spark_v1","""event"",""trial"",""time""
""blur"",""1"",""14095""
""focus"",""1"",""16418""
""fullscreenenter"",""1"",""24491""
","""event"",""trial"",""time""
""blur"",""1"",""14095""
","""event"",""trial"",""time""
""focus"",""1"",""16418""
","""event"",""trial"",""time""
""fullscreenenter"",""1"",""24491""
","
","","","","","","null","<div style=""font-size:60px;"">+</div>","null","","fixation","","","","","","","","","","",""
"aa-learning-trial","111","491500","0.0-9.0-2.0-1.19","5884","1","9","Male","approach_avoid_spark_v1","""event"",""trial"",""time""
""blur"",""1"",""14095""
""focus"",""1"",""16418""
""fullscreenenter"",""1"",""24491""
","""event"",""trial"",""time""
""blur"",""1"",""14095""
","""event"",""trial"",""time""
""focus"",""1"",""16418""
","""event"",""trial"",""time""
""fullscreenenter"",""1"",""24491""
","
","","","","","","732.7000000029802","images/horse5.png","","","learning","-3","-3","1","1","horse","animals","1","0","","bad","[-4]"
"html-keyboard-response","112","492003","0.0-9.0-2.0-0.20","5884","1","9","Male","approach_avoid_spark_v1","""event"",""trial"",""time""
""blur"",""1"",""14095""
""focus"",""1"",""16418""
""fullscreenenter"",""1"",""24491""
","""event"",""trial"",""time""
""blur"",""1"",""14095""
","""event"",""trial"",""time""
""focus"",""1"",""16418""
","""event"",""trial"",""time""
""fullscreenenter"",""1"",""24491""
","
","","","","","","null","<div style=""font-size:60px;"">+</div>","null","","fixation","","","","","","","","","","",""
"aa-learning-trial","113","495011","0.0-9.0-2.0-1.20","5884","1","9","Male","approach_avoid_spark_v1","""event"",""trial"",""time""
""blur"",""1"",""14095""
""focus"",""1"",""16418""
""fullscreenenter"",""1"",""24491""
","""event"",""trial"",""time""
""blur"",""1"",""14095""
","""event"",""trial"",""time""
""focus"",""1"",""16418""
","""event"",""trial"",""time""
""fullscreenenter"",""1"",""24491""
","
","","","","","","765.0999999940395","images/cow1.png","","","learning","1","1","1","1","cow","animals","1","0","","neutral","0"
"html-keyboard-response","114","495516","0.0-9.0-2.0-0.21","5884","1","9","Male","approach_avoid_spark_v1","""event"",""trial"",""time""
""blur"",""1"",""14095""
""focus"",""1"",""16418""
""fullscreenenter"",""1"",""24491""
","""event"",""trial"",""time""
""blur"",""1"",""14095""
","""event"",""trial"",""time""
""focus"",""1"",""16418""
","""event"",""trial"",""time""
""fullscreenenter"",""1"",""24491""
","
","","","","","","null","<div style=""font-size:60px;"">+</div>","null","","fixation","","","","","","","","","","",""
"aa-learning-trial","115","498524","0.0-9.0-2.0-1.21","5884","1","9","Male","approach_avoid_spark_v1","""event"",""trial"",""time""
""blur"",""1"",""14095""
""focus"",""1"",""16418""
""fullscreenenter"",""1"",""24491""
","""event"",""trial"",""time""
""blur"",""1"",""14095""
","""event"",""trial"",""time""
""focus"",""1"",""16418""
","""event"",""trial"",""time""
""fullscreenenter"",""1"",""24491""
","
","","","","","","389.69999998807907","images/cow3.png","","","learning","-1","0","0","0","cow","animals","1","0","","neutral","0"
"html-keyboard-response","116","499028","0.0-9.0-2.0-0.22","5884","1","9","Male","approach_avoid_spark_v1","""event"",""trial"",""time""
""blur"",""1"",""14095""
""focus"",""1"",""16418""
""fullscreenenter"",""1"",""24491""
","""event"",""trial"",""time""
""blur"",""1"",""14095""
","""event"",""trial"",""time""
""focus"",""1"",""16418""
","""event"",""trial"",""time""
""fullscreenenter"",""1"",""24491""
","
","","","","","","null","<div style=""font-size:60px;"">+</div>","null","","fixation","","","","","","","","","","",""
"aa-learning-trial","117","502035","0.0-9.0-2.0-1.22","5884","1","9","Male","approach_avoid_spark_v1","""event"",""trial"",""time""
""blur"",""1"",""14095""
""focus"",""1"",""16418""
""fullscreenenter"",""1"",""24491""
","""event"",""trial"",""time""
""blur"",""1"",""14095""
","""event"",""trial"",""time""
""focus"",""1"",""16418""
","""event"",""trial"",""time""
""fullscreenenter"",""1"",""24491""
","
","","","","","","308.3999999910593","images/horse6.png","","","learning","-3","-3","1","1","horse","animals","1","0","","bad","[-4]"
"html-keyboard-response","118","502541","0.0-9.0-2.0-0.23","5884","1","9","Male","approach_avoid_spark_v1","""event"",""trial"",""time""
""blur"",""1"",""14095""
""focus"",""1"",""16418""
""fullscreenenter"",""1"",""24491""
","""event"",""trial"",""time""
""blur"",""1"",""14095""
","""event"",""trial"",""time""
""focus"",""1"",""16418""
","""event"",""trial"",""time""
""fullscreenenter"",""1"",""24491""
","
","","","","","","null","<div style=""font-size:60px;"">+</div>","null","","fixation","","","","","","","","","","",""
"aa-learning-trial","119","505548","0.0-9.0-2.0-1.23","5884","1","9","Male","approach_avoid_spark_v1","""event"",""trial"",""time""
""blur"",""1"",""14095""
""focus"",""1"",""16418""
""fullscreenenter"",""1"",""24491""
","""event"",""trial"",""time""
""blur"",""1"",""14095""
","""event"",""trial"",""time""
""focus"",""1"",""16418""
","""event"",""trial"",""time""
""fullscreenenter"",""1"",""24491""
","
","","","","","","547.0999999940395","images/horse8.png","","","learning","-3","0","0","0","horse","animals","1","0","","bad","[-4]"
"html-keyboard-response","120","506051","0.0-9.0-2.0-0.24","5884","1","9","Male","approach_avoid_spark_v1","""event"",""trial"",""time""
""blur"",""1"",""14095""
""focus"",""1"",""16418""
""fullscreenenter"",""1"",""24491""
","""event"",""trial"",""time""
""blur"",""1"",""14095""
","""event"",""trial"",""time""
""focus"",""1"",""16418""
","""event"",""trial"",""time""
""fullscreenenter"",""1"",""24491""
","
","","","","","","null","<div style=""font-size:60px;"">+</div>","null","","fixation","","","","","","","","","","",""
"aa-learning-trial","121","509060","0.0-9.0-2.0-1.24","5884","1","9","Male","approach_avoid_spark_v1","""event"",""trial"",""time""
""blur"",""1"",""14095""
""focus"",""1"",""16418""
""fullscreenenter"",""1"",""24491""
","""event"",""trial"",""time""
""blur"",""1"",""14095""
","""event"",""trial"",""time""
""focus"",""1"",""16418""
","""event"",""trial"",""time""
""fullscreenenter"",""1"",""24491""
","
","","","","","","933.1000000089407","images/goat8.png","","","learning","2","2","1","1","goat","animals","1","0","","good","[3]"
"html-keyboard-response","122","509564","0.0-9.0-2.0-0.25","5884","1","9","Male","approach_avoid_spark_v1","""event"",""trial"",""time""
""blur"",""1"",""14095""
""focus"",""1"",""16418""
""fullscreenenter"",""1"",""24491""
","""event"",""trial"",""time""
""blur"",""1"",""14095""
","""event"",""trial"",""time""
""focus"",""1"",""16418""
","""event"",""trial"",""time""
""fullscreenenter"",""1"",""24491""
","
","","","","","","null","<div style=""font-size:60px;"">+</div>","null","","fixation","","","","","","","","","","",""
"aa-learning-trial","123","512571","0.0-9.0-2.0-1.25","5884","1","9","Male","approach_avoid_spark_v1","""event"",""trial"",""time""
""blur"",""1"",""14095""
""focus"",""1"",""16418""
""fullscreenenter"",""1"",""24491""
","""event"",""trial"",""time""
""blur"",""1"",""14095""
","""event"",""trial"",""time""
""focus"",""1"",""16418""
","""event"",""trial"",""time""
""fullscreenenter"",""1"",""24491""
","
","","","","","","925.5999999940395","images/goat1.png","","","learning","1","1","1","1","goat","animals","1","0","","good","[3]"
"html-keyboard-response","124","513075","0.0-9.0-2.0-0.26","5884","1","9","Male","approach_avoid_spark_v1","""event"",""trial"",""time""
""blur"",""1"",""14095""
""focus"",""1"",""16418""
""fullscreenenter"",""1"",""24491""
","""event"",""trial"",""time""
""blur"",""1"",""14095""
","""event"",""trial"",""time""
""focus"",""1"",""16418""
","""event"",""trial"",""time""
""fullscreenenter"",""1"",""24491""
","
","","","","","","null","<div style=""font-size:60px;"">+</div>","null","","fixation","","","","","","","","","","",""
"aa-learning-trial","125","516083","0.0-9.0-2.0-1.26","5884","1","9","Male","approach_avoid_spark_v1","""event"",""trial"",""time""
""blur"",""1"",""14095""
""focus"",""1"",""16418""
""fullscreenenter"",""1"",""24491""
","""event"",""trial"",""time""
""blur"",""1"",""14095""
","""event"",""trial"",""time""
""focus"",""1"",""16418""
","""event"",""trial"",""time""
""fullscreenenter"",""1"",""24491""
","
","","","","","","876.9000000059605","images/horse8.png","","","learning","-6","0","0","0","horse","animals","1","0","","bad","[-4]"
"html-keyboard-response","126","516587","0.0-9.0-2.0-0.27","5884","1","9","Male","approach_avoid_spark_v1","""event"",""trial"",""time""
""blur"",""1"",""14095""
""focus"",""1"",""16418""
""fullscreenenter"",""1"",""24491""
","""event"",""trial"",""time""
""blur"",""1"",""14095""
","""event"",""trial"",""time""
""focus"",""1"",""16418""
","""event"",""trial"",""time""
""fullscreenenter"",""1"",""24491""
","
","","","","","","null","<div style=""font-size:60px;"">+</div>","null","","fixation","","","","","","","","","","",""
"aa-learning-trial","127","519596","0.0-9.0-2.0-1.27","5884","1","9","Male","approach_avoid_spark_v1","""event"",""trial"",""time""
""blur"",""1"",""14095""
""focus"",""1"",""16418""
""fullscreenenter"",""1"",""24491""
","""event"",""trial"",""time""
""blur"",""1"",""14095""
","""event"",""trial"",""time""
""focus"",""1"",""16418""
","""event"",""trial"",""time""
""fullscreenenter"",""1"",""24491""
","
","","","","","","828.7000000029802","images/goat1.png","","","learning","2","2","1","1","goat","animals","1","0","","good","[3]"
"html-keyboard-response","128","520099","0.0-9.0-2.0-0.28","5884","1","9","Male","approach_avoid_spark_v1","""event"",""trial"",""time""
""blur"",""1"",""14095""
""focus"",""1"",""16418""
""fullscreenenter"",""1"",""24491""
","""event"",""trial"",""time""
""blur"",""1"",""14095""
","""event"",""trial"",""time""
""focus"",""1"",""16418""
","""event"",""trial"",""time""
""fullscreenenter"",""1"",""24491""
","
","","","","","","null","<div style=""font-size:60px;"">+</div>","null","","fixation","","","","","","","","","","",""
"aa-learning-trial","129","523108","0.0-9.0-2.0-1.28","5884","1","9","Male","approach_avoid_spark_v1","""event"",""trial"",""time""
""blur"",""1"",""14095""
""focus"",""1"",""16418""
""fullscreenenter"",""1"",""24491""
","""event"",""trial"",""time""
""blur"",""1"",""14095""
","""event"",""trial"",""time""
""focus"",""1"",""16418""
","""event"",""trial"",""time""
""fullscreenenter"",""1"",""24491""
","
","","","","","","813.2999999970198","images/horse4.png","","","learning","-5","0","0","0","horse","animals","1","0","","bad","[-4]"
"html-keyboard-response","130","523611","0.0-9.0-2.0-0.29","5884","1","9","Male","approach_avoid_spark_v1","""event"",""trial"",""time""
""blur"",""1"",""14095""
""focus"",""1"",""16418""
""fullscreenenter"",""1"",""24491""
","""event"",""trial"",""time""
""blur"",""1"",""14095""
","""event"",""trial"",""time""
""focus"",""1"",""16418""
","""event"",""trial"",""time""
""fullscreenenter"",""1"",""24491""
","
","","","","","","null","<div style=""font-size:60px;"">+</div>","null","","fixation","","","","","","","","","","",""
"aa-learning-trial","131","526620","0.0-9.0-2.0-1.29","5884","1","9","Male","approach_avoid_spark_v1","""event"",""trial"",""time""
""blur"",""1"",""14095""
""focus"",""1"",""16418""
""fullscreenenter"",""1"",""24491""
","""event"",""trial"",""time""
""blur"",""1"",""14095""
","""event"",""trial"",""time""
""focus"",""1"",""16418""
","""event"",""trial"",""time""
""fullscreenenter"",""1"",""24491""
","
","","","","","","613.6000000089407","images/horse3.png","","","learning","-2","0","0","0","horse","animals","1","0","","bad","[-4]"
"html-keyboard-response","132","527123","0.0-9.0-2.0-0.30","5884","1","9","Male","approach_avoid_spark_v1","""event"",""trial"",""time""
""blur"",""1"",""14095""
""focus"",""1"",""16418""
""fullscreenenter"",""1"",""24491""
","""event"",""trial"",""time""
""blur"",""1"",""14095""
","""event"",""trial"",""time""
""focus"",""1"",""16418""
","""event"",""trial"",""time""
""fullscreenenter"",""1"",""24491""
","
","","","","","","null","<div style=""font-size:60px;"">+</div>","null","","fixation","","","","","","","","","","",""
"aa-learning-trial","133","530132","0.0-9.0-2.0-1.30","5884","1","9","Male","approach_avoid_spark_v1","""event"",""trial"",""time""
""blur"",""1"",""14095""
""focus"",""1"",""16418""
""fullscreenenter"",""1"",""24491""
","""event"",""trial"",""time""
""blur"",""1"",""14095""
","""event"",""trial"",""time""
""focus"",""1"",""16418""
","""event"",""trial"",""time""
""fullscreenenter"",""1"",""24491""
","
","","","","","","517.2999999970198","images/goat8.png","","","learning","4","4","1","1","goat","animals","1","0","","good","[3]"
"html-keyboard-response","134","530635","0.0-9.0-2.0-0.31","5884","1","9","Male","approach_avoid_spark_v1","""event"",""trial"",""time""
""blur"",""1"",""14095""
""focus"",""1"",""16418""
""fullscreenenter"",""1"",""24491""
","""event"",""trial"",""time""
""blur"",""1"",""14095""
","""event"",""trial"",""time""
""focus"",""1"",""16418""
","""event"",""trial"",""time""
""fullscreenenter"",""1"",""24491""
","
","","","","","","null","<div style=""font-size:60px;"">+</div>","null","","fixation","","","","","","","","","","",""
"aa-learning-trial","135","533652","0.0-9.0-2.0-1.31","5884","1","9","Male","approach_avoid_spark_v1","""event"",""trial"",""time""
""blur"",""1"",""14095""
""focus"",""1"",""16418""
""fullscreenenter"",""1"",""24491""
","""event"",""trial"",""time""
""blur"",""1"",""14095""
","""event"",""trial"",""time""
""focus"",""1"",""16418""
","""event"",""trial"",""time""
""fullscreenenter"",""1"",""24491""
","
","","","","","","700.5","images/goat3.png","","","learning","1","1","1","1","goat","animals","1","0","","good","[3]"
"html-keyboard-response","136","534155","0.0-9.0-2.0-0.32","5884","1","9","Male","approach_avoid_spark_v1","""event"",""trial"",""time""
""blur"",""1"",""14095""
""focus"",""1"",""16418""
""fullscreenenter"",""1"",""24491""
","""event"",""trial"",""time""
""blur"",""1"",""14095""
","""event"",""trial"",""time""
""focus"",""1"",""16418""
","""event"",""trial"",""time""
""fullscreenenter"",""1"",""24491""
","
","","","","","","null","<div style=""font-size:60px;"">+</div>","null","","fixation","","","","","","","","","","",""
"aa-learning-trial","137","537164","0.0-9.0-2.0-1.32","5884","1","9","Male","approach_avoid_spark_v1","""event"",""trial"",""time""
""blur"",""1"",""14095""
""focus"",""1"",""16418""
""fullscreenenter"",""1"",""24491""
","""event"",""trial"",""time""
""blur"",""1"",""14095""
","""event"",""trial"",""time""
""focus"",""1"",""16418""
","""event"",""trial"",""time""
""fullscreenenter"",""1"",""24491""
","
","","","","","","612.6000000089407","images/horse4.png","","","learning","-2","0","0","0","horse","animals","1","0","","bad","[-4]"
"html-keyboard-response","138","537667","0.0-9.0-2.0-0.33","5884","1","9","Male","approach_avoid_spark_v1","""event"",""trial"",""time""
""blur"",""1"",""14095""
""focus"",""1"",""16418""
""fullscreenenter"",""1"",""24491""
","""event"",""trial"",""time""
""blur"",""1"",""14095""
","""event"",""trial"",""time""
""focus"",""1"",""16418""
","""event"",""trial"",""time""
""fullscreenenter"",""1"",""24491""
","
","","","","","","null","<div style=""font-size:60px;"">+</div>","null","","fixation","","","","","","","","","","",""
"aa-learning-trial","139","540676","0.0-9.0-2.0-1.33","5884","1","9","Male","approach_avoid_spark_v1","""event"",""trial"",""time""
""blur"",""1"",""14095""
""focus"",""1"",""16418""
""fullscreenenter"",""1"",""24491""
","""event"",""trial"",""time""
""blur"",""1"",""14095""
","""event"",""trial"",""time""
""focus"",""1"",""16418""
","""event"",""trial"",""time""
""fullscreenenter"",""1"",""24491""
","
","","","","","","982.1999999880791","images/cow4.png","","","learning","[-1]","0","0","0","cow","animals","1","0","","neutral","0"
"html-keyboard-response","140","541181","0.0-9.0-2.0-0.34","5884","1","9","Male","approach_avoid_spark_v1","""event"",""trial"",""time""
""blur"",""1"",""14095""
""focus"",""1"",""16418""
""fullscreenenter"",""1"",""24491""
","""event"",""trial"",""time""
""blur"",""1"",""14095""
","""event"",""trial"",""time""
""focus"",""1"",""16418""
","""event"",""trial"",""time""
""fullscreenenter"",""1"",""24491""
","
","","","","","","null","<div style=""font-size:60px;"">+</div>","null","","fixation","","","","","","","","","","",""
"aa-learning-trial","141","544187","0.0-9.0-2.0-1.34","5884","1","9","Male","approach_avoid_spark_v1","""event"",""trial"",""time""
""blur"",""1"",""14095""
""focus"",""1"",""16418""
""fullscreenenter"",""1"",""24491""
","""event"",""trial"",""time""
""blur"",""1"",""14095""
","""event"",""trial"",""time""
""focus"",""1"",""16418""
","""event"",""trial"",""time""
""fullscreenenter"",""1"",""24491""
","
","","","","","","851","images/horse4.png","","","learning","-6","0","0","0","horse","animals","1","0","","bad","[-4]"
"html-keyboard-response","142","544692","0.0-9.0-2.0-0.35","5884","1","9","Male","approach_avoid_spark_v1","""event"",""trial"",""time""
""blur"",""1"",""14095""
""focus"",""1"",""16418""
""fullscreenenter"",""1"",""24491""
","""event"",""trial"",""time""
""blur"",""1"",""14095""
","""event"",""trial"",""time""
""focus"",""1"",""16418""
","""event"",""trial"",""time""
""fullscreenenter"",""1"",""24491""
","
","","","","","","null","<div style=""font-size:60px;"">+</div>","null","","fixation","","","","","","","","","","",""
"aa-learning-trial","143","547699","0.0-9.0-2.0-1.35","5884","1","9","Male","approach_avoid_spark_v1","""event"",""trial"",""time""
""blur"",""1"",""14095""
""focus"",""1"",""16418""
""fullscreenenter"",""1"",""24491""
","""event"",""trial"",""time""
""blur"",""1"",""14095""
","""event"",""trial"",""time""
""focus"",""1"",""16418""
","""event"",""trial"",""time""
""fullscreenenter"",""1"",""24491""
","
","","","","","","763.5999999940395","images/cow5.png","","","learning","5","0","0","0","cow","animals","1","0","","neutral","0"
"html-keyboard-response","144","548204","0.0-9.0-2.0-0.36","5884","1","9","Male","approach_avoid_spark_v1","""event"",""trial"",""time""
""blur"",""1"",""14095""
""focus"",""1"",""16418""
""fullscreenenter"",""1"",""24491""
","""event"",""trial"",""time""
""blur"",""1"",""14095""
","""event"",""trial"",""time""
""focus"",""1"",""16418""
","""event"",""trial"",""time""
""fullscreenenter"",""1"",""24491""
","
","","","","","","null","<div style=""font-size:60px;"">+</div>","null","","fixation","","","","","","","","","","",""
"aa-learning-trial","145","551212","0.0-9.0-2.0-1.36","5884","1","9","Male","approach_avoid_spark_v1","""event"",""trial"",""time""
""blur"",""1"",""14095""
""focus"",""1"",""16418""
""fullscreenenter"",""1"",""24491""
","""event"",""trial"",""time""
""blur"",""1"",""14095""
","""event"",""trial"",""time""
""focus"",""1"",""16418""
","""event"",""trial"",""time""
""fullscreenenter"",""1"",""24491""
","
","","","","","","588.3999999910593","images/goat3.png","","","learning","2","2","1","1","goat","animals","1","0","","good","[3]"
"html-keyboard-response","146","551716","0.0-9.0-2.0-0.37","5884","1","9","Male","approach_avoid_spark_v1","""event"",""trial"",""time""
""blur"",""1"",""14095""
""focus"",""1"",""16418""
""fullscreenenter"",""1"",""24491""
","""event"",""trial"",""time""
""blur"",""1"",""14095""
","""event"",""trial"",""time""
""focus"",""1"",""16418""
","""event"",""trial"",""time""
""fullscreenenter"",""1"",""24491""
","
","","","","","","null","<div style=""font-size:60px;"">+</div>","null","","fixation","","","","","","","","","","",""
"aa-learning-trial","147","554724","0.0-9.0-2.0-1.37","5884","1","9","Male","approach_avoid_spark_v1","""event"",""trial"",""time""
""blur"",""1"",""14095""
""focus"",""1"",""16418""
""fullscreenenter"",""1"",""24491""
","""event"",""trial"",""time""
""blur"",""1"",""14095""
","""event"",""trial"",""time""
""focus"",""1"",""16418""
","""event"",""trial"",""time""
""fullscreenenter"",""1"",""24491""
","
","","","","","","718.4000000059605","images/horse8.png","","","learning","-2","0","0","0","horse","animals","1","0","","bad","[-4]"
"html-keyboard-response","148","555227","0.0-9.0-2.0-0.38","5884","1","9","Male","approach_avoid_spark_v1","""event"",""trial"",""time""
""blur"",""1"",""14095""
""focus"",""1"",""16418""
""fullscreenenter"",""1"",""24491""
","""event"",""trial"",""time""
""blur"",""1"",""14095""
","""event"",""trial"",""time""
""focus"",""1"",""16418""
","""event"",""trial"",""time""
""fullscreenenter"",""1"",""24491""
","
","","","","","","null","<div style=""font-size:60px;"">+</div>","null","","fixation","","","","","","","","","","",""
"aa-learning-trial","149","558236","0.0-9.0-2.0-1.38","5884","1","9","Male","approach_avoid_spark_v1","""event"",""trial"",""time""
""blur"",""1"",""14095""
""focus"",""1"",""16418""
""fullscreenenter"",""1"",""24491""
","""event"",""trial"",""time""
""blur"",""1"",""14095""
","""event"",""trial"",""time""
""focus"",""1"",""16418""
","""event"",""trial"",""time""
""fullscreenenter"",""1"",""24491""
","
","","","","","","901.6000000089407","images/goat5.png","","","learning","3","0","0","0","goat","animals","1","0","","good","[3]"
"html-keyboard-response","150","558739","0.0-9.0-2.0-0.39","5884","1","9","Male","approach_avoid_spark_v1","""event"",""trial"",""time""
""blur"",""1"",""14095""
""focus"",""1"",""16418""
""fullscreenenter"",""1"",""24491""
","""event"",""trial"",""time""
""blur"",""1"",""14095""
","""event"",""trial"",""time""
""focus"",""1"",""16418""
","""event"",""trial"",""time""
""fullscreenenter"",""1"",""24491""
","
","","","","","","null","<div style=""font-size:60px;"">+</div>","null","","fixation","","","","","","","","","","",""
"aa-learning-trial","151","561746","0.0-9.0-2.0-1.39","5884","1","9","Male","approach_avoid_spark_v1","""event"",""trial"",""time""
""blur"",""1"",""14095""
""focus"",""1"",""16418""
""fullscreenenter"",""1"",""24491""
","""event"",""trial"",""time""
""blur"",""1"",""14095""
","""event"",""trial"",""time""
""focus"",""1"",""16418""
","""event"",""trial"",""time""
""fullscreenenter"",""1"",""24491""
","
","","","","","","444.5","images/cow5.png","","","learning","[-1]","-1","1","1","cow","animals","1","0","","neutral","0"
"html-keyboard-response","152","562251","0.0-9.0-2.0-0.40","5884","1","9","Male","approach_avoid_spark_v1","""event"",""trial"",""time""
""blur"",""1"",""14095""
""focus"",""1"",""16418""
""fullscreenenter"",""1"",""24491""
","""event"",""trial"",""time""
""blur"",""1"",""14095""
","""event"",""trial"",""time""
""focus"",""1"",""16418""
","""event"",""trial"",""time""
""fullscreenenter"",""1"",""24491""
","
","","","","","","null","<div style=""font-size:60px;"">+</div>","null","","fixation","","","","","","","","","","",""
"aa-learning-trial","153","565260","0.0-9.0-2.0-1.40","5884","1","9","Male","approach_avoid_spark_v1","""event"",""trial"",""time""
""blur"",""1"",""14095""
""focus"",""1"",""16418""
""fullscreenenter"",""1"",""24491""
","""event"",""trial"",""time""
""blur"",""1"",""14095""
","""event"",""trial"",""time""
""focus"",""1"",""16418""
","""event"",""trial"",""time""
""fullscreenenter"",""1"",""24491""
","
","","","","","","396.70000000298023","images/horse8.png","","","learning","-3","-3","1","1","horse","animals","1","0","","bad","[-4]"
"html-keyboard-response","154","565771","0.0-9.0-2.0-0.41","5884","1","9","Male","approach_avoid_spark_v1","""event"",""trial"",""time""
""blur"",""1"",""14095""
""focus"",""1"",""16418""
""fullscreenenter"",""1"",""24491""
","""event"",""trial"",""time""
""blur"",""1"",""14095""
","""event"",""trial"",""time""
""focus"",""1"",""16418""
","""event"",""trial"",""time""
""fullscreenenter"",""1"",""24491""
","
","","","","","","null","<div style=""font-size:60px;"">+</div>","null","","fixation","","","","","","","","","","",""
"aa-learning-trial","155","568779","0.0-9.0-2.0-1.41","5884","1","9","Male","approach_avoid_spark_v1","""event"",""trial"",""time""
""blur"",""1"",""14095""
""focus"",""1"",""16418""
""fullscreenenter"",""1"",""24491""
","""event"",""trial"",""time""
""blur"",""1"",""14095""
","""event"",""trial"",""time""
""focus"",""1"",""16418""
","""event"",""trial"",""time""
""fullscreenenter"",""1"",""24491""
","
","","","","","","859.8000000119209","images/cow8.png","","","learning","-1","0","0","0","cow","animals","1","0","","neutral","0"
"html-keyboard-response","156","569289","0.0-9.0-2.0-0.42","5884","1","9","Male","approach_avoid_spark_v1","""event"",""trial"",""time""
""blur"",""1"",""14095""
""focus"",""1"",""16418""
""fullscreenenter"",""1"",""24491""
","""event"",""trial"",""time""
""blur"",""1"",""14095""
","""event"",""trial"",""time""
""focus"",""1"",""16418""
","""event"",""trial"",""time""
""fullscreenenter"",""1"",""24491""
","
","","","","","","null","<div style=""font-size:60px;"">+</div>","null","","fixation","","","","","","","","","","",""
"aa-learning-trial","157","572299","0.0-9.0-2.0-1.42","5884","1","9","Male","approach_avoid_spark_v1","""event"",""trial"",""time""
""blur"",""1"",""14095""
""focus"",""1"",""16418""
""fullscreenenter"",""1"",""24491""
","""event"",""trial"",""time""
""blur"",""1"",""14095""
","""event"",""trial"",""time""
""focus"",""1"",""16418""
","""event"",""trial"",""time""
""fullscreenenter"",""1"",""24491""
","
","","","","","","1111.7000000029802","images/cow5.png","","","learning","[1]","1","1","1","cow","animals","1","0","","neutral","0"
"html-keyboard-response","158","572805","0.0-9.0-2.0-0.43","5884","1","9","Male","approach_avoid_spark_v1","""event"",""trial"",""time""
""blur"",""1"",""14095""
""focus"",""1"",""16418""
""fullscreenenter"",""1"",""24491""
","""event"",""trial"",""time""
""blur"",""1"",""14095""
","""event"",""trial"",""time""
""focus"",""1"",""16418""
","""event"",""trial"",""time""
""fullscreenenter"",""1"",""24491""
","
","","","","","","null","<div style=""font-size:60px;"">+</div>","null","","fixation","","","","","","","","","","",""
"aa-learning-trial","159","575812","0.0-9.0-2.0-1.43","5884","1","9","Male","approach_avoid_spark_v1","""event"",""trial"",""time""
""blur"",""1"",""14095""
""focus"",""1"",""16418""
""fullscreenenter"",""1"",""24491""
","""event"",""trial"",""time""
""blur"",""1"",""14095""
","""event"",""trial"",""time""
""focus"",""1"",""16418""
","""event"",""trial"",""time""
""fullscreenenter"",""1"",""24491""
","
","","","","","","802.2000000029802","images/goat8.png","","","learning","3","3","1","1","goat","animals","1","0","","good","[3]"
"html-keyboard-response","160","576327","0.0-9.0-2.0-0.44","5884","1","9","Male","approach_avoid_spark_v1","""event"",""trial"",""time""
""blur"",""1"",""14095""
""focus"",""1"",""16418""
""fullscreenenter"",""1"",""24491""
","""event"",""trial"",""time""
""blur"",""1"",""14095""
","""event"",""trial"",""time""
""focus"",""1"",""16418""
","""event"",""trial"",""time""
""fullscreenenter"",""1"",""24491""
","
","","","","","","null","<div style=""font-size:60px;"">+</div>","null","","fixation","","","","","","","","","","",""
"aa-learning-trial","161","579339","0.0-9.0-2.0-1.44","5884","1","9","Male","approach_avoid_spark_v1","""event"",""trial"",""time""
""blur"",""1"",""14095""
""focus"",""1"",""16418""
""fullscreenenter"",""1"",""24491""
","""event"",""trial"",""time""
""blur"",""1"",""14095""
","""event"",""trial"",""time""
""focus"",""1"",""16418""
","""event"",""trial"",""time""
""fullscreenenter"",""1"",""24491""
","
","","","","","","760.7999999970198","images/goat6.png","","","learning","4","4","1","1","goat","animals","1","0","","good","[3]"
"html-keyboard-response","162","579845","0.0-9.0-2.0-0.45","5884","1","9","Male","approach_avoid_spark_v1","""event"",""trial"",""time""
""blur"",""1"",""14095""
""focus"",""1"",""16418""
""fullscreenenter"",""1"",""24491""
","""event"",""trial"",""time""
""blur"",""1"",""14095""
","""event"",""trial"",""time""
""focus"",""1"",""16418""
","""event"",""trial"",""time""
""fullscreenenter"",""1"",""24491""
","
","","","","","","null","<div style=""font-size:60px;"">+</div>","null","","fixation","","","","","","","","","","",""
"aa-learning-trial","163","582851","0.0-9.0-2.0-1.45","5884","1","9","Male","approach_avoid_spark_v1","""event"",""trial"",""time""
""blur"",""1"",""14095""
""focus"",""1"",""16418""
""fullscreenenter"",""1"",""24491""
","""event"",""trial"",""time""
""blur"",""1"",""14095""
","""event"",""trial"",""time""
""focus"",""1"",""16418""
","""event"",""trial"",""time""
""fullscreenenter"",""1"",""24491""
","
","","","","","","748.0999999940395","images/horse3.png","","","learning","-4","0","0","0","horse","animals","1","0","","bad","[-4]"
"html-keyboard-response","164","583355","0.0-9.0-2.0-0.46","5884","1","9","Male","approach_avoid_spark_v1","""event"",""trial"",""time""
""blur"",""1"",""14095""
""focus"",""1"",""16418""
""fullscreenenter"",""1"",""24491""
","""event"",""trial"",""time""
""blur"",""1"",""14095""
","""event"",""trial"",""time""
""focus"",""1"",""16418""
","""event"",""trial"",""time""
""fullscreenenter"",""1"",""24491""
","
","","","","","","null","<div style=""font-size:60px;"">+</div>","null","","fixation","","","","","","","","","","",""
"aa-learning-trial","165","586363","0.0-9.0-2.0-1.46","5884","1","9","Male","approach_avoid_spark_v1","""event"",""trial"",""time""
""blur"",""1"",""14095""
""focus"",""1"",""16418""
""fullscreenenter"",""1"",""24491""
","""event"",""trial"",""time""
""blur"",""1"",""14095""
","""event"",""trial"",""time""
""focus"",""1"",""16418""
","""event"",""trial"",""time""
""fullscreenenter"",""1"",""24491""
","
","","","","","","868","images/cow8.png","","","learning","[-1]","0","0","0","cow","animals","1","0","","neutral","0"
"html-keyboard-response","166","586867","0.0-9.0-2.0-0.47","5884","1","9","Male","approach_avoid_spark_v1","""event"",""trial"",""time""
""blur"",""1"",""14095""
""focus"",""1"",""16418""
""fullscreenenter"",""1"",""24491""
","""event"",""trial"",""time""
""blur"",""1"",""14095""
","""event"",""trial"",""time""
""focus"",""1"",""16418""
","""event"",""trial"",""time""
""fullscreenenter"",""1"",""24491""
","
","","","","","","null","<div style=""font-size:60px;"">+</div>","null","","fixation","","","","","","","","","","",""
"aa-learning-trial","167","589876","0.0-9.0-2.0-1.47","5884","1","9","Male","approach_avoid_spark_v1","""event"",""trial"",""time""
""blur"",""1"",""14095""
""focus"",""1"",""16418""
""fullscreenenter"",""1"",""24491""
","""event"",""trial"",""time""
""blur"",""1"",""14095""
","""event"",""trial"",""time""
""focus"",""1"",""16418""
","""event"",""trial"",""time""
""fullscreenenter"",""1"",""24491""
","
","","","","","","1132.5","images/cow3.png","","","learning","1","1","1","1","cow","animals","1","0","","neutral","0"
"html-keyboard-response","168","590387","0.0-9.0-2.0-0.48","5884","1","9","Male","approach_avoid_spark_v1","""event"",""trial"",""time""
""blur"",""1"",""14095""
""focus"",""1"",""16418""
""fullscreenenter"",""1"",""24491""
","""event"",""trial"",""time""
""blur"",""1"",""14095""
","""event"",""trial"",""time""
""focus"",""1"",""16418""
","""event"",""trial"",""time""
""fullscreenenter"",""1"",""24491""
","
","","","","","","null","<div style=""font-size:60px;"">+</div>","null","","fixation","","","","","","","","","","",""
"aa-learning-trial","169","593395","0.0-9.0-2.0-1.48","5884","1","9","Male","approach_avoid_spark_v1","""event"",""trial"",""time""
""blur"",""1"",""14095""
""focus"",""1"",""16418""
""fullscreenenter"",""1"",""24491""
","""event"",""trial"",""time""
""blur"",""1"",""14095""
","""event"",""trial"",""time""
""focus"",""1"",""16418""
","""event"",""trial"",""time""
""fullscreenenter"",""1"",""24491""
","
","","","","","","764.2000000029802","images/goat8.png","","","learning","3","3","1","1","goat","animals","1","0","","good","[3]"
"html-keyboard-response","170","593899","0.0-9.0-2.0-0.49","5884","1","9","Male","approach_avoid_spark_v1","""event"",""trial"",""time""
""blur"",""1"",""14095""
""focus"",""1"",""16418""
""fullscreenenter"",""1"",""24491""
","""event"",""trial"",""time""
""blur"",""1"",""14095""
","""event"",""trial"",""time""
""focus"",""1"",""16418""
","""event"",""trial"",""time""
""fullscreenenter"",""1"",""24491""
","
","","","","","","null","<div style=""font-size:60px;"">+</div>","null","","fixation","","","","","","","","","","",""
