"trial_type","trial_index","time_elapsed","internal_node_id","subject_id","task_condition","age","gender","task_version","interactions","blur_events","focus_events","fullscreenenter_events","fullscreenexit_events","success","timeout","failed_images","failed_audio","failed_video","rt","stimulus","response","button_pressed","task_part","approach_reward","points","key_press","option_selected","stim_cat","task_block","block_condition","block_number","correct","cat_type","mean_cat_reward"
"pavlovia","0","3","0.0-0.0","5626","2","14","Male","approach_avoid_spark_v1","""event"",""trial"",""time""
""fullscreenenter"",""1"",""2230""
","
","
","""event"",""trial"",""time""
""fullscreenenter"",""1"",""2230""
","
","","","","","","","","","","","","","","","","","","","","",""
"fullscreen","1","3192","0.0-1.0","5626","2","14","Male","approach_avoid_spark_v1","""event"",""trial"",""time""
""fullscreenenter"",""1"",""2230""
","
","
","""event"",""trial"",""time""
""fullscreenenter"",""1"",""2230""
","
","true","","","","","","","","","","","","","","","","","","","",""
"preload","2","9441","0.0-2.0","5626","2","14","Male","approach_avoid_spark_v1","""event"",""trial"",""time""
""fullscreenenter"",""1"",""2230""
""blur"",""3"",""78064""
""focus"",""3"",""119005""
","""event"",""trial"",""time""
""blur"",""3"",""78064""
","""event"",""trial"",""time""
""focus"",""3"",""119005""
","""event"",""trial"",""time""
""fullscreenenter"",""1"",""2230""
","
","true","false","[]","[]","[]","","","","","","","","","","","","","","","",""
"audio-keyboard-response","3","126218","0.0-3.0","5626","2","14","Male","approach_avoid_spark_v1","""event"",""trial"",""time""
""fullscreenenter"",""1"",""2230""
""blur"",""3"",""78064""
""focus"",""3"",""119005""
","""event"",""trial"",""time""
""blur"",""3"",""78064""
","""event"",""trial"",""time""
""focus"",""3"",""119005""
","""event"",""trial"",""time""
""fullscreenenter"",""1"",""2230""
","
","","","","","","105494.05895691611","audio/beep_loop.wav"," ","","","","","","","","","","","","",""
"audio-button-response","4","131201","0.0-4.0","5626","2","14","Male","approach_avoid_spark_v1","""event"",""trial"",""time""
""fullscreenenter"",""1"",""2230""
""blur"",""3"",""78064""
""focus"",""3"",""119005""
","""event"",""trial"",""time""
""blur"",""3"",""78064""
","""event"",""trial"",""time""
""focus"",""3"",""119005""
","""event"",""trial"",""time""
""fullscreenenter"",""1"",""2230""
","
","","","","","","4807","audio/shark.wav","0","","","","","","","","","","","","",""
"audio-button-response","5","133569","0.0-5.0","5626","2","14","Male","approach_avoid_spark_v1","""event"",""trial"",""time""
""fullscreenenter"",""1"",""2230""
""blur"",""3"",""78064""
""focus"",""3"",""119005""
","""event"",""trial"",""time""
""blur"",""3"",""78064""
","""event"",""trial"",""time""
""focus"",""3"",""119005""
","""event"",""trial"",""time""
""fullscreenenter"",""1"",""2230""
","
","","","","","","1364","audio/turtle.wav","1","","","","","","","","","","","","",""
"preload","6","136629","0.0-6.0","5626","2","14","Male","approach_avoid_spark_v1","""event"",""trial"",""time""
""fullscreenenter"",""1"",""2230""
""blur"",""3"",""78064""
""focus"",""3"",""119005""
","""event"",""trial"",""time""
""blur"",""3"",""78064""
","""event"",""trial"",""time""
""focus"",""3"",""119005""
","""event"",""trial"",""time""
""fullscreenenter"",""1"",""2230""
","
","true","false","[]","[]","[]","","","","","","","","","","","","","","","",""
"html-keyboard-response","7","142645","0.0-7.0","5626","2","14","Male","approach_avoid_spark_v1","""event"",""trial"",""time""
""fullscreenenter"",""1"",""2230""
""blur"",""3"",""78064""
""focus"",""3"",""119005""
","""event"",""trial"",""time""
""blur"",""3"",""78064""
","""event"",""trial"",""time""
""focus"",""3"",""119005""
","""event"",""trial"",""time""
""fullscreenenter"",""1"",""2230""
","
","","","","","","6015.099999904633","Welcome to the experiment. Press any key to begin and to advance the instructions."," ","","","","","","","","","","","","",""
"learning-instructions","8","150926","0.0-8.0-0.0-0.0","5626","2","14","Male","approach_avoid_spark_v1","""event"",""trial"",""time""
""fullscreenenter"",""1"",""2230""
""blur"",""3"",""78064""
""focus"",""3"",""119005""
","""event"",""trial"",""time""
""blur"",""3"",""78064""
","""event"",""trial"",""time""
""focus"",""3"",""119005""
","""event"",""trial"",""time""
""fullscreenenter"",""1"",""2230""
","
","","","","","","1326","<p> Welcome! Today you are going to play 6 different rounds of a decision-making game. </p><p> Use the mouse to click next to continue. </p>","","0","instructions","","","","","","","","","","",""
"learning-instructions","9","154522","0.0-8.0-0.0-0.1","5626","2","14","Male","approach_avoid_spark_v1","""event"",""trial"",""time""
""fullscreenenter"",""1"",""2230""
""blur"",""3"",""78064""
""focus"",""3"",""119005""
","""event"",""trial"",""time""
""blur"",""3"",""78064""
","""event"",""trial"",""time""
""focus"",""3"",""119005""
","""event"",""trial"",""time""
""fullscreenenter"",""1"",""2230""
","
","","","","","","875.5","<p> You will start with a practice round to learn the rules. </p>","","0","instructions","","","","","","","","","","",""
"learning-instructions","10","158376","0.0-8.0-0.0-0.2","5626","2","14","Male","approach_avoid_spark_v1","""event"",""trial"",""time""
""fullscreenenter"",""1"",""2230""
""blur"",""3"",""78064""
""focus"",""3"",""119005""
","""event"",""trial"",""time""
""blur"",""3"",""78064""
","""event"",""trial"",""time""
""focus"",""3"",""119005""
","""event"",""trial"",""time""
""fullscreenenter"",""1"",""2230""
","
","","","","","","410.7000000476837","<p> Your goal in this round is to give out sports equipment to kids. </p></div>","","0","instructions","","","","","","","","","","",""
"learning-instructions","11","169166","0.0-8.0-0.0-0.3","5626","2","14","Male","approach_avoid_spark_v1","""event"",""trial"",""time""
""fullscreenenter"",""1"",""2230""
""blur"",""3"",""78064""
""focus"",""3"",""119005""
","""event"",""trial"",""time""
""blur"",""3"",""78064""
","""event"",""trial"",""time""
""focus"",""3"",""119005""
","""event"",""trial"",""time""
""fullscreenenter"",""1"",""2230""
","
","","","","","","3247.9000000953674","<p> The kids only like some of the equipment.  </p><p> On each turn, you will see a piece of sports equipment.   </p><p> You need to decide whether to give it to the kids or not.  </p>","","0","instructions","","","","","","","","","","",""
"learning-instructions","12","174670","0.0-8.0-0.0-0.4","5626","2","14","Male","approach_avoid_spark_v1","""event"",""trial"",""time""
""fullscreenenter"",""1"",""2230""
""blur"",""3"",""78064""
""focus"",""3"",""119005""
","""event"",""trial"",""time""
""blur"",""3"",""78064""
","""event"",""trial"",""time""
""focus"",""3"",""119005""
","""event"",""trial"",""time""
""fullscreenenter"",""1"",""2230""
","
","","","","","","758.2000000476837","<p> You can give them the equipment by pressing 1 and choose not to give it to them by pressing 0. </p><br><div class=""choice-instructions-grid""> <div class=""choice-option""><img src=""images/approach.png"" class=""choice-option-img"" stage=""instructions"" position=""0"" ><div class=""choice-option-text""> Press ""1."" </div></div><div class=""choice-option""><img src=""images/avoid.png"" class=""choice-option-img"" stage=""instructions"" position=""1"" ><div class=""choice-option-text""> Press ""0."" </div></div>","","0","instructions","","","","","","","","","","",""
"learning-instructions","13","183461","0.0-8.0-0.0-0.5","5626","2","14","Male","approach_avoid_spark_v1","""event"",""trial"",""time""
""fullscreenenter"",""1"",""2230""
""blur"",""3"",""78064""
""focus"",""3"",""119005""
","""event"",""trial"",""time""
""blur"",""3"",""78064""
","""event"",""trial"",""time""
""focus"",""3"",""119005""
","""event"",""trial"",""time""
""fullscreenenter"",""1"",""2230""
","
","","","","","","1410","<p> If you give them a piece of equipment they like, they will be happy! </p><p> But if you give them a piece of equipment they do not like, they will be sad. </p>","","0","instructions","","","","","","","","","","",""
"learning-instructions","14","196306","0.0-8.0-0.0-0.6","5626","2","14","Male","approach_avoid_spark_v1","""event"",""trial"",""time""
""fullscreenenter"",""1"",""2230""
""blur"",""3"",""78064""
""focus"",""3"",""119005""
","""event"",""trial"",""time""
""blur"",""3"",""78064""
","""event"",""trial"",""time""
""focus"",""3"",""119005""
","""event"",""trial"",""time""
""fullscreenenter"",""1"",""2230""
","
","","","","","","2338.2000000476837","<p> You will earn points based on how you make kids feel. </p><p> If you make them happy, you will WIN anywhere from 1 - 9 points, </p><p> but if you make them sad, you will LOSE anywhere from 1 - 9 points. </p>","","0","instructions","","","","","","","","","","",""
"learning-instructions","15","206662","0.0-8.0-0.0-0.7","5626","2","14","Male","approach_avoid_spark_v1","""event"",""trial"",""time""
""fullscreenenter"",""1"",""2230""
""blur"",""3"",""78064""
""focus"",""3"",""119005""
","""event"",""trial"",""time""
""blur"",""3"",""78064""
","""event"",""trial"",""time""
""focus"",""3"",""119005""
","""event"",""trial"",""time""
""fullscreenenter"",""1"",""2230""
","
","","","","","","805.4000000953674","<p> You will see how many points you won or lost in the center of the screen. </p><p> Here is what you would see if you won 6 points: </p><p style=""color:green;font-size:50px;font-weight:bolder"">6</p><p style=""color:green"">The text is GREEN because you WON points.</p>","","0","instructions","","","","","","","","","","",""
"learning-instructions","16","212682","0.0-8.0-0.0-0.8","5626","2","14","Male","approach_avoid_spark_v1","""event"",""trial"",""time""
""fullscreenenter"",""1"",""2230""
""blur"",""3"",""78064""
""focus"",""3"",""119005""
","""event"",""trial"",""time""
""blur"",""3"",""78064""
","""event"",""trial"",""time""
""focus"",""3"",""119005""
","""event"",""trial"",""time""
""fullscreenenter"",""1"",""2230""
","
","","","","","","515.4000000953674","<p> And here is what you would see if you lost 4 points: </p><p style=""color:red;font-size:50px;font-weight:bolder"">-4</p><p style=""color:red"">The text is RED because you LOST points. </p>","","0","instructions","","","","","","","","","","",""
"learning-instructions","17","227804","0.0-8.0-0.0-0.9","5626","2","14","Male","approach_avoid_spark_v1","""event"",""trial"",""time""
""fullscreenenter"",""1"",""2230""
""blur"",""3"",""78064""
""focus"",""3"",""119005""
","""event"",""trial"",""time""
""blur"",""3"",""78064""
","""event"",""trial"",""time""
""focus"",""3"",""119005""
","""event"",""trial"",""time""
""fullscreenenter"",""1"",""2230""
","
","","","","","","416.90000009536743","<p> Some of the equipment will make the kids VERY happy or sad. </p><p> These pieces of equipment will make you win or lose LOTS of points. </p><p> Other pieces of equipment will only make the kids a little happy or sad. </p><p> These pieces of equipment will make you win or lose small amounts of points. </p>","","0","instructions","","","","","","","","","","",""
"learning-instructions","18","238836","0.0-8.0-0.0-0.10","5626","2","14","Male","approach_avoid_spark_v1","""event"",""trial"",""time""
""fullscreenenter"",""1"",""2230""
""blur"",""3"",""78064""
""focus"",""3"",""119005""
","""event"",""trial"",""time""
""blur"",""3"",""78064""
","""event"",""trial"",""time""
""focus"",""3"",""119005""
","""event"",""trial"",""time""
""fullscreenenter"",""1"",""2230""
","
","","","","","","413.5","<p> If you choose not to give them the equipment, you will not win or lose any points. </p><p>  However, in the center of the screen, you will see the number of points you WOULD HAVE won or lost if you had given them the equipment. </p>","","0","instructions","","","","","","","","","","",""
"learning-instructions","19","262336","0.0-8.0-0.0-0.11","5626","2","14","Male","approach_avoid_spark_v1","""event"",""trial"",""time""
""fullscreenenter"",""1"",""2230""
""blur"",""3"",""78064""
""focus"",""3"",""119005""
","""event"",""trial"",""time""
""blur"",""3"",""78064""
","""event"",""trial"",""time""
""focus"",""3"",""119005""
","""event"",""trial"",""time""
""fullscreenenter"",""1"",""2230""
","
","","","","","","1976.5","<p> Here is what you might see if you did not give the equipment to the kids but it would have made them happy: </p><p style=""color:grey; font-size:50px; display: inline-block; border-spacing: 15px; border-width:3px; border-style:solid; border-color:red"">  &nbsp; 7 &nbsp; </p><p> Remember, in this case, you would not win or lose ANY points because you did not give them the equipment.  </p><p style=""color:grey"">The text is GREY because you earned ZERO points. </p><p style=""color:red"">However, choosing to give the kids the equipment would have made you win points. The box around the text is RED because you chose the worse option. </p>","","0","instructions","","","","","","","","","","",""
"learning-instructions","20","284546","0.0-8.0-0.0-0.12","5626","2","14","Male","approach_avoid_spark_v1","""event"",""trial"",""time""
""fullscreenenter"",""1"",""2230""
""blur"",""3"",""78064""
""focus"",""3"",""119005""
","""event"",""trial"",""time""
""blur"",""3"",""78064""
","""event"",""trial"",""time""
""focus"",""3"",""119005""
","""event"",""trial"",""time""
""fullscreenenter"",""1"",""2230""
","
","","","","","","1140.5999999046326","<p> Here is what you might see if you did not give the equipment to the kids but it would have made them sad: </p><p style=""color:grey;font-size:50px; display: inline-block; border-spacing: 15px; border-width:3px; border-style:solid; border-color:green"">  &nbsp; -8 &nbsp; </p><p> Remember, in this case, you would not win or lose ANY points because you did not give them the equipment.  </p><p style=""color:grey"">The text is GREY because you earned ZERO points. </p><p  style=""color:green""> Choosing to give the kids the equipment would have made you lose points. The box around the text is GREEN because you chose the better option.</p>","","0","instructions","","","","","","","","","","",""
"learning-instructions","21","295240","0.0-8.0-0.0-0.13","5626","2","14","Male","approach_avoid_spark_v1","""event"",""trial"",""time""
""fullscreenenter"",""1"",""2230""
""blur"",""3"",""78064""
""focus"",""3"",""119005""
","""event"",""trial"",""time""
""blur"",""3"",""78064""
","""event"",""trial"",""time""
""focus"",""3"",""119005""
","""event"",""trial"",""time""
""fullscreenenter"",""1"",""2230""
","
","","","","","","1884.9000000953674","<p> You will have 3 seconds to make each choice. Try to respond before time runs out! </p><p> You will lose 5 points each time you do not make a response. </p>","","0","instructions","","","","","","","","","","",""
"learning-instructions","22","301423","0.0-8.0-0.0-0.14","5626","2","14","Male","approach_avoid_spark_v1","""event"",""trial"",""time""
""fullscreenenter"",""1"",""2230""
""blur"",""3"",""78064""
""focus"",""3"",""119005""
","""event"",""trial"",""time""
""blur"",""3"",""78064""
","""event"",""trial"",""time""
""focus"",""3"",""119005""
","""event"",""trial"",""time""
""fullscreenenter"",""1"",""2230""
","
","","","","","","775.8999998569489","<p> This is just a practice round, but in the real game, your bonus payment will depend on your total number of points.","","0","instructions","","","","","","","","","","",""
"learning-instructions","23","307494","0.0-8.0-0.0-0.15","5626","2","14","Male","approach_avoid_spark_v1","""event"",""trial"",""time""
""fullscreenenter"",""1"",""2230""
""blur"",""3"",""78064""
""focus"",""3"",""119005""
","""event"",""trial"",""time""
""blur"",""3"",""78064""
","""event"",""trial"",""time""
""focus"",""3"",""119005""
","""event"",""trial"",""time""
""fullscreenenter"",""1"",""2230""
","
","","","","","","316.89999985694885","<p> Remember, you can give them the equipment by pressing 1 and choose not to give it to them by pressing 0. </p><br><div class=""choice-instructions-grid""> <div class=""choice-option""><img src=""images/approach.png"" class=""choice-option-img"" stage=""instructions"" position=""0"" ><div class=""choice-option-text""> Press ""1."" </div></div><div class=""choice-option""><img src=""images/avoid.png"" class=""choice-option-img"" stage=""instructions"" position=""1"" ><div class=""choice-option-text""> Press ""0."" </div></div>","","0","instructions","","","","","","","","","","",""
"html-button-response","24","309115","0.0-8.0-1.0","5626","2","14","Male","approach_avoid_spark_v1","""event"",""trial"",""time""
""fullscreenenter"",""1"",""2230""
""blur"",""3"",""78064""
""focus"",""3"",""119005""
","""event"",""trial"",""time""
""blur"",""3"",""78064""
","""event"",""trial"",""time""
""focus"",""3"",""119005""
","""event"",""trial"",""time""
""fullscreenenter"",""1"",""2230""
","
","","","","","","1518.8999998569489","<p> Ready to practice? </p>","0","","","","","","","","","","","","",""
"html-keyboard-response","25","309719","0.0-8.0-2.0-0.0","5626","2","14","Male","approach_avoid_spark_v1","""event"",""trial"",""time""
""fullscreenenter"",""1"",""2230""
""blur"",""3"",""78064""
""focus"",""3"",""119005""
","""event"",""trial"",""time""
""blur"",""3"",""78064""
","""event"",""trial"",""time""
""focus"",""3"",""119005""
","""event"",""trial"",""time""
""fullscreenenter"",""1"",""2230""
","
","","","","","","null","<div style=""font-size:60px;"">+</div>","null","","fixation","","","","","","","","","","",""
"aa-learning-trial","26","312721","0.0-8.0-2.0-1.0","5626","2","14","Male","approach_avoid_spark_v1","""event"",""trial"",""time""
""fullscreenenter"",""1"",""2230""
""blur"",""3"",""78064""
""focus"",""3"",""119005""
","""event"",""trial"",""time""
""blur"",""3"",""78064""
","""event"",""trial"",""time""
""focus"",""3"",""119005""
","""event"",""trial"",""time""
""fullscreenenter"",""1"",""2230""
","
","","","","","","1992.7000000476837","images/racket2.png","","","learning","6","6","1","1","practice","practice","practice","-1","","",""
"html-keyboard-response","27","313226","0.0-8.0-2.0-0.1","5626","2","14","Male","approach_avoid_spark_v1","""event"",""trial"",""time""
""fullscreenenter"",""1"",""2230""
""blur"",""3"",""78064""
""focus"",""3"",""119005""
","""event"",""trial"",""time""
""blur"",""3"",""78064""
","""event"",""trial"",""time""
""focus"",""3"",""119005""
","""event"",""trial"",""time""
""fullscreenenter"",""1"",""2230""
","
","","","","","","null","<div style=""font-size:60px;"">+</div>","null","","fixation","","","","","","","","","","",""
"aa-learning-trial","28","316227","0.0-8.0-2.0-1.1","5626","2","14","Male","approach_avoid_spark_v1","""event"",""trial"",""time""
""fullscreenenter"",""1"",""2230""
""blur"",""3"",""78064""
""focus"",""3"",""119005""
","""event"",""trial"",""time""
""blur"",""3"",""78064""
","""event"",""trial"",""time""
""focus"",""3"",""119005""
","""event"",""trial"",""time""
""fullscreenenter"",""1"",""2230""
","
","","","","","","797.5","images/ball1.png","","","learning","6","6","1","1","practice","practice","practice","-1","","",""
"html-keyboard-response","29","316728","0.0-8.0-2.0-0.2","5626","2","14","Male","approach_avoid_spark_v1","""event"",""trial"",""time""
""fullscreenenter"",""1"",""2230""
""blur"",""3"",""78064""
""focus"",""3"",""119005""
","""event"",""trial"",""time""
""blur"",""3"",""78064""
","""event"",""trial"",""time""
""focus"",""3"",""119005""
","""event"",""trial"",""time""
""fullscreenenter"",""1"",""2230""
","
","","","","","","null","<div style=""font-size:60px;"">+</div>","null","","fixation","","","","","","","","","","",""
"aa-learning-trial","30","319729","0.0-8.0-2.0-1.2","5626","2","14","Male","approach_avoid_spark_v1","""event"",""trial"",""time""
""fullscreenenter"",""1"",""2230""
""blur"",""3"",""78064""
""focus"",""3"",""119005""
","""event"",""trial"",""time""
""blur"",""3"",""78064""
","""event"",""trial"",""time""
""focus"",""3"",""119005""
","""event"",""trial"",""time""
""fullscreenenter"",""1"",""2230""
","
","","","","","","1614.7999999523163","images/racket4.png","","","learning","-2","-2","1","1","practice","practice","practice","-1","","",""
"html-keyboard-response","31","320232","0.0-8.0-2.0-0.3","5626","2","14","Male","approach_avoid_spark_v1","""event"",""trial"",""time""
""fullscreenenter"",""1"",""2230""
""blur"",""3"",""78064""
""focus"",""3"",""119005""
","""event"",""trial"",""time""
""blur"",""3"",""78064""
","""event"",""trial"",""time""
""focus"",""3"",""119005""
","""event"",""trial"",""time""
""fullscreenenter"",""1"",""2230""
","
","","","","","","null","<div style=""font-size:60px;"">+</div>","null","","fixation","","","","","","","","","","",""
"aa-learning-trial","32","323234","0.0-8.0-2.0-1.3","5626","2","14","Male","approach_avoid_spark_v1","""event"",""trial"",""time""
""fullscreenenter"",""1"",""2230""
""blur"",""3"",""78064""
""focus"",""3"",""119005""
","""event"",""trial"",""time""
""blur"",""3"",""78064""
","""event"",""trial"",""time""
""focus"",""3"",""119005""
","""event"",""trial"",""time""
""fullscreenenter"",""1"",""2230""
","
","","","","","","675.2000000476837","images/racket2.png","","","learning","4","4","1","1","practice","practice","practice","-1","","",""
"html-keyboard-response","33","323735","0.0-8.0-2.0-0.4","5626","2","14","Male","approach_avoid_spark_v1","""event"",""trial"",""time""
""fullscreenenter"",""1"",""2230""
""blur"",""3"",""78064""
""focus"",""3"",""119005""
","""event"",""trial"",""time""
""blur"",""3"",""78064""
","""event"",""trial"",""time""
""focus"",""3"",""119005""
","""event"",""trial"",""time""
""fullscreenenter"",""1"",""2230""
","
","","","","","","null","<div style=""font-size:60px;"">+</div>","null","","fixation","","","","","","","","","","",""
"aa-learning-trial","34","326740","0.0-8.0-2.0-1.4","5626","2","14","Male","approach_avoid_spark_v1","""event"",""trial"",""time""
""fullscreenenter"",""1"",""2230""
""blur"",""3"",""78064""
""focus"",""3"",""119005""
","""event"",""trial"",""time""
""blur"",""3"",""78064""
","""event"",""trial"",""time""
""focus"",""3"",""119005""
","""event"",""trial"",""time""
""fullscreenenter"",""1"",""2230""
","
","","","","","","608.0999999046326","images/ball3.png","","","learning","8","8","1","1","practice","practice","practice","-1","","",""
"html-keyboard-response","35","327245","0.0-8.0-2.0-0.5","5626","2","14","Male","approach_avoid_spark_v1","""event"",""trial"",""time""
""fullscreenenter"",""1"",""2230""
""blur"",""3"",""78064""
""focus"",""3"",""119005""
","""event"",""trial"",""time""
""blur"",""3"",""78064""
","""event"",""trial"",""time""
""focus"",""3"",""119005""
","""event"",""trial"",""time""
""fullscreenenter"",""1"",""2230""
","
","","","","","","null","<div style=""font-size:60px;"">+</div>","null","","fixation","","","","","","","","","","",""
"aa-learning-trial","36","330246","0.0-8.0-2.0-1.5","5626","2","14","Male","approach_avoid_spark_v1","""event"",""trial"",""time""
""fullscreenenter"",""1"",""2230""
""blur"",""3"",""78064""
""focus"",""3"",""119005""
","""event"",""trial"",""time""
""blur"",""3"",""78064""
","""event"",""trial"",""time""
""focus"",""3"",""119005""
","""event"",""trial"",""time""
""fullscreenenter"",""1"",""2230""
","
","","","","","","248","images/racket4.png","","","learning","8","8","1","1","practice","practice","practice","-1","","",""
"html-keyboard-response","37","330751","0.0-8.0-2.0-0.6","5626","2","14","Male","approach_avoid_spark_v1","""event"",""trial"",""time""
""fullscreenenter"",""1"",""2230""
""blur"",""3"",""78064""
""focus"",""3"",""119005""
","""event"",""trial"",""time""
""blur"",""3"",""78064""
","""event"",""trial"",""time""
""focus"",""3"",""119005""
","""event"",""trial"",""time""
""fullscreenenter"",""1"",""2230""
","
","","","","","","null","<div style=""font-size:60px;"">+</div>","null","","fixation","","","","","","","","","","",""
"aa-learning-trial","38","333752","0.0-8.0-2.0-1.6","5626","2","14","Male","approach_avoid_spark_v1","""event"",""trial"",""time""
""fullscreenenter"",""1"",""2230""
""blur"",""3"",""78064""
""focus"",""3"",""119005""
","""event"",""trial"",""time""
""blur"",""3"",""78064""
","""event"",""trial"",""time""
""focus"",""3"",""119005""
","""event"",""trial"",""time""
""fullscreenenter"",""1"",""2230""
","
","","","","","","431.59999990463257","images/racket2.png","","","learning","-6","-6","1","1","practice","practice","practice","-1","","",""
"html-keyboard-response","39","334257","0.0-8.0-2.0-0.7","5626","2","14","Male","approach_avoid_spark_v1","""event"",""trial"",""time""
""fullscreenenter"",""1"",""2230""
""blur"",""3"",""78064""
""focus"",""3"",""119005""
","""event"",""trial"",""time""
""blur"",""3"",""78064""
","""event"",""trial"",""time""
""focus"",""3"",""119005""
","""event"",""trial"",""time""
""fullscreenenter"",""1"",""2230""
","
","","","","","","null","<div style=""font-size:60px;"">+</div>","null","","fixation","","","","","","","","","","",""
"aa-learning-trial","40","337259","0.0-8.0-2.0-1.7","5626","2","14","Male","approach_avoid_spark_v1","""event"",""trial"",""time""
""fullscreenenter"",""1"",""2230""
""blur"",""3"",""78064""
""focus"",""3"",""119005""
","""event"",""trial"",""time""
""blur"",""3"",""78064""
","""event"",""trial"",""time""
""focus"",""3"",""119005""
","""event"",""trial"",""time""
""fullscreenenter"",""1"",""2230""
","
","","","","","","360.7999999523163","images/racket2.png","","","learning","3","3","1","1","practice","practice","practice","-1","","",""
"html-keyboard-response","41","337762","0.0-8.0-2.0-0.8","5626","2","14","Male","approach_avoid_spark_v1","""event"",""trial"",""time""
""fullscreenenter"",""1"",""2230""
""blur"",""3"",""78064""
""focus"",""3"",""119005""
","""event"",""trial"",""time""
""blur"",""3"",""78064""
","""event"",""trial"",""time""
""focus"",""3"",""119005""
","""event"",""trial"",""time""
""fullscreenenter"",""1"",""2230""
","
","","","","","","null","<div style=""font-size:60px;"">+</div>","null","","fixation","","","","","","","","","","",""
"aa-learning-trial","42","340766","0.0-8.0-2.0-1.8","5626","2","14","Male","approach_avoid_spark_v1","""event"",""trial"",""time""
""fullscreenenter"",""1"",""2230""
""blur"",""3"",""78064""
""focus"",""3"",""119005""
","""event"",""trial"",""time""
""blur"",""3"",""78064""
","""event"",""trial"",""time""
""focus"",""3"",""119005""
","""event"",""trial"",""time""
""fullscreenenter"",""1"",""2230""
","
","","","","","","170.29999995231628","images/ball3.png","","","learning","-7","-5","2","","practice","practice","practice","-1","","",""
"html-keyboard-response","43","341270","0.0-8.0-2.0-0.9","5626","2","14","Male","approach_avoid_spark_v1","""event"",""trial"",""time""
""fullscreenenter"",""1"",""2230""
""blur"",""3"",""78064""
""focus"",""3"",""119005""
","""event"",""trial"",""time""
""blur"",""3"",""78064""
","""event"",""trial"",""time""
""focus"",""3"",""119005""
","""event"",""trial"",""time""
""fullscreenenter"",""1"",""2230""
","
","","","","","","null","<div style=""font-size:60px;"">+</div>","null","","fixation","","","","","","","","","","",""
"aa-learning-trial","44","344276","0.0-8.0-2.0-1.9","5626","2","14","Male","approach_avoid_spark_v1","""event"",""trial"",""time""
""fullscreenenter"",""1"",""2230""
""blur"",""3"",""78064""
""focus"",""3"",""119005""
","""event"",""trial"",""time""
""blur"",""3"",""78064""
","""event"",""trial"",""time""
""focus"",""3"",""119005""
","""event"",""trial"",""time""
""fullscreenenter"",""1"",""2230""
","
","","","","","","247.89999985694885","images/racket4.png","","","learning","5","0","0","0","practice","practice","practice","-1","","",""
"html-keyboard-response","45","344779","0.0-8.0-2.0-0.10","5626","2","14","Male","approach_avoid_spark_v1","""event"",""trial"",""time""
""fullscreenenter"",""1"",""2230""
""blur"",""3"",""78064""
""focus"",""3"",""119005""
","""event"",""trial"",""time""
""blur"",""3"",""78064""
","""event"",""trial"",""time""
""focus"",""3"",""119005""
","""event"",""trial"",""time""
""fullscreenenter"",""1"",""2230""
","
","","","","","","null","<div style=""font-size:60px;"">+</div>","null","","fixation","","","","","","","","","","",""
"aa-learning-trial","46","347784","0.0-8.0-2.0-1.10","5626","2","14","Male","approach_avoid_spark_v1","""event"",""trial"",""time""
""fullscreenenter"",""1"",""2230""
""blur"",""3"",""78064""
""focus"",""3"",""119005""
","""event"",""trial"",""time""
""blur"",""3"",""78064""
","""event"",""trial"",""time""
""focus"",""3"",""119005""
","""event"",""trial"",""time""
""fullscreenenter"",""1"",""2230""
","
","","","","","","608.9000000953674","images/ball4.png","","","learning","6","6","1","1","practice","practice","practice","-1","","",""
"html-keyboard-response","47","348289","0.0-8.0-2.0-0.11","5626","2","14","Male","approach_avoid_spark_v1","""event"",""trial"",""time""
""fullscreenenter"",""1"",""2230""
""blur"",""3"",""78064""
""focus"",""3"",""119005""
","""event"",""trial"",""time""
""blur"",""3"",""78064""
","""event"",""trial"",""time""
""focus"",""3"",""119005""
","""event"",""trial"",""time""
""fullscreenenter"",""1"",""2230""
","
","","","","","","null","<div style=""font-size:60px;"">+</div>","null","","fixation","","","","","","","","","","",""
"aa-learning-trial","48","351290","0.0-8.0-2.0-1.11","5626","2","14","Male","approach_avoid_spark_v1","""event"",""trial"",""time""
""fullscreenenter"",""1"",""2230""
""blur"",""3"",""78064""
""focus"",""3"",""119005""
","""event"",""trial"",""time""
""blur"",""3"",""78064""
","""event"",""trial"",""time""
""focus"",""3"",""119005""
","""event"",""trial"",""time""
""fullscreenenter"",""1"",""2230""
","
","","","","","","144.39999985694885","images/racket1.png","","","learning","2","2","1","1","practice","practice","practice","-1","","",""
"html-button-response","49","353623","0.0-8.0-3.0","5626","2","14","Male","approach_avoid_spark_v1","""event"",""trial"",""time""
""fullscreenenter"",""1"",""2230""
""blur"",""3"",""78064""
""focus"",""3"",""119005""
","""event"",""trial"",""time""
""blur"",""3"",""78064""
","""event"",""trial"",""time""
""focus"",""3"",""119005""
","""event"",""trial"",""time""
""fullscreenenter"",""1"",""2230""
","
","","","","","","2331.7999999523163","<p> You earned 30 points in the practice round! </p>","0","","break","","","","","","","","","","",""
"learning-instructions","50","360483","0.0-8.0-4.0-0.0","5626","2","14","Male","approach_avoid_spark_v1","""event"",""trial"",""time""
""fullscreenenter"",""1"",""2230""
""blur"",""3"",""78064""
""focus"",""3"",""119005""
","""event"",""trial"",""time""
""blur"",""3"",""78064""
","""event"",""trial"",""time""
""focus"",""3"",""119005""
","""event"",""trial"",""time""
""fullscreenenter"",""1"",""2230""
","
","","","","","","904.5","<p> It's almost time to start the real game. </p><p> Before you start, we're going to ask you a few questions about how the game works. </p>","","0","instructions","","","","","","","","","","",""
"preload","51","361552","0.0-8.0-5.0","5626","2","14","Male","approach_avoid_spark_v1","""event"",""trial"",""time""
""fullscreenenter"",""1"",""2230""
""blur"",""3"",""78064""
""focus"",""3"",""119005""
","""event"",""trial"",""time""
""blur"",""3"",""78064""
","""event"",""trial"",""time""
""focus"",""3"",""119005""
","""event"",""trial"",""time""
""fullscreenenter"",""1"",""2230""
","
","true","false","[]","[]","[]","","","","","","","","","","","","","","","",""
"comp-q","52","369085","0.0-8.0-6.0-0.0","5626","2","14","Male","approach_avoid_spark_v1","""event"",""trial"",""time""
""fullscreenenter"",""1"",""2230""
""blur"",""3"",""78064""
""focus"",""3"",""119005""
","""event"",""trial"",""time""
""blur"",""3"",""78064""
","""event"",""trial"",""time""
""focus"",""3"",""119005""
","""event"",""trial"",""time""
""fullscreenenter"",""1"",""2230""
","
","","","","","","2540.5","<p> <b> True or False? </b> </p><p> If you see a number in GREY, that means you earned that many points. </p>","","1","comp_question","","","","","","","","","true","",""
"comp-q","53","378202","0.0-8.0-6.0-1.0","5626","2","14","Male","approach_avoid_spark_v1","""event"",""trial"",""time""
""fullscreenenter"",""1"",""2230""
""blur"",""3"",""78064""
""focus"",""3"",""119005""
","""event"",""trial"",""time""
""blur"",""3"",""78064""
","""event"",""trial"",""time""
""focus"",""3"",""119005""
","""event"",""trial"",""time""
""fullscreenenter"",""1"",""2230""
","
","","","","","","762.6000001430511","<p><b> That's right! </b> If you see a grey number, it means you earned ZERO points. <br> The grey numbers show the points you WOULD HAVE earned if you had made the other choice. </p>","","0","comp_answer","","","","","","","","","","",""
"comp-q","54","383488","0.0-8.0-7.0-0.0","5626","2","14","Male","approach_avoid_spark_v1","""event"",""trial"",""time""
""fullscreenenter"",""1"",""2230""
""blur"",""3"",""78064""
""focus"",""3"",""119005""
","""event"",""trial"",""time""
""blur"",""3"",""78064""
","""event"",""trial"",""time""
""focus"",""3"",""119005""
","""event"",""trial"",""time""
""fullscreenenter"",""1"",""2230""
","
","","","","","","597.4000000953674","<p> <b> True or False? </b> </p><p> You will have as much time as you want to make each choice. </p>","","1","comp_question","","","","","","","","","true","",""
"comp-q","55","389786","0.0-8.0-7.0-1.0","5626","2","14","Male","approach_avoid_spark_v1","""event"",""trial"",""time""
""fullscreenenter"",""1"",""2230""
""blur"",""3"",""78064""
""focus"",""3"",""119005""
","""event"",""trial"",""time""
""blur"",""3"",""78064""
","""event"",""trial"",""time""
""focus"",""3"",""119005""
","""event"",""trial"",""time""
""fullscreenenter"",""1"",""2230""
","
","","","","","","2257.399999856949","<p> <b> That's right! </b> You will only have 3 seconds to make each choice. </p>","","0","comp_answer","","","","","","","","","","",""
"comp-q","56","394941","0.0-8.0-8.0-0.0","5626","2","14","Male","approach_avoid_spark_v1","""event"",""trial"",""time""
""fullscreenenter"",""1"",""2230""
""blur"",""3"",""78064""
""focus"",""3"",""119005""
","""event"",""trial"",""time""
""blur"",""3"",""78064""
","""event"",""trial"",""time""
""focus"",""3"",""119005""
","""event"",""trial"",""time""
""fullscreenenter"",""1"",""2230""
","
","","","","","","503.59999990463257","<p> <b> True or False? </b> </p><p> You should use the '1' and '0' keys to make your choices. </p>","","0","comp_question","","","","","","","","","true","",""
"comp-q","57","400840","0.0-8.0-8.0-1.0","5626","2","14","Male","approach_avoid_spark_v1","""event"",""trial"",""time""
""fullscreenenter"",""1"",""2230""
""blur"",""3"",""78064""
""focus"",""3"",""119005""
","""event"",""trial"",""time""
""blur"",""3"",""78064""
","""event"",""trial"",""time""
""focus"",""3"",""119005""
","""event"",""trial"",""time""
""fullscreenenter"",""1"",""2230""
","
","","","","","","1295.1000001430511","<p> <b> That's right! </b> You should use the '1' and '0' keys to make each choice. </p>","","0","comp_answer","","","","","","","","","","",""
"learning-instructions","58","408806","0.0-8.0-9.0-0.0","5626","2","14","Male","approach_avoid_spark_v1","""event"",""trial"",""time""
""fullscreenenter"",""1"",""2230""
""blur"",""3"",""78064""
""focus"",""3"",""119005""
","""event"",""trial"",""time""
""blur"",""3"",""78064""
","""event"",""trial"",""time""
""focus"",""3"",""119005""
","""event"",""trial"",""time""
""fullscreenenter"",""1"",""2230""
","
","","","","","","1697.2999999523163","<p> It's now time to start the real game. </p>Do your best, because the points you earn in the next rounds will influence your bonus payment. </p>","","0","instructions","","","","","","","","","","",""
"preload","59","408920","0.0-9.0-0.0","5626","2","14","Male","approach_avoid_spark_v1","""event"",""trial"",""time""
""fullscreenenter"",""1"",""2230""
""blur"",""3"",""78064""
""focus"",""3"",""119005""
","""event"",""trial"",""time""
""blur"",""3"",""78064""
","""event"",""trial"",""time""
""focus"",""3"",""119005""
","""event"",""trial"",""time""
""fullscreenenter"",""1"",""2230""
","
","true","false","[]","[]","[]","","","","","","","","","","","","","","","",""
"learning-instructions","60","415199","0.0-9.0-1.0-0.0","5626","2","14","Male","approach_avoid_spark_v1","""event"",""trial"",""time""
""fullscreenenter"",""1"",""2230""
""blur"",""3"",""78064""
""focus"",""3"",""119005""
","""event"",""trial"",""time""
""blur"",""3"",""78064""
","""event"",""trial"",""time""
""focus"",""3"",""119005""
","""event"",""trial"",""time""
""fullscreenenter"",""1"",""2230""
","
","","","","","","3091.5","<p> Your goal in this round is to eat tasty fruit. </p></div>","","0","instructions","","","","","","","","","","",""
"learning-instructions","61","426595","0.0-9.0-1.0-0.1","5626","2","14","Male","approach_avoid_spark_v1","""event"",""trial"",""time""
""fullscreenenter"",""1"",""2230""
""blur"",""3"",""78064""
""focus"",""3"",""119005""
","""event"",""trial"",""time""
""blur"",""3"",""78064""
","""event"",""trial"",""time""
""focus"",""3"",""119005""
","""event"",""trial"",""time""
""fullscreenenter"",""1"",""2230""
","
","","","","","","950","<p> Some of the fruits you will see are tasty. Others are rotten on the inside.  </p><p> On each turn, you will see a fruit.   </p><p> You need to decide whether to eat it or not.  </p>","","0","instructions","","","","","","","","","","",""
"learning-instructions","62","433611","0.0-9.0-1.0-0.2","5626","2","14","Male","approach_avoid_spark_v1","""event"",""trial"",""time""
""fullscreenenter"",""1"",""2230""
""blur"",""3"",""78064""
""focus"",""3"",""119005""
","""event"",""trial"",""time""
""blur"",""3"",""78064""
","""event"",""trial"",""time""
""focus"",""3"",""119005""
","""event"",""trial"",""time""
""fullscreenenter"",""1"",""2230""
","
","","","","","","2038.6999998092651","<p> You can eat the fruit by pressing 1 and choose not to eat it by pressing 0. </p><br><div class=""choice-instructions-grid""> <div class=""choice-option""><img src=""images/approach.png"" class=""choice-option-img"" stage=""instructions"" position=""0"" ><div class=""choice-option-text""> Press ""1."" </div></div><div class=""choice-option""><img src=""images/avoid.png"" class=""choice-option-img"" stage=""instructions"" position=""1"" ><div class=""choice-option-text""> Press ""0."" </div></div>","","0","instructions","","","","","","","","","","",""
"learning-instructions","63","442525","0.0-9.0-1.0-0.3","5626","2","14","Male","approach_avoid_spark_v1","""event"",""trial"",""time""
""fullscreenenter"",""1"",""2230""
""blur"",""3"",""78064""
""focus"",""3"",""119005""
","""event"",""trial"",""time""
""blur"",""3"",""78064""
","""event"",""trial"",""time""
""focus"",""3"",""119005""
","""event"",""trial"",""time""
""fullscreenenter"",""1"",""2230""
","
","","","","","","1282.1000001430511","<p> If you eat the fruit and it was tasty, you will win points! </p><p> But if you eat the fruit and it was rotten, you will lose points. </p>","","0","instructions","","","","","","","","","","",""
"learning-instructions","64","454965","0.0-9.0-1.0-0.4","5626","2","14","Male","approach_avoid_spark_v1","""event"",""trial"",""time""
""fullscreenenter"",""1"",""2230""
""blur"",""3"",""78064""
""focus"",""3"",""119005""
","""event"",""trial"",""time""
""blur"",""3"",""78064""
","""event"",""trial"",""time""
""focus"",""3"",""119005""
","""event"",""trial"",""time""
""fullscreenenter"",""1"",""2230""
","
","","","","","","532.8999998569489","<p> You will earn points based on how tasty or rotten the fruit was. </p><p> If it was tasty, you will WIN anywhere from 1 - 9 points, </p><p> but if it was rotten, you will LOSE anywhere from 1 - 9 points. </p>","","0","instructions","","","","","","","","","","",""
"learning-instructions","65","464261","0.0-9.0-1.0-0.5","5626","2","14","Male","approach_avoid_spark_v1","""event"",""trial"",""time""
""fullscreenenter"",""1"",""2230""
""blur"",""3"",""78064""
""focus"",""3"",""119005""
","""event"",""trial"",""time""
""blur"",""3"",""78064""
","""event"",""trial"",""time""
""focus"",""3"",""119005""
","""event"",""trial"",""time""
""fullscreenenter"",""1"",""2230""
","
","","","","","","1701.8999998569489","<p> You will see how many points you won or lost in the center of the screen. </p><p> Here is what you would see if you earned 5 points: </p><p style=""color:green;font-size:50px;font-weight:bolder"">5</p>","","0","instructions","","","","","","","","","","",""
"learning-instructions","66","469665","0.0-9.0-1.0-0.6","5626","2","14","Male","approach_avoid_spark_v1","""event"",""trial"",""time""
""fullscreenenter"",""1"",""2230""
""blur"",""3"",""78064""
""focus"",""3"",""119005""
","""event"",""trial"",""time""
""blur"",""3"",""78064""
","""event"",""trial"",""time""
""focus"",""3"",""119005""
","""event"",""trial"",""time""
""fullscreenenter"",""1"",""2230""
","
","","","","","","2020.6999998092651","<p> And here is what you would see if you lost 3 points: </p><p style=""color:red;font-size:50px;font-weight:bolder"">-3</p>","","0","instructions","","","","","","","","","","",""
"learning-instructions","67","484463","0.0-9.0-1.0-0.7","5626","2","14","Male","approach_avoid_spark_v1","""event"",""trial"",""time""
""fullscreenenter"",""1"",""2230""
""blur"",""3"",""78064""
""focus"",""3"",""119005""
","""event"",""trial"",""time""
""blur"",""3"",""78064""
","""event"",""trial"",""time""
""focus"",""3"",""119005""
","""event"",""trial"",""time""
""fullscreenenter"",""1"",""2230""
","
","","","","","","617","<p> Some fruit is very tasty or very rotten. </p><p> These fruits will make you win or lose LOTS of points. </p><p> Other fruits are only kind of tasty or kind of rotten. </p><p> These fruits will make you win or lose small amounts of points. </p>","","0","instructions","","","","","","","","","","",""
"learning-instructions","68","495301","0.0-9.0-1.0-0.8","5626","2","14","Male","approach_avoid_spark_v1","""event"",""trial"",""time""
""fullscreenenter"",""1"",""2230""
""blur"",""3"",""78064""
""focus"",""3"",""119005""
","""event"",""trial"",""time""
""blur"",""3"",""78064""
","""event"",""trial"",""time""
""focus"",""3"",""119005""
","""event"",""trial"",""time""
""fullscreenenter"",""1"",""2230""
","
","","","","","","268.90000009536743","<p> If you choose to not eat the fruit, you will not win or lose any points. </p><p>  However, in the center of the screen, you will see the number of points you WOULD HAVE earned if you had eaten the fruit. </p>","","0","instructions","","","","","","","","","","",""
"learning-instructions","69","505489","0.0-9.0-1.0-0.9","5626","2","14","Male","approach_avoid_spark_v1","""event"",""trial"",""time""
""fullscreenenter"",""1"",""2230""
""blur"",""3"",""78064""
""focus"",""3"",""119005""
","""event"",""trial"",""time""
""blur"",""3"",""78064""
","""event"",""trial"",""time""
""focus"",""3"",""119005""
","""event"",""trial"",""time""
""fullscreenenter"",""1"",""2230""
","
","","","","","","315.40000009536743","<p> Here is what you might see if you did not eat the fruit but the fruit was tasty: </p><p style=""color:grey; font-size:50px; display: inline-block; border-spacing: 15px; border-width:3px; border-style:solid; border-color:red"">  &nbsp; 6 &nbsp; </p><p> Remember, in this case, you would not win or lose ANY points because you did not eat the fruit.  </p>","","0","instructions","","","","","","","","","","",""
"learning-instructions","70","513609","0.0-9.0-1.0-0.10","5626","2","14","Male","approach_avoid_spark_v1","""event"",""trial"",""time""
""fullscreenenter"",""1"",""2230""
""blur"",""3"",""78064""
""focus"",""3"",""119005""
","""event"",""trial"",""time""
""blur"",""3"",""78064""
","""event"",""trial"",""time""
""focus"",""3"",""119005""
","""event"",""trial"",""time""
""fullscreenenter"",""1"",""2230""
","
","","","","","","424.7000000476837","<p> Try to make the best choice for each fruit because </p><p> at the end of the game, you will earn bonus money based on how many points you earned. </p>","","0","instructions","","","","","","","","","","",""
"learning-instructions","71","523521","0.0-9.0-1.0-0.11","5626","2","14","Male","approach_avoid_spark_v1","""event"",""trial"",""time""
""fullscreenenter"",""1"",""2230""
""blur"",""3"",""78064""
""focus"",""3"",""119005""
","""event"",""trial"",""time""
""blur"",""3"",""78064""
","""event"",""trial"",""time""
""focus"",""3"",""119005""
","""event"",""trial"",""time""
""fullscreenenter"",""1"",""2230""
","
","","","","","","1733.7000000476837","<p> You will have 3 seconds to make each choice. Try to respond before time runs out! </p><p> You will lose 5 points each time you do not make a response. </p>","","0","instructions","","","","","","","","","","",""
"html-keyboard-response","72","524126","0.0-9.0-2.0-0.0","5626","2","14","Male","approach_avoid_spark_v1","""event"",""trial"",""time""
""fullscreenenter"",""1"",""2230""
""blur"",""3"",""78064""
""focus"",""3"",""119005""
","""event"",""trial"",""time""
""blur"",""3"",""78064""
","""event"",""trial"",""time""
""focus"",""3"",""119005""
","""event"",""trial"",""time""
""fullscreenenter"",""1"",""2230""
","
","","","","","","null","<div style=""font-size:60px;"">+</div>","null","","fixation","","","","","","","","","","",""
"aa-learning-trial","73","527128","0.0-9.0-2.0-1.0","5626","2","14","Male","approach_avoid_spark_v1","""event"",""trial"",""time""
""fullscreenenter"",""1"",""2230""
""blur"",""3"",""78064""
""focus"",""3"",""119005""
","""event"",""trial"",""time""
""blur"",""3"",""78064""
","""event"",""trial"",""time""
""focus"",""3"",""119005""
","""event"",""trial"",""time""
""fullscreenenter"",""1"",""2230""
","
","","","","","","1940.9000000953674","images/orange6.png","","","learning","2","-5","`","","orange","fruit","2","0","","bad","[-3]"
"html-keyboard-response","74","527631","0.0-9.0-2.0-0.1","5626","2","14","Male","approach_avoid_spark_v1","""event"",""trial"",""time""
""fullscreenenter"",""1"",""2230""
""blur"",""3"",""78064""
""focus"",""3"",""119005""
","""event"",""trial"",""time""
""blur"",""3"",""78064""
","""event"",""trial"",""time""
""focus"",""3"",""119005""
","""event"",""trial"",""time""
""fullscreenenter"",""1"",""2230""
","
","","","","","","null","<div style=""font-size:60px;"">+</div>","null","","fixation","","","","","","","","","","",""
"aa-learning-trial","75","530634","0.0-9.0-2.0-1.1","5626","2","14","Male","approach_avoid_spark_v1","""event"",""trial"",""time""
""fullscreenenter"",""1"",""2230""
""blur"",""3"",""78064""
""focus"",""3"",""119005""
","""event"",""trial"",""time""
""blur"",""3"",""78064""
","""event"",""trial"",""time""
""focus"",""3"",""119005""
","""event"",""trial"",""time""
""fullscreenenter"",""1"",""2230""
","
","","","","","","235.89999985694885","images/orange8.png","","","learning","5","5","1","1","orange","fruit","2","0","","bad","[-3]"
"html-keyboard-response","76","531139","0.0-9.0-2.0-0.2","5626","2","14","Male","approach_avoid_spark_v1","""event"",""trial"",""time""
""fullscreenenter"",""1"",""2230""
""blur"",""3"",""78064""
""focus"",""3"",""119005""
","""event"",""trial"",""time""
""blur"",""3"",""78064""
","""event"",""trial"",""time""
""focus"",""3"",""119005""
","""event"",""trial"",""time""
""fullscreenenter"",""1"",""2230""
","
","","","","","","null","<div style=""font-size:60px;"">+</div>","null","","fixation","","","","","","","","","","",""
"aa-learning-trial","77","534141","0.0-9.0-2.0-1.2","5626","2","14","Male","approach_avoid_spark_v1","""event"",""trial"",""time""
""fullscreenenter"",""1"",""2230""
""blur"",""3"",""78064""
""focus"",""3"",""119005""
","""event"",""trial"",""time""
""blur"",""3"",""78064""
","""event"",""trial"",""time""
""focus"",""3"",""119005""
","""event"",""trial"",""time""
""fullscreenenter"",""1"",""2230""
","
","","","","","","359.09999990463257","images/orange7.png","","","learning","-3","-3","1","1","orange","fruit","2","0","","bad","[-3]"
"html-keyboard-response","78","534645","0.0-9.0-2.0-0.3","5626","2","14","Male","approach_avoid_spark_v1","""event"",""trial"",""time""
""fullscreenenter"",""1"",""2230""
""blur"",""3"",""78064""
""focus"",""3"",""119005""
","""event"",""trial"",""time""
""blur"",""3"",""78064""
","""event"",""trial"",""time""
""focus"",""3"",""119005""
","""event"",""trial"",""time""
""fullscreenenter"",""1"",""2230""
","
","","","","","","null","<div style=""font-size:60px;"">+</div>","null","","fixation","","","","","","","","","","",""
"aa-learning-trial","79","537646","0.0-9.0-2.0-1.3","5626","2","14","Male","approach_avoid_spark_v1","""event"",""trial"",""time""
""fullscreenenter"",""1"",""2230""
""blur"",""3"",""78064""
""focus"",""3"",""119005""
","""event"",""trial"",""time""
""blur"",""3"",""78064""
","""event"",""trial"",""time""
""focus"",""3"",""119005""
","""event"",""trial"",""time""
""fullscreenenter"",""1"",""2230""
","
","","","","","","392.39999985694885","images/apple5.png","","","learning","3","3","1","1","apple","fruit","2","0","","good","[3]"
"html-keyboard-response","80","538149","0.0-9.0-2.0-0.4","5626","2","14","Male","approach_avoid_spark_v1","""event"",""trial"",""time""
""fullscreenenter"",""1"",""2230""
""blur"",""3"",""78064""
""focus"",""3"",""119005""
","""event"",""trial"",""time""
""blur"",""3"",""78064""
","""event"",""trial"",""time""
""focus"",""3"",""119005""
","""event"",""trial"",""time""
""fullscreenenter"",""1"",""2230""
","
","","","","","","null","<div style=""font-size:60px;"">+</div>","null","","fixation","","","","","","","","","","",""
"aa-learning-trial","81","541152","0.0-9.0-2.0-1.4","5626","2","14","Male","approach_avoid_spark_v1","""event"",""trial"",""time""
""fullscreenenter"",""1"",""2230""
""blur"",""3"",""78064""
""focus"",""3"",""119005""
","""event"",""trial"",""time""
""blur"",""3"",""78064""
","""event"",""trial"",""time""
""focus"",""3"",""119005""
","""event"",""trial"",""time""
""fullscreenenter"",""1"",""2230""
","
","","","","","","263.39999985694885","images/orange6.png","","","learning","2","2","1","1","orange","fruit","2","0","","bad","[-3]"
"html-keyboard-response","82","541657","0.0-9.0-2.0-0.5","5626","2","14","Male","approach_avoid_spark_v1","""event"",""trial"",""time""
""fullscreenenter"",""1"",""2230""
""blur"",""3"",""78064""
""focus"",""3"",""119005""
","""event"",""trial"",""time""
""blur"",""3"",""78064""
","""event"",""trial"",""time""
""focus"",""3"",""119005""
","""event"",""trial"",""time""
""fullscreenenter"",""1"",""2230""
","
","","","","","","null","<div style=""font-size:60px;"">+</div>","null","","fixation","","","","","","","","","","",""
"aa-learning-trial","83","544658","0.0-9.0-2.0-1.5","5626","2","14","Male","approach_avoid_spark_v1","""event"",""trial"",""time""
""fullscreenenter"",""1"",""2230""
""blur"",""3"",""78064""
""focus"",""3"",""119005""
","""event"",""trial"",""time""
""blur"",""3"",""78064""
","""event"",""trial"",""time""
""focus"",""3"",""119005""
","""event"",""trial"",""time""
""fullscreenenter"",""1"",""2230""
","
","","","","","","10.700000047683716","images/apple7.png","","","learning","-5","-5","1","1","apple","fruit","2","0","","good","[3]"
"html-keyboard-response","84","545159","0.0-9.0-2.0-0.6","5626","2","14","Male","approach_avoid_spark_v1","""event"",""trial"",""time""
""fullscreenenter"",""1"",""2230""
""blur"",""3"",""78064""
""focus"",""3"",""119005""
","""event"",""trial"",""time""
""blur"",""3"",""78064""
","""event"",""trial"",""time""
""focus"",""3"",""119005""
","""event"",""trial"",""time""
""fullscreenenter"",""1"",""2230""
","
","","","","","","null","<div style=""font-size:60px;"">+</div>","null","","fixation","","","","","","","","","","",""
"aa-learning-trial","85","548161","0.0-9.0-2.0-1.6","5626","2","14","Male","approach_avoid_spark_v1","""event"",""trial"",""time""
""fullscreenenter"",""1"",""2230""
""blur"",""3"",""78064""
""focus"",""3"",""119005""
","""event"",""trial"",""time""
""blur"",""3"",""78064""
","""event"",""trial"",""time""
""focus"",""3"",""119005""
","""event"",""trial"",""time""
""fullscreenenter"",""1"",""2230""
","
","","","","","","272.90000009536743","images/apple5.png","","","learning","3","3","1","1","apple","fruit","2","0","","good","[3]"
"html-keyboard-response","86","548664","0.0-9.0-2.0-0.7","5626","2","14","Male","approach_avoid_spark_v1","""event"",""trial"",""time""
""fullscreenenter"",""1"",""2230""
""blur"",""3"",""78064""
""focus"",""3"",""119005""
","""event"",""trial"",""time""
""blur"",""3"",""78064""
","""event"",""trial"",""time""
""focus"",""3"",""119005""
","""event"",""trial"",""time""
""fullscreenenter"",""1"",""2230""
","
","","","","","","null","<div style=""font-size:60px;"">+</div>","null","","fixation","","","","","","","","","","",""
"aa-learning-trial","87","551665","0.0-9.0-2.0-1.7","5626","2","14","Male","approach_avoid_spark_v1","""event"",""trial"",""time""
""fullscreenenter"",""1"",""2230""
""blur"",""3"",""78064""
""focus"",""3"",""119005""
","""event"",""trial"",""time""
""blur"",""3"",""78064""
","""event"",""trial"",""time""
""focus"",""3"",""119005""
","""event"",""trial"",""time""
""fullscreenenter"",""1"",""2230""
","
","","","","","","473.5","images/banana2.png","","","learning","4","4","1","1","banana","fruit","2","0","","neutral","0"
"html-keyboard-response","88","552167","0.0-9.0-2.0-0.8","5626","2","14","Male","approach_avoid_spark_v1","""event"",""trial"",""time""
""fullscreenenter"",""1"",""2230""
""blur"",""3"",""78064""
""focus"",""3"",""119005""
","""event"",""trial"",""time""
""blur"",""3"",""78064""
","""event"",""trial"",""time""
""focus"",""3"",""119005""
","""event"",""trial"",""time""
""fullscreenenter"",""1"",""2230""
","
","","","","","","null","<div style=""font-size:60px;"">+</div>","null","","fixation","","","","","","","","","","",""
"aa-learning-trial","89","555172","0.0-9.0-2.0-1.8","5626","2","14","Male","approach_avoid_spark_v1","""event"",""trial"",""time""
""fullscreenenter"",""1"",""2230""
""blur"",""3"",""78064""
""focus"",""3"",""119005""
","""event"",""trial"",""time""
""blur"",""3"",""78064""
","""event"",""trial"",""time""
""focus"",""3"",""119005""
","""event"",""trial"",""time""
""fullscreenenter"",""1"",""2230""
","
","","","","","","150.10000014305115","images/banana7.png","","","learning","-6","-6","1","1","banana","fruit","2","0","","neutral","0"
"html-keyboard-response","90","555677","0.0-9.0-2.0-0.9","5626","2","14","Male","approach_avoid_spark_v1","""event"",""trial"",""time""
""fullscreenenter"",""1"",""2230""
""blur"",""3"",""78064""
""focus"",""3"",""119005""
","""event"",""trial"",""time""
""blur"",""3"",""78064""
","""event"",""trial"",""time""
""focus"",""3"",""119005""
","""event"",""trial"",""time""
""fullscreenenter"",""1"",""2230""
","
","","","","","","null","<div style=""font-size:60px;"">+</div>","null","","fixation","","","","","","","","","","",""
"aa-learning-trial","91","558678","0.0-9.0-2.0-1.9","5626","2","14","Male","approach_avoid_spark_v1","""event"",""trial"",""time""
""fullscreenenter"",""1"",""2230""
""blur"",""3"",""78064""
""focus"",""3"",""119005""
","""event"",""trial"",""time""
""blur"",""3"",""78064""
","""event"",""trial"",""time""
""focus"",""3"",""119005""
","""event"",""trial"",""time""
""fullscreenenter"",""1"",""2230""
","
","","","","","","870.8000001907349","images/orange8.png","","","learning","5","5","1","1","orange","fruit","2","0","","bad","[-3]"
"html-keyboard-response","92","559179","0.0-9.0-2.0-0.10","5626","2","14","Male","approach_avoid_spark_v1","""event"",""trial"",""time""
""fullscreenenter"",""1"",""2230""
""blur"",""3"",""78064""
""focus"",""3"",""119005""
","""event"",""trial"",""time""
""blur"",""3"",""78064""
","""event"",""trial"",""time""
""focus"",""3"",""119005""
","""event"",""trial"",""time""
""fullscreenenter"",""1"",""2230""
","
","","","","","","null","<div style=""font-size:60px;"">+</div>","null","","fixation","","","","","","","","","","",""
"aa-learning-trial","93","562181","0.0-9.0-2.0-1.10","5626","2","14","Male","approach_avoid_spark_v1","""event"",""trial"",""time""
""fullscreenenter"",""1"",""2230""
""blur"",""3"",""78064""
""focus"",""3"",""119005""
","""event"",""trial"",""time""
""blur"",""3"",""78064""
","""event"",""trial"",""time""
""focus"",""3"",""119005""
","""event"",""trial"",""time""
""fullscreenenter"",""1"",""2230""
","
","","","","","","2258.7000000476837","images/apple7.png","","","learning","-5","-5","-","","apple","fruit","2","0","","good","[3]"
"html-keyboard-response","94","562684","0.0-9.0-2.0-0.11","5626","2","14","Male","approach_avoid_spark_v1","""event"",""trial"",""time""
""fullscreenenter"",""1"",""2230""
""blur"",""3"",""78064""
""focus"",""3"",""119005""
","""event"",""trial"",""time""
""blur"",""3"",""78064""
","""event"",""trial"",""time""
""focus"",""3"",""119005""
","""event"",""trial"",""time""
""fullscreenenter"",""1"",""2230""
","
","","","","","","null","<div style=""font-size:60px;"">+</div>","null","","fixation","","","","","","","","","","",""
"aa-learning-trial","95","565689","0.0-9.0-2.0-1.11","5626","2","14","Male","approach_avoid_spark_v1","""event"",""trial"",""time""
""fullscreenenter"",""1"",""2230""
""blur"",""3"",""78064""
""focus"",""3"",""119005""
","""event"",""trial"",""time""
""blur"",""3"",""78064""
","""event"",""trial"",""time""
""focus"",""3"",""119005""
","""event"",""trial"",""time""
""fullscreenenter"",""1"",""2230""
","
","","","","","","1093.9000000953674","images/apple6.png","","","learning","1","1","1","1","apple","fruit","2","0","","good","[3]"
"html-keyboard-response","96","566190","0.0-9.0-2.0-0.12","5626","2","14","Male","approach_avoid_spark_v1","""event"",""trial"",""time""
""fullscreenenter"",""1"",""2230""
""blur"",""3"",""78064""
""focus"",""3"",""119005""
","""event"",""trial"",""time""
""blur"",""3"",""78064""
","""event"",""trial"",""time""
""focus"",""3"",""119005""
","""event"",""trial"",""time""
""fullscreenenter"",""1"",""2230""
","
","","","","","","null","<div style=""font-size:60px;"">+</div>","null","","fixation","","","","","","","","","","",""
"aa-learning-trial","97","569193","0.0-9.0-2.0-1.12","5626","2","14","Male","approach_avoid_spark_v1","""event"",""trial"",""time""
""fullscreenenter"",""1"",""2230""
""blur"",""3"",""78064""
""focus"",""3"",""119005""
","""event"",""trial"",""time""
""blur"",""3"",""78064""
","""event"",""trial"",""time""
""focus"",""3"",""119005""
","""event"",""trial"",""time""
""fullscreenenter"",""1"",""2230""
","
","","","","","","798","images/banana3.png","","","learning","-4","-4","1","1","banana","fruit","2","0","","neutral","0"
"html-keyboard-response","98","569698","0.0-9.0-2.0-0.13","5626","2","14","Male","approach_avoid_spark_v1","""event"",""trial"",""time""
""fullscreenenter"",""1"",""2230""
""blur"",""3"",""78064""
""focus"",""3"",""119005""
","""event"",""trial"",""time""
""blur"",""3"",""78064""
","""event"",""trial"",""time""
""focus"",""3"",""119005""
","""event"",""trial"",""time""
""fullscreenenter"",""1"",""2230""
","
","","","","","","null","<div style=""font-size:60px;"">+</div>","null","","fixation","","","","","","","","","","",""
"aa-learning-trial","99","572703","0.0-9.0-2.0-1.13","5626","2","14","Male","approach_avoid_spark_v1","""event"",""trial"",""time""
""fullscreenenter"",""1"",""2230""
""blur"",""3"",""78064""
""focus"",""3"",""119005""
","""event"",""trial"",""time""
""blur"",""3"",""78064""
","""event"",""trial"",""time""
""focus"",""3"",""119005""
","""event"",""trial"",""time""
""fullscreenenter"",""1"",""2230""
","
","","","","","","725.2000000476837","images/banana3.png","","","learning","-4","-4","1","1","banana","fruit","2","0","","neutral","0"
"html-keyboard-response","100","573208","0.0-9.0-2.0-0.14","5626","2","14","Male","approach_avoid_spark_v1","""event"",""trial"",""time""
""fullscreenenter"",""1"",""2230""
""blur"",""3"",""78064""
""focus"",""3"",""119005""
","""event"",""trial"",""time""
""blur"",""3"",""78064""
","""event"",""trial"",""time""
""focus"",""3"",""119005""
","""event"",""trial"",""time""
""fullscreenenter"",""1"",""2230""
","
","","","","","","null","<div style=""font-size:60px;"">+</div>","null","","fixation","","","","","","","","","","",""
"aa-learning-trial","101","576214","0.0-9.0-2.0-1.14","5626","2","14","Male","approach_avoid_spark_v1","""event"",""trial"",""time""
""fullscreenenter"",""1"",""2230""
""blur"",""3"",""78064""
""focus"",""3"",""119005""
","""event"",""trial"",""time""
""blur"",""3"",""78064""
","""event"",""trial"",""time""
""focus"",""3"",""119005""
","""event"",""trial"",""time""
""fullscreenenter"",""1"",""2230""
","
","","","","","","1249.5999999046326","images/banana7.png","","","learning","-6","-6","1","1","banana","fruit","2","0","","neutral","0"
"html-keyboard-response","102","576720","0.0-9.0-2.0-0.15","5626","2","14","Male","approach_avoid_spark_v1","""event"",""trial"",""time""
""fullscreenenter"",""1"",""2230""
""blur"",""3"",""78064""
""focus"",""3"",""119005""
","""event"",""trial"",""time""
""blur"",""3"",""78064""
","""event"",""trial"",""time""
""focus"",""3"",""119005""
","""event"",""trial"",""time""
""fullscreenenter"",""1"",""2230""
","
","","","","","","null","<div style=""font-size:60px;"">+</div>","null","","fixation","","","","","","","","","","",""
"aa-learning-trial","103","579726","0.0-9.0-2.0-1.15","5626","2","14","Male","approach_avoid_spark_v1","""event"",""trial"",""time""
""fullscreenenter"",""1"",""2230""
""blur"",""3"",""78064""
""focus"",""3"",""119005""
","""event"",""trial"",""time""
""blur"",""3"",""78064""
","""event"",""trial"",""time""
""focus"",""3"",""119005""
","""event"",""trial"",""time""
""fullscreenenter"",""1"",""2230""
","
","","","","","","573.2000000476837","images/banana3.png","","","learning","-4","-4","1","1","banana","fruit","2","0","","neutral","0"
"html-keyboard-response","104","580232","0.0-9.0-2.0-0.16","5626","2","14","Male","approach_avoid_spark_v1","""event"",""trial"",""time""
""fullscreenenter"",""1"",""2230""
""blur"",""3"",""78064""
""focus"",""3"",""119005""
","""event"",""trial"",""time""
""blur"",""3"",""78064""
","""event"",""trial"",""time""
""focus"",""3"",""119005""
","""event"",""trial"",""time""
""fullscreenenter"",""1"",""2230""
","
","","","","","","null","<div style=""font-size:60px;"">+</div>","null","","fixation","","","","","","","","","","",""
"aa-learning-trial","105","583234","0.0-9.0-2.0-1.16","5626","2","14","Male","approach_avoid_spark_v1","""event"",""trial"",""time""
""fullscreenenter"",""1"",""2230""
""blur"",""3"",""78064""
""focus"",""3"",""119005""
","""event"",""trial"",""time""
""blur"",""3"",""78064""
","""event"",""trial"",""time""
""focus"",""3"",""119005""
","""event"",""trial"",""time""
""fullscreenenter"",""1"",""2230""
","
","","","","","","82.89999985694885","images/banana3.png","","","learning","-4","0","0","0","banana","fruit","2","0","","neutral","0"
"html-keyboard-response","106","583738","0.0-9.0-2.0-0.17","5626","2","14","Male","approach_avoid_spark_v1","""event"",""trial"",""time""
""fullscreenenter"",""1"",""2230""
""blur"",""3"",""78064""
""focus"",""3"",""119005""
","""event"",""trial"",""time""
""blur"",""3"",""78064""
","""event"",""trial"",""time""
""focus"",""3"",""119005""
","""event"",""trial"",""time""
""fullscreenenter"",""1"",""2230""
","
","","","","","","null","<div style=""font-size:60px;"">+</div>","null","","fixation","","","","","","","","","","",""
"aa-learning-trial","107","586740","0.0-9.0-2.0-1.17","5626","2","14","Male","approach_avoid_spark_v1","""event"",""trial"",""time""
""fullscreenenter"",""1"",""2230""
""blur"",""3"",""78064""
""focus"",""3"",""119005""
","""event"",""trial"",""time""
""blur"",""3"",""78064""
","""event"",""trial"",""time""
""focus"",""3"",""119005""
","""event"",""trial"",""time""
""fullscreenenter"",""1"",""2230""
","
","","","","","","1040","images/orange8.png","","","learning","5","5","1","1","orange","fruit","2","0","","bad","[-3]"
"html-keyboard-response","108","587245","0.0-9.0-2.0-0.18","5626","2","14","Male","approach_avoid_spark_v1","""event"",""trial"",""time""
""fullscreenenter"",""1"",""2230""
""blur"",""3"",""78064""
""focus"",""3"",""119005""
","""event"",""trial"",""time""
""blur"",""3"",""78064""
","""event"",""trial"",""time""
""focus"",""3"",""119005""
","""event"",""trial"",""time""
""fullscreenenter"",""1"",""2230""
","
","","","","","","null","<div style=""font-size:60px;"">+</div>","null","","fixation","","","","","","","","","","",""
"aa-learning-trial","109","590246","0.0-9.0-2.0-1.18","5626","2","14","Male","approach_avoid_spark_v1","""event"",""trial"",""time""
""fullscreenenter"",""1"",""2230""
""blur"",""3"",""78064""
""focus"",""3"",""119005""
","""event"",""trial"",""time""
""blur"",""3"",""78064""
","""event"",""trial"",""time""
""focus"",""3"",""119005""
","""event"",""trial"",""time""
""fullscreenenter"",""1"",""2230""
","
","","","","","","459","images/banana8.png","","","learning","-1","0","0","0","banana","fruit","2","0","","neutral","0"
"html-keyboard-response","110","590751","0.0-9.0-2.0-0.19","5626","2","14","Male","approach_avoid_spark_v1","""event"",""trial"",""time""
""fullscreenenter"",""1"",""2230""
""blur"",""3"",""78064""
""focus"",""3"",""119005""
","""event"",""trial"",""time""
""blur"",""3"",""78064""
","""event"",""trial"",""time""
""focus"",""3"",""119005""
","""event"",""trial"",""time""
""fullscreenenter"",""1"",""2230""
","
","","","","","","null","<div style=""font-size:60px;"">+</div>","null","","fixation","","","","","","","","","","",""
"aa-learning-trial","111","593752","0.0-9.0-2.0-1.19","5626","2","14","Male","approach_avoid_spark_v1","""event"",""trial"",""time""
""fullscreenenter"",""1"",""2230""
""blur"",""3"",""78064""
""focus"",""3"",""119005""
","""event"",""trial"",""time""
""blur"",""3"",""78064""
","""event"",""trial"",""time""
""focus"",""3"",""119005""
","""event"",""trial"",""time""
""fullscreenenter"",""1"",""2230""
","
","","","","","","1047.5","images/orange8.png","","","learning","5","5","1","1","orange","fruit","2","0","","bad","[-3]"
"html-keyboard-response","112","594257","0.0-9.0-2.0-0.20","5626","2","14","Male","approach_avoid_spark_v1","""event"",""trial"",""time""
""fullscreenenter"",""1"",""2230""
""blur"",""3"",""78064""
""focus"",""3"",""119005""
","""event"",""trial"",""time""
""blur"",""3"",""78064""
","""event"",""trial"",""time""
""focus"",""3"",""119005""
","""event"",""trial"",""time""
""fullscreenenter"",""1"",""2230""
","
","","","","","","null","<div style=""font-size:60px;"">+</div>","null","","fixation","","","","","","","","","","",""
"aa-learning-trial","113","597261","0.0-9.0-2.0-1.20","5626","2","14","Male","approach_avoid_spark_v1","""event"",""trial"",""time""
""fullscreenenter"",""1"",""2230""
""blur"",""3"",""78064""
""focus"",""3"",""119005""
","""event"",""trial"",""time""
""blur"",""3"",""78064""
","""event"",""trial"",""time""
""focus"",""3"",""119005""
","""event"",""trial"",""time""
""fullscreenenter"",""1"",""2230""
","
","","","","","","121.29999995231628","images/apple7.png","","","learning","-5","0","0","0","apple","fruit","2","0","","good","[3]"
"html-keyboard-response","114","597763","0.0-9.0-2.0-0.21","5626","2","14","Male","approach_avoid_spark_v1","""event"",""trial"",""time""
""fullscreenenter"",""1"",""2230""
""blur"",""3"",""78064""
""focus"",""3"",""119005""
","""event"",""trial"",""time""
""blur"",""3"",""78064""
","""event"",""trial"",""time""
""focus"",""3"",""119005""
","""event"",""trial"",""time""
""fullscreenenter"",""1"",""2230""
","
","","","","","","null","<div style=""font-size:60px;"">+</div>","null","","fixation","","","","","","","","","","",""
"aa-learning-trial","115","600764","0.0-9.0-2.0-1.21","5626","2","14","Male","approach_avoid_spark_v1","""event"",""trial"",""time""
""fullscreenenter"",""1"",""2230""
""blur"",""3"",""78064""
""focus"",""3"",""119005""
","""event"",""trial"",""time""
""blur"",""3"",""78064""
","""event"",""trial"",""time""
""focus"",""3"",""119005""
","""event"",""trial"",""time""
""fullscreenenter"",""1"",""2230""
","
","","","","","","515.7999999523163","images/apple7.png","","","learning","-5","0","0","0","apple","fruit","2","0","","good","[3]"
"html-keyboard-response","116","601269","0.0-9.0-2.0-0.22","5626","2","14","Male","approach_avoid_spark_v1","""event"",""trial"",""time""
""fullscreenenter"",""1"",""2230""
""blur"",""3"",""78064""
""focus"",""3"",""119005""
","""event"",""trial"",""time""
""blur"",""3"",""78064""
","""event"",""trial"",""time""
""focus"",""3"",""119005""
","""event"",""trial"",""time""
""fullscreenenter"",""1"",""2230""
","
","","","","","","null","<div style=""font-size:60px;"">+</div>","null","","fixation","","","","","","","","","","",""
"aa-learning-trial","117","604271","0.0-9.0-2.0-1.22","5626","2","14","Male","approach_avoid_spark_v1","""event"",""trial"",""time""
""fullscreenenter"",""1"",""2230""
""blur"",""3"",""78064""
""focus"",""3"",""119005""
","""event"",""trial"",""time""
""blur"",""3"",""78064""
","""event"",""trial"",""time""
""focus"",""3"",""119005""
","""event"",""trial"",""time""
""fullscreenenter"",""1"",""2230""
","
","","","","","","1149.1000001430511","images/banana3.png","","","learning","-4","0","0","0","banana","fruit","2","0","","neutral","0"
"html-keyboard-response","118","604776","0.0-9.0-2.0-0.23","5626","2","14","Male","approach_avoid_spark_v1","""event"",""trial"",""time""
""fullscreenenter"",""1"",""2230""
""blur"",""3"",""78064""
""focus"",""3"",""119005""
","""event"",""trial"",""time""
""blur"",""3"",""78064""
","""event"",""trial"",""time""
""focus"",""3"",""119005""
","""event"",""trial"",""time""
""fullscreenenter"",""1"",""2230""
","
","","","","","","null","<div style=""font-size:60px;"">+</div>","null","","fixation","","","","","","","","","","",""
"aa-learning-trial","119","607779","0.0-9.0-2.0-1.23","5626","2","14","Male","approach_avoid_spark_v1","""event"",""trial"",""time""
""fullscreenenter"",""1"",""2230""
""blur"",""3"",""78064""
""focus"",""3"",""119005""
","""event"",""trial"",""time""
""blur"",""3"",""78064""
","""event"",""trial"",""time""
""focus"",""3"",""119005""
","""event"",""trial"",""time""
""fullscreenenter"",""1"",""2230""
","
","","","","","","597.7999999523163","images/orange8.png","","","learning","5","5","1","1","orange","fruit","2","0","","bad","[-3]"
"html-keyboard-response","120","608282","0.0-9.0-2.0-0.24","5626","2","14","Male","approach_avoid_spark_v1","""event"",""trial"",""time""
""fullscreenenter"",""1"",""2230""
""blur"",""3"",""78064""
""focus"",""3"",""119005""
","""event"",""trial"",""time""
""blur"",""3"",""78064""
","""event"",""trial"",""time""
""focus"",""3"",""119005""
","""event"",""trial"",""time""
""fullscreenenter"",""1"",""2230""
","
","","","","","","null","<div style=""font-size:60px;"">+</div>","null","","fixation","","","","","","","","","","",""
"aa-learning-trial","121","611283","0.0-9.0-2.0-1.24","5626","2","14","Male","approach_avoid_spark_v1","""event"",""trial"",""time""
""fullscreenenter"",""1"",""2230""
""blur"",""3"",""78064""
""focus"",""3"",""119005""
","""event"",""trial"",""time""
""blur"",""3"",""78064""
","""event"",""trial"",""time""
""focus"",""3"",""119005""
","""event"",""trial"",""time""
""fullscreenenter"",""1"",""2230""
","
","","","","","","1306.8999998569489","images/apple5.png","","","learning","3","0","0","0","apple","fruit","2","0","","good","[3]"
"html-keyboard-response","122","611788","0.0-9.0-2.0-0.25","5626","2","14","Male","approach_avoid_spark_v1","""event"",""trial"",""time""
""fullscreenenter"",""1"",""2230""
""blur"",""3"",""78064""
""focus"",""3"",""119005""
","""event"",""trial"",""time""
""blur"",""3"",""78064""
","""event"",""trial"",""time""
""focus"",""3"",""119005""
","""event"",""trial"",""time""
""fullscreenenter"",""1"",""2230""
","
","","","","","","null","<div style=""font-size:60px;"">+</div>","null","","fixation","","","","","","","","","","",""
"aa-learning-trial","123","614789","0.0-9.0-2.0-1.25","5626","2","14","Male","approach_avoid_spark_v1","""event"",""trial"",""time""
""fullscreenenter"",""1"",""2230""
""blur"",""3"",""78064""
""focus"",""3"",""119005""
","""event"",""trial"",""time""
""blur"",""3"",""78064""
","""event"",""trial"",""time""
""focus"",""3"",""119005""
","""event"",""trial"",""time""
""fullscreenenter"",""1"",""2230""
","
","","","","","","231.20000004768372","images/orange6.png","","","learning","2","0","0","0","orange","fruit","2","0","","bad","[-3]"
"html-keyboard-response","124","615294","0.0-9.0-2.0-0.26","5626","2","14","Male","approach_avoid_spark_v1","""event"",""trial"",""time""
""fullscreenenter"",""1"",""2230""
""blur"",""3"",""78064""
""focus"",""3"",""119005""
","""event"",""trial"",""time""
""blur"",""3"",""78064""
","""event"",""trial"",""time""
""focus"",""3"",""119005""
","""event"",""trial"",""time""
""fullscreenenter"",""1"",""2230""
","
","","","","","","null","<div style=""font-size:60px;"">+</div>","null","","fixation","","","","","","","","","","",""
"aa-learning-trial","125","618296","0.0-9.0-2.0-1.26","5626","2","14","Male","approach_avoid_spark_v1","""event"",""trial"",""time""
""fullscreenenter"",""1"",""2230""
""blur"",""3"",""78064""
""focus"",""3"",""119005""
","""event"",""trial"",""time""
""blur"",""3"",""78064""
","""event"",""trial"",""time""
""focus"",""3"",""119005""
","""event"",""trial"",""time""
""fullscreenenter"",""1"",""2230""
","
","","","","","","624.6000001430511","images/apple5.png","","","learning","3","0","0","0","apple","fruit","2","0","","good","[3]"
"html-keyboard-response","126","618801","0.0-9.0-2.0-0.27","5626","2","14","Male","approach_avoid_spark_v1","""event"",""trial"",""time""
""fullscreenenter"",""1"",""2230""
""blur"",""3"",""78064""
""focus"",""3"",""119005""
","""event"",""trial"",""time""
""blur"",""3"",""78064""
","""event"",""trial"",""time""
""focus"",""3"",""119005""
","""event"",""trial"",""time""
""fullscreenenter"",""1"",""2230""
","
","","","","","","null","<div style=""font-size:60px;"">+</div>","null","","fixation","","","","","","","","","","",""
"aa-learning-trial","127","621802","0.0-9.0-2.0-1.27","5626","2","14","Male","approach_avoid_spark_v1","""event"",""trial"",""time""
""fullscreenenter"",""1"",""2230""
""blur"",""3"",""78064""
""focus"",""3"",""119005""
","""event"",""trial"",""time""
""blur"",""3"",""78064""
","""event"",""trial"",""time""
""focus"",""3"",""119005""
","""event"",""trial"",""time""
""fullscreenenter"",""1"",""2230""
","
","","","","","","1933.5","images/orange6.png","","","learning","2","2","1","1","orange","fruit","2","0","","bad","[-3]"
"html-keyboard-response","128","622307","0.0-9.0-2.0-0.28","5626","2","14","Male","approach_avoid_spark_v1","""event"",""trial"",""time""
""fullscreenenter"",""1"",""2230""
""blur"",""3"",""78064""
""focus"",""3"",""119005""
","""event"",""trial"",""time""
""blur"",""3"",""78064""
","""event"",""trial"",""time""
""focus"",""3"",""119005""
","""event"",""trial"",""time""
""fullscreenenter"",""1"",""2230""
","
","","","","","","null","<div style=""font-size:60px;"">+</div>","null","","fixation","","","","","","","","","","",""
"aa-learning-trial","129","625308","0.0-9.0-2.0-1.28","5626","2","14","Male","approach_avoid_spark_v1","""event"",""trial"",""time""
""fullscreenenter"",""1"",""2230""
""blur"",""3"",""78064""
""focus"",""3"",""119005""
","""event"",""trial"",""time""
""blur"",""3"",""78064""
","""event"",""trial"",""time""
""focus"",""3"",""119005""
","""event"",""trial"",""time""
""fullscreenenter"",""1"",""2230""
","
","","","","","","677.1999998092651","images/banana7.png","","","learning","-6","0","0","0","banana","fruit","2","0","","neutral","0"
"html-keyboard-response","130","625813","0.0-9.0-2.0-0.29","5626","2","14","Male","approach_avoid_spark_v1","""event"",""trial"",""time""
""fullscreenenter"",""1"",""2230""
""blur"",""3"",""78064""
""focus"",""3"",""119005""
","""event"",""trial"",""time""
""blur"",""3"",""78064""
","""event"",""trial"",""time""
""focus"",""3"",""119005""
","""event"",""trial"",""time""
""fullscreenenter"",""1"",""2230""
","
","","","","","","null","<div style=""font-size:60px;"">+</div>","null","","fixation","","","","","","","","","","",""
"aa-learning-trial","131","628814","0.0-9.0-2.0-1.29","5626","2","14","Male","approach_avoid_spark_v1","""event"",""trial"",""time""
""fullscreenenter"",""1"",""2230""
""blur"",""3"",""78064""
""focus"",""3"",""119005""
","""event"",""trial"",""time""
""blur"",""3"",""78064""
","""event"",""trial"",""time""
""focus"",""3"",""119005""
","""event"",""trial"",""time""
""fullscreenenter"",""1"",""2230""
","
","","","","","","1836.4000000953674","images/apple6.png","","","learning","1","0","0","0","apple","fruit","2","0","","good","[3]"
"html-keyboard-response","132","629319","0.0-9.0-2.0-0.30","5626","2","14","Male","approach_avoid_spark_v1","""event"",""trial"",""time""
""fullscreenenter"",""1"",""2230""
""blur"",""3"",""78064""
""focus"",""3"",""119005""
","""event"",""trial"",""time""
""blur"",""3"",""78064""
","""event"",""trial"",""time""
""focus"",""3"",""119005""
","""event"",""trial"",""time""
""fullscreenenter"",""1"",""2230""
","
","","","","","","null","<div style=""font-size:60px;"">+</div>","null","","fixation","","","","","","","","","","",""
"aa-learning-trial","133","632320","0.0-9.0-2.0-1.30","5626","2","14","Male","approach_avoid_spark_v1","""event"",""trial"",""time""
""fullscreenenter"",""1"",""2230""
""blur"",""3"",""78064""
""focus"",""3"",""119005""
","""event"",""trial"",""time""
""blur"",""3"",""78064""
","""event"",""trial"",""time""
""focus"",""3"",""119005""
","""event"",""trial"",""time""
""fullscreenenter"",""1"",""2230""
","
","","","","","","760.5999999046326","images/banana7.png","","","learning","-6","0","0","0","banana","fruit","2","0","","neutral","0"
"html-keyboard-response","134","632826","0.0-9.0-2.0-0.31","5626","2","14","Male","approach_avoid_spark_v1","""event"",""trial"",""time""
""fullscreenenter"",""1"",""2230""
""blur"",""3"",""78064""
""focus"",""3"",""119005""
","""event"",""trial"",""time""
""blur"",""3"",""78064""
","""event"",""trial"",""time""
""focus"",""3"",""119005""
","""event"",""trial"",""time""
""fullscreenenter"",""1"",""2230""
","
","","","","","","null","<div style=""font-size:60px;"">+</div>","null","","fixation","","","","","","","","","","",""
"aa-learning-trial","135","635832","0.0-9.0-2.0-1.31","5626","2","14","Male","approach_avoid_spark_v1","""event"",""trial"",""time""
""fullscreenenter"",""1"",""2230""
""blur"",""3"",""78064""
""focus"",""3"",""119005""
","""event"",""trial"",""time""
""blur"",""3"",""78064""
","""event"",""trial"",""time""
""focus"",""3"",""119005""
","""event"",""trial"",""time""
""fullscreenenter"",""1"",""2230""
","
","","","","","","824","images/banana3.png","","","learning","-4","0","0","0","banana","fruit","2","0","","neutral","0"
"html-keyboard-response","136","636337","0.0-9.0-2.0-0.32","5626","2","14","Male","approach_avoid_spark_v1","""event"",""trial"",""time""
""fullscreenenter"",""1"",""2230""
""blur"",""3"",""78064""
""focus"",""3"",""119005""
","""event"",""trial"",""time""
""blur"",""3"",""78064""
","""event"",""trial"",""time""
""focus"",""3"",""119005""
","""event"",""trial"",""time""
""fullscreenenter"",""1"",""2230""
","
","","","","","","null","<div style=""font-size:60px;"">+</div>","null","","fixation","","","","","","","","","","",""
"aa-learning-trial","137","639339","0.0-9.0-2.0-1.32","5626","2","14","Male","approach_avoid_spark_v1","""event"",""trial"",""time""
""fullscreenenter"",""1"",""2230""
""blur"",""3"",""78064""
""focus"",""3"",""119005""
","""event"",""trial"",""time""
""blur"",""3"",""78064""
","""event"",""trial"",""time""
""focus"",""3"",""119005""
","""event"",""trial"",""time""
""fullscreenenter"",""1"",""2230""
","
","","","","","","716.9000000953674","images/banana5.png","","","learning","7","0","0","0","banana","fruit","2","0","","neutral","0"
"html-keyboard-response","138","639844","0.0-9.0-2.0-0.33","5626","2","14","Male","approach_avoid_spark_v1","""event"",""trial"",""time""
""fullscreenenter"",""1"",""2230""
""blur"",""3"",""78064""
""focus"",""3"",""119005""
","""event"",""trial"",""time""
""blur"",""3"",""78064""
","""event"",""trial"",""time""
""focus"",""3"",""119005""
","""event"",""trial"",""time""
""fullscreenenter"",""1"",""2230""
","
","","","","","","null","<div style=""font-size:60px;"">+</div>","null","","fixation","","","","","","","","","","",""
"aa-learning-trial","139","642845","0.0-9.0-2.0-1.33","5626","2","14","Male","approach_avoid_spark_v1","""event"",""trial"",""time""
""fullscreenenter"",""1"",""2230""
""blur"",""3"",""78064""
""focus"",""3"",""119005""
","""event"",""trial"",""time""
""blur"",""3"",""78064""
","""event"",""trial"",""time""
""focus"",""3"",""119005""
","""event"",""trial"",""time""
""fullscreenenter"",""1"",""2230""
","
","","","","","","841.0999999046326","images/apple5.png","","","learning","3","3","1","1","apple","fruit","2","0","","good","[3]"
"html-keyboard-response","140","643350","0.0-9.0-2.0-0.34","5626","2","14","Male","approach_avoid_spark_v1","""event"",""trial"",""time""
""fullscreenenter"",""1"",""2230""
""blur"",""3"",""78064""
""focus"",""3"",""119005""
","""event"",""trial"",""time""
""blur"",""3"",""78064""
","""event"",""trial"",""time""
""focus"",""3"",""119005""
","""event"",""trial"",""time""
""fullscreenenter"",""1"",""2230""
","
","","","","","","null","<div style=""font-size:60px;"">+</div>","null","","fixation","","","","","","","","","","",""
"aa-learning-trial","141","646356","0.0-9.0-2.0-1.34","5626","2","14","Male","approach_avoid_spark_v1","""event"",""trial"",""time""
""fullscreenenter"",""1"",""2230""
""blur"",""3"",""78064""
""focus"",""3"",""119005""
","""event"",""trial"",""time""
""blur"",""3"",""78064""
","""event"",""trial"",""time""
""focus"",""3"",""119005""
","""event"",""trial"",""time""
""fullscreenenter"",""1"",""2230""
","
","","","","","","754.7999999523163","images/banana7.png","","","learning","-6","0","0","0","banana","fruit","2","0","","neutral","0"
"html-keyboard-response","142","646862","0.0-9.0-2.0-0.35","5626","2","14","Male","approach_avoid_spark_v1","""event"",""trial"",""time""
""fullscreenenter"",""1"",""2230""
""blur"",""3"",""78064""
""focus"",""3"",""119005""
","""event"",""trial"",""time""
""blur"",""3"",""78064""
","""event"",""trial"",""time""
""focus"",""3"",""119005""
","""event"",""trial"",""time""
""fullscreenenter"",""1"",""2230""
","
","","","","","","null","<div style=""font-size:60px;"">+</div>","null","","fixation","","","","","","","","","","",""
"aa-learning-trial","143","649863","0.0-9.0-2.0-1.35","5626","2","14","Male","approach_avoid_spark_v1","""event"",""trial"",""time""
""fullscreenenter"",""1"",""2230""
""blur"",""3"",""78064""
""focus"",""3"",""119005""
","""event"",""trial"",""time""
""blur"",""3"",""78064""
","""event"",""trial"",""time""
""focus"",""3"",""119005""
","""event"",""trial"",""time""
""fullscreenenter"",""1"",""2230""
","
","","","","","","663","images/apple7.png","","","learning","-5","-5","1","1","apple","fruit","2","0","","good","[3]"
"html-keyboard-response","144","650368","0.0-9.0-2.0-0.36","5626","2","14","Male","approach_avoid_spark_v1","""event"",""trial"",""time""
""fullscreenenter"",""1"",""2230""
""blur"",""3"",""78064""
""focus"",""3"",""119005""
","""event"",""trial"",""time""
""blur"",""3"",""78064""
","""event"",""trial"",""time""
""focus"",""3"",""119005""
","""event"",""trial"",""time""
""fullscreenenter"",""1"",""2230""
","
","","","","","","null","<div style=""font-size:60px;"">+</div>","null","","fixation","","","","","","","","","","",""
"aa-learning-trial","145","653369","0.0-9.0-2.0-1.36","5626","2","14","Male","approach_avoid_spark_v1","""event"",""trial"",""time""
""fullscreenenter"",""1"",""2230""
""blur"",""3"",""78064""
""focus"",""3"",""119005""
","""event"",""trial"",""time""
""blur"",""3"",""78064""
","""event"",""trial"",""time""
""focus"",""3"",""119005""
","""event"",""trial"",""time""
""fullscreenenter"",""1"",""2230""
","
","","","","","","1071.7000000476837","images/banana7.png","","","learning","-6","0","0","0","banana","fruit","2","0","","neutral","0"
"html-keyboard-response","146","653874","0.0-9.0-2.0-0.37","5626","2","14","Male","approach_avoid_spark_v1","""event"",""trial"",""time""
""fullscreenenter"",""1"",""2230""
""blur"",""3"",""78064""
""focus"",""3"",""119005""
","""event"",""trial"",""time""
""blur"",""3"",""78064""
","""event"",""trial"",""time""
""focus"",""3"",""119005""
","""event"",""trial"",""time""
""fullscreenenter"",""1"",""2230""
","
","","","","","","null","<div style=""font-size:60px;"">+</div>","null","","fixation","","","","","","","","","","",""
"aa-learning-trial","147","656875","0.0-9.0-2.0-1.37","5626","2","14","Male","approach_avoid_spark_v1","""event"",""trial"",""time""
""fullscreenenter"",""1"",""2230""
""blur"",""3"",""78064""
""focus"",""3"",""119005""
","""event"",""trial"",""time""
""blur"",""3"",""78064""
","""event"",""trial"",""time""
""focus"",""3"",""119005""
","""event"",""trial"",""time""
""fullscreenenter"",""1"",""2230""
","
","","","","","","311.5","images/apple3.png","","","learning","-9","0","0","0","apple","fruit","2","0","","good","[3]"
"html-keyboard-response","148","657380","0.0-9.0-2.0-0.38","5626","2","14","Male","approach_avoid_spark_v1","""event"",""trial"",""time""
""fullscreenenter"",""1"",""2230""
""blur"",""3"",""78064""
""focus"",""3"",""119005""
","""event"",""trial"",""time""
""blur"",""3"",""78064""
","""event"",""trial"",""time""
""focus"",""3"",""119005""
","""event"",""trial"",""time""
""fullscreenenter"",""1"",""2230""
","
","","","","","","null","<div style=""font-size:60px;"">+</div>","null","","fixation","","","","","","","","","","",""
"aa-learning-trial","149","660382","0.0-9.0-2.0-1.38","5626","2","14","Male","approach_avoid_spark_v1","""event"",""trial"",""time""
""fullscreenenter"",""1"",""2230""
""blur"",""3"",""78064""
""focus"",""3"",""119005""
","""event"",""trial"",""time""
""blur"",""3"",""78064""
","""event"",""trial"",""time""
""focus"",""3"",""119005""
","""event"",""trial"",""time""
""fullscreenenter"",""1"",""2230""
","
","","","","","","59.200000047683716","images/orange7.png","","","learning","-3","0","0","0","orange","fruit","2","0","","bad","[-3]"
"html-keyboard-response","150","660887","0.0-9.0-2.0-0.39","5626","2","14","Male","approach_avoid_spark_v1","""event"",""trial"",""time""
""fullscreenenter"",""1"",""2230""
""blur"",""3"",""78064""
""focus"",""3"",""119005""
","""event"",""trial"",""time""
""blur"",""3"",""78064""
","""event"",""trial"",""time""
""focus"",""3"",""119005""
","""event"",""trial"",""time""
""fullscreenenter"",""1"",""2230""
","
","","","","","","null","<div style=""font-size:60px;"">+</div>","null","","fixation","","","","","","","","","","",""
"aa-learning-trial","151","663888","0.0-9.0-2.0-1.39","5626","2","14","Male","approach_avoid_spark_v1","""event"",""trial"",""time""
""fullscreenenter"",""1"",""2230""
""blur"",""3"",""78064""
""focus"",""3"",""119005""
","""event"",""trial"",""time""
""blur"",""3"",""78064""
","""event"",""trial"",""time""
""focus"",""3"",""119005""
","""event"",""trial"",""time""
""fullscreenenter"",""1"",""2230""
","
","","","","","","738.0999999046326","images/apple5.png","","","learning","3","3","1","1","apple","fruit","2","0","","good","[3]"
"html-keyboard-response","152","664393","0.0-9.0-2.0-0.40","5626","2","14","Male","approach_avoid_spark_v1","""event"",""trial"",""time""
""fullscreenenter"",""1"",""2230""
""blur"",""3"",""78064""
""focus"",""3"",""119005""
","""event"",""trial"",""time""
""blur"",""3"",""78064""
","""event"",""trial"",""time""
""focus"",""3"",""119005""
","""event"",""trial"",""time""
""fullscreenenter"",""1"",""2230""
","
","","","","","","null","<div style=""font-size:60px;"">+</div>","null","","fixation","","","","","","","","","","",""
"aa-learning-trial","153","667394","0.0-9.0-2.0-1.40","5626","2","14","Male","approach_avoid_spark_v1","""event"",""trial"",""time""
""fullscreenenter"",""1"",""2230""
""blur"",""3"",""78064""
""focus"",""3"",""119005""
","""event"",""trial"",""time""
""blur"",""3"",""78064""
","""event"",""trial"",""time""
""focus"",""3"",""119005""
","""event"",""trial"",""time""
""fullscreenenter"",""1"",""2230""
","
","","","","","","1222.0999999046326","images/orange4.png","","","learning","6","0","0","0","orange","fruit","2","0","","bad","[-3]"
"html-keyboard-response","154","667899","0.0-9.0-2.0-0.41","5626","2","14","Male","approach_avoid_spark_v1","""event"",""trial"",""time""
""fullscreenenter"",""1"",""2230""
""blur"",""3"",""78064""
""focus"",""3"",""119005""
","""event"",""trial"",""time""
""blur"",""3"",""78064""
","""event"",""trial"",""time""
""focus"",""3"",""119005""
","""event"",""trial"",""time""
""fullscreenenter"",""1"",""2230""
","
","","","","","","null","<div style=""font-size:60px;"">+</div>","null","","fixation","","","","","","","","","","",""
"aa-learning-trial","155","670900","0.0-9.0-2.0-1.41","5626","2","14","Male","approach_avoid_spark_v1","""event"",""trial"",""time""
""fullscreenenter"",""1"",""2230""
""blur"",""3"",""78064""
""focus"",""3"",""119005""
","""event"",""trial"",""time""
""blur"",""3"",""78064""
","""event"",""trial"",""time""
""focus"",""3"",""119005""
","""event"",""trial"",""time""
""fullscreenenter"",""1"",""2230""
","
","","","","","","1376.0999999046326","images/orange1.png","","","learning","-7","0","0","0","orange","fruit","2","0","","bad","[-3]"
"html-keyboard-response","156","671405","0.0-9.0-2.0-0.42","5626","2","14","Male","approach_avoid_spark_v1","""event"",""trial"",""time""
""fullscreenenter"",""1"",""2230""
""blur"",""3"",""78064""
""focus"",""3"",""119005""
","""event"",""trial"",""time""
""blur"",""3"",""78064""
","""event"",""trial"",""time""
""focus"",""3"",""119005""
","""event"",""trial"",""time""
""fullscreenenter"",""1"",""2230""
","
","","","","","","null","<div style=""font-size:60px;"">+</div>","null","","fixation","","","","","","","","","","",""
"aa-learning-trial","157","674407","0.0-9.0-2.0-1.42","5626","2","14","Male","approach_avoid_spark_v1","""event"",""trial"",""time""
""fullscreenenter"",""1"",""2230""
""blur"",""3"",""78064""
""focus"",""3"",""119005""
","""event"",""trial"",""time""
""blur"",""3"",""78064""
","""event"",""trial"",""time""
""focus"",""3"",""119005""
","""event"",""trial"",""time""
""fullscreenenter"",""1"",""2230""
","
","","","","","","479.7999999523163","images/orange6.png","","","learning","2","2","1","1","orange","fruit","2","0","","bad","[-3]"
"html-keyboard-response","158","674912","0.0-9.0-2.0-0.43","5626","2","14","Male","approach_avoid_spark_v1","""event"",""trial"",""time""
""fullscreenenter"",""1"",""2230""
""blur"",""3"",""78064""
""focus"",""3"",""119005""
","""event"",""trial"",""time""
""blur"",""3"",""78064""
","""event"",""trial"",""time""
""focus"",""3"",""119005""
","""event"",""trial"",""time""
""fullscreenenter"",""1"",""2230""
","
","","","","","","null","<div style=""font-size:60px;"">+</div>","null","","fixation","","","","","","","","","","",""
"aa-learning-trial","159","677915","0.0-9.0-2.0-1.43","5626","2","14","Male","approach_avoid_spark_v1","""event"",""trial"",""time""
""fullscreenenter"",""1"",""2230""
""blur"",""3"",""78064""
""focus"",""3"",""119005""
","""event"",""trial"",""time""
""blur"",""3"",""78064""
","""event"",""trial"",""time""
""focus"",""3"",""119005""
","""event"",""trial"",""time""
""fullscreenenter"",""1"",""2230""
","
","","","","","","1023.7000000476837","images/apple8.png","","","learning","9","0","0","0","apple","fruit","2","0","","good","[3]"
"html-keyboard-response","160","678418","0.0-9.0-2.0-0.44","5626","2","14","Male","approach_avoid_spark_v1","""event"",""trial"",""time""
""fullscreenenter"",""1"",""2230""
""blur"",""3"",""78064""
""focus"",""3"",""119005""
","""event"",""trial"",""time""
""blur"",""3"",""78064""
","""event"",""trial"",""time""
""focus"",""3"",""119005""
","""event"",""trial"",""time""
""fullscreenenter"",""1"",""2230""
","
","","","","","","null","<div style=""font-size:60px;"">+</div>","null","","fixation","","","","","","","","","","",""
"aa-learning-trial","161","681419","0.0-9.0-2.0-1.44","5626","2","14","Male","approach_avoid_spark_v1","""event"",""trial"",""time""
""fullscreenenter"",""1"",""2230""
""blur"",""3"",""78064""
""focus"",""3"",""119005""
","""event"",""trial"",""time""
""blur"",""3"",""78064""
","""event"",""trial"",""time""
""focus"",""3"",""119005""
","""event"",""trial"",""time""
""fullscreenenter"",""1"",""2230""
","
","","","","","","1012.1999998092651","images/apple7.png","","","learning","-5","0","0","0","apple","fruit","2","0","","good","[3]"
"html-keyboard-response","162","681924","0.0-9.0-2.0-0.45","5626","2","14","Male","approach_avoid_spark_v1","""event"",""trial"",""time""
""fullscreenenter"",""1"",""2230""
""blur"",""3"",""78064""
""focus"",""3"",""119005""
","""event"",""trial"",""time""
""blur"",""3"",""78064""
","""event"",""trial"",""time""
""focus"",""3"",""119005""
","""event"",""trial"",""time""
""fullscreenenter"",""1"",""2230""
","
","","","","","","null","<div style=""font-size:60px;"">+</div>","null","","fixation","","","","","","","","","","",""
"aa-learning-trial","163","684925","0.0-9.0-2.0-1.45","5626","2","14","Male","approach_avoid_spark_v1","""event"",""trial"",""time""
""fullscreenenter"",""1"",""2230""
""blur"",""3"",""78064""
""focus"",""3"",""119005""
","""event"",""trial"",""time""
""blur"",""3"",""78064""
","""event"",""trial"",""time""
""focus"",""3"",""119005""
","""event"",""trial"",""time""
""fullscreenenter"",""1"",""2230""
","
","","","","","","1106.8999998569489","images/orange6.png","","","learning","2","2","1","1","orange","fruit","2","0","","bad","[-3]"
"html-keyboard-response","164","685430","0.0-9.0-2.0-0.46","5626","2","14","Male","approach_avoid_spark_v1","""event"",""trial"",""time""
""fullscreenenter"",""1"",""2230""
""blur"",""3"",""78064""
""focus"",""3"",""119005""
","""event"",""trial"",""time""
""blur"",""3"",""78064""
","""event"",""trial"",""time""
""focus"",""3"",""119005""
","""event"",""trial"",""time""
""fullscreenenter"",""1"",""2230""
","
","","","","","","null","<div style=""font-size:60px;"">+</div>","null","","fixation","","","","","","","","","","",""
"aa-learning-trial","165","688436","0.0-9.0-2.0-1.46","5626","2","14","Male","approach_avoid_spark_v1","""event"",""trial"",""time""
""fullscreenenter"",""1"",""2230""
""blur"",""3"",""78064""
""focus"",""3"",""119005""
","""event"",""trial"",""time""
""blur"",""3"",""78064""
","""event"",""trial"",""time""
""focus"",""3"",""119005""
","""event"",""trial"",""time""
""fullscreenenter"",""1"",""2230""
","
","","","","","","780.1999998092651","images/orange8.png","","","learning","5","5","1","1","orange","fruit","2","0","","bad","[-3]"
"html-keyboard-response","166","688937","0.0-9.0-2.0-0.47","5626","2","14","Male","approach_avoid_spark_v1","""event"",""trial"",""time""
""fullscreenenter"",""1"",""2230""
""blur"",""3"",""78064""
""focus"",""3"",""119005""
","""event"",""trial"",""time""
""blur"",""3"",""78064""
","""event"",""trial"",""time""
""focus"",""3"",""119005""
","""event"",""trial"",""time""
""fullscreenenter"",""1"",""2230""
","
","","","","","","null","<div style=""font-size:60px;"">+</div>","null","","fixation","","","","","","","","","","",""
"aa-learning-trial","167","691938","0.0-9.0-2.0-1.47","5626","2","14","Male","approach_avoid_spark_v1","""event"",""trial"",""time""
""fullscreenenter"",""1"",""2230""
""blur"",""3"",""78064""
""focus"",""3"",""119005""
","""event"",""trial"",""time""
""blur"",""3"",""78064""
","""event"",""trial"",""time""
""focus"",""3"",""119005""
","""event"",""trial"",""time""
""fullscreenenter"",""1"",""2230""
","
","","","","","","1054","images/banana2.png","","","learning","4","0","0","0","banana","fruit","2","0","","neutral","0"
"html-keyboard-response","168","692443","0.0-9.0-2.0-0.48","5626","2","14","Male","approach_avoid_spark_v1","""event"",""trial"",""time""
""fullscreenenter"",""1"",""2230""
""blur"",""3"",""78064""
""focus"",""3"",""119005""
","""event"",""trial"",""time""
""blur"",""3"",""78064""
","""event"",""trial"",""time""
""focus"",""3"",""119005""
","""event"",""trial"",""time""
""fullscreenenter"",""1"",""2230""
","
","","","","","","null","<div style=""font-size:60px;"">+</div>","null","","fixation","","","","","","","","","","",""
"aa-learning-trial","169","695444","0.0-9.0-2.0-1.48","5626","2","14","Male","approach_avoid_spark_v1","""event"",""trial"",""time""
""fullscreenenter"",""1"",""2230""
""blur"",""3"",""78064""
""focus"",""3"",""119005""
","""event"",""trial"",""time""
""blur"",""3"",""78064""
","""event"",""trial"",""time""
""focus"",""3"",""119005""
","""event"",""trial"",""time""
""fullscreenenter"",""1"",""2230""
","
","","","","","","262.7000000476837","images/banana2.png","","","learning","4","4","1","1","banana","fruit","2","0","","neutral","0"
"html-keyboard-response","170","695949","0.0-9.0-2.0-0.49","5626","2","14","Male","approach_avoid_spark_v1","""event"",""trial"",""time""
""fullscreenenter"",""1"",""2230""
""blur"",""3"",""78064""
""focus"",""3"",""119005""
","""event"",""trial"",""time""
""blur"",""3"",""78064""
","""event"",""trial"",""time""
""focus"",""3"",""119005""
","""event"",""trial"",""time""
""fullscreenenter"",""1"",""2230""
","
","","","","","","null","<div style=""font-size:60px;"">+</div>","null","","fixation","","","","","","","","","","",""
"aa-learning-trial","171","698950","0.0-9.0-2.0-1.49","5626","2","14","Male","approach_avoid_spark_v1","""event"",""trial"",""time""
""fullscreenenter"",""1"",""2230""
""blur"",""3"",""78064""
""focus"",""3"",""119005""
","""event"",""trial"",""time""
""blur"",""3"",""78064""
