"trial_type","trial_index","time_elapsed","internal_node_id","subject_id","task_condition","age","gender","task_version","interactions","blur_events","focus_events","fullscreenenter_events","fullscreenexit_events","success","timeout","failed_images","failed_audio","failed_video","rt","stimulus","response","button_pressed","task_part","approach_reward","points","key_press","option_selected","stim_cat","task_block","block_condition","block_number","correct","cat_type","mean_cat_reward"
"pavlovia","0","17","0.0-0.0","7733","1","16","Female","approach_avoid_spark_v1","""event"",""trial"",""time""
""fullscreenenter"",""1"",""4050""
","
","
","""event"",""trial"",""time""
""fullscreenenter"",""1"",""4050""
","
","","","","","","","","","","","","","","","","","","","","",""
"fullscreen","1","5016","0.0-1.0","7733","1","16","Female","approach_avoid_spark_v1","""event"",""trial"",""time""
""fullscreenenter"",""1"",""4050""
","
","
","""event"",""trial"",""time""
""fullscreenenter"",""1"",""4050""
","
","true","","","","","","","","","","","","","","","","","","","",""
"preload","2","12349","0.0-2.0","7733","1","16","Female","approach_avoid_spark_v1","""event"",""trial"",""time""
""fullscreenenter"",""1"",""4050""
","
","
","""event"",""trial"",""time""
""fullscreenenter"",""1"",""4050""
","
","true","false","[]","[]","[]","","","","","","","","","","","","","","","",""
"audio-keyboard-response","3","14199","0.0-3.0","7733","1","16","Female","approach_avoid_spark_v1","""event"",""trial"",""time""
""fullscreenenter"",""1"",""4050""
","
","
","""event"",""trial"",""time""
""fullscreenenter"",""1"",""4050""
","
","","","","","","1850.6666666666663","audio/beep_loop.wav","audiovolumeup","","","","","","","","","","","","",""
"audio-button-response","4","16665","0.0-4.0","7733","1","16","Female","approach_avoid_spark_v1","""event"",""trial"",""time""
""fullscreenenter"",""1"",""4050""
","
","
","""event"",""trial"",""time""
""fullscreenenter"",""1"",""4050""
","
","","","","","","2451","audio/shark.wav","4","","","","","","","","","","","","",""
"audio-button-response","5","18903","0.0-5.0","7733","1","16","Female","approach_avoid_spark_v1","""event"",""trial"",""time""
""fullscreenenter"",""1"",""4050""
","
","
","""event"",""trial"",""time""
""fullscreenenter"",""1"",""4050""
","
","","","","","","1221","audio/turtle.wav","1","","","","","","","","","","","","",""
"preload","6","22458","0.0-6.0","7733","1","16","Female","approach_avoid_spark_v1","""event"",""trial"",""time""
""fullscreenenter"",""1"",""4050""
","
","
","""event"",""trial"",""time""
""fullscreenenter"",""1"",""4050""
","
","true","false","[]","[]","[]","","","","","","","","","","","","","","","",""
"html-keyboard-response","7","24353","0.0-7.0","7733","1","16","Female","approach_avoid_spark_v1","""event"",""trial"",""time""
""fullscreenenter"",""1"",""4050""
","
","
","""event"",""trial"",""time""
""fullscreenenter"",""1"",""4050""
","
","","","","","","1893.9000000953674","Welcome to the experiment. Press any key to begin and to advance the instructions.","3","","","","","","","","","","","","",""
"learning-instructions","8","32601","0.0-8.0-0.0-0.0","7733","1","16","Female","approach_avoid_spark_v1","""event"",""trial"",""time""
""fullscreenenter"",""1"",""4050""
","
","
","""event"",""trial"",""time""
""fullscreenenter"",""1"",""4050""
","
","","","","","","1283.3000001907349","<p> Welcome! Today you are going to play 6 different rounds of a decision-making game. </p><p> Use the mouse to click next to continue. </p>","","0","instructions","","","","","","","","","","",""
"learning-instructions","9","36416","0.0-8.0-0.0-0.1","7733","1","16","Female","approach_avoid_spark_v1","""event"",""trial"",""time""
""fullscreenenter"",""1"",""4050""
","
","
","""event"",""trial"",""time""
""fullscreenenter"",""1"",""4050""
","
","","","","","","1069.4000000953674","<p> You will start with a practice round to learn the rules. </p>","","0","instructions","","","","","","","","","","",""
"learning-instructions","10","40837","0.0-8.0-0.0-0.2","7733","1","16","Female","approach_avoid_spark_v1","""event"",""trial"",""time""
""fullscreenenter"",""1"",""4050""
","
","
","""event"",""trial"",""time""
""fullscreenenter"",""1"",""4050""
","
","","","","","","960.2000000476837","<p> Your goal in this round is to give out sports equipment to kids. </p></div>","","0","instructions","","","","","","","","","","",""
"learning-instructions","11","49554","0.0-8.0-0.0-0.3","7733","1","16","Female","approach_avoid_spark_v1","""event"",""trial"",""time""
""fullscreenenter"",""1"",""4050""
","
","
","""event"",""trial"",""time""
""fullscreenenter"",""1"",""4050""
","
","","","","","","1167.5","<p> The kids only like some of the equipment.  </p><p> On each turn, you will see a piece of sports equipment.   </p><p> You need to decide whether to give it to the kids or not.  </p>","","0","instructions","","","","","","","","","","",""
"learning-instructions","12","55023","0.0-8.0-0.0-0.4","7733","1","16","Female","approach_avoid_spark_v1","""event"",""trial"",""time""
""fullscreenenter"",""1"",""4050""
","
","
","""event"",""trial"",""time""
""fullscreenenter"",""1"",""4050""
","
","","","","","","704.8000001907349","<p> You can give them the equipment by pressing 1 and choose not to give it to them by pressing 0. </p><br><div class=""choice-instructions-grid""> <div class=""choice-option""><img src=""images/approach.png"" class=""choice-option-img"" stage=""instructions"" position=""0"" ><div class=""choice-option-text""> Press ""1."" </div></div><div class=""choice-option""><img src=""images/avoid.png"" class=""choice-option-img"" stage=""instructions"" position=""1"" ><div class=""choice-option-text""> Press ""0."" </div></div>","","0","instructions","","","","","","","","","","",""
"learning-instructions","13","63413","0.0-8.0-0.0-0.5","7733","1","16","Female","approach_avoid_spark_v1","""event"",""trial"",""time""
""fullscreenenter"",""1"",""4050""
","
","
","""event"",""trial"",""time""
""fullscreenenter"",""1"",""4050""
","
","","","","","","994.6000001430511","<p> If you give them a piece of equipment they like, they will be happy! </p><p> But if you give them a piece of equipment they do not like, they will be sad. </p>","","0","instructions","","","","","","","","","","",""
"learning-instructions","14","75257","0.0-8.0-0.0-0.6","7733","1","16","Female","approach_avoid_spark_v1","""event"",""trial"",""time""
""fullscreenenter"",""1"",""4050""
","
","
","""event"",""trial"",""time""
""fullscreenenter"",""1"",""4050""
","
","","","","","","1329.5","<p> You will earn points based on how you make kids feel. </p><p> If you make them happy, you will WIN anywhere from 1 - 9 points, </p><p> but if you make them sad, you will LOSE anywhere from 1 - 9 points. </p>","","0","instructions","","","","","","","","","","",""
"learning-instructions","15","85859","0.0-8.0-0.0-0.7","7733","1","16","Female","approach_avoid_spark_v1","""event"",""trial"",""time""
""fullscreenenter"",""1"",""4050""
","
","
","""event"",""trial"",""time""
""fullscreenenter"",""1"",""4050""
","
","","","","","","1040.0999999046326","<p> You will see how many points you won or lost in the center of the screen. </p><p> Here is what you would see if you won 6 points: </p><p style=""color:green;font-size:50px;font-weight:bolder"">6</p><p style=""color:green"">The text is GREEN because you WON points.</p>","","0","instructions","","","","","","","","","","",""
"learning-instructions","16","92695","0.0-8.0-0.0-0.8","7733","1","16","Female","approach_avoid_spark_v1","""event"",""trial"",""time""
""fullscreenenter"",""1"",""4050""
","
","
","""event"",""trial"",""time""
""fullscreenenter"",""1"",""4050""
","
","","","","","","1316.7000000476837","<p> And here is what you would see if you lost 4 points: </p><p style=""color:red;font-size:50px;font-weight:bolder"">-4</p><p style=""color:red"">The text is RED because you LOST points. </p>","","0","instructions","","","","","","","","","","",""
"learning-instructions","17","108154","0.0-8.0-0.0-0.9","7733","1","16","Female","approach_avoid_spark_v1","""event"",""trial"",""time""
""fullscreenenter"",""1"",""4050""
","
","
","""event"",""trial"",""time""
""fullscreenenter"",""1"",""4050""
","
","","","","","","725.3000001907349","<p> Some of the equipment will make the kids VERY happy or sad. </p><p> These pieces of equipment will make you win or lose LOTS of points. </p><p> Other pieces of equipment will only make the kids a little happy or sad. </p><p> These pieces of equipment will make you win or lose small amounts of points. </p>","","0","instructions","","","","","","","","","","",""
"learning-instructions","18","119825","0.0-8.0-0.0-0.10","7733","1","16","Female","approach_avoid_spark_v1","""event"",""trial"",""time""
""fullscreenenter"",""1"",""4050""
","
","
","""event"",""trial"",""time""
""fullscreenenter"",""1"",""4050""
","
","","","","","","1039.2000000476837","<p> If you choose not to give them the equipment, you will not win or lose any points. </p><p>  However, in the center of the screen, you will see the number of points you WOULD HAVE won or lost if you had given them the equipment. </p>","","0","instructions","","","","","","","","","","",""
"learning-instructions","19","142943","0.0-8.0-0.0-0.11","7733","1","16","Female","approach_avoid_spark_v1","""event"",""trial"",""time""
""fullscreenenter"",""1"",""4050""
","
","
","""event"",""trial"",""time""
""fullscreenenter"",""1"",""4050""
","
","","","","","","1576.7000000476837","<p> Here is what you might see if you did not give the equipment to the kids but it would have made them happy: </p><p style=""color:grey; font-size:50px; display: inline-block; border-spacing: 15px; border-width:3px; border-style:solid; border-color:red"">  &nbsp; 7 &nbsp; </p><p> Remember, in this case, you would not win or lose ANY points because you did not give them the equipment.  </p><p style=""color:grey"">The text is GREY because you earned ZERO points. </p><p style=""color:red"">However, choosing to give the kids the equipment would have made you win points. The box around the text is RED because you chose the worse option. </p>","","0","instructions","","","","","","","","","","",""
"learning-instructions","20","168564","0.0-8.0-0.0-0.12","7733","1","16","Female","approach_avoid_spark_v1","""event"",""trial"",""time""
""fullscreenenter"",""1"",""4050""
","
","
","""event"",""trial"",""time""
""fullscreenenter"",""1"",""4050""
","
","","","","","","4527.900000095367","<p> Here is what you might see if you did not give the equipment to the kids but it would have made them sad: </p><p style=""color:grey;font-size:50px; display: inline-block; border-spacing: 15px; border-width:3px; border-style:solid; border-color:green"">  &nbsp; -8 &nbsp; </p><p> Remember, in this case, you would not win or lose ANY points because you did not give them the equipment.  </p><p style=""color:grey"">The text is GREY because you earned ZERO points. </p><p  style=""color:green""> Choosing to give the kids the equipment would have made you lose points. The box around the text is GREEN because you chose the better option.</p>","","0","instructions","","","","","","","","","","",""
"learning-instructions","21","178655","0.0-8.0-0.0-0.13","7733","1","16","Female","approach_avoid_spark_v1","""event"",""trial"",""time""
""fullscreenenter"",""1"",""4050""
","
","
","""event"",""trial"",""time""
""fullscreenenter"",""1"",""4050""
","
","","","","","","879.5","<p> You will have 3 seconds to make each choice. Try to respond before time runs out! </p><p> You will lose 5 points each time you do not make a response. </p>","","0","instructions","","","","","","","","","","",""
"learning-instructions","22","185030","0.0-8.0-0.0-0.14","7733","1","16","Female","approach_avoid_spark_v1","""event"",""trial"",""time""
""fullscreenenter"",""1"",""4050""
","
","
","""event"",""trial"",""time""
""fullscreenenter"",""1"",""4050""
","
","","","","","","943.0999999046326","<p> This is just a practice round, but in the real game, your bonus payment will depend on your total number of points.","","0","instructions","","","","","","","","","","",""
"learning-instructions","23","191835","0.0-8.0-0.0-0.15","7733","1","16","Female","approach_avoid_spark_v1","""event"",""trial"",""time""
""fullscreenenter"",""1"",""4050""
","
","
","""event"",""trial"",""time""
""fullscreenenter"",""1"",""4050""
","
","","","","","","1035.5","<p> Remember, you can give them the equipment by pressing 1 and choose not to give it to them by pressing 0. </p><br><div class=""choice-instructions-grid""> <div class=""choice-option""><img src=""images/approach.png"" class=""choice-option-img"" stage=""instructions"" position=""0"" ><div class=""choice-option-text""> Press ""1."" </div></div><div class=""choice-option""><img src=""images/avoid.png"" class=""choice-option-img"" stage=""instructions"" position=""1"" ><div class=""choice-option-text""> Press ""0."" </div></div>","","0","instructions","","","","","","","","","","",""
"html-button-response","24","194931","0.0-8.0-1.0","7733","1","16","Female","approach_avoid_spark_v1","""event"",""trial"",""time""
""fullscreenenter"",""1"",""4050""
","
","
","""event"",""trial"",""time""
""fullscreenenter"",""1"",""4050""
","
","","","","","","2987.699999809265","<p> Ready to practice? </p>","0","","","","","","","","","","","","",""
"html-keyboard-response","25","195555","0.0-8.0-2.0-0.0","7733","1","16","Female","approach_avoid_spark_v1","""event"",""trial"",""time""
""fullscreenenter"",""1"",""4050""
","
","
","""event"",""trial"",""time""
""fullscreenenter"",""1"",""4050""
","
","","","","","","null","<div style=""font-size:60px;"">+</div>","null","","fixation","","","","","","","","","","",""
"aa-learning-trial","26","198576","0.0-8.0-2.0-1.0","7733","1","16","Female","approach_avoid_spark_v1","""event"",""trial"",""time""
""fullscreenenter"",""1"",""4050""
","
","
","""event"",""trial"",""time""
""fullscreenenter"",""1"",""4050""
","
","","","","","","null","images/racket3.png","","","learning","-4","-5","","null","practice","practice","practice","-1","","",""
"html-keyboard-response","27","199086","0.0-8.0-2.0-0.1","7733","1","16","Female","approach_avoid_spark_v1","""event"",""trial"",""time""
""fullscreenenter"",""1"",""4050""
","
","
","""event"",""trial"",""time""
""fullscreenenter"",""1"",""4050""
","
","","","","","","null","<div style=""font-size:60px;"">+</div>","null","","fixation","","","","","","","","","","",""
"aa-learning-trial","28","202105","0.0-8.0-2.0-1.1","7733","1","16","Female","approach_avoid_spark_v1","""event"",""trial"",""time""
""fullscreenenter"",""1"",""4050""
","
","
","""event"",""trial"",""time""
""fullscreenenter"",""1"",""4050""
","
","","","","","","null","images/ball3.png","","","learning","-9","-5","","null","practice","practice","practice","-1","","",""
"html-keyboard-response","29","202615","0.0-8.0-2.0-0.2","7733","1","16","Female","approach_avoid_spark_v1","""event"",""trial"",""time""
""fullscreenenter"",""1"",""4050""
","
","
","""event"",""trial"",""time""
""fullscreenenter"",""1"",""4050""
","
","","","","","","null","<div style=""font-size:60px;"">+</div>","null","","fixation","","","","","","","","","","",""
"aa-learning-trial","30","205622","0.0-8.0-2.0-1.2","7733","1","16","Female","approach_avoid_spark_v1","""event"",""trial"",""time""
""fullscreenenter"",""1"",""4050""
","
","
","""event"",""trial"",""time""
""fullscreenenter"",""1"",""4050""
","
","","","","","","null","images/racket2.png","","","learning","-8","-5","","null","practice","practice","practice","-1","","",""
"html-keyboard-response","31","206125","0.0-8.0-2.0-0.3","7733","1","16","Female","approach_avoid_spark_v1","""event"",""trial"",""time""
""fullscreenenter"",""1"",""4050""
","
","
","""event"",""trial"",""time""
""fullscreenenter"",""1"",""4050""
","
","","","","","","null","<div style=""font-size:60px;"">+</div>","null","","fixation","","","","","","","","","","",""
"aa-learning-trial","32","209141","0.0-8.0-2.0-1.3","7733","1","16","Female","approach_avoid_spark_v1","""event"",""trial"",""time""
""fullscreenenter"",""1"",""4050""
","
","
","""event"",""trial"",""time""
""fullscreenenter"",""1"",""4050""
","
","","","","","","null","images/ball1.png","","","learning","4","-5","","null","practice","practice","practice","-1","","",""
"html-keyboard-response","33","209649","0.0-8.0-2.0-0.4","7733","1","16","Female","approach_avoid_spark_v1","""event"",""trial"",""time""
""fullscreenenter"",""1"",""4050""
","
","
","""event"",""trial"",""time""
""fullscreenenter"",""1"",""4050""
","
","","","","","","null","<div style=""font-size:60px;"">+</div>","null","","fixation","","","","","","","","","","",""
"aa-learning-trial","34","212665","0.0-8.0-2.0-1.4","7733","1","16","Female","approach_avoid_spark_v1","""event"",""trial"",""time""
""fullscreenenter"",""1"",""4050""
","
","
","""event"",""trial"",""time""
""fullscreenenter"",""1"",""4050""
","
","","","","","","null","images/racket1.png","","","learning","4","-5","","null","practice","practice","practice","-1","","",""
"html-keyboard-response","35","213175","0.0-8.0-2.0-0.5","7733","1","16","Female","approach_avoid_spark_v1","""event"",""trial"",""time""
""fullscreenenter"",""1"",""4050""
","
","
","""event"",""trial"",""time""
""fullscreenenter"",""1"",""4050""
","
","","","","","","null","<div style=""font-size:60px;"">+</div>","null","","fixation","","","","","","","","","","",""
"aa-learning-trial","36","216183","0.0-8.0-2.0-1.5","7733","1","16","Female","approach_avoid_spark_v1","""event"",""trial"",""time""
""fullscreenenter"",""1"",""4050""
","
","
","""event"",""trial"",""time""
""fullscreenenter"",""1"",""4050""
","
","","","","","","null","images/racket3.png","","","learning","-6","-5","","null","practice","practice","practice","-1","","",""
"html-keyboard-response","37","216689","0.0-8.0-2.0-0.6","7733","1","16","Female","approach_avoid_spark_v1","""event"",""trial"",""time""
""fullscreenenter"",""1"",""4050""
","
","
","""event"",""trial"",""time""
""fullscreenenter"",""1"",""4050""
","
","","","","","","null","<div style=""font-size:60px;"">+</div>","null","","fixation","","","","","","","","","","",""
"aa-learning-trial","38","219697","0.0-8.0-2.0-1.6","7733","1","16","Female","approach_avoid_spark_v1","""event"",""trial"",""time""
""fullscreenenter"",""1"",""4050""
","
","
","""event"",""trial"",""time""
""fullscreenenter"",""1"",""4050""
","
","","","","","","null","images/racket2.png","","","learning","3","-5","","null","practice","practice","practice","-1","","",""
"html-keyboard-response","39","220205","0.0-8.0-2.0-0.7","7733","1","16","Female","approach_avoid_spark_v1","""event"",""trial"",""time""
""fullscreenenter"",""1"",""4050""
","
","
","""event"",""trial"",""time""
""fullscreenenter"",""1"",""4050""
","
","","","","","","null","<div style=""font-size:60px;"">+</div>","null","","fixation","","","","","","","","","","",""
"aa-learning-trial","40","223214","0.0-8.0-2.0-1.7","7733","1","16","Female","approach_avoid_spark_v1","""event"",""trial"",""time""
""fullscreenenter"",""1"",""4050""
","
","
","""event"",""trial"",""time""
""fullscreenenter"",""1"",""4050""
","
","","","","","","null","images/racket3.png","","","learning","-9","-5","","null","practice","practice","practice","-1","","",""
"html-keyboard-response","41","223719","0.0-8.0-2.0-0.8","7733","1","16","Female","approach_avoid_spark_v1","""event"",""trial"",""time""
""fullscreenenter"",""1"",""4050""
","
","
","""event"",""trial"",""time""
""fullscreenenter"",""1"",""4050""
","
","","","","","","null","<div style=""font-size:60px;"">+</div>","null","","fixation","","","","","","","","","","",""
"aa-learning-trial","42","226727","0.0-8.0-2.0-1.8","7733","1","16","Female","approach_avoid_spark_v1","""event"",""trial"",""time""
""fullscreenenter"",""1"",""4050""
","
","
","""event"",""trial"",""time""
""fullscreenenter"",""1"",""4050""
","
","","","","","","null","images/ball3.png","","","learning","2","-5","","null","practice","practice","practice","-1","","",""
"html-keyboard-response","43","227235","0.0-8.0-2.0-0.9","7733","1","16","Female","approach_avoid_spark_v1","""event"",""trial"",""time""
""fullscreenenter"",""1"",""4050""
","
","
","""event"",""trial"",""time""
""fullscreenenter"",""1"",""4050""
","
","","","","","","null","<div style=""font-size:60px;"">+</div>","null","","fixation","","","","","","","","","","",""
"aa-learning-trial","44","230242","0.0-8.0-2.0-1.9","7733","1","16","Female","approach_avoid_spark_v1","""event"",""trial"",""time""
""fullscreenenter"",""1"",""4050""
","
","
","""event"",""trial"",""time""
""fullscreenenter"",""1"",""4050""
","
","","","","","","null","images/racket4.png","","","learning","9","-5","","null","practice","practice","practice","-1","","",""
"html-keyboard-response","45","230747","0.0-8.0-2.0-0.10","7733","1","16","Female","approach_avoid_spark_v1","""event"",""trial"",""time""
""fullscreenenter"",""1"",""4050""
","
","
","""event"",""trial"",""time""
""fullscreenenter"",""1"",""4050""
","
","","","","","","null","<div style=""font-size:60px;"">+</div>","null","","fixation","","","","","","","","","","",""
"aa-learning-trial","46","233763","0.0-8.0-2.0-1.10","7733","1","16","Female","approach_avoid_spark_v1","""event"",""trial"",""time""
""fullscreenenter"",""1"",""4050""
","
","
","""event"",""trial"",""time""
""fullscreenenter"",""1"",""4050""
","
","","","","","","null","images/ball1.png","","","learning","-1","-5","","null","practice","practice","practice","-1","","",""
"html-keyboard-response","47","234271","0.0-8.0-2.0-0.11","7733","1","16","Female","approach_avoid_spark_v1","""event"",""trial"",""time""
""fullscreenenter"",""1"",""4050""
","
","
","""event"",""trial"",""time""
""fullscreenenter"",""1"",""4050""
","
","","","","","","null","<div style=""font-size:60px;"">+</div>","null","","fixation","","","","","","","","","","",""
"aa-learning-trial","48","237289","0.0-8.0-2.0-1.11","7733","1","16","Female","approach_avoid_spark_v1","""event"",""trial"",""time""
""fullscreenenter"",""1"",""4050""
","
","
","""event"",""trial"",""time""
""fullscreenenter"",""1"",""4050""
","
","","","","","","null","images/ball4.png","","","learning","-6","-5","","null","practice","practice","practice","-1","","",""
"html-button-response","49","239863","0.0-8.0-3.0","7733","1","16","Female","approach_avoid_spark_v1","""event"",""trial"",""time""
""fullscreenenter"",""1"",""4050""
","
","
","""event"",""trial"",""time""
""fullscreenenter"",""1"",""4050""
","
","","","","","","2567.800000190735","<p> You earned -60 points in the practice round! </p>","0","","break","","","","","","","","","","",""
"learning-instructions","50","247979","0.0-8.0-4.0-0.0","7733","1","16","Female","approach_avoid_spark_v1","""event"",""trial"",""time""
""fullscreenenter"",""1"",""4050""
","
","
","""event"",""trial"",""time""
""fullscreenenter"",""1"",""4050""
","
","","","","","","1277.7999999523163","<p> It's almost time to start the real game. </p><p> Before you start, we're going to ask you a few questions about how the game works. </p>","","0","instructions","","","","","","","","","","",""
"preload","51","249581","0.0-8.0-5.0","7733","1","16","Female","approach_avoid_spark_v1","""event"",""trial"",""time""
""fullscreenenter"",""1"",""4050""
","
","
","""event"",""trial"",""time""
""fullscreenenter"",""1"",""4050""
","
","true","false","[]","[]","[]","","","","","","","","","","","","","","","",""
"comp-q","52","255352","0.0-8.0-6.0-0.0","7733","1","16","Female","approach_avoid_spark_v1","""event"",""trial"",""time""
""fullscreenenter"",""1"",""4050""
","
","
","""event"",""trial"",""time""
""fullscreenenter"",""1"",""4050""
","
","","","","","","770.0999999046326","<p> <b> True or False? </b> </p><p> If you see a number in GREY, that means you earned that many points. </p>","","1","comp_question","","","","","","","","","true","",""
"comp-q","53","264980","0.0-8.0-6.0-1.0","7733","1","16","Female","approach_avoid_spark_v1","""event"",""trial"",""time""
""fullscreenenter"",""1"",""4050""
","
","
","""event"",""trial"",""time""
""fullscreenenter"",""1"",""4050""
","
","","","","","","1269","<p><b> That's right! </b> If you see a grey number, it means you earned ZERO points. <br> The grey numbers show the points you WOULD HAVE earned if you had made the other choice. </p>","","0","comp_answer","","","","","","","","","","",""
"comp-q","54","270401","0.0-8.0-7.0-0.0","7733","1","16","Female","approach_avoid_spark_v1","""event"",""trial"",""time""
""fullscreenenter"",""1"",""4050""
","
","
","""event"",""trial"",""time""
""fullscreenenter"",""1"",""4050""
","
","","","","","","718.9000000953674","<p> <b> True or False? </b> </p><p> You will have as much time as you want to make each choice. </p>","","1","comp_question","","","","","","","","","true","",""
"comp-q","55","275182","0.0-8.0-7.0-1.0","7733","1","16","Female","approach_avoid_spark_v1","""event"",""trial"",""time""
""fullscreenenter"",""1"",""4050""
","
","
","""event"",""trial"",""time""
""fullscreenenter"",""1"",""4050""
","
","","","","","","731.0999999046326","<p> <b> That's right! </b> You will only have 3 seconds to make each choice. </p>","","0","comp_answer","","","","","","","","","","",""
"comp-q","56","280645","0.0-8.0-8.0-0.0","7733","1","16","Female","approach_avoid_spark_v1","""event"",""trial"",""time""
""fullscreenenter"",""1"",""4050""
","
","
","""event"",""trial"",""time""
""fullscreenenter"",""1"",""4050""
","
","","","","","","813.7999999523163","<p> <b> True or False? </b> </p><p> You should use the '1' and '0' keys to make your choices. </p>","","1","comp_question","","","","","","","","","false","",""
"comp-q","57","286338","0.0-8.0-8.0-1.0","7733","1","16","Female","approach_avoid_spark_v1","""event"",""trial"",""time""
""fullscreenenter"",""1"",""4050""
","
","
","""event"",""trial"",""time""
""fullscreenenter"",""1"",""4050""
","
","","","","","","1136.2000000476837","<p> <b>Incorrect.</b> You <i>should</i> use the '1' and '0' keys to make each choice. </p>","","0","comp_answer","","","","","","","","","","",""
"comp-q","58","291472","0.0-8.0-8.1-0.1","7733","1","16","Female","approach_avoid_spark_v1","""event"",""trial"",""time""
""fullscreenenter"",""1"",""4050""
","
","
","""event"",""trial"",""time""
""fullscreenenter"",""1"",""4050""
","
","","","","","","480.10000014305115","<p> <b> True or False? </b> </p><p> You should use the '1' and '0' keys to make your choices. </p>","","0","comp_question","","","","","","","","","true","",""
"comp-q","59","296734","0.0-8.0-8.1-1.1","7733","1","16","Female","approach_avoid_spark_v1","""event"",""trial"",""time""
""fullscreenenter"",""1"",""4050""
","
","
","""event"",""trial"",""time""
""fullscreenenter"",""1"",""4050""
","
","","","","","","642.8999998569489","<p> <b> That's right! </b> You should use the '1' and '0' keys to make each choice. </p>","","0","comp_answer","","","","","","","","","","",""
"learning-instructions","60","304105","0.0-8.0-9.0-0.0","7733","1","16","Female","approach_avoid_spark_v1","""event"",""trial"",""time""
""fullscreenenter"",""1"",""4050""
","
","
","""event"",""trial"",""time""
""fullscreenenter"",""1"",""4050""
","
","","","","","","1092.7999999523163","<p> It's now time to start the real game. </p>Do your best, because the points you earn in the next rounds will influence your bonus payment. </p>","","0","instructions","","","","","","","","","","",""
"preload","61","304297","0.0-9.0-0.0","7733","1","16","Female","approach_avoid_spark_v1","""event"",""trial"",""time""
""fullscreenenter"",""1"",""4050""
","
","
","""event"",""trial"",""time""
""fullscreenenter"",""1"",""4050""
","
","true","false","[]","[]","[]","","","","","","","","","","","","","","","",""
"learning-instructions","62","312094","0.0-9.0-1.0-0.0","7733","1","16","Female","approach_avoid_spark_v1","""event"",""trial"",""time""
""fullscreenenter"",""1"",""4050""
","
","
","""event"",""trial"",""time""
""fullscreenenter"",""1"",""4050""
","
","","","","","","1941.5999999046326","<p> Your goal in this round is to take care of lots of animals. </p></div>","","0","instructions","","","","","","","","","","",""
"learning-instructions","63","322489","0.0-9.0-1.0-0.1","7733","1","16","Female","approach_avoid_spark_v1","""event"",""trial"",""time""
""fullscreenenter"",""1"",""4050""
","
","
","""event"",""trial"",""time""
""fullscreenenter"",""1"",""4050""
","
","","","","","","1066","<p> Some animals want to be pet, while other animals want to be left alone.  </p><p> On each turn, you will see an animal.   </p><p> You need to decide whether to pet it or not.  </p>","","0","instructions","","","","","","","","","","",""
"learning-instructions","64","328503","0.0-9.0-1.0-0.2","7733","1","16","Female","approach_avoid_spark_v1","""event"",""trial"",""time""
""fullscreenenter"",""1"",""4050""
","
","
","""event"",""trial"",""time""
""fullscreenenter"",""1"",""4050""
","
","","","","","","738.7000000476837","<p> You can pet the animal by pressing 1 and leave the animal alone by pressing 0. </p><br><div class=""choice-instructions-grid""> <div class=""choice-option""><img src=""images/approach.png"" class=""choice-option-img"" stage=""instructions"" position=""0"" ><div class=""choice-option-text""> Press ""1."" </div></div><div class=""choice-option""><img src=""images/avoid.png"" class=""choice-option-img"" stage=""instructions"" position=""1"" ><div class=""choice-option-text""> Press ""0."" </div></div>","","0","instructions","","","","","","","","","","",""
"learning-instructions","65","340201","0.0-9.0-1.0-0.3","7733","1","16","Female","approach_avoid_spark_v1","""event"",""trial"",""time""
""fullscreenenter"",""1"",""4050""
","
","
","""event"",""trial"",""time""
""fullscreenenter"",""1"",""4050""
","
","","","","","","688.9000000953674","<p> If you pet an animal that wants to be pet, you will make it feel happy! </p><p> But if you pet an animal that wants to be left alone, you will make it feel angry. </p>","","0","instructions","","","","","","","","","","",""
"learning-instructions","66","353579","0.0-9.0-1.0-0.4","7733","1","16","Female","approach_avoid_spark_v1","""event"",""trial"",""time""
""fullscreenenter"",""1"",""4050""
","
","
","""event"",""trial"",""time""
""fullscreenenter"",""1"",""4050""
","
","","","","","","1056.7999999523163","<p> You will earn points based on how you made the animal feel. </p><p> If you made it feel happy, you will WIN anywhere from 1 - 9 points, </p><p> but if you made it feel angry, you will LOSE anywhere from 1 - 9 points. </p>","","0","instructions","","","","","","","","","","",""
"learning-instructions","67","364120","0.0-9.0-1.0-0.5","7733","1","16","Female","approach_avoid_spark_v1","""event"",""trial"",""time""
""fullscreenenter"",""1"",""4050""
","
","
","""event"",""trial"",""time""
""fullscreenenter"",""1"",""4050""
","
","","","","","","1619.0999999046326","<p> You will see how many points you won or lost in the center of the screen. </p><p> Here is what you would see if you won 5 points: </p><p style=""color:green;font-size:50px;font-weight:bolder"">5</p>","","0","instructions","","","","","","","","","","",""
"learning-instructions","68","368798","0.0-9.0-1.0-0.6","7733","1","16","Female","approach_avoid_spark_v1","""event"",""trial"",""time""
""fullscreenenter"",""1"",""4050""
","
","
","""event"",""trial"",""time""
""fullscreenenter"",""1"",""4050""
","
","","","","","","1066.6000001430511","<p> And here is what you would see if you lost 3 points: </p><p style=""color:red;font-size:50px;font-weight:bolder"">-3</p>","","0","instructions","","","","","","","","","","",""
"learning-instructions","69","383094","0.0-9.0-1.0-0.7","7733","1","16","Female","approach_avoid_spark_v1","""event"",""trial"",""time""
""fullscreenenter"",""1"",""4050""
","
","
","""event"",""trial"",""time""
""fullscreenenter"",""1"",""4050""
","
","","","","","","583.2999999523163","<p> Some animals will become very happy or very angry. </p><p> These animals will make you win or lose LOTS of points. </p><p> Other animals have less strong feelings. </p><p> These animals will make you win or lose small amounts of points. </p>","","0","instructions","","","","","","","","","","",""
"learning-instructions","70","395130","0.0-9.0-1.0-0.8","7733","1","16","Female","approach_avoid_spark_v1","""event"",""trial"",""time""
""fullscreenenter"",""1"",""4050""
","
","
","""event"",""trial"",""time""
""fullscreenenter"",""1"",""4050""
","
","","","","","","709.2000000476837","<p> If you choose to leave the animal alone, you will not win or lose any points. </p><p>  However, in the center of the screen, you will see the number of points you WOULD HAVE won or lost if you had pet the animal. </p>","","0","instructions","","","","","","","","","","",""
"learning-instructions","71","407715","0.0-9.0-1.0-0.9","7733","1","16","Female","approach_avoid_spark_v1","""event"",""trial"",""time""
""fullscreenenter"",""1"",""4050""
","
","
","""event"",""trial"",""time""
""fullscreenenter"",""1"",""4050""
","
","","","","","","864.0999999046326","<p> Here is what you might see if you did not pet the animal but the animal wanted to be pet: </p><p style=""color:grey; font-size:50px; display: inline-block; border-spacing: 15px; border-width:3px; border-style:solid; border-color:red"">  &nbsp; 6 &nbsp; </p><p> Remember, in this case, you would not win or lose ANY points because you did not pet the animal.  </p>","","0","instructions","","","","","","","","","","",""
"learning-instructions","72","416767","0.0-9.0-1.0-0.10","7733","1","16","Female","approach_avoid_spark_v1","""event"",""trial"",""time""
""fullscreenenter"",""1"",""4050""
","
","
","""event"",""trial"",""time""
""fullscreenenter"",""1"",""4050""
","
","","","","","","1396.2000000476837","<p> Try to make the best choice for each animal because </p><p> at the end of the game, you will earn bonus money based on how many points you earned. </p>","","0","instructions","","","","","","","","","","",""
"learning-instructions","73","425592","0.0-9.0-1.0-0.11","7733","1","16","Female","approach_avoid_spark_v1","""event"",""trial"",""time""
""fullscreenenter"",""1"",""4050""
","
","
","""event"",""trial"",""time""
""fullscreenenter"",""1"",""4050""
","
","","","","","","634.5999999046326","<p> You will have 3 seconds to make each choice. Try to respond before time runs out! </p><p> You will lose 5 points each time you do not make a response. </p>","","0","instructions","","","","","","","","","","",""
"html-keyboard-response","74","426205","0.0-9.0-2.0-0.0","7733","1","16","Female","approach_avoid_spark_v1","""event"",""trial"",""time""
""fullscreenenter"",""1"",""4050""
","
","
","""event"",""trial"",""time""
""fullscreenenter"",""1"",""4050""
","
","","","","","","null","<div style=""font-size:60px;"">+</div>","null","","fixation","","","","","","","","","","",""
"aa-learning-trial","75","429227","0.0-9.0-2.0-1.0","7733","1","16","Female","approach_avoid_spark_v1","""event"",""trial"",""time""
""fullscreenenter"",""1"",""4050""
","
","
","""event"",""trial"",""time""
""fullscreenenter"",""1"",""4050""
","
","","","","","","2393.5","images/cat7.png","","","learning","1","1","1","1","cat","pets","1","0","","neutral","0"
"html-keyboard-response","76","429745","0.0-9.0-2.0-0.1","7733","1","16","Female","approach_avoid_spark_v1","""event"",""trial"",""time""
""fullscreenenter"",""1"",""4050""
","
","
","""event"",""trial"",""time""
""fullscreenenter"",""1"",""4050""
","
","","","","","","null","<div style=""font-size:60px;"">+</div>","null","","fixation","","","","","","","","","","",""
"aa-learning-trial","77","432766","0.0-9.0-2.0-1.1","7733","1","16","Female","approach_avoid_spark_v1","""event"",""trial"",""time""
""fullscreenenter"",""1"",""4050""
","
","
","""event"",""trial"",""time""
""fullscreenenter"",""1"",""4050""
","
","","","","","","1051","images/cat1.png","","","learning","2","2","1","1","cat","pets","1","0","","neutral","0"
"html-keyboard-response","78","433285","0.0-9.0-2.0-0.2","7733","1","16","Female","approach_avoid_spark_v1","""event"",""trial"",""time""
""fullscreenenter"",""1"",""4050""
","
","
","""event"",""trial"",""time""
""fullscreenenter"",""1"",""4050""
","
","","","","","","null","<div style=""font-size:60px;"">+</div>","null","","fixation","","","","","","","","","","",""
"aa-learning-trial","79","436305","0.0-9.0-2.0-1.2","7733","1","16","Female","approach_avoid_spark_v1","""event"",""trial"",""time""
""fullscreenenter"",""1"",""4050""
","
","
","""event"",""trial"",""time""
""fullscreenenter"",""1"",""4050""
","
","","","","","","597.5","images/rodent5.png","","","learning","6","0","0","0","rodent","pets","1","0","","good","[6]"
"html-keyboard-response","80","436815","0.0-9.0-2.0-0.3","7733","1","16","Female","approach_avoid_spark_v1","""event"",""trial"",""time""
""fullscreenenter"",""1"",""4050""
","
","
","""event"",""trial"",""time""
""fullscreenenter"",""1"",""4050""
","
","","","","","","null","<div style=""font-size:60px;"">+</div>","null","","fixation","","","","","","","","","","",""
"aa-learning-trial","81","439831","0.0-9.0-2.0-1.3","7733","1","16","Female","approach_avoid_spark_v1","""event"",""trial"",""time""
""fullscreenenter"",""1"",""4050""
","
","
","""event"",""trial"",""time""
""fullscreenenter"",""1"",""4050""
","
","","","","","","721.2000000476837","images/rodent7.png","","","learning","4","4","1","1","rodent","pets","1","0","","good","[6]"
"html-keyboard-response","82","440346","0.0-9.0-2.0-0.4","7733","1","16","Female","approach_avoid_spark_v1","""event"",""trial"",""time""
""fullscreenenter"",""1"",""4050""
","
","
","""event"",""trial"",""time""
""fullscreenenter"",""1"",""4050""
","
","","","","","","null","<div style=""font-size:60px;"">+</div>","null","","fixation","","","","","","","","","","",""
"aa-learning-trial","83","443368","0.0-9.0-2.0-1.4","7733","1","16","Female","approach_avoid_spark_v1","""event"",""trial"",""time""
""fullscreenenter"",""1"",""4050""
","
","
","""event"",""trial"",""time""
""fullscreenenter"",""1"",""4050""
","
","","","","","","531.2000000476837","images/rabbit2.png","","","learning","-4","-4","1","1","rabbit","pets","1","0","","bad","[-5]"
"html-keyboard-response","84","443876","0.0-9.0-2.0-0.5","7733","1","16","Female","approach_avoid_spark_v1","""event"",""trial"",""time""
""fullscreenenter"",""1"",""4050""
","
","
","""event"",""trial"",""time""
""fullscreenenter"",""1"",""4050""
","
","","","","","","null","<div style=""font-size:60px;"">+</div>","null","","fixation","","","","","","","","","","",""
"aa-learning-trial","85","446886","0.0-9.0-2.0-1.5","7733","1","16","Female","approach_avoid_spark_v1","""event"",""trial"",""time""
""fullscreenenter"",""1"",""4050""
","
","
","""event"",""trial"",""time""
""fullscreenenter"",""1"",""4050""
","
","","","","","","679.4000000953674","images/rabbit1.png","","","learning","-2","0","0","0","rabbit","pets","1","0","","bad","[-5]"
"html-keyboard-response","86","447405","0.0-9.0-2.0-0.6","7733","1","16","Female","approach_avoid_spark_v1","""event"",""trial"",""time""
""fullscreenenter"",""1"",""4050""
","
","
","""event"",""trial"",""time""
""fullscreenenter"",""1"",""4050""
","
","","","","","","null","<div style=""font-size:60px;"">+</div>","null","","fixation","","","","","","","","","","",""
"aa-learning-trial","87","450425","0.0-9.0-2.0-1.6","7733","1","16","Female","approach_avoid_spark_v1","""event"",""trial"",""time""
""fullscreenenter"",""1"",""4050""
","
","
","""event"",""trial"",""time""
""fullscreenenter"",""1"",""4050""
","
","","","","","","510.39999985694885","images/rodent5.png","","","learning","3","3","1","1","rodent","pets","1","0","","good","[6]"
"html-keyboard-response","88","450935","0.0-9.0-2.0-0.7","7733","1","16","Female","approach_avoid_spark_v1","""event"",""trial"",""time""
""fullscreenenter"",""1"",""4050""
","
","
","""event"",""trial"",""time""
""fullscreenenter"",""1"",""4050""
","
","","","","","","null","<div style=""font-size:60px;"">+</div>","null","","fixation","","","","","","","","","","",""
"aa-learning-trial","89","453956","0.0-9.0-2.0-1.7","7733","1","16","Female","approach_avoid_spark_v1","""event"",""trial"",""time""
""fullscreenenter"",""1"",""4050""
","
","
","""event"",""trial"",""time""
""fullscreenenter"",""1"",""4050""
","
","","","","","","678.5","images/cat7.png","","","learning","2","2","1","1","cat","pets","1","0","","neutral","0"
"html-keyboard-response","90","454465","0.0-9.0-2.0-0.8","7733","1","16","Female","approach_avoid_spark_v1","""event"",""trial"",""time""
""fullscreenenter"",""1"",""4050""
","
","
","""event"",""trial"",""time""
""fullscreenenter"",""1"",""4050""
","
","","","","","","null","<div style=""font-size:60px;"">+</div>","null","","fixation","","","","","","","","","","",""
"aa-learning-trial","91","457475","0.0-9.0-2.0-1.8","7733","1","16","Female","approach_avoid_spark_v1","""event"",""trial"",""time""
""fullscreenenter"",""1"",""4050""
","
","
","""event"",""trial"",""time""
""fullscreenenter"",""1"",""4050""
","
","","","","","","438.10000014305115","images/rabbit2.png","","","learning","-6","0","0","0","rabbit","pets","1","0","","bad","[-5]"
"html-keyboard-response","92","457981","0.0-9.0-2.0-0.9","7733","1","16","Female","approach_avoid_spark_v1","""event"",""trial"",""time""
""fullscreenenter"",""1"",""4050""
","
","
","""event"",""trial"",""time""
""fullscreenenter"",""1"",""4050""
","
","","","","","","null","<div style=""font-size:60px;"">+</div>","null","","fixation","","","","","","","","","","",""
"aa-learning-trial","93","460993","0.0-9.0-2.0-1.9","7733","1","16","Female","approach_avoid_spark_v1","""event"",""trial"",""time""
""fullscreenenter"",""1"",""4050""
","
","
","""event"",""trial"",""time""
""fullscreenenter"",""1"",""4050""
","
","","","","","","250.60000014305115","images/cat1.png","","","learning","[-1]","-1","1","1","cat","pets","1","0","","neutral","0"
"html-keyboard-response","94","461502","0.0-9.0-2.0-0.10","7733","1","16","Female","approach_avoid_spark_v1","""event"",""trial"",""time""
""fullscreenenter"",""1"",""4050""
","
","
","""event"",""trial"",""time""
""fullscreenenter"",""1"",""4050""
","
","","","","","","null","<div style=""font-size:60px;"">+</div>","null","","fixation","","","","","","","","","","",""
"aa-learning-trial","95","464520","0.0-9.0-2.0-1.10","7733","1","16","Female","approach_avoid_spark_v1","""event"",""trial"",""time""
""fullscreenenter"",""1"",""4050""
","
","
","""event"",""trial"",""time""
""fullscreenenter"",""1"",""4050""
","
","","","","","","541.1000001430511","images/rabbit1.png","","","learning","-4","0","0","0","rabbit","pets","1","0","","bad","[-5]"
"html-keyboard-response","96","465030","0.0-9.0-2.0-0.11","7733","1","16","Female","approach_avoid_spark_v1","""event"",""trial"",""time""
""fullscreenenter"",""1"",""4050""
","
","
","""event"",""trial"",""time""
""fullscreenenter"",""1"",""4050""
","
","","","","","","null","<div style=""font-size:60px;"">+</div>","null","","fixation","","","","","","","","","","",""
"aa-learning-trial","97","468043","0.0-9.0-2.0-1.11","7733","1","16","Female","approach_avoid_spark_v1","""event"",""trial"",""time""
""fullscreenenter"",""1"",""4050""
","
","
","""event"",""trial"",""time""
""fullscreenenter"",""1"",""4050""
","
","","","","","","296.2999999523163","images/rodent7.png","","","learning","6","6","1","1","rodent","pets","1","0","","good","[6]"
"html-keyboard-response","98","468553","0.0-9.0-2.0-0.12","7733","1","16","Female","approach_avoid_spark_v1","""event"",""trial"",""time""
""fullscreenenter"",""1"",""4050""
","
","
","""event"",""trial"",""time""
""fullscreenenter"",""1"",""4050""
","
","","","","","","null","<div style=""font-size:60px;"">+</div>","null","","fixation","","","","","","","","","","",""
"aa-learning-trial","99","471563","0.0-9.0-2.0-1.12","7733","1","16","Female","approach_avoid_spark_v1","""event"",""trial"",""time""
""fullscreenenter"",""1"",""4050""
","
","
","""event"",""trial"",""time""
""fullscreenenter"",""1"",""4050""
","
","","","","","","652.2000000476837","images/rabbit5.png","","","learning","-6","0","0","0","rabbit","pets","1","0","","bad","[-5]"
"html-keyboard-response","100","472067","0.0-9.0-2.0-0.13","7733","1","16","Female","approach_avoid_spark_v1","""event"",""trial"",""time""
""fullscreenenter"",""1"",""4050""
","
","
","""event"",""trial"",""time""
""fullscreenenter"",""1"",""4050""
","
","","","","","","null","<div style=""font-size:60px;"">+</div>","null","","fixation","","","","","","","","","","",""
"aa-learning-trial","101","475076","0.0-9.0-2.0-1.13","7733","1","16","Female","approach_avoid_spark_v1","""event"",""trial"",""time""
""fullscreenenter"",""1"",""4050""
","
","
","""event"",""trial"",""time""
""fullscreenenter"",""1"",""4050""
","
","","","","","","451.10000014305115","images/rodent6.png","","","learning","7","7","1","1","rodent","pets","1","0","","good","[6]"
"html-keyboard-response","102","475585","0.0-9.0-2.0-0.14","7733","1","16","Female","approach_avoid_spark_v1","""event"",""trial"",""time""
""fullscreenenter"",""1"",""4050""
","
","
","""event"",""trial"",""time""
""fullscreenenter"",""1"",""4050""
","
","","","","","","null","<div style=""font-size:60px;"">+</div>","null","","fixation","","","","","","","","","","",""
"aa-learning-trial","103","478600","0.0-9.0-2.0-1.14","7733","1","16","Female","approach_avoid_spark_v1","""event"",""trial"",""time""
""fullscreenenter"",""1"",""4050""
","
","
","""event"",""trial"",""time""
""fullscreenenter"",""1"",""4050""
","
","","","","","","873.6000001430511","images/cat3.png","","","learning","-1","-1","1","1","cat","pets","1","0","","neutral","0"
"html-keyboard-response","104","479110","0.0-9.0-2.0-0.15","7733","1","16","Female","approach_avoid_spark_v1","""event"",""trial"",""time""
""fullscreenenter"",""1"",""4050""
","
","
","""event"",""trial"",""time""
""fullscreenenter"",""1"",""4050""
","
","","","","","","null","<div style=""font-size:60px;"">+</div>","null","","fixation","","","","","","","","","","",""
"aa-learning-trial","105","482128","0.0-9.0-2.0-1.15","7733","1","16","Female","approach_avoid_spark_v1","""event"",""trial"",""time""
""fullscreenenter"",""1"",""4050""
","
","
","""event"",""trial"",""time""
""fullscreenenter"",""1"",""4050""
","
","","","","","","892.2000000476837","images/cat7.png","","","learning","[1]","1","1","1","cat","pets","1","0","","neutral","0"
"html-keyboard-response","106","482636","0.0-9.0-2.0-0.16","7733","1","16","Female","approach_avoid_spark_v1","""event"",""trial"",""time""
""fullscreenenter"",""1"",""4050""
","
","
","""event"",""trial"",""time""
""fullscreenenter"",""1"",""4050""
","
","","","","","","null","<div style=""font-size:60px;"">+</div>","null","","fixation","","","","","","","","","","",""
"aa-learning-trial","107","485645","0.0-9.0-2.0-1.16","7733","1","16","Female","approach_avoid_spark_v1","""event"",""trial"",""time""
""fullscreenenter"",""1"",""4050""
","
","
","""event"",""trial"",""time""
""fullscreenenter"",""1"",""4050""
","
","","","","","","488.5","images/rabbit2.png","","","learning","-5","-5","1","1","rabbit","pets","1","0","","bad","[-5]"
"html-keyboard-response","108","486152","0.0-9.0-2.0-0.17","7733","1","16","Female","approach_avoid_spark_v1","""event"",""trial"",""time""
""fullscreenenter"",""1"",""4050""
","
","
","""event"",""trial"",""time""
""fullscreenenter"",""1"",""4050""
","
","","","","","","null","<div style=""font-size:60px;"">+</div>","null","","fixation","","","","","","","","","","",""
"aa-learning-trial","109","489166","0.0-9.0-2.0-1.17","7733","1","16","Female","approach_avoid_spark_v1","""event"",""trial"",""time""
""fullscreenenter"",""1"",""4050""
","
","
","""event"",""trial"",""time""
""fullscreenenter"",""1"",""4050""
","
","","","","","","715.5","images/rodent7.png","","","learning","3","0","0","0","rodent","pets","1","0","","good","[6]"
"html-keyboard-response","110","489673","0.0-9.0-2.0-0.18","7733","1","16","Female","approach_avoid_spark_v1","""event"",""trial"",""time""
""fullscreenenter"",""1"",""4050""
","
","
","""event"",""trial"",""time""
""fullscreenenter"",""1"",""4050""
","
","","","","","","null","<div style=""font-size:60px;"">+</div>","null","","fixation","","","","","","","","","","",""
"aa-learning-trial","111","492693","0.0-9.0-2.0-1.18","7733","1","16","Female","approach_avoid_spark_v1","""event"",""trial"",""time""
""fullscreenenter"",""1"",""4050""
","
","
","""event"",""trial"",""time""
""fullscreenenter"",""1"",""4050""
","
","","","","","","348.2000000476837","images/rabbit5.png","","","learning","-5","-5","1","1","rabbit","pets","1","0","","bad","[-5]"
"html-keyboard-response","112","493197","0.0-9.0-2.0-0.19","7733","1","16","Female","approach_avoid_spark_v1","""event"",""trial"",""time""
""fullscreenenter"",""1"",""4050""
","
","
","""event"",""trial"",""time""
""fullscreenenter"",""1"",""4050""
","
","","","","","","null","<div style=""font-size:60px;"">+</div>","null","","fixation","","","","","","","","","","",""
"aa-learning-trial","113","496206","0.0-9.0-2.0-1.19","7733","1","16","Female","approach_avoid_spark_v1","""event"",""trial"",""time""
""fullscreenenter"",""1"",""4050""
","
","
","""event"",""trial"",""time""
""fullscreenenter"",""1"",""4050""
","
","","","","","","1066.7000000476837","images/rodent7.png","","","learning","8","8","1","1","rodent","pets","1","0","","good","[6]"
"html-keyboard-response","114","496725","0.0-9.0-2.0-0.20","7733","1","16","Female","approach_avoid_spark_v1","""event"",""trial"",""time""
""fullscreenenter"",""1"",""4050""
","
","
","""event"",""trial"",""time""
""fullscreenenter"",""1"",""4050""
","
","","","","","","null","<div style=""font-size:60px;"">+</div>","null","","fixation","","","","","","","","","","",""
"aa-learning-trial","115","499737","0.0-9.0-2.0-1.20","7733","1","16","Female","approach_avoid_spark_v1","""event"",""trial"",""time""
""fullscreenenter"",""1"",""4050""
","
","
","""event"",""trial"",""time""
""fullscreenenter"",""1"",""4050""
","
","","","","","","606.1000001430511","images/cat1.png","","","learning","1","1","1","1","cat","pets","1","0","","neutral","0"
"html-keyboard-response","116","500249","0.0-9.0-2.0-0.21","7733","1","16","Female","approach_avoid_spark_v1","""event"",""trial"",""time""
""fullscreenenter"",""1"",""4050""
","
","
","""event"",""trial"",""time""
""fullscreenenter"",""1"",""4050""
","
","","","","","","null","<div style=""font-size:60px;"">+</div>","null","","fixation","","","","","","","","","","",""
"aa-learning-trial","117","503270","0.0-9.0-2.0-1.21","7733","1","16","Female","approach_avoid_spark_v1","""event"",""trial"",""time""
""fullscreenenter"",""1"",""4050""
","
","
","""event"",""trial"",""time""
""fullscreenenter"",""1"",""4050""
","
","","","","","","482.90000009536743","images/cat7.png","","","learning","-1","-1","1","1","cat","pets","1","0","","neutral","0"
"html-keyboard-response","118","503774","0.0-9.0-2.0-0.22","7733","1","16","Female","approach_avoid_spark_v1","""event"",""trial"",""time""
""fullscreenenter"",""1"",""4050""
","
","
","""event"",""trial"",""time""
""fullscreenenter"",""1"",""4050""
","
","","","","","","null","<div style=""font-size:60px;"">+</div>","null","","fixation","","","","","","","","","","",""
"aa-learning-trial","119","506787","0.0-9.0-2.0-1.22","7733","1","16","Female","approach_avoid_spark_v1","""event"",""trial"",""time""
""fullscreenenter"",""1"",""4050""
","
","
","""event"",""trial"",""time""
""fullscreenenter"",""1"",""4050""
","
","","","","","","502.09999990463257","images/rodent5.png","","","learning","8","8","1","1","rodent","pets","1","0","","good","[6]"
"html-keyboard-response","120","507292","0.0-9.0-2.0-0.23","7733","1","16","Female","approach_avoid_spark_v1","""event"",""trial"",""time""
""fullscreenenter"",""1"",""4050""
","
","
","""event"",""trial"",""time""
""fullscreenenter"",""1"",""4050""
","
","","","","","","null","<div style=""font-size:60px;"">+</div>","null","","fixation","","","","","","","","","","",""
"aa-learning-trial","121","510312","0.0-9.0-2.0-1.23","7733","1","16","Female","approach_avoid_spark_v1","""event"",""trial"",""time""
""fullscreenenter"",""1"",""4050""
","
","
","""event"",""trial"",""time""
""fullscreenenter"",""1"",""4050""
","
","","","","","","472.40000009536743","images/rabbit2.png","","","learning","-5","-5","1","1","rabbit","pets","1","0","","bad","[-5]"
"html-keyboard-response","122","510817","0.0-9.0-2.0-0.24","7733","1","16","Female","approach_avoid_spark_v1","""event"",""trial"",""time""
""fullscreenenter"",""1"",""4050""
","
","
","""event"",""trial"",""time""
""fullscreenenter"",""1"",""4050""
","
","","","","","","null","<div style=""font-size:60px;"">+</div>","null","","fixation","","","","","","","","","","",""
"aa-learning-trial","123","513827","0.0-9.0-2.0-1.24","7733","1","16","Female","approach_avoid_spark_v1","""event"",""trial"",""time""
""fullscreenenter"",""1"",""4050""
","
","
","""event"",""trial"",""time""
""fullscreenenter"",""1"",""4050""
","
","","","","","","584.7000000476837","images/cat5.png","","","learning","[-1]","-1","1","1","cat","pets","1","0","","neutral","0"
"html-keyboard-response","124","514330","0.0-9.0-2.0-0.25","7733","1","16","Female","approach_avoid_spark_v1","""event"",""trial"",""time""
""fullscreenenter"",""1"",""4050""
","
","
","""event"",""trial"",""time""
""fullscreenenter"",""1"",""4050""
","
","","","","","","null","<div style=""font-size:60px;"">+</div>","null","","fixation","","","","","","","","","","",""
"aa-learning-trial","125","517342","0.0-9.0-2.0-1.25","7733","1","16","Female","approach_avoid_spark_v1","""event"",""trial"",""time""
""fullscreenenter"",""1"",""4050""
","
","
","""event"",""trial"",""time""
""fullscreenenter"",""1"",""4050""
","
","","","","","","980.5999999046326","images/rabbit1.png","","","learning","-4","0","0","0","rabbit","pets","1","0","","bad","[-5]"
"html-keyboard-response","126","517849","0.0-9.0-2.0-0.26","7733","1","16","Female","approach_avoid_spark_v1","""event"",""trial"",""time""
""fullscreenenter"",""1"",""4050""
","
","
","""event"",""trial"",""time""
""fullscreenenter"",""1"",""4050""
","
","","","","","","null","<div style=""font-size:60px;"">+</div>","null","","fixation","","","","","","","","","","",""
"aa-learning-trial","127","520861","0.0-9.0-2.0-1.26","7733","1","16","Female","approach_avoid_spark_v1","""event"",""trial"",""time""
""fullscreenenter"",""1"",""4050""
","
","
","""event"",""trial"",""time""
""fullscreenenter"",""1"",""4050""
","
","","","","","","818.2000000476837","images/cat7.png","","","learning","-1","-1","1","1","cat","pets","1","0","","neutral","0"
"html-keyboard-response","128","521366","0.0-9.0-2.0-0.27","7733","1","16","Female","approach_avoid_spark_v1","""event"",""trial"",""time""
""fullscreenenter"",""1"",""4050""
","
","
","""event"",""trial"",""time""
""fullscreenenter"",""1"",""4050""
","
","","","","","","null","<div style=""font-size:60px;"">+</div>","null","","fixation","","","","","","","","","","",""
"aa-learning-trial","129","524377","0.0-9.0-2.0-1.27","7733","1","16","Female","approach_avoid_spark_v1","""event"",""trial"",""time""
""fullscreenenter"",""1"",""4050""
","
","
","""event"",""trial"",""time""
""fullscreenenter"",""1"",""4050""
","
","","","","","","755.8000001907349","images/rodent7.png","","","learning","5","5","1","1","rodent","pets","1","0","","good","[6]"
"html-keyboard-response","130","524892","0.0-9.0-2.0-0.28","7733","1","16","Female","approach_avoid_spark_v1","""event"",""trial"",""time""
""fullscreenenter"",""1"",""4050""
","
","
","""event"",""trial"",""time""
""fullscreenenter"",""1"",""4050""
","
","","","","","","null","<div style=""font-size:60px;"">+</div>","null","","fixation","","","","","","","","","","",""
"aa-learning-trial","131","527912","0.0-9.0-2.0-1.28","7733","1","16","Female","approach_avoid_spark_v1","""event"",""trial"",""time""
""fullscreenenter"",""1"",""4050""
","
","
","""event"",""trial"",""time""
""fullscreenenter"",""1"",""4050""
","
","","","","","","663","images/rodent5.png","","","learning","7","7","1","1","rodent","pets","1","0","","good","[6]"
"html-keyboard-response","132","528430","0.0-9.0-2.0-0.29","7733","1","16","Female","approach_avoid_spark_v1","""event"",""trial"",""time""
""fullscreenenter"",""1"",""4050""
","
","
","""event"",""trial"",""time""
""fullscreenenter"",""1"",""4050""
","
","","","","","","null","<div style=""font-size:60px;"">+</div>","null","","fixation","","","","","","","","","","",""
"aa-learning-trial","133","531443","0.0-9.0-2.0-1.29","7733","1","16","Female","approach_avoid_spark_v1","""event"",""trial"",""time""
""fullscreenenter"",""1"",""4050""
","
","
","""event"",""trial"",""time""
""fullscreenenter"",""1"",""4050""
","
","","","","","","1036.0999999046326","images/cat3.png","","","learning","[1]","0","0","0","cat","pets","1","0","","neutral","0"
"html-keyboard-response","134","531947","0.0-9.0-2.0-0.30","7733","1","16","Female","approach_avoid_spark_v1","""event"",""trial"",""time""
""fullscreenenter"",""1"",""4050""
","
","
","""event"",""trial"",""time""
""fullscreenenter"",""1"",""4050""
","
","","","","","","null","<div style=""font-size:60px;"">+</div>","null","","fixation","","","","","","","","","","",""
"aa-learning-trial","135","534961","0.0-9.0-2.0-1.30","7733","1","16","Female","approach_avoid_spark_v1","""event"",""trial"",""time""
""fullscreenenter"",""1"",""4050""
","
","
","""event"",""trial"",""time""
""fullscreenenter"",""1"",""4050""
","
","","","","","","814.9000000953674","images/rodent7.png","","","learning","6","6","1","1","rodent","pets","1","0","","good","[6]"
"html-keyboard-response","136","535467","0.0-9.0-2.0-0.31","7733","1","16","Female","approach_avoid_spark_v1","""event"",""trial"",""time""
""fullscreenenter"",""1"",""4050""
","
","
","""event"",""trial"",""time""
""fullscreenenter"",""1"",""4050""
","
","","","","","","null","<div style=""font-size:60px;"">+</div>","null","","fixation","","","","","","","","","","",""
"aa-learning-trial","137","538475","0.0-9.0-2.0-1.31","7733","1","16","Female","approach_avoid_spark_v1","""event"",""trial"",""time""
""fullscreenenter"",""1"",""4050""
","
","
","""event"",""trial"",""time""
""fullscreenenter"",""1"",""4050""
","
","","","","","","1420.2999999523163","images/rabbit8.png","","","learning","-5","-5","1","1","rabbit","pets","1","0","","bad","[-5]"
"html-keyboard-response","138","538982","0.0-9.0-2.0-0.32","7733","1","16","Female","approach_avoid_spark_v1","""event"",""trial"",""time""
""fullscreenenter"",""1"",""4050""
","
","
","""event"",""trial"",""time""
""fullscreenenter"",""1"",""4050""
","
","","","","","","null","<div style=""font-size:60px;"">+</div>","null","","fixation","","","","","","","","","","",""
"aa-learning-trial","139","541996","0.0-9.0-2.0-1.32","7733","1","16","Female","approach_avoid_spark_v1","""event"",""trial"",""time""
""fullscreenenter"",""1"",""4050""
","
","
","""event"",""trial"",""time""
""fullscreenenter"",""1"",""4050""
","
","","","","","","764.7000000476837","images/cat3.png","","","learning","1","0","0","0","cat","pets","1","0","","neutral","0"
"html-keyboard-response","140","542511","0.0-9.0-2.0-0.33","7733","1","16","Female","approach_avoid_spark_v1","""event"",""trial"",""time""
""fullscreenenter"",""1"",""4050""
","
","
","""event"",""trial"",""time""
""fullscreenenter"",""1"",""4050""
","
","","","","","","null","<div style=""font-size:60px;"">+</div>","null","","fixation","","","","","","","","","","",""
"aa-learning-trial","141","545520","0.0-9.0-2.0-1.33","7733","1","16","Female","approach_avoid_spark_v1","""event"",""trial"",""time""
""fullscreenenter"",""1"",""4050""
","
","
","""event"",""trial"",""time""
""fullscreenenter"",""1"",""4050""
","
","","","","","","512.2999999523163","images/rodent5.png","","","learning","6","6","1","1","rodent","pets","1","0","","good","[6]"
"html-keyboard-response","142","546023","0.0-9.0-2.0-0.34","7733","1","16","Female","approach_avoid_spark_v1","""event"",""trial"",""time""
""fullscreenenter"",""1"",""4050""
","
","
","""event"",""trial"",""time""
""fullscreenenter"",""1"",""4050""
","
","","","","","","null","<div style=""font-size:60px;"">+</div>","null","","fixation","","","","","","","","","","",""
"aa-learning-trial","143","549030","0.0-9.0-2.0-1.34","7733","1","16","Female","approach_avoid_spark_v1","""event"",""trial"",""time""
""fullscreenenter"",""1"",""4050""
","
","
","""event"",""trial"",""time""
""fullscreenenter"",""1"",""4050""
","
","","","","","","735.1999998092651","images/rabbit1.png","","","learning","-5","0","0","0","rabbit","pets","1","0","","bad","[-5]"
"html-keyboard-response","144","549535","0.0-9.0-2.0-0.35","7733","1","16","Female","approach_avoid_spark_v1","""event"",""trial"",""time""
""fullscreenenter"",""1"",""4050""
","
","
","""event"",""trial"",""time""
""fullscreenenter"",""1"",""4050""
","
","","","","","","null","<div style=""font-size:60px;"">+</div>","null","","fixation","","","","","","","","","","",""
"aa-learning-trial","145","552548","0.0-9.0-2.0-1.35","7733","1","16","Female","approach_avoid_spark_v1","""event"",""trial"",""time""
""fullscreenenter"",""1"",""4050""
","
","
","""event"",""trial"",""time""
""fullscreenenter"",""1"",""4050""
","
","","","","","","237.90000009536743","images/cat7.png","","","learning","1","1","1","1","cat","pets","1","0","","neutral","0"
"html-keyboard-response","146","553057","0.0-9.0-2.0-0.36","7733","1","16","Female","approach_avoid_spark_v1","""event"",""trial"",""time""
""fullscreenenter"",""1"",""4050""
","
","
","""event"",""trial"",""time""
""fullscreenenter"",""1"",""4050""
","
","","","","","","null","<div style=""font-size:60px;"">+</div>","null","","fixation","","","","","","","","","","",""
"aa-learning-trial","147","556066","0.0-9.0-2.0-1.36","7733","1","16","Female","approach_avoid_spark_v1","""event"",""trial"",""time""
""fullscreenenter"",""1"",""4050""
","
","
","""event"",""trial"",""time""
""fullscreenenter"",""1"",""4050""
","
","","","","","","446.2999999523163","images/cat1.png","","","learning","1","1","1","1","cat","pets","1","0","","neutral","0"
"html-keyboard-response","148","556574","0.0-9.0-2.0-0.37","7733","1","16","Female","approach_avoid_spark_v1","""event"",""trial"",""time""
""fullscreenenter"",""1"",""4050""
","
","
","""event"",""trial"",""time""
""fullscreenenter"",""1"",""4050""
","
","","","","","","null","<div style=""font-size:60px;"">+</div>","null","","fixation","","","","","","","","","","",""
"aa-learning-trial","149","559581","0.0-9.0-2.0-1.37","7733","1","16","Female","approach_avoid_spark_v1","""event"",""trial"",""time""
""fullscreenenter"",""1"",""4050""
","
","
","""event"",""trial"",""time""
""fullscreenenter"",""1"",""4050""
","
","","","","","","444.90000009536743","images/rabbit7.png","","","learning","-6","-6","1","1","rabbit","pets","1","0","","bad","[-5]"
"html-keyboard-response","150","560089","0.0-9.0-2.0-0.38","7733","1","16","Female","approach_avoid_spark_v1","""event"",""trial"",""time""
""fullscreenenter"",""1"",""4050""
","
","
","""event"",""trial"",""time""
""fullscreenenter"",""1"",""4050""
","
","","","","","","null","<div style=""font-size:60px;"">+</div>","null","","fixation","","","","","","","","","","",""
"aa-learning-trial","151","563105","0.0-9.0-2.0-1.38","7733","1","16","Female","approach_avoid_spark_v1","""event"",""trial"",""time""
""fullscreenenter"",""1"",""4050""
","
","
","""event"",""trial"",""time""
""fullscreenenter"",""1"",""4050""
","
","","","","","","758.5","images/rabbit2.png","","","learning","-5","0","0","0","rabbit","pets","1","0","","bad","[-5]"
"html-keyboard-response","152","563623","0.0-9.0-2.0-0.39","7733","1","16","Female","approach_avoid_spark_v1","""event"",""trial"",""time""
""fullscreenenter"",""1"",""4050""
","
","
","""event"",""trial"",""time""
""fullscreenenter"",""1"",""4050""
","
","","","","","","null","<div style=""font-size:60px;"">+</div>","null","","fixation","","","","","","","","","","",""
"aa-learning-trial","153","566631","0.0-9.0-2.0-1.39","7733","1","16","Female","approach_avoid_spark_v1","""event"",""trial"",""time""
""fullscreenenter"",""1"",""4050""
","
","
","""event"",""trial"",""time""
""fullscreenenter"",""1"",""4050""
","
","","","","","","556.5999999046326","images/rabbit5.png","","","learning","-4","0","0","0","rabbit","pets","1","0","","bad","[-5]"
"html-keyboard-response","154","567140","0.0-9.0-2.0-0.40","7733","1","16","Female","approach_avoid_spark_v1","""event"",""trial"",""time""
""fullscreenenter"",""1"",""4050""
","
","
","""event"",""trial"",""time""
""fullscreenenter"",""1"",""4050""
","
","","","","","","null","<div style=""font-size:60px;"">+</div>","null","","fixation","","","","","","","","","","",""
"aa-learning-trial","155","570158","0.0-9.0-2.0-1.40","7733","1","16","Female","approach_avoid_spark_v1","""event"",""trial"",""time""
""fullscreenenter"",""1"",""4050""
","
","
","""event"",""trial"",""time""
""fullscreenenter"",""1"",""4050""
","
","","","","","","535","images/rodent5.png","","","learning","4","4","1","1","rodent","pets","1","0","","good","[6]"
"html-keyboard-response","156","570667","0.0-9.0-2.0-0.41","7733","1","16","Female","approach_avoid_spark_v1","""event"",""trial"",""time""
""fullscreenenter"",""1"",""4050""
","
","
","""event"",""trial"",""time""
""fullscreenenter"",""1"",""4050""
","
","","","","","","null","<div style=""font-size:60px;"">+</div>","null","","fixation","","","","","","","","","","",""
"aa-learning-trial","157","573678","0.0-9.0-2.0-1.41","7733","1","16","Female","approach_avoid_spark_v1","""event"",""trial"",""time""
""fullscreenenter"",""1"",""4050""
","
","
","""event"",""trial"",""time""
""fullscreenenter"",""1"",""4050""
","
","","","","","","997.1999998092651","images/rabbit1.png","","","learning","-5","0","0","0","rabbit","pets","1","0","","bad","[-5]"
"html-keyboard-response","158","574192","0.0-9.0-2.0-0.42","7733","1","16","Female","approach_avoid_spark_v1","""event"",""trial"",""time""
""fullscreenenter"",""1"",""4050""
","
","
","""event"",""trial"",""time""
""fullscreenenter"",""1"",""4050""
","
","","","","","","null","<div style=""font-size:60px;"">+</div>","null","","fixation","","","","","","","","","","",""
"aa-learning-trial","159","577207","0.0-9.0-2.0-1.42","7733","1","16","Female","approach_avoid_spark_v1","""event"",""trial"",""time""
""fullscreenenter"",""1"",""4050""
","
","
","""event"",""trial"",""time""
""fullscreenenter"",""1"",""4050""
","
","","","","","","420.5","images/cat1.png","","","learning","1","1","1","1","cat","pets","1","0","","neutral","0"
"html-keyboard-response","160","577711","0.0-9.0-2.0-0.43","7733","1","16","Female","approach_avoid_spark_v1","""event"",""trial"",""time""
""fullscreenenter"",""1"",""4050""
","
","
","""event"",""trial"",""time""
""fullscreenenter"",""1"",""4050""
","
","","","","","","null","<div style=""font-size:60px;"">+</div>","null","","fixation","","","","","","","","","","",""
"aa-learning-trial","161","580725","0.0-9.0-2.0-1.43","7733","1","16","Female","approach_avoid_spark_v1","""event"",""trial"",""time""
""fullscreenenter"",""1"",""4050""
","
","
","""event"",""trial"",""time""
""fullscreenenter"",""1"",""4050""
","
","","","","","","668.7000000476837","images/rodent4.png","","","learning","6","6","1","1","rodent","pets","1","0","","good","[6]"
"html-keyboard-response","162","581231","0.0-9.0-2.0-0.44","7733","1","16","Female","approach_avoid_spark_v1","""event"",""trial"",""time""
""fullscreenenter"",""1"",""4050""
","
","
","""event"",""trial"",""time""
""fullscreenenter"",""1"",""4050""
","
","","","","","","null","<div style=""font-size:60px;"">+</div>","null","","fixation","","","","","","","","","","",""
"aa-learning-trial","163","584242","0.0-9.0-2.0-1.44","7733","1","16","Female","approach_avoid_spark_v1","""event"",""trial"",""time""
""fullscreenenter"",""1"",""4050""
","
","
","""event"",""trial"",""time""
""fullscreenenter"",""1"",""4050""
","
","","","","","","1089.5","images/cat8.png","","","learning","2","2","1","1","cat","pets","1","0","","neutral","0"
"html-keyboard-response","164","584753","0.0-9.0-2.0-0.45","7733","1","16","Female","approach_avoid_spark_v1","""event"",""trial"",""time""
""fullscreenenter"",""1"",""4050""
","
","
","""event"",""trial"",""time""
""fullscreenenter"",""1"",""4050""
","
","","","","","","null","<div style=""font-size:60px;"">+</div>","null","","fixation","","","","","","","","","","",""
"aa-learning-trial","165","587758","0.0-9.0-2.0-1.45","7733","1","16","Female","approach_avoid_spark_v1","""event"",""trial"",""time""
""fullscreenenter"",""1"",""4050""
","
","
","""event"",""trial"",""time""
""fullscreenenter"",""1"",""4050""
","
","","","","","","429.40000009536743","images/cat1.png","","","learning","[1]","1","1","1","cat","pets","1","0","","neutral","0"
"html-keyboard-response","166","588261","0.0-9.0-2.0-0.46","7733","1","16","Female","approach_avoid_spark_v1","""event"",""trial"",""time""
""fullscreenenter"",""1"",""4050""
","
","
","""event"",""trial"",""time""
""fullscreenenter"",""1"",""4050""
","
","","","","","","null","<div style=""font-size:60px;"">+</div>","null","","fixation","","","","","","","","","","",""
"aa-learning-trial","167","591273","0.0-9.0-2.0-1.46","7733","1","16","Female","approach_avoid_spark_v1","""event"",""trial"",""time""
""fullscreenenter"",""1"",""4050""
","
","
","""event"",""trial"",""time""
""fullscreenenter"",""1"",""4050""
","
","","","","","","1040.2999999523163","images/rodent6.png","","","learning","7","7","1","1","rodent","pets","1","0","","good","[6]"
"html-keyboard-response","168","591783","0.0-9.0-2.0-0.47","7733","1","16","Female","approach_avoid_spark_v1","""event"",""trial"",""time""
""fullscreenenter"",""1"",""4050""
","
","
","""event"",""trial"",""time""
""fullscreenenter"",""1"",""4050""
","
","","","","","","null","<div style=""font-size:60px;"">+</div>","null","","fixation","","","","","","","","","","",""
"aa-learning-trial","169","594794","0.0-9.0-2.0-1.47","7733","1","16","Female","approach_avoid_spark_v1","""event"",""trial"",""time""
""fullscreenenter"",""1"",""4050""
","
","
","""event"",""trial"",""time""
""fullscreenenter"",""1"",""4050""
","
","","","","","","739.7999999523163","images/rabbit1.png","","","learning","-5","0","0","0","rabbit","pets","1","0","","bad","[-5]"
"html-keyboard-response","170","595301","0.0-9.0-2.0-0.48","7733","1","16","Female","approach_avoid_spark_v1","""event"",""trial"",""time""
""fullscreenenter"",""1"",""4050""
","
","
","""event"",""trial"",""time""
""fullscreenenter"",""1"",""4050""
","
","","","","","","null","<div style=""font-size:60px;"">+</div>","null","","fixation","","","","","","","","","","",""
"aa-learning-trial","171","598313","0.0-9.0-2.0-1.48","7733","1","16","Female","approach_avoid_spark_v1","""event"",""trial"",""time""
""fullscreenenter"",""1"",""4050""
","
","
","""event"",""trial"",""time""
""fullscreenenter"",""1"",""4050""
","
","","","","","","695.0999999046326","images/rodent6.png","","","learning","4","4","1","1","rodent","pets","1","0","","good","[6]"
"html-keyboard-response","172","598819","0.0-9.0-2.0-0.49","7733","1","16","Female","approach_avoid_spark_v1","""event"",""trial"",""time""
""fullscreenenter"",""1"",""4050""
","
","
","""event"",""trial"",""time""
""fullscreenenter"",""1"",""4050""
","
","","","","","","null","<div style=""font-size:60px;"">+</div>","null","","fixation","","","","","","","","","","",""
"aa-learning-trial","173","601840","0.0-9.0-2.0-1.49","7733","1","16","Female","approach_avoid_spark_v1","""event"",""trial"",""time""
""fullscreenenter"",""1"",""4050""
","
","
","""event"",""trial"",""time""
""fullscreenenter"",""1"",""4050""
","
","","","","","","669.0999999046326","images/rabbit2.png","","","learning","-4","0","0","0","rabbit","pets","1","0","","bad","[-5]"
"html-keyboard-response","174","602355","0.0-9.0-2.0-0.50","7733","1","16","Female","approach_avoid_spark_v1","""event"",""trial"",""time""
""fullscreenenter"",""1"",""4050""
","
","
","""event"",""trial"",""time""
""fullscreenenter"",""1"",""4050""
","
","","","","","","null","<div style=""font-size:60px;"">+</div>","null","","fixation","","","","","","","","","","",""
"aa-learning-trial","175","605374","0.0-9.0-2.0-1.50","7733","1","16","Female","approach_avoid_spark_v1","""event"",""trial"",""time""
""fullscreenenter"",""1"",""4050""
","
","
","""event"",""trial"",""time""
""fullscreenenter"",""1"",""4050""
","
","","","","","","696.8000001907349","images/rodent3.png","","","learning","7","7","1","1","rodent","pets","1","0","","good","[6]"
"html-button-response","176","608586","0.0-9.0-3.0","7733","1","16","Female","approach_avoid_spark_v1","""event"",""trial"",""time""
""fullscreenenter"",""1"",""4050""
","
","
","""event"",""trial"",""time""
""fullscreenenter"",""1"",""4050""
","
","","","","","","3208.7999999523163","<p> You have completed the round! <p> In this round, you earned 66 points! </p>","0","","break","","","","","","","","","","",""
"html-button-response","177","609626","0.0-10.0","7733","1","16","Female","approach_avoid_spark_v1","""event"",""trial"",""time""
""fullscreenenter"",""1"",""4050""
","
","
","""event"",""trial"",""time""
""fullscreenenter"",""1"",""4050""
","
","","","","","","1037.4000000953674","<p> Now it's time to play another round. </p>","0","","transition_screen","","","","","","","","","","",""
"preload","178","609796","0.0-11.0-0.0","7733","1","16","Female","approach_avoid_spark_v1","""event"",""trial"",""time""
""fullscreenenter"",""1"",""4050""
","
","
","""event"",""trial"",""time""
""fullscreenenter"",""1"",""4050""
","
","true","false","[]","[]","[]","","","","","","","","","","","","","","","",""
"learning-instructions","179","619069","0.0-11.0-1.0-0.0","7733","1","16","Female","approach_avoid_spark_v1","""event"",""trial"",""time""
""fullscreenenter"",""1"",""4050""
","
","
","""event"",""trial"",""time""
""fullscreenenter"",""1"",""4050""
","
","","","","","","752.2999999523163","<p> Your goal in this round is to take your friend for rides in different vehicles. </p></div>","","0","instructions","","","","","","","","","","",""
"learning-instructions","180","630527","0.0-11.0-1.0-0.1","7733","1","16","Female","approach_avoid_spark_v1","""event"",""trial"",""time""
""fullscreenenter"",""1"",""4050""
","
","
","""event"",""trial"",""time""
""fullscreenenter"",""1"",""4050""
","
","","","","","","1249.8999998569489","<p> Your friend enjoys riding in some vehicles but not in others.  </p><p> On each turn, you will see a vehicle.   </p><p> You need to decide whether to take your friend for a ride or not.  </p>","","0","instructions","","","","","","","","","","",""
"learning-instructions","181","638725","0.0-11.0-1.0-0.2","7733","1","16","Female","approach_avoid_spark_v1","""event"",""trial"",""time""
""fullscreenenter"",""1"",""4050""
","
","
","""event"",""trial"",""time""
""fullscreenenter"",""1"",""4050""
","
","","","","","","1426.7000000476837","<p> You can take your friend for a ride in the vehicle by pressing 1 and skip the ride by pressing 0. </p><br><div class=""choice-instructions-grid""> <div class=""choice-option""><img src=""images/approach.png"" class=""choice-option-img"" stage=""instructions"" position=""0"" ><div class=""choice-option-text""> Press ""1."" </div></div><div class=""choice-option""><img src=""images/avoid.png"" class=""choice-option-img"" stage=""instructions"" position=""1"" ><div class=""choice-option-text""> Press ""0."" </div></div>","","0","instructions","","","","","","","","","","",""
"learning-instructions","182","649195","0.0-11.0-1.0-0.3","7733","1","16","Female","approach_avoid_spark_v1","""event"",""trial"",""time""
""fullscreenenter"",""1"",""4050""
","
","
","""event"",""trial"",""time""
""fullscreenenter"",""1"",""4050""
","
","","","","","","506.2000000476837","<p> If you take them for a ride in a vehicle they like, they will be thrilled! </p><p> But if you take them for a ride in a vehicle they do not like, they will be upset. </p>","","0","instructions","","","","","","","","","","",""
"learning-instructions","183","662842","0.0-11.0-1.0-0.4","7733","1","16","Female","approach_avoid_spark_v1","""event"",""trial"",""time""
""fullscreenenter"",""1"",""4050""
","
","
","""event"",""trial"",""time""
""fullscreenenter"",""1"",""4050""
","
","","","","","","453.7000000476837","<p> You will earn points based on how you made your friend feel. </p><p> If you made him thrilled, you will WIN anywhere from 1 - 9 points, </p><p> but if you made him upset, you will LOSE anywhere from 1 - 9 points. </p>","","0","instructions","","","","","","","","","","",""
"learning-instructions","184","670315","0.0-11.0-1.0-0.5","7733","1","16","Female","approach_avoid_spark_v1","""event"",""trial"",""time""
""fullscreenenter"",""1"",""4050""
","
","
","""event"",""trial"",""time""
""fullscreenenter"",""1"",""4050""
","
","","","","","","821.5999999046326","<p> You will see how many points you won or lost in the center of the screen. </p><p> Here is what you would see if you won 5 points: </p><p style=""color:green;font-size:50px;font-weight:bolder"">5</p>","","0","instructions","","","","","","","","","","",""
"learning-instructions","185","673593","0.0-11.0-1.0-0.6","7733","1","16","Female","approach_avoid_spark_v1","""event"",""trial"",""time""
""fullscreenenter"",""1"",""4050""
","
","
","""event"",""trial"",""time""
""fullscreenenter"",""1"",""4050""
","
","","","","","","429.7999999523163","<p> And here is what you would see if you lost 3 points: </p><p style=""color:red;font-size:50px;font-weight:bolder"">-3</p>","","0","instructions","","","","","","","","","","",""
"learning-instructions","186","689650","0.0-11.0-1.0-0.7","7733","1","16","Female","approach_avoid_spark_v1","""event"",""trial"",""time""
""fullscreenenter"",""1"",""4050""
","
","
","""event"",""trial"",""time""
""fullscreenenter"",""1"",""4050""
","
","","","","","","576.9000000953674","<p> Some vehicles will make your friend REALLY thrilled or upset. </p><p> These vehicles will make you win or lose LOTS of points. </p><p> Other vehicles will only make him feel a little thrilled or upset. </p><p> These vehicles will make you win or lose small amounts of points. </p>","","0","instructions","","","","","","","","","","",""
"learning-instructions","187","702244","0.0-11.0-1.0-0.8","7733","1","16","Female","approach_avoid_spark_v1","""event"",""trial"",""time""
""fullscreenenter"",""1"",""4050""
","
","
","""event"",""trial"",""time""
""fullscreenenter"",""1"",""4050""
","
","","","","","","501.40000009536743","<p> If you choose to skip the ride, you will not win or lose any points. </p><p>  However, in the center of the screen, you will see the number of points you WOULD HAVE won or lost if you had taken your friend for a ride. </p>","","0","instructions","","","","","","","","","","",""
"learning-instructions","188","714967","0.0-11.0-1.0-0.9","7733","1","16","Female","approach_avoid_spark_v1","""event"",""trial"",""time""
""fullscreenenter"",""1"",""4050""
","
","
","""event"",""trial"",""time""
""fullscreenenter"",""1"",""4050""
","
","","","","","","554","<p> Here is what you might see if you did not take your friend for a ride but he would have enjoyed it: </p><p style=""color:grey; font-size:50px; display: inline-block; border-spacing: 15px; border-width:3px; border-style:solid; border-color:red"">  &nbsp; 6 &nbsp; </p><p> Remember, in this case, you would not win or lose ANY points because you skipped the ride.  </p>","","0","instructions","","","","","","","","","","",""
"learning-instructions","189","723707","0.0-11.0-1.0-0.10","7733","1","16","Female","approach_avoid_spark_v1","""event"",""trial"",""time""
""fullscreenenter"",""1"",""4050""
","
","
","""event"",""trial"",""time""
""fullscreenenter"",""1"",""4050""
","
","","","","","","543.8999998569489","<p> Try to make the best choice for each vehicle because </p><p> at the end of the game, you will earn bonus money based on how many points you earned. </p>","","0","instructions","","","","","","","","","","",""
"learning-instructions","190","732483","0.0-11.0-1.0-0.11","7733","1","16","Female","approach_avoid_spark_v1","""event"",""trial"",""time""
""fullscreenenter"",""1"",""4050""
","
","
","""event"",""trial"",""time""
""fullscreenenter"",""1"",""4050""
","
","","","","","","565.5","<p> You will have 3 seconds to make each choice. Try to respond before time runs out! </p><p> You will lose 5 points each time you do not make a response. </p>","","0","instructions","","","","","","","","","","",""
"html-keyboard-response","191","733104","0.0-11.0-2.0-0.0","7733","1","16","Female","approach_avoid_spark_v1","""event"",""trial"",""time""
""fullscreenenter"",""1"",""4050""
","
","
","""event"",""trial"",""time""
""fullscreenenter"",""1"",""4050""
","
","","","","","","null","<div style=""font-size:60px;"">+</div>","null","","fixation","","","","","","","","","","",""
"aa-learning-trial","192","736127","0.0-11.0-2.0-1.0","7733","1","16","Female","approach_avoid_spark_v1","""event"",""trial"",""time""
""fullscreenenter"",""1"",""4050""
","
","
","""event"",""trial"",""time""
""fullscreenenter"",""1"",""4050""
","
","","","","","","1127.7999999523163","images/train3.png","","","learning","-4","-4","1","1","train","vehicles","2","1","","bad","[-4]"
"html-keyboard-response","193","736634","0.0-11.0-2.0-0.1","7733","1","16","Female","approach_avoid_spark_v1","""event"",""trial"",""time""
""fullscreenenter"",""1"",""4050""
","
","
","""event"",""trial"",""time""
""fullscreenenter"",""1"",""4050""
","
","","","","","","null","<div style=""font-size:60px;"">+</div>","null","","fixation","","","","","","","","","","",""
"aa-learning-trial","194","739645","0.0-11.0-2.0-1.1","7733","1","16","Female","approach_avoid_spark_v1","""event"",""trial"",""time""
""fullscreenenter"",""1"",""4050""
","
","
","""event"",""trial"",""time""
""fullscreenenter"",""1"",""4050""
","
","","","","","","802.7999999523163","images/truck4.png","","","learning","-7","-7","1","1","truck","vehicles","2","1","","neutral","0"
"html-keyboard-response","195","740165","0.0-11.0-2.0-0.2","7733","1","16","Female","approach_avoid_spark_v1","""event"",""trial"",""time""
""fullscreenenter"",""1"",""4050""
","
","
","""event"",""trial"",""time""
""fullscreenenter"",""1"",""4050""
","
","","","","","","null","<div style=""font-size:60px;"">+</div>","null","","fixation","","","","","","","","","","",""
"aa-learning-trial","196","743185","0.0-11.0-2.0-1.2","7733","1","16","Female","approach_avoid_spark_v1","""event"",""trial"",""time""
""fullscreenenter"",""1"",""4050""
","
","
","""event"",""trial"",""time""
""fullscreenenter"",""1"",""4050""
","
","","","","","","737.1000001430511","images/truck1.png","","","learning","9","0","0","0","truck","vehicles","2","1","","neutral","0"
"html-keyboard-response","197","743701","0.0-11.0-2.0-0.3","7733","1","16","Female","approach_avoid_spark_v1","""event"",""trial"",""time""
""fullscreenenter"",""1"",""4050""
","
","
","""event"",""trial"",""time""
""fullscreenenter"",""1"",""4050""
","
","","","","","","null","<div style=""font-size:60px;"">+</div>","null","","fixation","","","","","","","","","","",""
"aa-learning-trial","198","746725","0.0-11.0-2.0-1.3","7733","1","16","Female","approach_avoid_spark_v1","""event"",""trial"",""time""
""fullscreenenter"",""1"",""4050""
","
","
","""event"",""trial"",""time""
""fullscreenenter"",""1"",""4050""
","
","","","","","","552.5","images/truck1.png","","","learning","9","9","1","1","truck","vehicles","2","1","","neutral","0"
"html-keyboard-response","199","747245","0.0-11.0-2.0-0.4","7733","1","16","Female","approach_avoid_spark_v1","""event"",""trial"",""time""
""fullscreenenter"",""1"",""4050""
","
","
","""event"",""trial"",""time""
""fullscreenenter"",""1"",""4050""
","
","","","","","","null","<div style=""font-size:60px;"">+</div>","null","","fixation","","","","","","","","","","",""
"aa-learning-trial","200","750255","0.0-11.0-2.0-1.4","7733","1","16","Female","approach_avoid_spark_v1","""event"",""trial"",""time""
""fullscreenenter"",""1"",""4050""
","
","
","""event"",""trial"",""time""
""fullscreenenter"",""1"",""4050""
","
","","","","","","752","images/plane4.png","","","learning","5","5","1","1","plane","vehicles","2","1","","good","[4]"
"html-keyboard-response","201","750770","0.0-11.0-2.0-0.5","7733","1","16","Female","approach_avoid_spark_v1","""event"",""trial"",""time""
""fullscreenenter"",""1"",""4050""
","
","
","""event"",""trial"",""time""
""fullscreenenter"",""1"",""4050""
","
","","","","","","null","<div style=""font-size:60px;"">+</div>","null","","fixation","","","","","","","","","","",""
"aa-learning-trial","202","753795","0.0-11.0-2.0-1.5","7733","1","16","Female","approach_avoid_spark_v1","""event"",""trial"",""time""
""fullscreenenter"",""1"",""4050""
","
","
","""event"",""trial"",""time""
""fullscreenenter"",""1"",""4050""
","
","","","","","","569.5","images/plane5.png","","","learning","-9","-9","1","1","plane","vehicles","2","1","","good","[4]"
"html-keyboard-response","203","754316","0.0-11.0-2.0-0.6","7733","1","16","Female","approach_avoid_spark_v1","""event"",""trial"",""time""
""fullscreenenter"",""1"",""4050""
","
","
","""event"",""trial"",""time""
""fullscreenenter"",""1"",""4050""
","
","","","","","","null","<div style=""font-size:60px;"">+</div>","null","","fixation","","","","","","","","","","",""
"aa-learning-trial","204","757326","0.0-11.0-2.0-1.6","7733","1","16","Female","approach_avoid_spark_v1","""event"",""trial"",""time""
""fullscreenenter"",""1"",""4050""
","
","
","""event"",""trial"",""time""
""fullscreenenter"",""1"",""4050""
","
","","","","","","836.7000000476837","images/plane7.png","","","learning","-2","-2","1","1","plane","vehicles","2","1","","good","[4]"
"html-keyboard-response","205","757844","0.0-11.0-2.0-0.7","7733","1","16","Female","approach_avoid_spark_v1","""event"",""trial"",""time""
""fullscreenenter"",""1"",""4050""
","
","
","""event"",""trial"",""time""
""fullscreenenter"",""1"",""4050""
","
","","","","","","null","<div style=""font-size:60px;"">+</div>","null","","fixation","","","","","","","","","","",""
"aa-learning-trial","206","760854","0.0-11.0-2.0-1.7","7733","1","16","Female","approach_avoid_spark_v1","""event"",""trial"",""time""
""fullscreenenter"",""1"",""4050""
","
","
","""event"",""trial"",""time""
""fullscreenenter"",""1"",""4050""
","
","","","","","","551.0999999046326","images/plane7.png","","","learning","-2","-2","1","1","plane","vehicles","2","1","","good","[4]"
"html-keyboard-response","207","761359","0.0-11.0-2.0-0.8","7733","1","16","Female","approach_avoid_spark_v1","""event"",""trial"",""time""
""fullscreenenter"",""1"",""4050""
","
","
","""event"",""trial"",""time""
""fullscreenenter"",""1"",""4050""
","
","","","","","","null","<div style=""font-size:60px;"">+</div>","null","","fixation","","","","","","","","","","",""
"aa-learning-trial","208","764373","0.0-11.0-2.0-1.8","7733","1","16","Female","approach_avoid_spark_v1","""event"",""trial"",""time""
""fullscreenenter"",""1"",""4050""
","
","
","""event"",""trial"",""time""
""fullscreenenter"",""1"",""4050""
","
","","","","","","1065.5","images/train6.png","","","learning","7","0","0","0","train","vehicles","2","1","","bad","[-4]"
"html-keyboard-response","209","764877","0.0-11.0-2.0-0.9","7733","1","16","Female","approach_avoid_spark_v1","""event"",""trial"",""time""
""fullscreenenter"",""1"",""4050""
","
","
","""event"",""trial"",""time""
""fullscreenenter"",""1"",""4050""
","
","","","","","","null","<div style=""font-size:60px;"">+</div>","null","","fixation","","","","","","","","","","",""
"aa-learning-trial","210","767884","0.0-11.0-2.0-1.9","7733","1","16","Female","approach_avoid_spark_v1","""event"",""trial"",""time""
""fullscreenenter"",""1"",""4050""
","
","
","""event"",""trial"",""time""
""fullscreenenter"",""1"",""4050""
","
","","","","","","680.9000000953674","images/train3.png","","","learning","-4","0","0","0","train","vehicles","2","1","","bad","[-4]"
"html-keyboard-response","211","768387","0.0-11.0-2.0-0.10","7733","1","16","Female","approach_avoid_spark_v1","""event"",""trial"",""time""
""fullscreenenter"",""1"",""4050""
","
","
","""event"",""trial"",""time""
""fullscreenenter"",""1"",""4050""
","
","","","","","","null","<div style=""font-size:60px;"">+</div>","null","","fixation","","","","","","","","","","",""
"aa-learning-trial","212","771400","0.0-11.0-2.0-1.10","7733","1","16","Female","approach_avoid_spark_v1","""event"",""trial"",""time""
""fullscreenenter"",""1"",""4050""
","
","
","""event"",""trial"",""time""
""fullscreenenter"",""1"",""4050""
","
","","","","","","1174.1000001430511","images/truck6.png","","","learning","-1","-1","1","1","truck","vehicles","2","1","","neutral","0"
"html-keyboard-response","213","771908","0.0-11.0-2.0-0.11","7733","1","16","Female","approach_avoid_spark_v1","""event"",""trial"",""time""
""fullscreenenter"",""1"",""4050""
","
","
","""event"",""trial"",""time""
""fullscreenenter"",""1"",""4050""
","
","","","","","","null","<div style=""font-size:60px;"">+</div>","null","","fixation","","","","","","","","","","",""
"aa-learning-trial","214","774920","0.0-11.0-2.0-1.11","7733","1","16","Female","approach_avoid_spark_v1","""event"",""trial"",""time""
""fullscreenenter"",""1"",""4050""
","
","
","""event"",""trial"",""time""
""fullscreenenter"",""1"",""4050""
","
","","","","","","717","images/truck4.png","","","learning","-7","0","0","0","truck","vehicles","2","1","","neutral","0"
"html-keyboard-response","215","775428","0.0-11.0-2.0-0.12","7733","1","16","Female","approach_avoid_spark_v1","""event"",""trial"",""time""
""fullscreenenter"",""1"",""4050""
","
","
","""event"",""trial"",""time""
""fullscreenenter"",""1"",""4050""
","
","","","","","","null","<div style=""font-size:60px;"">+</div>","null","","fixation","","","","","","","","","","",""
"aa-learning-trial","216","778447","0.0-11.0-2.0-1.12","7733","1","16","Female","approach_avoid_spark_v1","""event"",""trial"",""time""
""fullscreenenter"",""1"",""4050""
","
","
","""event"",""trial"",""time""
""fullscreenenter"",""1"",""4050""
","
","","","","","","1125.0999999046326","images/train1.png","","","learning","1","0","0","0","train","vehicles","2","1","","bad","[-4]"
"html-keyboard-response","217","778952","0.0-11.0-2.0-0.13","7733","1","16","Female","approach_avoid_spark_v1","""event"",""trial"",""time""
""fullscreenenter"",""1"",""4050""
","
","
","""event"",""trial"",""time""
""fullscreenenter"",""1"",""4050""
","
","","","","","","null","<div style=""font-size:60px;"">+</div>","null","","fixation","","","","","","","","","","",""
"aa-learning-trial","218","781964","0.0-11.0-2.0-1.13","7733","1","16","Female","approach_avoid_spark_v1","""event"",""trial"",""time""
""fullscreenenter"",""1"",""4050""
","
","
","""event"",""trial"",""time""
""fullscreenenter"",""1"",""4050""
","
","","","","","","515.2999999523163","images/plane5.png","","","learning","-9","-9","1","1","plane","vehicles","2","1","","good","[4]"
"html-keyboard-response","219","782478","0.0-11.0-2.0-0.14","7733","1","16","Female","approach_avoid_spark_v1","""event"",""trial"",""time""
""fullscreenenter"",""1"",""4050""
","
","
","""event"",""trial"",""time""
""fullscreenenter"",""1"",""4050""
","
","","","","","","null","<div style=""font-size:60px;"">+</div>","null","","fixation","","","","","","","","","","",""
"aa-learning-trial","220","785489","0.0-11.0-2.0-1.14","7733","1","16","Female","approach_avoid_spark_v1","""event"",""trial"",""time""
""fullscreenenter"",""1"",""4050""
","
","
","""event"",""trial"",""time""
""fullscreenenter"",""1"",""4050""
","
","","","","","","1685.7999999523163","images/train6.png","","","learning","7","7","1","1","train","vehicles","2","1","","bad","[-4]"
"html-keyboard-response","221","785998","0.0-11.0-2.0-0.15","7733","1","16","Female","approach_avoid_spark_v1","""event"",""trial"",""time""
""fullscreenenter"",""1"",""4050""
","
","
","""event"",""trial"",""time""
""fullscreenenter"",""1"",""4050""
","
","","","","","","null","<div style=""font-size:60px;"">+</div>","null","","fixation","","","","","","","","","","",""
"aa-learning-trial","222","789007","0.0-11.0-2.0-1.15","7733","1","16","Female","approach_avoid_spark_v1","""event"",""trial"",""time""
""fullscreenenter"",""1"",""4050""
","
","
","""event"",""trial"",""time""
""fullscreenenter"",""1"",""4050""
","
","","","","","","1066","images/plane7.png","","","learning","-2","0","0","0","plane","vehicles","2","1","","good","[4]"
"html-keyboard-response","223","789514","0.0-11.0-2.0-0.16","7733","1","16","Female","approach_avoid_spark_v1","""event"",""trial"",""time""
""fullscreenenter"",""1"",""4050""
","
","
","""event"",""trial"",""time""
""fullscreenenter"",""1"",""4050""
","
","","","","","","null","<div style=""font-size:60px;"">+</div>","null","","fixation","","","","","","","","","","",""
"aa-learning-trial","224","792529","0.0-11.0-2.0-1.16","7733","1","16","Female","approach_avoid_spark_v1","""event"",""trial"",""time""
""fullscreenenter"",""1"",""4050""
","
","
","""event"",""trial"",""time""
""fullscreenenter"",""1"",""4050""
","
","","","","","","868.7000000476837","images/truck7.png","","","learning","3","3","1","1","truck","vehicles","2","1","","neutral","0"
"html-keyboard-response","225","793039","0.0-11.0-2.0-0.17","7733","1","16","Female","approach_avoid_spark_v1","""event"",""trial"",""time""
""fullscreenenter"",""1"",""4050""
","
","
","""event"",""trial"",""time""
""fullscreenenter"",""1"",""4050""
","
","","","","","","null","<div style=""font-size:60px;"">+</div>","null","","fixation","","","","","","","","","","",""
"aa-learning-trial","226","796046","0.0-11.0-2.0-1.17","7733","1","16","Female","approach_avoid_spark_v1","""event"",""trial"",""time""
""fullscreenenter"",""1"",""4050""
","
","
","""event"",""trial"",""time""
""fullscreenenter"",""1"",""4050""
","
","","","","","","1388.4000000953674","images/plane7.png","","","learning","-2","0","0","0","plane","vehicles","2","1","","good","[4]"
"html-keyboard-response","227","796555","0.0-11.0-2.0-0.18","7733","1","16","Female","approach_avoid_spark_v1","""event"",""trial"",""time""
""fullscreenenter"",""1"",""4050""
","
","
","""event"",""trial"",""time""
""fullscreenenter"",""1"",""4050""
","
","","","","","","null","<div style=""font-size:60px;"">+</div>","null","","fixation","","","","","","","","","","",""
"aa-learning-trial","228","799566","0.0-11.0-2.0-1.18","7733","1","16","Female","approach_avoid_spark_v1","""event"",""trial"",""time""
""fullscreenenter"",""1"",""4050""
","
","
","""event"",""trial"",""time""
""fullscreenenter"",""1"",""4050""
","
","","","","","","1116.5","images/plane8.png","","","learning","8","0","0","0","plane","vehicles","2","1","","good","[4]"
"html-keyboard-response","229","800071","0.0-11.0-2.0-0.19","7733","1","16","Female","approach_avoid_spark_v1","""event"",""trial"",""time""
""fullscreenenter"",""1"",""4050""
","
","
","""event"",""trial"",""time""
""fullscreenenter"",""1"",""4050""
","
","","","","","","null","<div style=""font-size:60px;"">+</div>","null","","fixation","","","","","","","","","","",""
"aa-learning-trial","230","803081","0.0-11.0-2.0-1.19","7733","1","16","Female","approach_avoid_spark_v1","""event"",""trial"",""time""
""fullscreenenter"",""1"",""4050""
","
","
","""event"",""trial"",""time""
""fullscreenenter"",""1"",""4050""
","
","","","","","","826.3999998569489","images/plane5.png","","","learning","-9","0","0","0","plane","vehicles","2","1","","good","[4]"
"html-keyboard-response","231","803583","0.0-11.0-2.0-0.20","7733","1","16","Female","approach_avoid_spark_v1","""event"",""trial"",""time""
""fullscreenenter"",""1"",""4050""
","
","
","""event"",""trial"",""time""
""fullscreenenter"",""1"",""4050""
","
","","","","","","null","<div style=""font-size:60px;"">+</div>","null","","fixation","","","","","","","","","","",""
"aa-learning-trial","232","806593","0.0-11.0-2.0-1.20","7733","1","16","Female","approach_avoid_spark_v1","""event"",""trial"",""time""
""fullscreenenter"",""1"",""4050""
","
","
","""event"",""trial"",""time""
""fullscreenenter"",""1"",""4050""
","
","","","","","","639.7999999523163","images/plane7.png","","","learning","-2","0","0","0","plane","vehicles","2","1","","good","[4]"
"html-keyboard-response","233","807110","0.0-11.0-2.0-0.21","7733","1","16","Female","approach_avoid_spark_v1","""event"",""trial"",""time""
""fullscreenenter"",""1"",""4050""
","
","
","""event"",""trial"",""time""
""fullscreenenter"",""1"",""4050""
","
","","","","","","null","<div style=""font-size:60px;"">+</div>","null","","fixation","","","","","","","","","","",""
"aa-learning-trial","234","810119","0.0-11.0-2.0-1.21","7733","1","16","Female","approach_avoid_spark_v1","""event"",""trial"",""time""
""fullscreenenter"",""1"",""4050""
","
","
","""event"",""trial"",""time""
""fullscreenenter"",""1"",""4050""
","
","","","","","","561.8000001907349","images/plane5.png","","","learning","-9","0","0","0","plane","vehicles","2","1","","good","[4]"
"html-keyboard-response","235","810626","0.0-11.0-2.0-0.22","7733","1","16","Female","approach_avoid_spark_v1","""event"",""trial"",""time""
""fullscreenenter"",""1"",""4050""
","
","
","""event"",""trial"",""time""
""fullscreenenter"",""1"",""4050""
","
","","","","","","null","<div style=""font-size:60px;"">+</div>","null","","fixation","","","","","","","","","","",""
"aa-learning-trial","236","813637","0.0-11.0-2.0-1.22","7733","1","16","Female","approach_avoid_spark_v1","""event"",""trial"",""time""
""fullscreenenter"",""1"",""4050""
","
","
","""event"",""trial"",""time""
""fullscreenenter"",""1"",""4050""
","
