"trial_type","trial_index","time_elapsed","internal_node_id","subject_id","task_condition","age","gender","task_version","interactions","blur_events","focus_events","fullscreenenter_events","fullscreenexit_events","success","timeout","failed_images","failed_audio","failed_video","rt","stimulus","response","button_pressed","task_part","approach_reward","points","key_press","option_selected","stim_cat","task_block","block_condition","block_number","correct","cat_type","mean_cat_reward"
"pavlovia","0","3","0.0-0.0","4011","2","13","Female","approach_avoid_spark_v1","""event"",""trial"",""time""
""fullscreenenter"",""1"",""3836""
","
","
","""event"",""trial"",""time""
""fullscreenenter"",""1"",""3836""
","
","","","","","","","","","","","","","","","","","","","","",""
"fullscreen","1","4804","0.0-1.0","4011","2","13","Female","approach_avoid_spark_v1","""event"",""trial"",""time""
""fullscreenenter"",""1"",""3836""
","
","
","""event"",""trial"",""time""
""fullscreenenter"",""1"",""3836""
","
","true","","","","","","","","","","","","","","","","","","","",""
"preload","2","60477","0.0-2.0","4011","2","13","Female","approach_avoid_spark_v1","""event"",""trial"",""time""
""fullscreenenter"",""1"",""3836""
","
","
","""event"",""trial"",""time""
""fullscreenenter"",""1"",""3836""
","
","true","false","[]","[]","[]","","","","","","","","","","","","","","","",""
"audio-keyboard-response","3","63660","0.0-3.0","4011","2","13","Female","approach_avoid_spark_v1","""event"",""trial"",""time""
""fullscreenenter"",""1"",""3836""
","
","
","""event"",""trial"",""time""
""fullscreenenter"",""1"",""3836""
","
","","","","","","2559.999999999995","audio/beep_loop.wav"," ","","","","","","","","","","","","",""
"audio-button-response","4","66022","0.0-4.0","4011","2","13","Female","approach_avoid_spark_v1","""event"",""trial"",""time""
""fullscreenenter"",""1"",""3836""
","
","
","""event"",""trial"",""time""
""fullscreenenter"",""1"",""3836""
","
","","","","","","2360","audio/shark.wav","4","","","","","","","","","","","","",""
"audio-button-response","5","68978","0.0-5.0","4011","2","13","Female","approach_avoid_spark_v1","""event"",""trial"",""time""
""fullscreenenter"",""1"",""3836""
","
","
","""event"",""trial"",""time""
""fullscreenenter"",""1"",""3836""
","
","","","","","","1941","audio/turtle.wav","1","","","","","","","","","","","","",""
"preload","6","94902","0.0-6.0","4011","2","13","Female","approach_avoid_spark_v1","""event"",""trial"",""time""
""fullscreenenter"",""1"",""3836""
","
","
","""event"",""trial"",""time""
""fullscreenenter"",""1"",""3836""
","
","true","false","[]","[]","[]","","","","","","","","","","","","","","","",""
"html-keyboard-response","7","97563","0.0-7.0","4011","2","13","Female","approach_avoid_spark_v1","""event"",""trial"",""time""
""fullscreenenter"",""1"",""3836""
","
","
","""event"",""trial"",""time""
""fullscreenenter"",""1"",""3836""
","
","","","","","","2659.400000035763","Welcome to the experiment. Press any key to begin and to advance the instructions."," ","","","","","","","","","","","","",""
"learning-instructions","8","107372","0.0-8.0-0.0-0.0","4011","2","13","Female","approach_avoid_spark_v1","""event"",""trial"",""time""
""fullscreenenter"",""1"",""3836""
","
","
","""event"",""trial"",""time""
""fullscreenenter"",""1"",""3836""
","
","","","","","","2850.599999964237","<p> Welcome! Today you are going to play 6 different rounds of a decision-making game. </p><p> Use the mouse to click next to continue. </p>","","0","instructions","","","","","","","","","","",""
"learning-instructions","9","110868","0.0-8.0-0.0-0.1","4011","2","13","Female","approach_avoid_spark_v1","""event"",""trial"",""time""
""fullscreenenter"",""1"",""3836""
","
","
","""event"",""trial"",""time""
""fullscreenenter"",""1"",""3836""
","
","","","","","","747.1999999880791","<p> You will start with a practice round to learn the rules. </p>","","0","instructions","","","","","","","","","","",""
"learning-instructions","10","114983","0.0-8.0-0.0-0.2","4011","2","13","Female","approach_avoid_spark_v1","""event"",""trial"",""time""
""fullscreenenter"",""1"",""3836""
","
","
","""event"",""trial"",""time""
""fullscreenenter"",""1"",""3836""
","
","","","","","","661.8000000119209","<p> Your goal in this round is to give out sports equipment to kids. </p></div>","","0","instructions","","","","","","","","","","",""
"learning-instructions","11","123335","0.0-8.0-0.0-0.3","4011","2","13","Female","approach_avoid_spark_v1","""event"",""trial"",""time""
""fullscreenenter"",""1"",""3836""
","
","
","""event"",""trial"",""time""
""fullscreenenter"",""1"",""3836""
","
","","","","","","784.3000000119209","<p> The kids only like some of the equipment.  </p><p> On each turn, you will see a piece of sports equipment.   </p><p> You need to decide whether to give it to the kids or not.  </p>","","0","instructions","","","","","","","","","","",""
"learning-instructions","12","128705","0.0-8.0-0.0-0.4","4011","2","13","Female","approach_avoid_spark_v1","""event"",""trial"",""time""
""fullscreenenter"",""1"",""3836""
","
","
","""event"",""trial"",""time""
""fullscreenenter"",""1"",""3836""
","
","","","","","","605.3000000119209","<p> You can give them the equipment by pressing 1 and choose not to give it to them by pressing 0. </p><br><div class=""choice-instructions-grid""> <div class=""choice-option""><img src=""images/approach.png"" class=""choice-option-img"" stage=""instructions"" position=""0"" ><div class=""choice-option-text""> Press ""1."" </div></div><div class=""choice-option""><img src=""images/avoid.png"" class=""choice-option-img"" stage=""instructions"" position=""1"" ><div class=""choice-option-text""> Press ""0."" </div></div>","","0","instructions","","","","","","","","","","",""
"learning-instructions","13","136582","0.0-8.0-0.0-0.5","4011","2","13","Female","approach_avoid_spark_v1","""event"",""trial"",""time""
""fullscreenenter"",""1"",""3836""
","
","
","""event"",""trial"",""time""
""fullscreenenter"",""1"",""3836""
","
","","","","","","500.9000000357628","<p> If you give them a piece of equipment they like, they will be happy! </p><p> But if you give them a piece of equipment they do not like, they will be sad. </p>","","0","instructions","","","","","","","","","","",""
"learning-instructions","14","149918","0.0-8.0-0.0-0.6","4011","2","13","Female","approach_avoid_spark_v1","""event"",""trial"",""time""
""fullscreenenter"",""1"",""3836""
","
","
","""event"",""trial"",""time""
""fullscreenenter"",""1"",""3836""
","
","","","","","","2817.699999988079","<p> You will earn points based on how you make kids feel. </p><p> If you make them happy, you will WIN anywhere from 1 - 9 points, </p><p> but if you make them sad, you will LOSE anywhere from 1 - 9 points. </p>","","0","instructions","","","","","","","","","","",""
"learning-instructions","15","160017","0.0-8.0-0.0-0.7","4011","2","13","Female","approach_avoid_spark_v1","""event"",""trial"",""time""
""fullscreenenter"",""1"",""3836""
","
","
","""event"",""trial"",""time""
""fullscreenenter"",""1"",""3836""
","
","","","","","","536","<p> You will see how many points you won or lost in the center of the screen. </p><p> Here is what you would see if you won 6 points: </p><p style=""color:green;font-size:50px;font-weight:bolder"">6</p><p style=""color:green"">The text is GREEN because you WON points.</p>","","0","instructions","","","","","","","","","","",""
"learning-instructions","16","166817","0.0-8.0-0.0-0.8","4011","2","13","Female","approach_avoid_spark_v1","""event"",""trial"",""time""
""fullscreenenter"",""1"",""3836""
","
","
","""event"",""trial"",""time""
""fullscreenenter"",""1"",""3836""
","
","","","","","","1286.199999988079","<p> And here is what you would see if you lost 4 points: </p><p style=""color:red;font-size:50px;font-weight:bolder"">-4</p><p style=""color:red"">The text is RED because you LOST points. </p>","","0","instructions","","","","","","","","","","",""
"learning-instructions","17","194517","0.0-8.0-0.0-0.9","4011","2","13","Female","approach_avoid_spark_v1","""event"",""trial"",""time""
""fullscreenenter"",""1"",""3836""
","
","
","""event"",""trial"",""time""
""fullscreenenter"",""1"",""3836""
","
","","","","","","12986.5","<p> Some of the equipment will make the kids VERY happy or sad. </p><p> These pieces of equipment will make you win or lose LOTS of points. </p><p> Other pieces of equipment will only make the kids a little happy or sad. </p><p> These pieces of equipment will make you win or lose small amounts of points. </p>","","0","instructions","","","","","","","","","","",""
"learning-instructions","18","205775","0.0-8.0-0.0-0.10","4011","2","13","Female","approach_avoid_spark_v1","""event"",""trial"",""time""
""fullscreenenter"",""1"",""3836""
","
","
","""event"",""trial"",""time""
""fullscreenenter"",""1"",""3836""
","
","","","","","","633.6000000238419","<p> If you choose not to give them the equipment, you will not win or lose any points. </p><p>  However, in the center of the screen, you will see the number of points you WOULD HAVE won or lost if you had given them the equipment. </p>","","0","instructions","","","","","","","","","","",""
"learning-instructions","19","227932","0.0-8.0-0.0-0.11","4011","2","13","Female","approach_avoid_spark_v1","""event"",""trial"",""time""
""fullscreenenter"",""1"",""3836""
","
","
","""event"",""trial"",""time""
""fullscreenenter"",""1"",""3836""
","
","","","","","","621.1000000238419","<p> Here is what you might see if you did not give the equipment to the kids but it would have made them happy: </p><p style=""color:grey; font-size:50px; display: inline-block; border-spacing: 15px; border-width:3px; border-style:solid; border-color:red"">  &nbsp; 7 &nbsp; </p><p> Remember, in this case, you would not win or lose ANY points because you did not give them the equipment.  </p><p style=""color:grey"">The text is GREY because you earned ZERO points. </p><p style=""color:red"">However, choosing to give the kids the equipment would have made you win points. The box around the text is RED because you chose the worse option. </p>","","0","instructions","","","","","","","","","","",""
"learning-instructions","20","250094","0.0-8.0-0.0-0.12","4011","2","13","Female","approach_avoid_spark_v1","""event"",""trial"",""time""
""fullscreenenter"",""1"",""3836""
","
","
","""event"",""trial"",""time""
""fullscreenenter"",""1"",""3836""
","
","","","","","","1083.9000000357628","<p> Here is what you might see if you did not give the equipment to the kids but it would have made them sad: </p><p style=""color:grey;font-size:50px; display: inline-block; border-spacing: 15px; border-width:3px; border-style:solid; border-color:green"">  &nbsp; -8 &nbsp; </p><p> Remember, in this case, you would not win or lose ANY points because you did not give them the equipment.  </p><p style=""color:grey"">The text is GREY because you earned ZERO points. </p><p  style=""color:green""> Choosing to give the kids the equipment would have made you lose points. The box around the text is GREEN because you chose the better option.</p>","","0","instructions","","","","","","","","","","",""
"learning-instructions","21","261847","0.0-8.0-0.0-0.13","4011","2","13","Female","approach_avoid_spark_v1","""event"",""trial"",""time""
""fullscreenenter"",""1"",""3836""
","
","
","""event"",""trial"",""time""
""fullscreenenter"",""1"",""3836""
","
","","","","","","1466.9000000357628","<p> You will have 3 seconds to make each choice. Try to respond before time runs out! </p><p> You will lose 5 points each time you do not make a response. </p>","","0","instructions","","","","","","","","","","",""
"learning-instructions","22","267875","0.0-8.0-0.0-0.14","4011","2","13","Female","approach_avoid_spark_v1","""event"",""trial"",""time""
""fullscreenenter"",""1"",""3836""
","
","
","""event"",""trial"",""time""
""fullscreenenter"",""1"",""3836""
","
","","","","","","605.3999999761581","<p> This is just a practice round, but in the real game, your bonus payment will depend on your total number of points.","","0","instructions","","","","","","","","","","",""
"learning-instructions","23","274305","0.0-8.0-0.0-0.15","4011","2","13","Female","approach_avoid_spark_v1","""event"",""trial"",""time""
""fullscreenenter"",""1"",""3836""
","
","
","""event"",""trial"",""time""
""fullscreenenter"",""1"",""3836""
","
","","","","","","644.4000000357628","<p> Remember, you can give them the equipment by pressing 1 and choose not to give it to them by pressing 0. </p><br><div class=""choice-instructions-grid""> <div class=""choice-option""><img src=""images/approach.png"" class=""choice-option-img"" stage=""instructions"" position=""0"" ><div class=""choice-option-text""> Press ""1."" </div></div><div class=""choice-option""><img src=""images/avoid.png"" class=""choice-option-img"" stage=""instructions"" position=""1"" ><div class=""choice-option-text""> Press ""0."" </div></div>","","0","instructions","","","","","","","","","","",""
"html-button-response","24","278498","0.0-8.0-1.0","4011","2","13","Female","approach_avoid_spark_v1","""event"",""trial"",""time""
""fullscreenenter"",""1"",""3836""
","
","
","""event"",""trial"",""time""
""fullscreenenter"",""1"",""3836""
","
","","","","","","4080.900000035763","<p> Ready to practice? </p>","0","","","","","","","","","","","","",""
"html-keyboard-response","25","279109","0.0-8.0-2.0-0.0","4011","2","13","Female","approach_avoid_spark_v1","""event"",""trial"",""time""
""fullscreenenter"",""1"",""3836""
","
","
","""event"",""trial"",""time""
""fullscreenenter"",""1"",""3836""
","
","","","","","","null","<div style=""font-size:60px;"">+</div>","null","","fixation","","","","","","","","","","",""
"aa-learning-trial","26","282133","0.0-8.0-2.0-1.0","4011","2","13","Female","approach_avoid_spark_v1","""event"",""trial"",""time""
""fullscreenenter"",""1"",""3836""
","
","
","""event"",""trial"",""time""
""fullscreenenter"",""1"",""3836""
","
","","","","","","1274.7000000476837","images/ball2.png","","","learning","9","9","1","1","practice","practice","practice","-1","","",""
"html-keyboard-response","27","282653","0.0-8.0-2.0-0.1","4011","2","13","Female","approach_avoid_spark_v1","""event"",""trial"",""time""
""fullscreenenter"",""1"",""3836""
","
","
","""event"",""trial"",""time""
""fullscreenenter"",""1"",""3836""
","
","","","","","","null","<div style=""font-size:60px;"">+</div>","null","","fixation","","","","","","","","","","",""
"aa-learning-trial","28","285664","0.0-8.0-2.0-1.1","4011","2","13","Female","approach_avoid_spark_v1","""event"",""trial"",""time""
""fullscreenenter"",""1"",""3836""
","
","
","""event"",""trial"",""time""
""fullscreenenter"",""1"",""3836""
","
","","","","","","1356.0999999642372","images/racket1.png","","","learning","4","0","0","0","practice","practice","practice","-1","","",""
"html-keyboard-response","29","286180","0.0-8.0-2.0-0.2","4011","2","13","Female","approach_avoid_spark_v1","""event"",""trial"",""time""
""fullscreenenter"",""1"",""3836""
","
","
","""event"",""trial"",""time""
""fullscreenenter"",""1"",""3836""
","
","","","","","","null","<div style=""font-size:60px;"">+</div>","null","","fixation","","","","","","","","","","",""
"aa-learning-trial","30","289203","0.0-8.0-2.0-1.2","4011","2","13","Female","approach_avoid_spark_v1","""event"",""trial"",""time""
""fullscreenenter"",""1"",""3836""
","
","
","""event"",""trial"",""time""
""fullscreenenter"",""1"",""3836""
","
","","","","","","1277.3999999761581","images/ball3.png","","","learning","2","2","1","1","practice","practice","practice","-1","","",""
"html-keyboard-response","31","289723","0.0-8.0-2.0-0.3","4011","2","13","Female","approach_avoid_spark_v1","""event"",""trial"",""time""
""fullscreenenter"",""1"",""3836""
","
","
","""event"",""trial"",""time""
""fullscreenenter"",""1"",""3836""
","
","","","","","","null","<div style=""font-size:60px;"">+</div>","null","","fixation","","","","","","","","","","",""
"aa-learning-trial","32","292738","0.0-8.0-2.0-1.3","4011","2","13","Female","approach_avoid_spark_v1","""event"",""trial"",""time""
""fullscreenenter"",""1"",""3836""
","
","
","""event"",""trial"",""time""
""fullscreenenter"",""1"",""3836""
","
","","","","","","1279.4000000357628","images/racket3.png","","","learning","-7","0","0","0","practice","practice","practice","-1","","",""
"html-keyboard-response","33","293255","0.0-8.0-2.0-0.4","4011","2","13","Female","approach_avoid_spark_v1","""event"",""trial"",""time""
""fullscreenenter"",""1"",""3836""
","
","
","""event"",""trial"",""time""
""fullscreenenter"",""1"",""3836""
","
","","","","","","null","<div style=""font-size:60px;"">+</div>","null","","fixation","","","","","","","","","","",""
"aa-learning-trial","34","296273","0.0-8.0-2.0-1.4","4011","2","13","Female","approach_avoid_spark_v1","""event"",""trial"",""time""
""fullscreenenter"",""1"",""3836""
","
","
","""event"",""trial"",""time""
""fullscreenenter"",""1"",""3836""
","
","","","","","","2041.699999988079","images/ball1.png","","","learning","8","8","1","1","practice","practice","practice","-1","","",""
"html-keyboard-response","35","296789","0.0-8.0-2.0-0.5","4011","2","13","Female","approach_avoid_spark_v1","""event"",""trial"",""time""
""fullscreenenter"",""1"",""3836""
","
","
","""event"",""trial"",""time""
""fullscreenenter"",""1"",""3836""
","
","","","","","","null","<div style=""font-size:60px;"">+</div>","null","","fixation","","","","","","","","","","",""
"aa-learning-trial","36","299810","0.0-8.0-2.0-1.5","4011","2","13","Female","approach_avoid_spark_v1","""event"",""trial"",""time""
""fullscreenenter"",""1"",""3836""
","
","
","""event"",""trial"",""time""
""fullscreenenter"",""1"",""3836""
","
","","","","","","1411.199999988079","images/racket2.png","","","learning","6","0","0","0","practice","practice","practice","-1","","",""
"html-keyboard-response","37","300325","0.0-8.0-2.0-0.6","4011","2","13","Female","approach_avoid_spark_v1","""event"",""trial"",""time""
""fullscreenenter"",""1"",""3836""
","
","
","""event"",""trial"",""time""
""fullscreenenter"",""1"",""3836""
","
","","","","","","null","<div style=""font-size:60px;"">+</div>","null","","fixation","","","","","","","","","","",""
"aa-learning-trial","38","303335","0.0-8.0-2.0-1.6","4011","2","13","Female","approach_avoid_spark_v1","""event"",""trial"",""time""
""fullscreenenter"",""1"",""3836""
","
","
","""event"",""trial"",""time""
""fullscreenenter"",""1"",""3836""
","
","","","","","","1036.199999988079","images/racket2.png","","","learning","4","4","1","1","practice","practice","practice","-1","","",""
"html-keyboard-response","39","303839","0.0-8.0-2.0-0.7","4011","2","13","Female","approach_avoid_spark_v1","""event"",""trial"",""time""
""fullscreenenter"",""1"",""3836""
","
","
","""event"",""trial"",""time""
""fullscreenenter"",""1"",""3836""
","
","","","","","","null","<div style=""font-size:60px;"">+</div>","null","","fixation","","","","","","","","","","",""
"aa-learning-trial","40","306848","0.0-8.0-2.0-1.7","4011","2","13","Female","approach_avoid_spark_v1","""event"",""trial"",""time""
""fullscreenenter"",""1"",""3836""
","
","
","""event"",""trial"",""time""
""fullscreenenter"",""1"",""3836""
","
","","","","","","796.7999999523163","images/racket2.png","","","learning","6","6","1","1","practice","practice","practice","-1","","",""
"html-keyboard-response","41","307362","0.0-8.0-2.0-0.8","4011","2","13","Female","approach_avoid_spark_v1","""event"",""trial"",""time""
""fullscreenenter"",""1"",""3836""
","
","
","""event"",""trial"",""time""
""fullscreenenter"",""1"",""3836""
","
","","","","","","null","<div style=""font-size:60px;"">+</div>","null","","fixation","","","","","","","","","","",""
"aa-learning-trial","42","310369","0.0-8.0-2.0-1.8","4011","2","13","Female","approach_avoid_spark_v1","""event"",""trial"",""time""
""fullscreenenter"",""1"",""3836""
","
","
","""event"",""trial"",""time""
""fullscreenenter"",""1"",""3836""
","
","","","","","","1195.5999999642372","images/ball3.png","","","learning","-6","-6","1","1","practice","practice","practice","-1","","",""
"html-keyboard-response","43","310883","0.0-8.0-2.0-0.9","4011","2","13","Female","approach_avoid_spark_v1","""event"",""trial"",""time""
""fullscreenenter"",""1"",""3836""
","
","
","""event"",""trial"",""time""
""fullscreenenter"",""1"",""3836""
","
","","","","","","null","<div style=""font-size:60px;"">+</div>","null","","fixation","","","","","","","","","","",""
"aa-learning-trial","44","313888","0.0-8.0-2.0-1.9","4011","2","13","Female","approach_avoid_spark_v1","""event"",""trial"",""time""
""fullscreenenter"",""1"",""3836""
","
","
","""event"",""trial"",""time""
""fullscreenenter"",""1"",""3836""
","
","","","","","","1600.800000011921","images/racket1.png","","","learning","-5","-5","1","1","practice","practice","practice","-1","","",""
"html-keyboard-response","45","314391","0.0-8.0-2.0-0.10","4011","2","13","Female","approach_avoid_spark_v1","""event"",""trial"",""time""
""fullscreenenter"",""1"",""3836""
","
","
","""event"",""trial"",""time""
""fullscreenenter"",""1"",""3836""
","
","","","","","","null","<div style=""font-size:60px;"">+</div>","null","","fixation","","","","","","","","","","",""
"aa-learning-trial","46","317398","0.0-8.0-2.0-1.10","4011","2","13","Female","approach_avoid_spark_v1","""event"",""trial"",""time""
""fullscreenenter"",""1"",""3836""
","
","
","""event"",""trial"",""time""
""fullscreenenter"",""1"",""3836""
","
","","","","","","1781.6000000238419","images/ball4.png","","","learning","-2","-2","1","1","practice","practice","practice","-1","","",""
"html-keyboard-response","47","317910","0.0-8.0-2.0-0.11","4011","2","13","Female","approach_avoid_spark_v1","""event"",""trial"",""time""
""fullscreenenter"",""1"",""3836""
","
","
","""event"",""trial"",""time""
""fullscreenenter"",""1"",""3836""
","
","","","","","","null","<div style=""font-size:60px;"">+</div>","null","","fixation","","","","","","","","","","",""
"aa-learning-trial","48","320919","0.0-8.0-2.0-1.11","4011","2","13","Female","approach_avoid_spark_v1","""event"",""trial"",""time""
""fullscreenenter"",""1"",""3836""
","
","
","""event"",""trial"",""time""
""fullscreenenter"",""1"",""3836""
","
","","","","","","1513.699999988079","images/racket3.png","","","learning","9","9","1","1","practice","practice","practice","-1","","",""
"html-button-response","49","324294","0.0-8.0-3.0","4011","2","13","Female","approach_avoid_spark_v1","""event"",""trial"",""time""
""fullscreenenter"",""1"",""3836""
","
","
","""event"",""trial"",""time""
""fullscreenenter"",""1"",""3836""
","
","","","","","","3374.599999964237","<p> You earned 25 points in the practice round! </p>","0","","break","","","","","","","","","","",""
"learning-instructions","50","333471","0.0-8.0-4.0-0.0","4011","2","13","Female","approach_avoid_spark_v1","""event"",""trial"",""time""
""fullscreenenter"",""1"",""3836""
","
","
","""event"",""trial"",""time""
""fullscreenenter"",""1"",""3836""
","
","","","","","","2407.600000023842","<p> It's almost time to start the real game. </p><p> Before you start, we're going to ask you a few questions about how the game works. </p>","","0","instructions","","","","","","","","","","",""
"preload","51","344562","0.0-8.0-5.0","4011","2","13","Female","approach_avoid_spark_v1","""event"",""trial"",""time""
""fullscreenenter"",""1"",""3836""
","
","
","""event"",""trial"",""time""
""fullscreenenter"",""1"",""3836""
","
","true","false","[]","[]","[]","","","","","","","","","","","","","","","",""
"comp-q","52","351239","0.0-8.0-6.0-0.0","4011","2","13","Female","approach_avoid_spark_v1","""event"",""trial"",""time""
""fullscreenenter"",""1"",""3836""
","
","
","""event"",""trial"",""time""
""fullscreenenter"",""1"",""3836""
","
","","","","","","1674.5","<p> <b> True or False? </b> </p><p> If you see a number in GREY, that means you earned that many points. </p>","","1","comp_question","","","","","","","","","true","",""
"comp-q","53","361267","0.0-8.0-6.0-1.0","4011","2","13","Female","approach_avoid_spark_v1","""event"",""trial"",""time""
""fullscreenenter"",""1"",""3836""
","
","
","""event"",""trial"",""time""
""fullscreenenter"",""1"",""3836""
","
","","","","","","1663.4000000357628","<p><b> That's right! </b> If you see a grey number, it means you earned ZERO points. <br> The grey numbers show the points you WOULD HAVE earned if you had made the other choice. </p>","","0","comp_answer","","","","","","","","","","",""
"comp-q","54","366761","0.0-8.0-7.0-0.0","4011","2","13","Female","approach_avoid_spark_v1","""event"",""trial"",""time""
""fullscreenenter"",""1"",""3836""
","
","
","""event"",""trial"",""time""
""fullscreenenter"",""1"",""3836""
","
","","","","","","787","<p> <b> True or False? </b> </p><p> You will have as much time as you want to make each choice. </p>","","1","comp_question","","","","","","","","","true","",""
"comp-q","55","371945","0.0-8.0-7.0-1.0","4011","2","13","Female","approach_avoid_spark_v1","""event"",""trial"",""time""
""fullscreenenter"",""1"",""3836""
","
","
","""event"",""trial"",""time""
""fullscreenenter"",""1"",""3836""
","
","","","","","","1141.5","<p> <b> That's right! </b> You will only have 3 seconds to make each choice. </p>","","0","comp_answer","","","","","","","","","","",""
"comp-q","56","377341","0.0-8.0-8.0-0.0","4011","2","13","Female","approach_avoid_spark_v1","""event"",""trial"",""time""
""fullscreenenter"",""1"",""3836""
","
","
","""event"",""trial"",""time""
""fullscreenenter"",""1"",""3836""
","
","","","","","","727.6999999880791","<p> <b> True or False? </b> </p><p> You should use the '1' and '0' keys to make your choices. </p>","","0","comp_question","","","","","","","","","true","",""
"comp-q","57","384252","0.0-8.0-8.0-1.0","4011","2","13","Female","approach_avoid_spark_v1","""event"",""trial"",""time""
""fullscreenenter"",""1"",""3836""
","
","
","""event"",""trial"",""time""
""fullscreenenter"",""1"",""3836""
","
","","","","","","2288.199999988079","<p> <b> That's right! </b> You should use the '1' and '0' keys to make each choice. </p>","","0","comp_answer","","","","","","","","","","",""
"learning-instructions","58","393215","0.0-8.0-9.0-0.0","4011","2","13","Female","approach_avoid_spark_v1","""event"",""trial"",""time""
""fullscreenenter"",""1"",""3836""
","
","
","""event"",""trial"",""time""
""fullscreenenter"",""1"",""3836""
","
","","","","","","2681.900000035763","<p> It's now time to start the real game. </p>Do your best, because the points you earn in the next rounds will influence your bonus payment. </p>","","0","instructions","","","","","","","","","","",""
"preload","59","393347","0.0-9.0-0.0","4011","2","13","Female","approach_avoid_spark_v1","""event"",""trial"",""time""
""fullscreenenter"",""1"",""3836""
","
","
","""event"",""trial"",""time""
""fullscreenenter"",""1"",""3836""
","
","true","false","[]","[]","[]","","","","","","","","","","","","","","","",""
"learning-instructions","60","399100","0.0-9.0-1.0-0.0","4011","2","13","Female","approach_avoid_spark_v1","""event"",""trial"",""time""
""fullscreenenter"",""1"",""3836""
","
","
","""event"",""trial"",""time""
""fullscreenenter"",""1"",""3836""
","
","","","","","","1166.2000000476837","<p> Your goal in this round is to take care of lots of farm animals. </p></div>","","0","instructions","","","","","","","","","","",""
"learning-instructions","61","420604","0.0-9.0-1.0-0.1","4011","2","13","Female","approach_avoid_spark_v1","""event"",""trial"",""time""
""fullscreenenter"",""1"",""3836""
","
","
","""event"",""trial"",""time""
""fullscreenenter"",""1"",""3836""
","
","","","","","","10369.699999988079","<p> Some farm animals are hungry, while other farm animals are already full.  </p><p> On each turn, you will see a farm animal.   </p><p> You need to decide whether to feed it or not.  </p>","","0","instructions","","","","","","","","","","",""
"learning-instructions","62","431874","0.0-9.0-1.0-0.2","4011","2","13","Female","approach_avoid_spark_v1","""event"",""trial"",""time""
""fullscreenenter"",""1"",""3836""
","
","
","""event"",""trial"",""time""
""fullscreenenter"",""1"",""3836""
","
","","","","","","4409.600000023842","<p> You can feed the farm animal by pressing 1 and leave the farm animal alone by pressing 0. </p><br><div class=""choice-instructions-grid""> <div class=""choice-option""><img src=""images/approach.png"" class=""choice-option-img"" stage=""instructions"" position=""0"" ><div class=""choice-option-text""> Press ""1."" </div></div><div class=""choice-option""><img src=""images/avoid.png"" class=""choice-option-img"" stage=""instructions"" position=""1"" ><div class=""choice-option-text""> Press ""0."" </div></div>","","0","instructions","","","","","","","","","","",""
"learning-instructions","63","443627","0.0-9.0-1.0-0.3","4011","2","13","Female","approach_avoid_spark_v1","""event"",""trial"",""time""
""fullscreenenter"",""1"",""3836""
","
","
","""event"",""trial"",""time""
""fullscreenenter"",""1"",""3836""
","
","","","","","","1234.4000000357628","<p> If you feed a hungry farm animal, you will make it feel satisfied! </p><p> But if you feed the farm animal and it was already full, you will make it feel sick. </p>","","0","instructions","","","","","","","","","","",""
"learning-instructions","64","458296","0.0-9.0-1.0-0.4","4011","2","13","Female","approach_avoid_spark_v1","""event"",""trial"",""time""
""fullscreenenter"",""1"",""3836""
","
","
","""event"",""trial"",""time""
""fullscreenenter"",""1"",""3836""
","
","","","","","","1002.6000000238419","<p> You will earn points based on how you made the farm animal feel. </p><p> If you made it satisfied, you will WIN anywhere from 1 - 9 points, </p><p> but if you made it sick, you will LOSE anywhere from 1 - 9 points. </p>","","0","instructions","","","","","","","","","","",""
"learning-instructions","65","468052","0.0-9.0-1.0-0.5","4011","2","13","Female","approach_avoid_spark_v1","""event"",""trial"",""time""
""fullscreenenter"",""1"",""3836""
","
","
","""event"",""trial"",""time""
""fullscreenenter"",""1"",""3836""
","
","","","","","","1049.3999999761581","<p> You will see how many points you won or lost in the center of the screen. </p><p> Here is what you would see if you won 5 points: </p><p style=""color:green;font-size:50px;font-weight:bolder"">5</p>","","0","instructions","","","","","","","","","","",""
"learning-instructions","66","472445","0.0-9.0-1.0-0.6","4011","2","13","Female","approach_avoid_spark_v1","""event"",""trial"",""time""
""fullscreenenter"",""1"",""3836""
","
","
","""event"",""trial"",""time""
""fullscreenenter"",""1"",""3836""
","
","","","","","","571.4000000357628","<p> And here is what you would see if you lost 3 points: </p><p style=""color:red;font-size:50px;font-weight:bolder"">-3</p>","","0","instructions","","","","","","","","","","",""
"learning-instructions","67","490854","0.0-9.0-1.0-0.7","4011","2","13","Female","approach_avoid_spark_v1","""event"",""trial"",""time""
""fullscreenenter"",""1"",""3836""
","
","
","""event"",""trial"",""time""
""fullscreenenter"",""1"",""3836""
","
","","","","","","571.3000000119209","<p> Some farm animals will become very satisfied or very sick. </p><p> These farm animals will make you win or lose LOTS of points. </p><p> Other farm animals have less strong feelings. </p><p> These farm animals will make you win or lose small amounts of points. </p>","","0","instructions","","","","","","","","","","",""
"learning-instructions","68","504958","0.0-9.0-1.0-0.8","4011","2","13","Female","approach_avoid_spark_v1","""event"",""trial"",""time""
""fullscreenenter"",""1"",""3836""
","
","
","""event"",""trial"",""time""
""fullscreenenter"",""1"",""3836""
","
","","","","","","593.6999999880791","<p> If you choose to leave the farm animal alone, you will not win or lose any points. </p><p>  However, in the center of the screen, you will see the number of points you WOULD HAVE won or lost if you had fed the farm animal. </p>","","0","instructions","","","","","","","","","","",""
"learning-instructions","69","518231","0.0-9.0-1.0-0.9","4011","2","13","Female","approach_avoid_spark_v1","""event"",""trial"",""time""
""fullscreenenter"",""1"",""3836""
","
","
","""event"",""trial"",""time""
""fullscreenenter"",""1"",""3836""
","
","","","","","","616.5999999642372","<p> Here is what you might see if you did not feed the farm animal but the animal was hungry: </p><p style=""color:grey; font-size:50px; display: inline-block; border-spacing: 15px; border-width:3px; border-style:solid; border-color:red"">  &nbsp; 6 &nbsp; </p><p> Remember, in this case, you would not win or lose ANY points because you did not feed the farm animal.  </p>","","0","instructions","","","","","","","","","","",""
"learning-instructions","70","528029","0.0-9.0-1.0-0.10","4011","2","13","Female","approach_avoid_spark_v1","""event"",""trial"",""time""
""fullscreenenter"",""1"",""3836""
","
","
","""event"",""trial"",""time""
""fullscreenenter"",""1"",""3836""
","
","","","","","","1265.1000000238419","<p> Try to make the best choice for each farm animal because </p><p> at the end of the game, you will earn bonus money based on how many points you earned. </p>","","0","instructions","","","","","","","","","","",""
"learning-instructions","71","536879","0.0-9.0-1.0-0.11","4011","2","13","Female","approach_avoid_spark_v1","""event"",""trial"",""time""
""fullscreenenter"",""1"",""3836""
","
","
","""event"",""trial"",""time""
""fullscreenenter"",""1"",""3836""
","
","","","","","","645.3999999761581","<p> You will have 3 seconds to make each choice. Try to respond before time runs out! </p><p> You will lose 5 points each time you do not make a response. </p>","","0","instructions","","","","","","","","","","",""
"html-keyboard-response","72","537513","0.0-9.0-2.0-0.0","4011","2","13","Female","approach_avoid_spark_v1","""event"",""trial"",""time""
""fullscreenenter"",""1"",""3836""
","
","
","""event"",""trial"",""time""
""fullscreenenter"",""1"",""3836""
","
","","","","","","null","<div style=""font-size:60px;"">+</div>","null","","fixation","","","","","","","","","","",""
"aa-learning-trial","73","540532","0.0-9.0-2.0-1.0","4011","2","13","Female","approach_avoid_spark_v1","""event"",""trial"",""time""
""fullscreenenter"",""1"",""3836""
","
","
","""event"",""trial"",""time""
""fullscreenenter"",""1"",""3836""
","
","","","","","","1385.3999999761581","images/goat2.png","","","learning","-9","-9","1","1","goat","animals","2","0","","bad","[-6]"
"html-keyboard-response","74","541049","0.0-9.0-2.0-0.1","4011","2","13","Female","approach_avoid_spark_v1","""event"",""trial"",""time""
""fullscreenenter"",""1"",""3836""
","
","
","""event"",""trial"",""time""
""fullscreenenter"",""1"",""3836""
","
","","","","","","null","<div style=""font-size:60px;"">+</div>","null","","fixation","","","","","","","","","","",""
"aa-learning-trial","75","544056","0.0-9.0-2.0-1.1","4011","2","13","Female","approach_avoid_spark_v1","""event"",""trial"",""time""
""fullscreenenter"",""1"",""3836""
","
","
","""event"",""trial"",""time""
""fullscreenenter"",""1"",""3836""
","
","","","","","","1294.6000000238419","images/cow5.png","","","learning","3","3","1","1","cow","animals","2","0","","neutral","0"
"html-keyboard-response","76","544570","0.0-9.0-2.0-0.2","4011","2","13","Female","approach_avoid_spark_v1","""event"",""trial"",""time""
""fullscreenenter"",""1"",""3836""
","
","
","""event"",""trial"",""time""
""fullscreenenter"",""1"",""3836""
","
","","","","","","null","<div style=""font-size:60px;"">+</div>","null","","fixation","","","","","","","","","","",""
"aa-learning-trial","77","547575","0.0-9.0-2.0-1.2","4011","2","13","Female","approach_avoid_spark_v1","""event"",""trial"",""time""
""fullscreenenter"",""1"",""3836""
","
","
","""event"",""trial"",""time""
""fullscreenenter"",""1"",""3836""
","
","","","","","","957.2999999523163","images/cow5.png","","","learning","3","3","1","1","cow","animals","2","0","","neutral","0"
"html-keyboard-response","78","548089","0.0-9.0-2.0-0.3","4011","2","13","Female","approach_avoid_spark_v1","""event"",""trial"",""time""
""fullscreenenter"",""1"",""3836""
","
","
","""event"",""trial"",""time""
""fullscreenenter"",""1"",""3836""
","
","","","","","","null","<div style=""font-size:60px;"">+</div>","null","","fixation","","","","","","","","","","",""
"aa-learning-trial","79","551107","0.0-9.0-2.0-1.3","4011","2","13","Female","approach_avoid_spark_v1","""event"",""trial"",""time""
""fullscreenenter"",""1"",""3836""
","
","
","""event"",""trial"",""time""
""fullscreenenter"",""1"",""3836""
","
","","","","","","1421.699999988079","images/sheep3.png","","","learning","8","0","0","0","sheep","animals","2","0","","good","[4]"
"html-keyboard-response","80","551623","0.0-9.0-2.0-0.4","4011","2","13","Female","approach_avoid_spark_v1","""event"",""trial"",""time""
""fullscreenenter"",""1"",""3836""
","
","
","""event"",""trial"",""time""
""fullscreenenter"",""1"",""3836""
","
","","","","","","null","<div style=""font-size:60px;"">+</div>","null","","fixation","","","","","","","","","","",""
"aa-learning-trial","81","554636","0.0-9.0-2.0-1.4","4011","2","13","Female","approach_avoid_spark_v1","""event"",""trial"",""time""
""fullscreenenter"",""1"",""3836""
","
","
","""event"",""trial"",""time""
""fullscreenenter"",""1"",""3836""
","
","","","","","","1087.2000000476837","images/sheep4.png","","","learning","-2","0","0","0","sheep","animals","2","0","","good","[4]"
"html-keyboard-response","82","555154","0.0-9.0-2.0-0.5","4011","2","13","Female","approach_avoid_spark_v1","""event"",""trial"",""time""
""fullscreenenter"",""1"",""3836""
","
","
","""event"",""trial"",""time""
""fullscreenenter"",""1"",""3836""
","
","","","","","","null","<div style=""font-size:60px;"">+</div>","null","","fixation","","","","","","","","","","",""
"aa-learning-trial","83","558173","0.0-9.0-2.0-1.5","4011","2","13","Female","approach_avoid_spark_v1","""event"",""trial"",""time""
""fullscreenenter"",""1"",""3836""
","
","
","""event"",""trial"",""time""
""fullscreenenter"",""1"",""3836""
","
","","","","","","1102.800000011921","images/goat2.png","","","learning","-9","-9","1","1","goat","animals","2","0","","bad","[-6]"
"html-keyboard-response","84","558692","0.0-9.0-2.0-0.6","4011","2","13","Female","approach_avoid_spark_v1","""event"",""trial"",""time""
""fullscreenenter"",""1"",""3836""
","
","
","""event"",""trial"",""time""
""fullscreenenter"",""1"",""3836""
","
","","","","","","null","<div style=""font-size:60px;"">+</div>","null","","fixation","","","","","","","","","","",""
"aa-learning-trial","85","561705","0.0-9.0-2.0-1.6","4011","2","13","Female","approach_avoid_spark_v1","""event"",""trial"",""time""
""fullscreenenter"",""1"",""3836""
","
","
","""event"",""trial"",""time""
""fullscreenenter"",""1"",""3836""
","
","","","","","","917","images/goat8.png","","","learning","-1","-1","1","1","goat","animals","2","0","","bad","[-6]"
"html-keyboard-response","86","562222","0.0-9.0-2.0-0.7","4011","2","13","Female","approach_avoid_spark_v1","""event"",""trial"",""time""
""fullscreenenter"",""1"",""3836""
","
","
","""event"",""trial"",""time""
""fullscreenenter"",""1"",""3836""
","
","","","","","","null","<div style=""font-size:60px;"">+</div>","null","","fixation","","","","","","","","","","",""
"aa-learning-trial","87","565244","0.0-9.0-2.0-1.7","4011","2","13","Female","approach_avoid_spark_v1","""event"",""trial"",""time""
""fullscreenenter"",""1"",""3836""
","
","
","""event"",""trial"",""time""
""fullscreenenter"",""1"",""3836""
","
","","","","","","774.8999999761581","images/sheep4.png","","","learning","-2","-2","1","1","sheep","animals","2","0","","good","[4]"
"html-keyboard-response","88","565760","0.0-9.0-2.0-0.8","4011","2","13","Female","approach_avoid_spark_v1","""event"",""trial"",""time""
""fullscreenenter"",""1"",""3836""
","
","
","""event"",""trial"",""time""
""fullscreenenter"",""1"",""3836""
","
","","","","","","null","<div style=""font-size:60px;"">+</div>","null","","fixation","","","","","","","","","","",""
"aa-learning-trial","89","568767","0.0-9.0-2.0-1.8","4011","2","13","Female","approach_avoid_spark_v1","""event"",""trial"",""time""
""fullscreenenter"",""1"",""3836""
","
","
","""event"",""trial"",""time""
""fullscreenenter"",""1"",""3836""
","
","","","","","","672.8000000119209","images/sheep3.png","","","learning","8","8","1","1","sheep","animals","2","0","","good","[4]"
"html-keyboard-response","90","569271","0.0-9.0-2.0-0.9","4011","2","13","Female","approach_avoid_spark_v1","""event"",""trial"",""time""
""fullscreenenter"",""1"",""3836""
","
","
","""event"",""trial"",""time""
""fullscreenenter"",""1"",""3836""
","
","","","","","","null","<div style=""font-size:60px;"">+</div>","null","","fixation","","","","","","","","","","",""
"aa-learning-trial","91","572279","0.0-9.0-2.0-1.9","4011","2","13","Female","approach_avoid_spark_v1","""event"",""trial"",""time""
""fullscreenenter"",""1"",""3836""
","
","
","""event"",""trial"",""time""
""fullscreenenter"",""1"",""3836""
","
","","","","","","1323.6000000238419","images/cow4.png","","","learning","-6","-6","1","1","cow","animals","2","0","","neutral","0"
"html-keyboard-response","92","572783","0.0-9.0-2.0-0.10","4011","2","13","Female","approach_avoid_spark_v1","""event"",""trial"",""time""
""fullscreenenter"",""1"",""3836""
","
","
","""event"",""trial"",""time""
""fullscreenenter"",""1"",""3836""
","
","","","","","","null","<div style=""font-size:60px;"">+</div>","null","","fixation","","","","","","","","","","",""
"aa-learning-trial","93","575792","0.0-9.0-2.0-1.10","4011","2","13","Female","approach_avoid_spark_v1","""event"",""trial"",""time""
""fullscreenenter"",""1"",""3836""
","
","
","""event"",""trial"",""time""
""fullscreenenter"",""1"",""3836""
","
","","","","","","691.0999999642372","images/sheep1.png","","","learning","-7","-7","1","1","sheep","animals","2","0","","good","[4]"
"html-keyboard-response","94","576305","0.0-9.0-2.0-0.11","4011","2","13","Female","approach_avoid_spark_v1","""event"",""trial"",""time""
""fullscreenenter"",""1"",""3836""
","
","
","""event"",""trial"",""time""
""fullscreenenter"",""1"",""3836""
","
","","","","","","null","<div style=""font-size:60px;"">+</div>","null","","fixation","","","","","","","","","","",""
"aa-learning-trial","95","579311","0.0-9.0-2.0-1.11","4011","2","13","Female","approach_avoid_spark_v1","""event"",""trial"",""time""
""fullscreenenter"",""1"",""3836""
","
","
","""event"",""trial"",""time""
""fullscreenenter"",""1"",""3836""
","
","","","","","","554.1999999880791","images/goat7.png","","","learning","4","4","1","1","goat","animals","2","0","","bad","[-6]"
"html-keyboard-response","96","579826","0.0-9.0-2.0-0.12","4011","2","13","Female","approach_avoid_spark_v1","""event"",""trial"",""time""
""fullscreenenter"",""1"",""3836""
","
","
","""event"",""trial"",""time""
""fullscreenenter"",""1"",""3836""
","
","","","","","","null","<div style=""font-size:60px;"">+</div>","null","","fixation","","","","","","","","","","",""
"aa-learning-trial","97","582832","0.0-9.0-2.0-1.12","4011","2","13","Female","approach_avoid_spark_v1","""event"",""trial"",""time""
""fullscreenenter"",""1"",""3836""
","
","
","""event"",""trial"",""time""
""fullscreenenter"",""1"",""3836""
","
","","","","","","490.4000000357628","images/cow2.png","","","learning","-5","0","0","0","cow","animals","2","0","","neutral","0"
"html-keyboard-response","98","583349","0.0-9.0-2.0-0.13","4011","2","13","Female","approach_avoid_spark_v1","""event"",""trial"",""time""
""fullscreenenter"",""1"",""3836""
","
","
","""event"",""trial"",""time""
""fullscreenenter"",""1"",""3836""
","
","","","","","","null","<div style=""font-size:60px;"">+</div>","null","","fixation","","","","","","","","","","",""
"aa-learning-trial","99","586373","0.0-9.0-2.0-1.13","4011","2","13","Female","approach_avoid_spark_v1","""event"",""trial"",""time""
""fullscreenenter"",""1"",""3836""
","
","
","""event"",""trial"",""time""
""fullscreenenter"",""1"",""3836""
","
","","","","","","427.9000000357628","images/cow2.png","","","learning","-5","-5","1","1","cow","animals","2","0","","neutral","0"
"html-keyboard-response","100","586891","0.0-9.0-2.0-0.14","4011","2","13","Female","approach_avoid_spark_v1","""event"",""trial"",""time""
""fullscreenenter"",""1"",""3836""
","
","
","""event"",""trial"",""time""
""fullscreenenter"",""1"",""3836""
","
","","","","","","null","<div style=""font-size:60px;"">+</div>","null","","fixation","","","","","","","","","","",""
"aa-learning-trial","101","589895","0.0-9.0-2.0-1.14","4011","2","13","Female","approach_avoid_spark_v1","""event"",""trial"",""time""
""fullscreenenter"",""1"",""3836""
","
","
","""event"",""trial"",""time""
""fullscreenenter"",""1"",""3836""
","
","","","","","","647.5","images/goat8.png","","","learning","-1","-1","1","1","goat","animals","2","0","","bad","[-6]"
"html-keyboard-response","102","590399","0.0-9.0-2.0-0.15","4011","2","13","Female","approach_avoid_spark_v1","""event"",""trial"",""time""
""fullscreenenter"",""1"",""3836""
","
","
","""event"",""trial"",""time""
""fullscreenenter"",""1"",""3836""
","
","","","","","","null","<div style=""font-size:60px;"">+</div>","null","","fixation","","","","","","","","","","",""
"aa-learning-trial","103","593407","0.0-9.0-2.0-1.15","4011","2","13","Female","approach_avoid_spark_v1","""event"",""trial"",""time""
""fullscreenenter"",""1"",""3836""
","
","
","""event"",""trial"",""time""
""fullscreenenter"",""1"",""3836""
","
","","","","","","430.60000002384186","images/cow5.png","","","learning","3","3","1","1","cow","animals","2","0","","neutral","0"
"html-keyboard-response","104","593911","0.0-9.0-2.0-0.16","4011","2","13","Female","approach_avoid_spark_v1","""event"",""trial"",""time""
""fullscreenenter"",""1"",""3836""
","
","
","""event"",""trial"",""time""
""fullscreenenter"",""1"",""3836""
","
","","","","","","null","<div style=""font-size:60px;"">+</div>","null","","fixation","","","","","","","","","","",""
"aa-learning-trial","105","596919","0.0-9.0-2.0-1.16","4011","2","13","Female","approach_avoid_spark_v1","""event"",""trial"",""time""
""fullscreenenter"",""1"",""3836""
","
","
","""event"",""trial"",""time""
""fullscreenenter"",""1"",""3836""
","
","","","","","","1034.699999988079","images/sheep4.png","","","learning","-2","-2","1","1","sheep","animals","2","0","","good","[4]"
"html-keyboard-response","106","597423","0.0-9.0-2.0-0.17","4011","2","13","Female","approach_avoid_spark_v1","""event"",""trial"",""time""
""fullscreenenter"",""1"",""3836""
","
","
","""event"",""trial"",""time""
""fullscreenenter"",""1"",""3836""
","
","","","","","","null","<div style=""font-size:60px;"">+</div>","null","","fixation","","","","","","","","","","",""
"aa-learning-trial","107","600430","0.0-9.0-2.0-1.17","4011","2","13","Female","approach_avoid_spark_v1","""event"",""trial"",""time""
""fullscreenenter"",""1"",""3836""
","
","
","""event"",""trial"",""time""
""fullscreenenter"",""1"",""3836""
","
","","","","","","922.1000000238419","images/cow4.png","","","learning","-6","0","0","0","cow","animals","2","0","","neutral","0"
"html-keyboard-response","108","600935","0.0-9.0-2.0-0.18","4011","2","13","Female","approach_avoid_spark_v1","""event"",""trial"",""time""
""fullscreenenter"",""1"",""3836""
","
","
","""event"",""trial"",""time""
""fullscreenenter"",""1"",""3836""
","
","","","","","","null","<div style=""font-size:60px;"">+</div>","null","","fixation","","","","","","","","","","",""
"aa-learning-trial","109","603951","0.0-9.0-2.0-1.18","4011","2","13","Female","approach_avoid_spark_v1","""event"",""trial"",""time""
""fullscreenenter"",""1"",""3836""
","
","
","""event"",""trial"",""time""
""fullscreenenter"",""1"",""3836""
","
","","","","","","701.2999999523163","images/sheep5.png","","","learning","5","5","1","1","sheep","animals","2","0","","good","[4]"
"html-keyboard-response","110","604454","0.0-9.0-2.0-0.19","4011","2","13","Female","approach_avoid_spark_v1","""event"",""trial"",""time""
""fullscreenenter"",""1"",""3836""
","
","
","""event"",""trial"",""time""
""fullscreenenter"",""1"",""3836""
","
","","","","","","null","<div style=""font-size:60px;"">+</div>","null","","fixation","","","","","","","","","","",""
"aa-learning-trial","111","607469","0.0-9.0-2.0-1.19","4011","2","13","Female","approach_avoid_spark_v1","""event"",""trial"",""time""
""fullscreenenter"",""1"",""3836""
","
","
","""event"",""trial"",""time""
""fullscreenenter"",""1"",""3836""
","
","","","","","","997.3000000119209","images/goat8.png","","","learning","-1","0","0","0","goat","animals","2","0","","bad","[-6]"
"html-keyboard-response","112","607987","0.0-9.0-2.0-0.20","4011","2","13","Female","approach_avoid_spark_v1","""event"",""trial"",""time""
""fullscreenenter"",""1"",""3836""
","
","
","""event"",""trial"",""time""
""fullscreenenter"",""1"",""3836""
","
","","","","","","null","<div style=""font-size:60px;"">+</div>","null","","fixation","","","","","","","","","","",""
"aa-learning-trial","113","611013","0.0-9.0-2.0-1.20","4011","2","13","Female","approach_avoid_spark_v1","""event"",""trial"",""time""
""fullscreenenter"",""1"",""3836""
","
","
","""event"",""trial"",""time""
""fullscreenenter"",""1"",""3836""
","
","","","","","","1301.699999988079","images/sheep3.png","","","learning","8","0","0","0","sheep","animals","2","0","","good","[4]"
"html-keyboard-response","114","611529","0.0-9.0-2.0-0.21","4011","2","13","Female","approach_avoid_spark_v1","""event"",""trial"",""time""
""fullscreenenter"",""1"",""3836""
","
","
","""event"",""trial"",""time""
""fullscreenenter"",""1"",""3836""
","
","","","","","","null","<div style=""font-size:60px;"">+</div>","null","","fixation","","","","","","","","","","",""
"aa-learning-trial","115","614535","0.0-9.0-2.0-1.21","4011","2","13","Female","approach_avoid_spark_v1","""event"",""trial"",""time""
""fullscreenenter"",""1"",""3836""
","
","
","""event"",""trial"",""time""
""fullscreenenter"",""1"",""3836""
","
","","","","","","542.6000000238419","images/sheep3.png","","","learning","8","8","1","1","sheep","animals","2","0","","good","[4]"
"html-keyboard-response","116","615039","0.0-9.0-2.0-0.22","4011","2","13","Female","approach_avoid_spark_v1","""event"",""trial"",""time""
""fullscreenenter"",""1"",""3836""
","
","
","""event"",""trial"",""time""
""fullscreenenter"",""1"",""3836""
","
","","","","","","null","<div style=""font-size:60px;"">+</div>","null","","fixation","","","","","","","","","","",""
"aa-learning-trial","117","618047","0.0-9.0-2.0-1.22","4011","2","13","Female","approach_avoid_spark_v1","""event"",""trial"",""time""
""fullscreenenter"",""1"",""3836""
","
","
","""event"",""trial"",""time""
""fullscreenenter"",""1"",""3836""
","
","","","","","","631.8000000119209","images/cow2.png","","","learning","-5","0","0","0","cow","animals","2","0","","neutral","0"
"html-keyboard-response","118","618551","0.0-9.0-2.0-0.23","4011","2","13","Female","approach_avoid_spark_v1","""event"",""trial"",""time""
""fullscreenenter"",""1"",""3836""
","
","
","""event"",""trial"",""time""
""fullscreenenter"",""1"",""3836""
","
","","","","","","null","<div style=""font-size:60px;"">+</div>","null","","fixation","","","","","","","","","","",""
"aa-learning-trial","119","621568","0.0-9.0-2.0-1.23","4011","2","13","Female","approach_avoid_spark_v1","""event"",""trial"",""time""
""fullscreenenter"",""1"",""3836""
","
","
","""event"",""trial"",""time""
""fullscreenenter"",""1"",""3836""
","
","","","","","","996.6999999880791","images/goat7.png","","","learning","4","0","0","0","goat","animals","2","0","","bad","[-6]"
"html-keyboard-response","120","622071","0.0-9.0-2.0-0.24","4011","2","13","Female","approach_avoid_spark_v1","""event"",""trial"",""time""
""fullscreenenter"",""1"",""3836""
","
","
","""event"",""trial"",""time""
""fullscreenenter"",""1"",""3836""
","
","","","","","","null","<div style=""font-size:60px;"">+</div>","null","","fixation","","","","","","","","","","",""
"aa-learning-trial","121","625080","0.0-9.0-2.0-1.24","4011","2","13","Female","approach_avoid_spark_v1","""event"",""trial"",""time""
""fullscreenenter"",""1"",""3836""
","
","
","""event"",""trial"",""time""
""fullscreenenter"",""1"",""3836""
","
","","","","","","1017.8000000119209","images/goat2.png","","","learning","-9","0","0","0","goat","animals","2","0","","bad","[-6]"
"html-keyboard-response","122","625583","0.0-9.0-2.0-0.25","4011","2","13","Female","approach_avoid_spark_v1","""event"",""trial"",""time""
""fullscreenenter"",""1"",""3836""
","
","
","""event"",""trial"",""time""
""fullscreenenter"",""1"",""3836""
","
","","","","","","null","<div style=""font-size:60px;"">+</div>","null","","fixation","","","","","","","","","","",""
"aa-learning-trial","123","628591","0.0-9.0-2.0-1.25","4011","2","13","Female","approach_avoid_spark_v1","""event"",""trial"",""time""
""fullscreenenter"",""1"",""3836""
","
","
","""event"",""trial"",""time""
""fullscreenenter"",""1"",""3836""
","
","","","","","","969","images/goat7.png","","","learning","4","4","1","1","goat","animals","2","0","","bad","[-6]"
"html-keyboard-response","124","629095","0.0-9.0-2.0-0.26","4011","2","13","Female","approach_avoid_spark_v1","""event"",""trial"",""time""
""fullscreenenter"",""1"",""3836""
","
","
","""event"",""trial"",""time""
""fullscreenenter"",""1"",""3836""
","
","","","","","","null","<div style=""font-size:60px;"">+</div>","null","","fixation","","","","","","","","","","",""
"aa-learning-trial","125","632103","0.0-9.0-2.0-1.26","4011","2","13","Female","approach_avoid_spark_v1","""event"",""trial"",""time""
""fullscreenenter"",""1"",""3836""
","
","
","""event"",""trial"",""time""
""fullscreenenter"",""1"",""3836""
","
","","","","","","699.2999999523163","images/goat2.png","","","learning","-9","-9","1","1","goat","animals","2","0","","bad","[-6]"
"html-keyboard-response","126","632622","0.0-9.0-2.0-0.27","4011","2","13","Female","approach_avoid_spark_v1","""event"",""trial"",""time""
""fullscreenenter"",""1"",""3836""
","
","
","""event"",""trial"",""time""
""fullscreenenter"",""1"",""3836""
","
","","","","","","null","<div style=""font-size:60px;"">+</div>","null","","fixation","","","","","","","","","","",""
"aa-learning-trial","127","635631","0.0-9.0-2.0-1.27","4011","2","13","Female","approach_avoid_spark_v1","""event"",""trial"",""time""
""fullscreenenter"",""1"",""3836""
","
","
","""event"",""trial"",""time""
""fullscreenenter"",""1"",""3836""
","
","","","","","","760.6000000238419","images/cow2.png","","","learning","-5","-5","1","1","cow","animals","2","0","","neutral","0"
"html-keyboard-response","128","636135","0.0-9.0-2.0-0.28","4011","2","13","Female","approach_avoid_spark_v1","""event"",""trial"",""time""
""fullscreenenter"",""1"",""3836""
","
","
","""event"",""trial"",""time""
""fullscreenenter"",""1"",""3836""
","
","","","","","","null","<div style=""font-size:60px;"">+</div>","null","","fixation","","","","","","","","","","",""
"aa-learning-trial","129","639144","0.0-9.0-2.0-1.28","4011","2","13","Female","approach_avoid_spark_v1","""event"",""trial"",""time""
""fullscreenenter"",""1"",""3836""
","
","
","""event"",""trial"",""time""
""fullscreenenter"",""1"",""3836""
","
","","","","","","537.1999999880791","images/sheep1.png","","","learning","-7","0","0","0","sheep","animals","2","0","","good","[4]"
"html-keyboard-response","130","639647","0.0-9.0-2.0-0.29","4011","2","13","Female","approach_avoid_spark_v1","""event"",""trial"",""time""
""fullscreenenter"",""1"",""3836""
","
","
","""event"",""trial"",""time""
""fullscreenenter"",""1"",""3836""
","
","","","","","","null","<div style=""font-size:60px;"">+</div>","null","","fixation","","","","","","","","","","",""
"aa-learning-trial","131","642655","0.0-9.0-2.0-1.29","4011","2","13","Female","approach_avoid_spark_v1","""event"",""trial"",""time""
""fullscreenenter"",""1"",""3836""
","
","
","""event"",""trial"",""time""
""fullscreenenter"",""1"",""3836""
","
","","","","","","520.3000000119209","images/goat5.png","","","learning","-4","-4","1","1","goat","animals","2","0","","bad","[-6]"
"html-keyboard-response","132","643159","0.0-9.0-2.0-0.30","4011","2","13","Female","approach_avoid_spark_v1","""event"",""trial"",""time""
""fullscreenenter"",""1"",""3836""
","
","
","""event"",""trial"",""time""
""fullscreenenter"",""1"",""3836""
","
","","","","","","null","<div style=""font-size:60px;"">+</div>","null","","fixation","","","","","","","","","","",""
"aa-learning-trial","133","646174","0.0-9.0-2.0-1.30","4011","2","13","Female","approach_avoid_spark_v1","""event"",""trial"",""time""
""fullscreenenter"",""1"",""3836""
","
","
","""event"",""trial"",""time""
""fullscreenenter"",""1"",""3836""
","
","","","","","","721.6999999880791","images/sheep4.png","","","learning","-2","0","0","0","sheep","animals","2","0","","good","[4]"
"html-keyboard-response","134","646679","0.0-9.0-2.0-0.31","4011","2","13","Female","approach_avoid_spark_v1","""event"",""trial"",""time""
""fullscreenenter"",""1"",""3836""
","
","
","""event"",""trial"",""time""
""fullscreenenter"",""1"",""3836""
","
","","","","","","null","<div style=""font-size:60px;"">+</div>","null","","fixation","","","","","","","","","","",""
"aa-learning-trial","135","649686","0.0-9.0-2.0-1.31","4011","2","13","Female","approach_avoid_spark_v1","""event"",""trial"",""time""
""fullscreenenter"",""1"",""3836""
","
","
","""event"",""trial"",""time""
""fullscreenenter"",""1"",""3836""
","
","","","","","","418.9000000357628","images/sheep3.png","","","learning","8","8","1","1","sheep","animals","2","0","","good","[4]"
"html-keyboard-response","136","650191","0.0-9.0-2.0-0.32","4011","2","13","Female","approach_avoid_spark_v1","""event"",""trial"",""time""
""fullscreenenter"",""1"",""3836""
","
","
","""event"",""trial"",""time""
""fullscreenenter"",""1"",""3836""
","
","","","","","","null","<div style=""font-size:60px;"">+</div>","null","","fixation","","","","","","","","","","",""
"aa-learning-trial","137","653200","0.0-9.0-2.0-1.32","4011","2","13","Female","approach_avoid_spark_v1","""event"",""trial"",""time""
""fullscreenenter"",""1"",""3836""
","
","
","""event"",""trial"",""time""
""fullscreenenter"",""1"",""3836""
","
","","","","","","429.69999998807907","images/goat2.png","","","learning","-9","0","0","0","goat","animals","2","0","","bad","[-6]"
"html-keyboard-response","138","653703","0.0-9.0-2.0-0.33","4011","2","13","Female","approach_avoid_spark_v1","""event"",""trial"",""time""
""fullscreenenter"",""1"",""3836""
","
","
","""event"",""trial"",""time""
""fullscreenenter"",""1"",""3836""
","
","","","","","","null","<div style=""font-size:60px;"">+</div>","null","","fixation","","","","","","","","","","",""
"aa-learning-trial","139","656711","0.0-9.0-2.0-1.33","4011","2","13","Female","approach_avoid_spark_v1","""event"",""trial"",""time""
""fullscreenenter"",""1"",""3836""
","
","
","""event"",""trial"",""time""
""fullscreenenter"",""1"",""3836""
","
","","","","","","826.6000000238419","images/cow3.png","","","learning","7","0","0","0","cow","animals","2","0","","neutral","0"
"html-keyboard-response","140","657229","0.0-9.0-2.0-0.34","4011","2","13","Female","approach_avoid_spark_v1","""event"",""trial"",""time""
""fullscreenenter"",""1"",""3836""
","
","
","""event"",""trial"",""time""
""fullscreenenter"",""1"",""3836""
","
","","","","","","null","<div style=""font-size:60px;"">+</div>","null","","fixation","","","","","","","","","","",""
"aa-learning-trial","141","660240","0.0-9.0-2.0-1.34","4011","2","13","Female","approach_avoid_spark_v1","""event"",""trial"",""time""
""fullscreenenter"",""1"",""3836""
","
","
","""event"",""trial"",""time""
""fullscreenenter"",""1"",""3836""
","
","","","","","","1036.4000000357628","images/sheep3.png","","","learning","8","0","0","0","sheep","animals","2","0","","good","[4]"
"html-keyboard-response","142","660756","0.0-9.0-2.0-0.35","4011","2","13","Female","approach_avoid_spark_v1","""event"",""trial"",""time""
""fullscreenenter"",""1"",""3836""
","
","
","""event"",""trial"",""time""
""fullscreenenter"",""1"",""3836""
","
","","","","","","null","<div style=""font-size:60px;"">+</div>","null","","fixation","","","","","","","","","","",""
"aa-learning-trial","143","663767","0.0-9.0-2.0-1.35","4011","2","13","Female","approach_avoid_spark_v1","""event"",""trial"",""time""
""fullscreenenter"",""1"",""3836""
","
","
","""event"",""trial"",""time""
""fullscreenenter"",""1"",""3836""
","
","","","","","","864.8000000119209","images/goat8.png","","","learning","-1","-1","1","1","goat","animals","2","0","","bad","[-6]"
"html-keyboard-response","144","664270","0.0-9.0-2.0-0.36","4011","2","13","Female","approach_avoid_spark_v1","""event"",""trial"",""time""
""fullscreenenter"",""1"",""3836""
","
","
","""event"",""trial"",""time""
""fullscreenenter"",""1"",""3836""
","
","","","","","","null","<div style=""font-size:60px;"">+</div>","null","","fixation","","","","","","","","","","",""
"aa-learning-trial","145","667279","0.0-9.0-2.0-1.36","4011","2","13","Female","approach_avoid_spark_v1","""event"",""trial"",""time""
""fullscreenenter"",""1"",""3836""
","
","
","""event"",""trial"",""time""
""fullscreenenter"",""1"",""3836""
","
","","","","","","595","images/cow7.png","","","learning","2","2","1","1","cow","animals","2","0","","neutral","0"
"html-keyboard-response","146","667784","0.0-9.0-2.0-0.37","4011","2","13","Female","approach_avoid_spark_v1","""event"",""trial"",""time""
""fullscreenenter"",""1"",""3836""
","
","
","""event"",""trial"",""time""
""fullscreenenter"",""1"",""3836""
","
","","","","","","null","<div style=""font-size:60px;"">+</div>","null","","fixation","","","","","","","","","","",""
"aa-learning-trial","147","670792","0.0-9.0-2.0-1.37","4011","2","13","Female","approach_avoid_spark_v1","""event"",""trial"",""time""
""fullscreenenter"",""1"",""3836""
","
","
","""event"",""trial"",""time""
""fullscreenenter"",""1"",""3836""
","
","","","","","","960.2999999523163","images/sheep4.png","","","learning","-2","-2","1","1","sheep","animals","2","0","","good","[4]"
"html-keyboard-response","148","671308","0.0-9.0-2.0-0.38","4011","2","13","Female","approach_avoid_spark_v1","""event"",""trial"",""time""
""fullscreenenter"",""1"",""3836""
","
","
","""event"",""trial"",""time""
""fullscreenenter"",""1"",""3836""
","
","","","","","","null","<div style=""font-size:60px;"">+</div>","null","","fixation","","","","","","","","","","",""
"aa-learning-trial","149","674319","0.0-9.0-2.0-1.38","4011","2","13","Female","approach_avoid_spark_v1","""event"",""trial"",""time""
""fullscreenenter"",""1"",""3836""
","
","
","""event"",""trial"",""time""
""fullscreenenter"",""1"",""3836""
","
","","","","","","615.0999999642372","images/goat8.png","","","learning","-1","-1","1","1","goat","animals","2","0","","bad","[-6]"
"html-keyboard-response","150","674823","0.0-9.0-2.0-0.39","4011","2","13","Female","approach_avoid_spark_v1","""event"",""trial"",""time""
""fullscreenenter"",""1"",""3836""
","
","
","""event"",""trial"",""time""
""fullscreenenter"",""1"",""3836""
","
","","","","","","null","<div style=""font-size:60px;"">+</div>","null","","fixation","","","","","","","","","","",""
"aa-learning-trial","151","677832","0.0-9.0-2.0-1.39","4011","2","13","Female","approach_avoid_spark_v1","""event"",""trial"",""time""
""fullscreenenter"",""1"",""3836""
","
","
","""event"",""trial"",""time""
""fullscreenenter"",""1"",""3836""
","
","","","","","","727.1999999880791","images/sheep2.png","","","learning","-3","-3","1","1","sheep","animals","2","0","","good","[4]"
"html-keyboard-response","152","678336","0.0-9.0-2.0-0.40","4011","2","13","Female","approach_avoid_spark_v1","""event"",""trial"",""time""
""fullscreenenter"",""1"",""3836""
","
","
","""event"",""trial"",""time""
""fullscreenenter"",""1"",""3836""
","
","","","","","","null","<div style=""font-size:60px;"">+</div>","null","","fixation","","","","","","","","","","",""
"aa-learning-trial","153","681343","0.0-9.0-2.0-1.40","4011","2","13","Female","approach_avoid_spark_v1","""event"",""trial"",""time""
""fullscreenenter"",""1"",""3836""
","
","
","""event"",""trial"",""time""
""fullscreenenter"",""1"",""3836""
","
","","","","","","254.5","images/goat6.png","","","learning","9","0","0","0","goat","animals","2","0","","bad","[-6]"
"html-keyboard-response","154","681849","0.0-9.0-2.0-0.41","4011","2","13","Female","approach_avoid_spark_v1","""event"",""trial"",""time""
""fullscreenenter"",""1"",""3836""
","
","
","""event"",""trial"",""time""
""fullscreenenter"",""1"",""3836""
","
","","","","","","null","<div style=""font-size:60px;"">+</div>","null","","fixation","","","","","","","","","","",""
"aa-learning-trial","155","684856","0.0-9.0-2.0-1.41","4011","2","13","Female","approach_avoid_spark_v1","""event"",""trial"",""time""
""fullscreenenter"",""1"",""3836""
","
","
","""event"",""trial"",""time""
""fullscreenenter"",""1"",""3836""
","
","","","","","","377.60000002384186","images/goat2.png","","","learning","-9","-9","1","1","goat","animals","2","0","","bad","[-6]"
"html-keyboard-response","156","685371","0.0-9.0-2.0-0.42","4011","2","13","Female","approach_avoid_spark_v1","""event"",""trial"",""time""
""fullscreenenter"",""1"",""3836""
","
","
","""event"",""trial"",""time""
""fullscreenenter"",""1"",""3836""
","
","","","","","","null","<div style=""font-size:60px;"">+</div>","null","","fixation","","","","","","","","","","",""
"aa-learning-trial","157","688376","0.0-9.0-2.0-1.42","4011","2","13","Female","approach_avoid_spark_v1","""event"",""trial"",""time""
""fullscreenenter"",""1"",""3836""
","
","
","""event"",""trial"",""time""
""fullscreenenter"",""1"",""3836""
","
","","","","","","474.39999997615814","images/cow2.png","","","learning","-5","0","0","0","cow","animals","2","0","","neutral","0"
"html-keyboard-response","158","688882","0.0-9.0-2.0-0.43","4011","2","13","Female","approach_avoid_spark_v1","""event"",""trial"",""time""
""fullscreenenter"",""1"",""3836""
","
","
","""event"",""trial"",""time""
""fullscreenenter"",""1"",""3836""
","
","","","","","","null","<div style=""font-size:60px;"">+</div>","null","","fixation","","","","","","","","","","",""
"aa-learning-trial","159","691887","0.0-9.0-2.0-1.43","4011","2","13","Female","approach_avoid_spark_v1","""event"",""trial"",""time""
""fullscreenenter"",""1"",""3836""
","
","
","""event"",""trial"",""time""
""fullscreenenter"",""1"",""3836""
","
","","","","","","428.19999998807907","images/sheep1.png","","","learning","-7","-7","1","1","sheep","animals","2","0","","good","[4]"
"html-keyboard-response","160","692391","0.0-9.0-2.0-0.44","4011","2","13","Female","approach_avoid_spark_v1","""event"",""trial"",""time""
""fullscreenenter"",""1"",""3836""
","
","
","""event"",""trial"",""time""
""fullscreenenter"",""1"",""3836""
","
","","","","","","null","<div style=""font-size:60px;"">+</div>","null","","fixation","","","","","","","","","","",""
"aa-learning-trial","161","695399","0.0-9.0-2.0-1.44","4011","2","13","Female","approach_avoid_spark_v1","""event"",""trial"",""time""
""fullscreenenter"",""1"",""3836""
","
","
","""event"",""trial"",""time""
""fullscreenenter"",""1"",""3836""
","
","","","","","","643.8999999761581","images/cow4.png","","","learning","-6","0","0","0","cow","animals","2","0","","neutral","0"
"html-keyboard-response","162","695903","0.0-9.0-2.0-0.45","4011","2","13","Female","approach_avoid_spark_v1","""event"",""trial"",""time""
""fullscreenenter"",""1"",""3836""
","
","
","""event"",""trial"",""time""
""fullscreenenter"",""1"",""3836""
","
","","","","","","null","<div style=""font-size:60px;"">+</div>","null","","fixation","","","","","","","","","","",""
"aa-learning-trial","163","698911","0.0-9.0-2.0-1.45","4011","2","13","Female","approach_avoid_spark_v1","""event"",""trial"",""time""
""fullscreenenter"",""1"",""3836""
","
","
","""event"",""trial"",""time""
""fullscreenenter"",""1"",""3836""
","
","","","","","","428.4000000357628","images/goat8.png","","","learning","-1","-1","1","1","goat","animals","2","0","","bad","[-6]"
"html-keyboard-response","164","699415","0.0-9.0-2.0-0.46","4011","2","13","Female","approach_avoid_spark_v1","""event"",""trial"",""time""
""fullscreenenter"",""1"",""3836""
","
","
","""event"",""trial"",""time""
""fullscreenenter"",""1"",""3836""
","
","","","","","","null","<div style=""font-size:60px;"">+</div>","null","","fixation","","","","","","","","","","",""
"aa-learning-trial","165","702437","0.0-9.0-2.0-1.46","4011","2","13","Female","approach_avoid_spark_v1","""event"",""trial"",""time""
""fullscreenenter"",""1"",""3836""
","
","
","""event"",""trial"",""time""
""fullscreenenter"",""1"",""3836""
","
","","","","","","980.5","images/cow2.png","","","learning","-5","-5","1","1","cow","animals","2","0","","neutral","0"
"html-keyboard-response","166","702943","0.0-9.0-2.0-0.47","4011","2","13","Female","approach_avoid_spark_v1","""event"",""trial"",""time""
""fullscreenenter"",""1"",""3836""
","
","
","""event"",""trial"",""time""
""fullscreenenter"",""1"",""3836""
","
","","","","","","null","<div style=""font-size:60px;"">+</div>","null","","fixation","","","","","","","","","","",""
"aa-learning-trial","167","705952","0.0-9.0-2.0-1.47","4011","2","13","Female","approach_avoid_spark_v1","""event"",""trial"",""time""
""fullscreenenter"",""1"",""3836""
","
","
","""event"",""trial"",""time""
""fullscreenenter"",""1"",""3836""
","
","","","","","","942.8000000119209","images/cow5.png","","","learning","3","0","0","0","cow","animals","2","0","","neutral","0"
"html-keyboard-response","168","706455","0.0-9.0-2.0-0.48","4011","2","13","Female","approach_avoid_spark_v1","""event"",""trial"",""time""
""fullscreenenter"",""1"",""3836""
","
","
","""event"",""trial"",""time""
""fullscreenenter"",""1"",""3836""
","
","","","","","","null","<div style=""font-size:60px;"">+</div>","null","","fixation","","","","","","","","","","",""
"aa-learning-trial","169","709463","0.0-9.0-2.0-1.48","4011","2","13","Female","approach_avoid_spark_v1","""event"",""trial"",""time""
""fullscreenenter"",""1"",""3836""
","
","
","""event"",""trial"",""time""
""fullscreenenter"",""1"",""3836""
","
","","","","","","606.1000000238419","images/cow5.png","","","learning","3","3","1","1","cow","animals","2","0","","neutral","0"
"html-keyboard-response","170","709976","0.0-9.0-2.0-0.49","4011","2","13","Female","approach_avoid_spark_v1","""event"",""trial"",""time""
""fullscreenenter"",""1"",""3836""
","
","
","""event"",""trial"",""time""
""fullscreenenter"",""1"",""3836""
","
","","","","","","null","<div style=""font-size:60px;"">+</div>","null","","fixation","","","","","","","","","","",""
"aa-learning-trial","171","712984","0.0-9.0-2.0-1.49","4011","2","13","Female","approach_avoid_spark_v1","""event"",""trial"",""time""
""fullscreenenter"",""1"",""3836""
","
","
","""event"",""trial"",""time""
""fullscreenenter"",""1"",""3836""
","
","","","","","","647.8999999761581","images/sheep4.png","","","learning","-2","-2","1","1","sheep","animals","2","0","","good","[4]"
"html-keyboard-response","172","713487","0.0-9.0-2.0-0.50","4011","2","13","Female","approach_avoid_spark_v1","""event"",""trial"",""time""
""fullscreenenter"",""1"",""3836""
","
","
","""event"",""trial"",""time""
""fullscreenenter"",""1"",""3836""
","
","","","","","","null","<div style=""font-size:60px;"">+</div>","null","","fixation","","","","","","","","","","",""
"aa-learning-trial","173","716496","0.0-9.0-2.0-1.50","4011","2","13","Female","approach_avoid_spark_v1","""event"",""trial"",""time""
""fullscreenenter"",""1"",""3836""
","
","
","""event"",""trial"",""time""
""fullscreenenter"",""1"",""3836""
","
","","","","","","533","images/cow5.png","","","learning","3","3","1","1","cow","animals","2","0","","neutral","0"
"html-button-response","174","722186","0.0-9.0-3.0","4011","2","13","Female","approach_avoid_spark_v1","""event"",""trial"",""time""
""fullscreenenter"",""1"",""3836""
","
","
","""event"",""trial"",""time""
""fullscreenenter"",""1"",""3836""
","
","","","","","","5688.600000023842","<p> You have completed the round! <p> In this round, you earned -37 points! </p>","0","","break","","","","","","","","","","",""
"html-button-response","175","724978","0.0-10.0","4011","2","13","Female","approach_avoid_spark_v1","""event"",""trial"",""time""
""fullscreenenter"",""1"",""3836""
","
","
","""event"",""trial"",""time""
""fullscreenenter"",""1"",""3836""
","
","","","","","","2790.599999964237","<p> Now it's time to play another round. </p>","0","","transition_screen","","","","","","","","","","",""
"preload","176","725105","0.0-11.0-0.0","4011","2","13","Female","approach_avoid_spark_v1","""event"",""trial"",""time""
""fullscreenenter"",""1"",""3836""
","
","
","""event"",""trial"",""time""
""fullscreenenter"",""1"",""3836""
","
","true","false","[]","[]","[]","","","","","","","","","","","","","","","",""
"learning-instructions","177","741728","0.0-11.0-1.0-0.0","4011","2","13","Female","approach_avoid_spark_v1","""event"",""trial"",""time""
""fullscreenenter"",""1"",""3836""
","
","
","""event"",""trial"",""time""
""fullscreenenter"",""1"",""3836""
","
","","","","","","11375.800000011921","<p> Your goal in this round is to eat tasty fruit. </p></div>","","0","instructions","","","","","","","","","","",""
"learning-instructions","178","753977","0.0-11.0-1.0-0.1","4011","2","13","Female","approach_avoid_spark_v1","""event"",""trial"",""time""
""fullscreenenter"",""1"",""3836""
","
","
","""event"",""trial"",""time""
""fullscreenenter"",""1"",""3836""
","
","","","","","","1195.300000011921","<p> Some of the fruits you will see are tasty. Others are rotten on the inside.  </p><p> On each turn, you will see a fruit.   </p><p> You need to decide whether to eat it or not.  </p>","","0","instructions","","","","","","","","","","",""
"learning-instructions","179","759862","0.0-11.0-1.0-0.2","4011","2","13","Female","approach_avoid_spark_v1","""event"",""trial"",""time""
""fullscreenenter"",""1"",""3836""
","
","
","""event"",""trial"",""time""
""fullscreenenter"",""1"",""3836""
","
","","","","","","859.5","<p> You can eat the fruit by pressing 1 and choose not to eat it by pressing 0. </p><br><div class=""choice-instructions-grid""> <div class=""choice-option""><img src=""images/approach.png"" class=""choice-option-img"" stage=""instructions"" position=""0"" ><div class=""choice-option-text""> Press ""1."" </div></div><div class=""choice-option""><img src=""images/avoid.png"" class=""choice-option-img"" stage=""instructions"" position=""1"" ><div class=""choice-option-text""> Press ""0."" </div></div>","","0","instructions","","","","","","","","","","",""
"learning-instructions","180","768255","0.0-11.0-1.0-0.3","4011","2","13","Female","approach_avoid_spark_v1","""event"",""trial"",""time""
""fullscreenenter"",""1"",""3836""
","
","
","""event"",""trial"",""time""
""fullscreenenter"",""1"",""3836""
","
","","","","","","573.0999999642372","<p> If you eat the fruit and it was tasty, you will win points! </p><p> But if you eat the fruit and it was rotten, you will lose points. </p>","","0","instructions","","","","","","","","","","",""
"learning-instructions","181","781106","0.0-11.0-1.0-0.4","4011","2","13","Female","approach_avoid_spark_v1","""event"",""trial"",""time""
""fullscreenenter"",""1"",""3836""
","
","
","""event"",""trial"",""time""
""fullscreenenter"",""1"",""3836""
","
","","","","","","504.80000001192093","<p> You will earn points based on how tasty or rotten the fruit was. </p><p> If it was tasty, you will WIN anywhere from 1 - 9 points, </p><p> but if it was rotten, you will LOSE anywhere from 1 - 9 points. </p>","","0","instructions","","","","","","","","","","",""
"learning-instructions","182","788373","0.0-11.0-1.0-0.5","4011","2","13","Female","approach_avoid_spark_v1","""event"",""trial"",""time""
""fullscreenenter"",""1"",""3836""
","
","
","""event"",""trial"",""time""
""fullscreenenter"",""1"",""3836""
","
","","","","","","611.2000000476837","<p> You will see how many points you won or lost in the center of the screen. </p><p> Here is what you would see if you earned 5 points: </p><p style=""color:green;font-size:50px;font-weight:bolder"">5</p>","","0","instructions","","","","","","","","","","",""
"learning-instructions","183","791707","0.0-11.0-1.0-0.6","4011","2","13","Female","approach_avoid_spark_v1","""event"",""trial"",""time""
""fullscreenenter"",""1"",""3836""
","
","
","""event"",""trial"",""time""
""fullscreenenter"",""1"",""3836""
","
","","","","","","485.2000000476837","<p> And here is what you would see if you lost 3 points: </p><p style=""color:red;font-size:50px;font-weight:bolder"">-3</p>","","0","instructions","","","","","","","","","","",""
"learning-instructions","184","808155","0.0-11.0-1.0-0.7","4011","2","13","Female","approach_avoid_spark_v1","""event"",""trial"",""time""
""fullscreenenter"",""1"",""3836""
","
","
","""event"",""trial"",""time""
""fullscreenenter"",""1"",""3836""
","
","","","","","","1653","<p> Some fruit is very tasty or very rotten. </p><p> These fruits will make you win or lose LOTS of points. </p><p> Other fruits are only kind of tasty or kind of rotten. </p><p> These fruits will make you win or lose small amounts of points. </p>","","0","instructions","","","","","","","","","","",""
"learning-instructions","185","821371","0.0-11.0-1.0-0.8","4011","2","13","Female","approach_avoid_spark_v1","""event"",""trial"",""time""
""fullscreenenter"",""1"",""3836""
","
","
","""event"",""trial"",""time""
""fullscreenenter"",""1"",""3836""
","
","","","","","","789.6999999880791","<p> If you choose to not eat the fruit, you will not win or lose any points. </p><p>  However, in the center of the screen, you will see the number of points you WOULD HAVE earned if you had eaten the fruit. </p>","","0","instructions","","","","","","","","","","",""
"learning-instructions","186","835449","0.0-11.0-1.0-0.9","4011","2","13","Female","approach_avoid_spark_v1","""event"",""trial"",""time""
""fullscreenenter"",""1"",""3836""
","
","
","""event"",""trial"",""time""
""fullscreenenter"",""1"",""3836""
","
","","","","","","937.3000000119209","<p> Here is what you might see if you did not eat the fruit but the fruit was tasty: </p><p style=""color:grey; font-size:50px; display: inline-block; border-spacing: 15px; border-width:3px; border-style:solid; border-color:red"">  &nbsp; 6 &nbsp; </p><p> Remember, in this case, you would not win or lose ANY points because you did not eat the fruit.  </p>","","0","instructions","","","","","","","","","","",""
"learning-instructions","187","844948","0.0-11.0-1.0-0.10","4011","2","13","Female","approach_avoid_spark_v1","""event"",""trial"",""time""
""fullscreenenter"",""1"",""3836""
","
","
","""event"",""trial"",""time""
""fullscreenenter"",""1"",""3836""
","
","","","","","","416.30000001192093","<p> Try to make the best choice for each fruit because </p><p> at the end of the game, you will earn bonus money based on how many points you earned. </p>","","0","instructions","","","","","","","","","","",""
"learning-instructions","188","853561","0.0-11.0-1.0-0.11","4011","2","13","Female","approach_avoid_spark_v1","""event"",""trial"",""time""
""fullscreenenter"",""1"",""3836""
","
","
","""event"",""trial"",""time""
""fullscreenenter"",""1"",""3836""
","
","","","","","","409.80000001192093","<p> You will have 3 seconds to make each choice. Try to respond before time runs out! </p><p> You will lose 5 points each time you do not make a response. </p>","","0","instructions","","","","","","","","","","",""
"html-keyboard-response","189","854168","0.0-11.0-2.0-0.0","4011","2","13","Female","approach_avoid_spark_v1","""event"",""trial"",""time""
""fullscreenenter"",""1"",""3836""
","
","
","""event"",""trial"",""time""
""fullscreenenter"",""1"",""3836""
","
","","","","","","null","<div style=""font-size:60px;"">+</div>","null","","fixation","","","","","","","","","","",""
"aa-learning-trial","190","857177","0.0-11.0-2.0-1.0","4011","2","13","Female","approach_avoid_spark_v1","""event"",""trial"",""time""
""fullscreenenter"",""1"",""3836""
","
","
","""event"",""trial"",""time""
""fullscreenenter"",""1"",""3836""
","
","","","","","","1196.0999999642372","images/apple8.png","","","learning","3","3","1","1","apple","fruit","1","1","","good","[4]"
"html-keyboard-response","191","857689","0.0-11.0-2.0-0.1","4011","2","13","Female","approach_avoid_spark_v1","""event"",""trial"",""time""
""fullscreenenter"",""1"",""3836""
","
","
","""event"",""trial"",""time""
""fullscreenenter"",""1"",""3836""
","
","","","","","","null","<div style=""font-size:60px;"">+</div>","null","","fixation","","","","","","","","","","",""
"aa-learning-trial","192","860694","0.0-11.0-2.0-1.1","4011","2","13","Female","approach_avoid_spark_v1","""event"",""trial"",""time""
""fullscreenenter"",""1"",""3836""
","
","
","""event"",""trial"",""time""
""fullscreenenter"",""1"",""3836""
","
","","","","","","1006.1000000238419","images/straw3.png","","","learning","-2","0","0","0","straw","fruit","1","1","","neutral","0"
"html-keyboard-response","193","861211","0.0-11.0-2.0-0.2","4011","2","13","Female","approach_avoid_spark_v1","""event"",""trial"",""time""
""fullscreenenter"",""1"",""3836""
","
","
","""event"",""trial"",""time""
""fullscreenenter"",""1"",""3836""
","
","","","","","","null","<div style=""font-size:60px;"">+</div>","null","","fixation","","","","","","","","","","",""
"aa-learning-trial","194","864238","0.0-11.0-2.0-1.2","4011","2","13","Female","approach_avoid_spark_v1","""event"",""trial"",""time""
""fullscreenenter"",""1"",""3836""
","
","
","""event"",""trial"",""time""
""fullscreenenter"",""1"",""3836""
","
","","","","","","715.2000000476837","images/apple8.png","","","learning","3","3","1","1","apple","fruit","1","1","","good","[4]"
"html-keyboard-response","195","864753","0.0-11.0-2.0-0.3","4011","2","13","Female","approach_avoid_spark_v1","""event"",""trial"",""time""
""fullscreenenter"",""1"",""3836""
","
","
","""event"",""trial"",""time""
""fullscreenenter"",""1"",""3836""
","
","","","","","","null","<div style=""font-size:60px;"">+</div>","null","","fixation","","","","","","","","","","",""
"aa-learning-trial","196","867772","0.0-11.0-2.0-1.3","4011","2","13","Female","approach_avoid_spark_v1","""event"",""trial"",""time""
""fullscreenenter"",""1"",""3836""
","
","
","""event"",""trial"",""time""
""fullscreenenter"",""1"",""3836""
","
","","","","","","581.1999999880791","images/straw2.png","","","learning","-1","0","0","0","straw","fruit","1","1","","neutral","0"
"html-keyboard-response","197","868289","0.0-11.0-2.0-0.4","4011","2","13","Female","approach_avoid_spark_v1","""event"",""trial"",""time""
""fullscreenenter"",""1"",""3836""
","
","
","""event"",""trial"",""time""
""fullscreenenter"",""1"",""3836""
","
","","","","","","null","<div style=""font-size:60px;"">+</div>","null","","fixation","","","","","","","","","","",""
"aa-learning-trial","198","871307","0.0-11.0-2.0-1.4","4011","2","13","Female","approach_avoid_spark_v1","""event"",""trial"",""time""
""fullscreenenter"",""1"",""3836""
","
","
","""event"",""trial"",""time""
""fullscreenenter"",""1"",""3836""
","
","","","","","","1293.7999999523163","images/straw1.png","","","learning","-3","0","0","0","straw","fruit","1","1","","neutral","0"
"html-keyboard-response","199","871812","0.0-11.0-2.0-0.5","4011","2","13","Female","approach_avoid_spark_v1","""event"",""trial"",""time""
""fullscreenenter"",""1"",""3836""
","
","
","""event"",""trial"",""time""
""fullscreenenter"",""1"",""3836""
","
","","","","","","null","<div style=""font-size:60px;"">+</div>","null","","fixation","","","","","","","","","","",""
"aa-learning-trial","200","874817","0.0-11.0-2.0-1.5","4011","2","13","Female","approach_avoid_spark_v1","""event"",""trial"",""time""
""fullscreenenter"",""1"",""3836""
","
","
","""event"",""trial"",""time""
""fullscreenenter"",""1"",""3836""
","
","","","","","","699","images/straw3.png","","","learning","1","0","0","0","straw","fruit","1","1","","neutral","0"
"html-keyboard-response","201","875333","0.0-11.0-2.0-0.6","4011","2","13","Female","approach_avoid_spark_v1","""event"",""trial"",""time""
""fullscreenenter"",""1"",""3836""
","
","
","""event"",""trial"",""time""
""fullscreenenter"",""1"",""3836""
","
","","","","","","null","<div style=""font-size:60px;"">+</div>","null","","fixation","","","","","","","","","","",""
"aa-learning-trial","202","878352","0.0-11.0-2.0-1.6","4011","2","13","Female","approach_avoid_spark_v1","""event"",""trial"",""time""
""fullscreenenter"",""1"",""3836""
","
","
","""event"",""trial"",""time""
""fullscreenenter"",""1"",""3836""
","
","","","","","","1273.699999988079","images/straw1.png","","","learning","[1]","0","0","0","straw","fruit","1","1","","neutral","0"
"html-keyboard-response","203","878869","0.0-11.0-2.0-0.7","4011","2","13","Female","approach_avoid_spark_v1","""event"",""trial"",""time""
""fullscreenenter"",""1"",""3836""
","
","
","""event"",""trial"",""time""
""fullscreenenter"",""1"",""3836""
","
","","","","","","null","<div style=""font-size:60px;"">+</div>","null","","fixation","","","","","","","","","","",""
"aa-learning-trial","204","881878","0.0-11.0-2.0-1.7","4011","2","13","Female","approach_avoid_spark_v1","""event"",""trial"",""time""
""fullscreenenter"",""1"",""3836""
","
","
","""event"",""trial"",""time""
""fullscreenenter"",""1"",""3836""
","
","","","","","","1009.5999999642372","images/apple7.png","","","learning","3","3","1","1","apple","fruit","1","1","","good","[4]"
"html-keyboard-response","205","882385","0.0-11.0-2.0-0.8","4011","2","13","Female","approach_avoid_spark_v1","""event"",""trial"",""time""
""fullscreenenter"",""1"",""3836""
","
","
","""event"",""trial"",""time""
""fullscreenenter"",""1"",""3836""
","
","","","","","","null","<div style=""font-size:60px;"">+</div>","null","","fixation","","","","","","","","","","",""
"aa-learning-trial","206","885391","0.0-11.0-2.0-1.8","4011","2","13","Female","approach_avoid_spark_v1","""event"",""trial"",""time""
""fullscreenenter"",""1"",""3836""
","
","
","""event"",""trial"",""time""
""fullscreenenter"",""1"",""3836""
","
","","","","","","1135.9000000357628","images/orange5.png","","","learning","-7","0","0","0","orange","fruit","1","1","","bad","[-6]"
"html-keyboard-response","207","885895","0.0-11.0-2.0-0.9","4011","2","13","Female","approach_avoid_spark_v1","""event"",""trial"",""time""
""fullscreenenter"",""1"",""3836""
","
","
","""event"",""trial"",""time""
""fullscreenenter"",""1"",""3836""
","
","","","","","","null","<div style=""font-size:60px;"">+</div>","null","","fixation","","","","","","","","","","",""
"aa-learning-trial","208","888903","0.0-11.0-2.0-1.9","4011","2","13","Female","approach_avoid_spark_v1","""event"",""trial"",""time""
""fullscreenenter"",""1"",""3836""
","
","
","""event"",""trial"",""time""
""fullscreenenter"",""1"",""3836""
","
","","","","","","1243.0999999642372","images/apple3.png","","","learning","4","0","0","0","apple","fruit","1","1","","good","[4]"
"html-keyboard-response","209","889407","0.0-11.0-2.0-0.10","4011","2","13","Female","approach_avoid_spark_v1","""event"",""trial"",""time""
""fullscreenenter"",""1"",""3836""
","
","
","""event"",""trial"",""time""
""fullscreenenter"",""1"",""3836""
","
","","","","","","null","<div style=""font-size:60px;"">+</div>","null","","fixation","","","","","","","","","","",""
"aa-learning-trial","210","892416","0.0-11.0-2.0-1.10","4011","2","13","Female","approach_avoid_spark_v1","""event"",""trial"",""time""
""fullscreenenter"",""1"",""3836""
","
","
","""event"",""trial"",""time""
""fullscreenenter"",""1"",""3836""
","
","","","","","","1261","images/orange6.png","","","learning","-6","0","0","0","orange","fruit","1","1","","bad","[-6]"
"html-keyboard-response","211","892919","0.0-11.0-2.0-0.11","4011","2","13","Female","approach_avoid_spark_v1","""event"",""trial"",""time""
""fullscreenenter"",""1"",""3836""
","
","
","""event"",""trial"",""time""
""fullscreenenter"",""1"",""3836""
","
","","","","","","null","<div style=""font-size:60px;"">+</div>","null","","fixation","","","","","","","","","","",""
"aa-learning-trial","212","895937","0.0-11.0-2.0-1.11","4011","2","13","Female","approach_avoid_spark_v1","""event"",""trial"",""time""
""fullscreenenter"",""1"",""3836""
","
","
","""event"",""trial"",""time""
""fullscreenenter"",""1"",""3836""
","
","","","","","","1166.5999999642372","images/orange7.png","","","learning","-5","0","0","0","orange","fruit","1","1","","bad","[-6]"
"html-keyboard-response","213","896446","0.0-11.0-2.0-0.12","4011","2","13","Female","approach_avoid_spark_v1","""event"",""trial"",""time""
""fullscreenenter"",""1"",""3836""
","
","
","""event"",""trial"",""time""
""fullscreenenter"",""1"",""3836""
","
","","","","","","null","<div style=""font-size:60px;"">+</div>","null","","fixation","","","","","","","","","","",""
"aa-learning-trial","214","899455","0.0-11.0-2.0-1.12","4011","2","13","Female","approach_avoid_spark_v1","""event"",""trial"",""time""
""fullscreenenter"",""1"",""3836""
","
","
","""event"",""trial"",""time""
""fullscreenenter"",""1"",""3836""
","
","","","","","","768.6000000238419","images/orange5.png","","","learning","-6","0","0","0","orange","fruit","1","1","","bad","[-6]"
"html-keyboard-response","215","899958","0.0-11.0-2.0-0.13","4011","2","13","Female","approach_avoid_spark_v1","""event"",""trial"",""time""
""fullscreenenter"",""1"",""3836""
","
","
","""event"",""trial"",""time""
""fullscreenenter"",""1"",""3836""
","
","","","","","","null","<div style=""font-size:60px;"">+</div>","null","","fixation","","","","","","","","","","",""
"aa-learning-trial","216","902967","0.0-11.0-2.0-1.13","4011","2","13","Female","approach_avoid_spark_v1","""event"",""trial"",""time""
""fullscreenenter"",""1"",""3836""
","
","
","""event"",""trial"",""time""
""fullscreenenter"",""1"",""3836""
","
","","","","","","695.8999999761581","images/orange6.png","","","learning","-6","0","0","0","orange","fruit","1","1","","bad","[-6]"
"html-keyboard-response","217","903470","0.0-11.0-2.0-0.14","4011","2","13","Female","approach_avoid_spark_v1","""event"",""trial"",""time""
""fullscreenenter"",""1"",""3836""
","
","
","""event"",""trial"",""time""
""fullscreenenter"",""1"",""3836""
","
","","","","","","null","<div style=""font-size:60px;"">+</div>","null","","fixation","","","","","","","","","","",""
"aa-learning-trial","218","906479","0.0-11.0-2.0-1.14","4011","2","13","Female","approach_avoid_spark_v1","""event"",""trial"",""time""
""fullscreenenter"",""1"",""3836""
","
","
","""event"",""trial"",""time""
""fullscreenenter"",""1"",""3836""
","
","","","","","","833.8000000119209","images/apple7.png","","","learning","4","4","1","1","apple","fruit","1","1","","good","[4]"
"html-keyboard-response","219","906983","0.0-11.0-2.0-0.15","4011","2","13","Female","approach_avoid_spark_v1","""event"",""trial"",""time""
""fullscreenenter"",""1"",""3836""
","
","
","""event"",""trial"",""time""
""fullscreenenter"",""1"",""3836""
","
","","","","","","null","<div style=""font-size:60px;"">+</div>","null","","fixation","","","","","","","","","","",""
"aa-learning-trial","220","910004","0.0-11.0-2.0-1.15","4011","2","13","Female","approach_avoid_spark_v1","""event"",""trial"",""time""
""fullscreenenter"",""1"",""3836""
","
","
","""event"",""trial"",""time""
""fullscreenenter"",""1"",""3836""
","
","","","","","","515.1999999880791","images/straw3.png","","","learning","[-1]","0","0","0","straw","fruit","1","1","","neutral","0"
"html-keyboard-response","221","910511","0.0-11.0-2.0-0.16","4011","2","13","Female","approach_avoid_spark_v1","""event"",""trial"",""time""
""fullscreenenter"",""1"",""3836""
","
","
","""event"",""trial"",""time""
""fullscreenenter"",""1"",""3836""
","
","","","","","","null","<div style=""font-size:60px;"">+</div>","null","","fixation","","","","","","","","","","",""
"aa-learning-trial","222","913519","0.0-11.0-2.0-1.16","4011","2","13","Female","approach_avoid_spark_v1","""event"",""trial"",""time""
""fullscreenenter"",""1"",""3836""
","
","
","""event"",""trial"",""time""
""fullscreenenter"",""1"",""3836""
","
","","","","","","480.5","images/orange7.png","","","learning","-4","0","0","0","orange","fruit","1","1","","bad","[-6]"
"html-keyboard-response","223","914038","0.0-11.0-2.0-0.17","4011","2","13","Female","approach_avoid_spark_v1","""event"",""trial"",""time""
""fullscreenenter"",""1"",""3836""
","
","
","""event"",""trial"",""time""
""fullscreenenter"",""1"",""3836""
","
","","","","","","null","<div style=""font-size:60px;"">+</div>","null","","fixation","","","","","","","","","","",""
"aa-learning-trial","224","917047","0.0-11.0-2.0-1.17","4011","2","13","Female","approach_avoid_spark_v1","""event"",""trial"",""time""
""fullscreenenter"",""1"",""3836""
","
","
","""event"",""trial"",""time""
""fullscreenenter"",""1"",""3836""
","
","","","","","","406.9000000357628","images/straw1.png","","","learning","1","0","0","0","straw","fruit","1","1","","neutral","0"
"html-keyboard-response","225","917550","0.0-11.0-2.0-0.18","4011","2","13","Female","approach_avoid_spark_v1","""event"",""trial"",""time""
""fullscreenenter"",""1"",""3836""
","
","
","""event"",""trial"",""time""
""fullscreenenter"",""1"",""3836""
","
","","","","","","null","<div style=""font-size:60px;"">+</div>","null","","fixation","","","","","","","","","","",""
"aa-learning-trial","226","920565","0.0-11.0-2.0-1.18","4011","2","13","Female","approach_avoid_spark_v1","""event"",""trial"",""time""
""fullscreenenter"",""1"",""3836""
","
","
","""event"",""trial"",""time""
""fullscreenenter"",""1"",""3836""
","
","","","","","","403","images/straw2.png","","","learning","1","0","0","0","straw","fruit","1","1","","neutral","0"
"html-keyboard-response","227","921070","0.0-11.0-2.0-0.19","4011","2","13","Female","approach_avoid_spark_v1","""event"",""trial"",""time""
""fullscreenenter"",""1"",""3836""
","
","
","""event"",""trial"",""time""
""fullscreenenter"",""1"",""3836""
","
","","","","","","null","<div style=""font-size:60px;"">+</div>","null","","fixation","","","","","","","","","","",""
"aa-learning-trial","228","924079","0.0-11.0-2.0-1.19","4011","2","13","Female","approach_avoid_spark_v1","""event"",""trial"",""time""
""fullscreenenter"",""1"",""3836""
","
","
","""event"",""trial"",""time""
""fullscreenenter"",""1"",""3836""
","
","","","","","","1221.9000000357628","images/apple3.png","","","learning","4","4","1","1","apple","fruit","1","1","","good","[4]"
"html-keyboard-response","229","924583","0.0-11.0-2.0-0.20","4011","2","13","Female","approach_avoid_spark_v1","""event"",""trial"",""time""
""fullscreenenter"",""1"",""3836""
","
","
","""event"",""trial"",""time""
""fullscreenenter"",""1"",""3836""
","
","","","","","","null","<div style=""font-size:60px;"">+</div>","null","","fixation","","","","","","","","","","",""
"aa-learning-trial","230","927591","0.0-11.0-2.0-1.20","4011","2","13","Female","approach_avoid_spark_v1","""event"",""trial"",""time""
""fullscreenenter"",""1"",""3836""
","
","
","""event"",""trial"",""time""
""fullscreenenter"",""1"",""3836""
","
","","","","","","1052.8999999761581","images/apple7.png","","","learning","4","4","1","1","apple","fruit","1","1","","good","[4]"
"html-keyboard-response","231","928095","0.0-11.0-2.0-0.21","4011","2","13","Female","approach_avoid_spark_v1","""event"",""trial"",""time""
""fullscreenenter"",""1"",""3836""
","
","
","""event"",""trial"",""time""
""fullscreenenter"",""1"",""3836""
","
","","","","","","null","<div style=""font-size:60px;"">+</div>","null","","fixation","","","","","","","","","","",""
"aa-learning-trial","232","931103","0.0-11.0-2.0-1.21","4011","2","13","Female","approach_avoid_spark_v1","""event"",""trial"",""time""
""fullscreenenter"",""1"",""3836""
","
","
","""event"",""trial"",""time""
""fullscreenenter"",""1"",""3836""
","
","","","","","","760.6999999880791","images/orange5.png","","","learning","-7","0","0","0","orange","fruit","1","1","","bad","[-6]"
"html-keyboard-response","233","931620","0.0-11.0-2.0-0.22","4011","2","13","Female","approach_avoid_spark_v1","""event"",""trial"",""time""
""fullscreenenter"",""1"",""3836""
","
","
","""event"",""trial"",""time""
""fullscreenenter"",""1"",""3836""
","
","","","","","","null","<div style=""font-size:60px;"">+</div>","null","","fixation","","","","","","","","","","",""
"aa-learning-trial","234","934631","0.0-11.0-2.0-1.22","4011","2","13","Female","approach_avoid_spark_v1","""event"",""trial"",""time""
""fullscreenenter"",""1"",""3836""
","
","
","""event"",""trial"",""time""
""fullscreenenter"",""1"",""3836""
","
","","","","","","1078.9000000357628","images/straw8.png","","","learning","[-1]","0","0","0","straw","fruit","1","1","","neutral","0"
"html-keyboard-response","235","935149","0.0-11.0-2.0-0.23","4011","2","13","Female","approach_avoid_spark_v1","""event"",""trial"",""time""
""fullscreenenter"",""1"",""3836""
","
","
","""event"",""trial"",""time""
""fullscreenenter"",""1"",""3836""
","
","","","","","","null","<div style=""font-size:60px;"">+</div>","null","","fixation","","","","","","","","","","",""
"aa-learning-trial","236","938159","0.0-11.0-2.0-1.23","4011","2","13","Female","approach_avoid_spark_v1","""event"",""trial"",""time""
""fullscreenenter"",""1"",""3836""
","
","
","""event"",""trial"",""time""
""fullscreenenter"",""1"",""3836""
","
