"trial_type","trial_index","time_elapsed","internal_node_id","subject_id","task_condition","age","gender","task_version","interactions","blur_events","focus_events","fullscreenenter_events","fullscreenexit_events","success","timeout","failed_images","failed_audio","failed_video","rt","stimulus","response","button_pressed","task_part","approach_reward","points","key_press","option_selected","stim_cat","task_block","block_condition","block_number","correct","cat_type","mean_cat_reward"
"pavlovia","0","7","0.0-0.0","7717","2","9","Female","approach_avoid_spark_v1","""event"",""trial"",""time""
""fullscreenenter"",""1"",""4385""
","
","
","""event"",""trial"",""time""
""fullscreenenter"",""1"",""4385""
","
","","","","","","","","","","","","","","","","","","","","",""
"fullscreen","1","5338","0.0-1.0","7717","2","9","Female","approach_avoid_spark_v1","""event"",""trial"",""time""
""fullscreenenter"",""1"",""4385""
","
","
","""event"",""trial"",""time""
""fullscreenenter"",""1"",""4385""
","
","true","","","","","","","","","","","","","","","","","","","",""
"preload","2","8519","0.0-2.0","7717","2","9","Female","approach_avoid_spark_v1","""event"",""trial"",""time""
""fullscreenenter"",""1"",""4385""
","
","
","""event"",""trial"",""time""
""fullscreenenter"",""1"",""4385""
","
","true","false","[]","[]","[]","","","","","","","","","","","","","","","",""
"audio-keyboard-response","3","11524","0.0-3.0","7717","2","9","Female","approach_avoid_spark_v1","""event"",""trial"",""time""
""fullscreenenter"",""1"",""4385""
","
","
","""event"",""trial"",""time""
""fullscreenenter"",""1"",""4385""
","
","","","","","","2999.9999999999995","audio/beep_loop.wav","audiovolumeup","","","","","","","","","","","","",""
"audio-button-response","4","15929","0.0-4.0","7717","2","9","Female","approach_avoid_spark_v1","""event"",""trial"",""time""
""fullscreenenter"",""1"",""4385""
","
","
","""event"",""trial"",""time""
""fullscreenenter"",""1"",""4385""
","
","","","","","","4411","audio/shark.wav","4","","","","","","","","","","","","",""
"audio-button-response","5","19359","0.0-5.0","7717","2","9","Female","approach_avoid_spark_v1","""event"",""trial"",""time""
""fullscreenenter"",""1"",""4385""
","
","
","""event"",""trial"",""time""
""fullscreenenter"",""1"",""4385""
","
","","","","","","2421","audio/turtle.wav","1","","","","","","","","","","","","",""
"preload","6","22794","0.0-6.0","7717","2","9","Female","approach_avoid_spark_v1","""event"",""trial"",""time""
""fullscreenenter"",""1"",""4385""
","
","
","""event"",""trial"",""time""
""fullscreenenter"",""1"",""4385""
","
","true","false","[]","[]","[]","","","","","","","","","","","","","","","",""
"html-keyboard-response","7","26647","0.0-7.0","7717","2","9","Female","approach_avoid_spark_v1","""event"",""trial"",""time""
""fullscreenenter"",""1"",""4385""
","
","
","""event"",""trial"",""time""
""fullscreenenter"",""1"",""4385""
","
","","","","","","3852","Welcome to the experiment. Press any key to begin and to advance the instructions.","h","","","","","","","","","","","","",""
"learning-instructions","8","34729","0.0-8.0-0.0-0.0","7717","2","9","Female","approach_avoid_spark_v1","""event"",""trial"",""time""
""fullscreenenter"",""1"",""4385""
","
","
","""event"",""trial"",""time""
""fullscreenenter"",""1"",""4385""
","
","","","","","","1120.1000000238419","<p> Welcome! Today you are going to play 6 different rounds of a decision-making game. </p><p> Use the mouse to click next to continue. </p>","","0","instructions","","","","","","","","","","",""
"learning-instructions","9","39079","0.0-8.0-0.0-0.1","7717","2","9","Female","approach_avoid_spark_v1","""event"",""trial"",""time""
""fullscreenenter"",""1"",""4385""
","
","
","""event"",""trial"",""time""
""fullscreenenter"",""1"",""4385""
","
","","","","","","1599.6999999284744","<p> You will start with a practice round to learn the rules. </p>","","0","instructions","","","","","","","","","","",""
"learning-instructions","10","44359","0.0-8.0-0.0-0.2","7717","2","9","Female","approach_avoid_spark_v1","""event"",""trial"",""time""
""fullscreenenter"",""1"",""4385""
","
","
","""event"",""trial"",""time""
""fullscreenenter"",""1"",""4385""
","
","","","","","","1820.5999999046326","<p> Your goal in this round is to give out sports equipment to kids. </p></div>","","0","instructions","","","","","","","","","","",""
"learning-instructions","11","53018","0.0-8.0-0.0-0.3","7717","2","9","Female","approach_avoid_spark_v1","""event"",""trial"",""time""
""fullscreenenter"",""1"",""4385""
","
","
","""event"",""trial"",""time""
""fullscreenenter"",""1"",""4385""
","
","","","","","","1089.2999999523163","<p> The kids only like some of the equipment.  </p><p> On each turn, you will see a piece of sports equipment.   </p><p> You need to decide whether to give it to the kids or not.  </p>","","0","instructions","","","","","","","","","","",""
"learning-instructions","12","58899","0.0-8.0-0.0-0.4","7717","2","9","Female","approach_avoid_spark_v1","""event"",""trial"",""time""
""fullscreenenter"",""1"",""4385""
","
","
","""event"",""trial"",""time""
""fullscreenenter"",""1"",""4385""
","
","","","","","","1119.3999999761581","<p> You can give them the equipment by pressing 1 and choose not to give it to them by pressing 0. </p><br><div class=""choice-instructions-grid""> <div class=""choice-option""><img src=""images/approach.png"" class=""choice-option-img"" stage=""instructions"" position=""0"" ><div class=""choice-option-text""> Press ""1."" </div></div><div class=""choice-option""><img src=""images/avoid.png"" class=""choice-option-img"" stage=""instructions"" position=""1"" ><div class=""choice-option-text""> Press ""0."" </div></div>","","0","instructions","","","","","","","","","","",""
"learning-instructions","13","67554","0.0-8.0-0.0-0.5","7717","2","9","Female","approach_avoid_spark_v1","""event"",""trial"",""time""
""fullscreenenter"",""1"",""4385""
","
","
","""event"",""trial"",""time""
""fullscreenenter"",""1"",""4385""
","
","","","","","","1250.3000000715256","<p> If you give them a piece of equipment they like, they will be happy! </p><p> But if you give them a piece of equipment they do not like, they will be sad. </p>","","0","instructions","","","","","","","","","","",""
"learning-instructions","14","79865","0.0-8.0-0.0-0.6","7717","2","9","Female","approach_avoid_spark_v1","""event"",""trial"",""time""
""fullscreenenter"",""1"",""4385""
","
","
","""event"",""trial"",""time""
""fullscreenenter"",""1"",""4385""
","
","","","","","","1790.6000000238419","<p> You will earn points based on how you make kids feel. </p><p> If you make them happy, you will WIN anywhere from 1 - 9 points, </p><p> but if you make them sad, you will LOSE anywhere from 1 - 9 points. </p>","","0","instructions","","","","","","","","","","",""
"learning-instructions","15","90244","0.0-8.0-0.0-0.7","7717","2","9","Female","approach_avoid_spark_v1","""event"",""trial"",""time""
""fullscreenenter"",""1"",""4385""
","
","
","""event"",""trial"",""time""
""fullscreenenter"",""1"",""4385""
","
","","","","","","809.8999999761581","<p> You will see how many points you won or lost in the center of the screen. </p><p> Here is what you would see if you won 6 points: </p><p style=""color:green;font-size:50px;font-weight:bolder"">6</p><p style=""color:green"">The text is GREEN because you WON points.</p>","","0","instructions","","","","","","","","","","",""
"learning-instructions","16","97504","0.0-8.0-0.0-0.8","7717","2","9","Female","approach_avoid_spark_v1","""event"",""trial"",""time""
""fullscreenenter"",""1"",""4385""
","
","
","""event"",""trial"",""time""
""fullscreenenter"",""1"",""4385""
","
","","","","","","1750.2000000476837","<p> And here is what you would see if you lost 4 points: </p><p style=""color:red;font-size:50px;font-weight:bolder"">-4</p><p style=""color:red"">The text is RED because you LOST points. </p>","","0","instructions","","","","","","","","","","",""
"learning-instructions","17","115164","0.0-8.0-0.0-0.9","7717","2","9","Female","approach_avoid_spark_v1","""event"",""trial"",""time""
""fullscreenenter"",""1"",""4385""
","
","
","""event"",""trial"",""time""
""fullscreenenter"",""1"",""4385""
","
","","","","","","2940.399999976158","<p> Some of the equipment will make the kids VERY happy or sad. </p><p> These pieces of equipment will make you win or lose LOTS of points. </p><p> Other pieces of equipment will only make the kids a little happy or sad. </p><p> These pieces of equipment will make you win or lose small amounts of points. </p>","","0","instructions","","","","","","","","","","",""
"learning-instructions","18","127174","0.0-8.0-0.0-0.10","7717","2","9","Female","approach_avoid_spark_v1","""event"",""trial"",""time""
""fullscreenenter"",""1"",""4385""
","
","
","""event"",""trial"",""time""
""fullscreenenter"",""1"",""4385""
","
","","","","","","1380.1000000238419","<p> If you choose not to give them the equipment, you will not win or lose any points. </p><p>  However, in the center of the screen, you will see the number of points you WOULD HAVE won or lost if you had given them the equipment. </p>","","0","instructions","","","","","","","","","","",""
"learning-instructions","19","150974","0.0-8.0-0.0-0.11","7717","2","9","Female","approach_avoid_spark_v1","""event"",""trial"",""time""
""fullscreenenter"",""1"",""4385""
","
","
","""event"",""trial"",""time""
""fullscreenenter"",""1"",""4385""
","
","","","","","","2260.4000000953674","<p> Here is what you might see if you did not give the equipment to the kids but it would have made them happy: </p><p style=""color:grey; font-size:50px; display: inline-block; border-spacing: 15px; border-width:3px; border-style:solid; border-color:red"">  &nbsp; 7 &nbsp; </p><p> Remember, in this case, you would not win or lose ANY points because you did not give them the equipment.  </p><p style=""color:grey"">The text is GREY because you earned ZERO points. </p><p style=""color:red"">However, choosing to give the kids the equipment would have made you win points. The box around the text is RED because you chose the worse option. </p>","","0","instructions","","","","","","","","","","",""
"learning-instructions","20","172948","0.0-8.0-0.0-0.12","7717","2","9","Female","approach_avoid_spark_v1","""event"",""trial"",""time""
""fullscreenenter"",""1"",""4385""
","
","
","""event"",""trial"",""time""
""fullscreenenter"",""1"",""4385""
","
","","","","","","893.8999999761581","<p> Here is what you might see if you did not give the equipment to the kids but it would have made them sad: </p><p style=""color:grey;font-size:50px; display: inline-block; border-spacing: 15px; border-width:3px; border-style:solid; border-color:green"">  &nbsp; -8 &nbsp; </p><p> Remember, in this case, you would not win or lose ANY points because you did not give them the equipment.  </p><p style=""color:grey"">The text is GREY because you earned ZERO points. </p><p  style=""color:green""> Choosing to give the kids the equipment would have made you lose points. The box around the text is GREEN because you chose the better option.</p>","","0","instructions","","","","","","","","","","",""
"learning-instructions","21","183392","0.0-8.0-0.0-0.13","7717","2","9","Female","approach_avoid_spark_v1","""event"",""trial"",""time""
""fullscreenenter"",""1"",""4385""
","
","
","""event"",""trial"",""time""
""fullscreenenter"",""1"",""4385""
","
","","","","","","1388.2999999523163","<p> You will have 3 seconds to make each choice. Try to respond before time runs out! </p><p> You will lose 5 points each time you do not make a response. </p>","","0","instructions","","","","","","","","","","",""
"learning-instructions","22","190686","0.0-8.0-0.0-0.14","7717","2","9","Female","approach_avoid_spark_v1","""event"",""trial"",""time""
""fullscreenenter"",""1"",""4385""
","
","
","""event"",""trial"",""time""
""fullscreenenter"",""1"",""4385""
","
","","","","","","1872.8999999761581","<p> This is just a practice round, but in the real game, your bonus payment will depend on your total number of points.","","0","instructions","","","","","","","","","","",""
"learning-instructions","23","199315","0.0-8.0-0.0-0.15","7717","2","9","Female","approach_avoid_spark_v1","""event"",""trial"",""time""
""fullscreenenter"",""1"",""4385""
","
","
","""event"",""trial"",""time""
""fullscreenenter"",""1"",""4385""
","
","","","","","","2861.2999999523163","<p> Remember, you can give them the equipment by pressing 1 and choose not to give it to them by pressing 0. </p><br><div class=""choice-instructions-grid""> <div class=""choice-option""><img src=""images/approach.png"" class=""choice-option-img"" stage=""instructions"" position=""0"" ><div class=""choice-option-text""> Press ""1."" </div></div><div class=""choice-option""><img src=""images/avoid.png"" class=""choice-option-img"" stage=""instructions"" position=""1"" ><div class=""choice-option-text""> Press ""0."" </div></div>","","0","instructions","","","","","","","","","","",""
"html-button-response","24","201045","0.0-8.0-1.0","7717","2","9","Female","approach_avoid_spark_v1","""event"",""trial"",""time""
""fullscreenenter"",""1"",""4385""
","
","
","""event"",""trial"",""time""
""fullscreenenter"",""1"",""4385""
","
","","","","","","1620","<p> Ready to practice? </p>","0","","","","","","","","","","","","",""
"html-keyboard-response","25","201662","0.0-8.0-2.0-0.0","7717","2","9","Female","approach_avoid_spark_v1","""event"",""trial"",""time""
""fullscreenenter"",""1"",""4385""
","
","
","""event"",""trial"",""time""
""fullscreenenter"",""1"",""4385""
","
","","","","","","null","<div style=""font-size:60px;"">+</div>","null","","fixation","","","","","","","","","","",""
"aa-learning-trial","26","204672","0.0-8.0-2.0-1.0","7717","2","9","Female","approach_avoid_spark_v1","""event"",""trial"",""time""
""fullscreenenter"",""1"",""4385""
","
","
","""event"",""trial"",""time""
""fullscreenenter"",""1"",""4385""
","
","","","","","","1369.2000000476837","images/racket2.png","","","learning","1","1","1","1","practice","practice","practice","-1","","",""
"html-keyboard-response","27","205182","0.0-8.0-2.0-0.1","7717","2","9","Female","approach_avoid_spark_v1","""event"",""trial"",""time""
""fullscreenenter"",""1"",""4385""
","
","
","""event"",""trial"",""time""
""fullscreenenter"",""1"",""4385""
","
","","","","","","null","<div style=""font-size:60px;"">+</div>","null","","fixation","","","","","","","","","","",""
"aa-learning-trial","28","208190","0.0-8.0-2.0-1.1","7717","2","9","Female","approach_avoid_spark_v1","""event"",""trial"",""time""
""fullscreenenter"",""1"",""4385""
","
","
","""event"",""trial"",""time""
""fullscreenenter"",""1"",""4385""
","
","","","","","","1289.3999999761581","images/ball4.png","","","learning","-7","-7","1","1","practice","practice","practice","-1","","",""
"html-keyboard-response","29","208702","0.0-8.0-2.0-0.2","7717","2","9","Female","approach_avoid_spark_v1","""event"",""trial"",""time""
""fullscreenenter"",""1"",""4385""
","
","
","""event"",""trial"",""time""
""fullscreenenter"",""1"",""4385""
","
","","","","","","null","<div style=""font-size:60px;"">+</div>","null","","fixation","","","","","","","","","","",""
"aa-learning-trial","30","211722","0.0-8.0-2.0-1.2","7717","2","9","Female","approach_avoid_spark_v1","""event"",""trial"",""time""
""fullscreenenter"",""1"",""4385""
","
","
","""event"",""trial"",""time""
""fullscreenenter"",""1"",""4385""
","
","","","","","","1193.2000000476837","images/ball1.png","","","learning","-3","0","0","0","practice","practice","practice","-1","","",""
"html-keyboard-response","31","212242","0.0-8.0-2.0-0.3","7717","2","9","Female","approach_avoid_spark_v1","""event"",""trial"",""time""
""fullscreenenter"",""1"",""4385""
","
","
","""event"",""trial"",""time""
""fullscreenenter"",""1"",""4385""
","
","","","","","","null","<div style=""font-size:60px;"">+</div>","null","","fixation","","","","","","","","","","",""
"aa-learning-trial","32","215263","0.0-8.0-2.0-1.3","7717","2","9","Female","approach_avoid_spark_v1","""event"",""trial"",""time""
""fullscreenenter"",""1"",""4385""
","
","
","""event"",""trial"",""time""
""fullscreenenter"",""1"",""4385""
","
","","","","","","490.7000000476837","images/ball1.png","","","learning","7","7","1","1","practice","practice","practice","-1","","",""
"html-keyboard-response","33","215782","0.0-8.0-2.0-0.4","7717","2","9","Female","approach_avoid_spark_v1","""event"",""trial"",""time""
""fullscreenenter"",""1"",""4385""
","
","
","""event"",""trial"",""time""
""fullscreenenter"",""1"",""4385""
","
","","","","","","null","<div style=""font-size:60px;"">+</div>","null","","fixation","","","","","","","","","","",""
"aa-learning-trial","34","218792","0.0-8.0-2.0-1.4","7717","2","9","Female","approach_avoid_spark_v1","""event"",""trial"",""time""
""fullscreenenter"",""1"",""4385""
","
","
","""event"",""trial"",""time""
""fullscreenenter"",""1"",""4385""
","
","","","","","","595.1000000238419","images/ball1.png","","","learning","-1","-1","1","1","practice","practice","practice","-1","","",""
"html-keyboard-response","35","219305","0.0-8.0-2.0-0.5","7717","2","9","Female","approach_avoid_spark_v1","""event"",""trial"",""time""
""fullscreenenter"",""1"",""4385""
","
","
","""event"",""trial"",""time""
""fullscreenenter"",""1"",""4385""
","
","","","","","","null","<div style=""font-size:60px;"">+</div>","null","","fixation","","","","","","","","","","",""
"aa-learning-trial","36","222323","0.0-8.0-2.0-1.5","7717","2","9","Female","approach_avoid_spark_v1","""event"",""trial"",""time""
""fullscreenenter"",""1"",""4385""
","
","
","""event"",""trial"",""time""
""fullscreenenter"",""1"",""4385""
","
","","","","","","928.3999999761581","images/racket1.png","","","learning","-8","0","0","0","practice","practice","practice","-1","","",""
"html-keyboard-response","37","222832","0.0-8.0-2.0-0.6","7717","2","9","Female","approach_avoid_spark_v1","""event"",""trial"",""time""
""fullscreenenter"",""1"",""4385""
","
","
","""event"",""trial"",""time""
""fullscreenenter"",""1"",""4385""
","
","","","","","","null","<div style=""font-size:60px;"">+</div>","null","","fixation","","","","","","","","","","",""
"aa-learning-trial","38","225852","0.0-8.0-2.0-1.6","7717","2","9","Female","approach_avoid_spark_v1","""event"",""trial"",""time""
""fullscreenenter"",""1"",""4385""
","
","
","""event"",""trial"",""time""
""fullscreenenter"",""1"",""4385""
","
","","","","","","307.39999997615814","images/racket3.png","","","learning","-7","-7","1","1","practice","practice","practice","-1","","",""
"html-keyboard-response","39","226362","0.0-8.0-2.0-0.7","7717","2","9","Female","approach_avoid_spark_v1","""event"",""trial"",""time""
""fullscreenenter"",""1"",""4385""
","
","
","""event"",""trial"",""time""
""fullscreenenter"",""1"",""4385""
","
","","","","","","null","<div style=""font-size:60px;"">+</div>","null","","fixation","","","","","","","","","","",""
"aa-learning-trial","40","229375","0.0-8.0-2.0-1.7","7717","2","9","Female","approach_avoid_spark_v1","""event"",""trial"",""time""
""fullscreenenter"",""1"",""4385""
","
","
","""event"",""trial"",""time""
""fullscreenenter"",""1"",""4385""
","
","","","","","","986.3999999761581","images/ball4.png","","","learning","3","0","0","0","practice","practice","practice","-1","","",""
"html-keyboard-response","41","229884","0.0-8.0-2.0-0.8","7717","2","9","Female","approach_avoid_spark_v1","""event"",""trial"",""time""
""fullscreenenter"",""1"",""4385""
","
","
","""event"",""trial"",""time""
""fullscreenenter"",""1"",""4385""
","
","","","","","","null","<div style=""font-size:60px;"">+</div>","null","","fixation","","","","","","","","","","",""
"aa-learning-trial","42","232900","0.0-8.0-2.0-1.8","7717","2","9","Female","approach_avoid_spark_v1","""event"",""trial"",""time""
""fullscreenenter"",""1"",""4385""
","
","
","""event"",""trial"",""time""
""fullscreenenter"",""1"",""4385""
","
","","","","","","371.10000002384186","images/racket3.png","","","learning","-5","-5","1","1","practice","practice","practice","-1","","",""
"html-keyboard-response","43","233408","0.0-8.0-2.0-0.9","7717","2","9","Female","approach_avoid_spark_v1","""event"",""trial"",""time""
""fullscreenenter"",""1"",""4385""
","
","
","""event"",""trial"",""time""
""fullscreenenter"",""1"",""4385""
","
","","","","","","null","<div style=""font-size:60px;"">+</div>","null","","fixation","","","","","","","","","","",""
"aa-learning-trial","44","236419","0.0-8.0-2.0-1.9","7717","2","9","Female","approach_avoid_spark_v1","""event"",""trial"",""time""
""fullscreenenter"",""1"",""4385""
","
","
","""event"",""trial"",""time""
""fullscreenenter"",""1"",""4385""
","
","","","","","","232.79999995231628","images/racket2.png","","","learning","9","9","1","1","practice","practice","practice","-1","","",""
"html-keyboard-response","45","236933","0.0-8.0-2.0-0.10","7717","2","9","Female","approach_avoid_spark_v1","""event"",""trial"",""time""
""fullscreenenter"",""1"",""4385""
","
","
","""event"",""trial"",""time""
""fullscreenenter"",""1"",""4385""
","
","","","","","","null","<div style=""font-size:60px;"">+</div>","null","","fixation","","","","","","","","","","",""
"aa-learning-trial","46","239943","0.0-8.0-2.0-1.10","7717","2","9","Female","approach_avoid_spark_v1","""event"",""trial"",""time""
""fullscreenenter"",""1"",""4385""
","
","
","""event"",""trial"",""time""
""fullscreenenter"",""1"",""4385""
","
","","","","","","764.2000000476837","images/ball3.png","","","learning","-5","-5","1","1","practice","practice","practice","-1","","",""
"html-keyboard-response","47","240452","0.0-8.0-2.0-0.11","7717","2","9","Female","approach_avoid_spark_v1","""event"",""trial"",""time""
""fullscreenenter"",""1"",""4385""
","
","
","""event"",""trial"",""time""
""fullscreenenter"",""1"",""4385""
","
","","","","","","null","<div style=""font-size:60px;"">+</div>","null","","fixation","","","","","","","","","","",""
"aa-learning-trial","48","243457","0.0-8.0-2.0-1.11","7717","2","9","Female","approach_avoid_spark_v1","""event"",""trial"",""time""
""fullscreenenter"",""1"",""4385""
","
","
","""event"",""trial"",""time""
""fullscreenenter"",""1"",""4385""
","
","","","","","","293.39999997615814","images/racket4.png","","","learning","2","0","0","0","practice","practice","practice","-1","","",""
"html-button-response","49","247892","0.0-8.0-3.0","7717","2","9","Female","approach_avoid_spark_v1","""event"",""trial"",""time""
""fullscreenenter"",""1"",""4385""
","
","
","""event"",""trial"",""time""
""fullscreenenter"",""1"",""4385""
","
","","","","","","4432.699999928474","<p> You earned -8 points in the practice round! </p>","0","","break","","","","","","","","","","",""
"learning-instructions","50","255525","0.0-8.0-4.0-0.0","7717","2","9","Female","approach_avoid_spark_v1","""event"",""trial"",""time""
""fullscreenenter"",""1"",""4385""
","
","
","""event"",""trial"",""time""
""fullscreenenter"",""1"",""4385""
","
","","","","","","1610.3999999761581","<p> It's almost time to start the real game. </p><p> Before you start, we're going to ask you a few questions about how the game works. </p>","","0","instructions","","","","","","","","","","",""
"preload","51","257793","0.0-8.0-5.0","7717","2","9","Female","approach_avoid_spark_v1","""event"",""trial"",""time""
""fullscreenenter"",""1"",""4385""
","
","
","""event"",""trial"",""time""
""fullscreenenter"",""1"",""4385""
","
","true","false","[]","[]","[]","","","","","","","","","","","","","","","",""
"comp-q","52","263955","0.0-8.0-6.0-0.0","7717","2","9","Female","approach_avoid_spark_v1","""event"",""trial"",""time""
""fullscreenenter"",""1"",""4385""
","
","
","""event"",""trial"",""time""
""fullscreenenter"",""1"",""4385""
","
","","","","","","1160.6999999284744","<p> <b> True or False? </b> </p><p> If you see a number in GREY, that means you earned that many points. </p>","","1","comp_question","","","","","","","","","true","",""
"comp-q","53","273865","0.0-8.0-6.0-1.0","7717","2","9","Female","approach_avoid_spark_v1","""event"",""trial"",""time""
""fullscreenenter"",""1"",""4385""
","
","
","""event"",""trial"",""time""
""fullscreenenter"",""1"",""4385""
","
","","","","","","1530.2999999523163","<p><b> That's right! </b> If you see a grey number, it means you earned ZERO points. <br> The grey numbers show the points you WOULD HAVE earned if you had made the other choice. </p>","","0","comp_answer","","","","","","","","","","",""
"comp-q","54","279735","0.0-8.0-7.0-0.0","7717","2","9","Female","approach_avoid_spark_v1","""event"",""trial"",""time""
""fullscreenenter"",""1"",""4385""
","
","
","""event"",""trial"",""time""
""fullscreenenter"",""1"",""4385""
","
","","","","","","1170.4000000953674","<p> <b> True or False? </b> </p><p> You will have as much time as you want to make each choice. </p>","","1","comp_question","","","","","","","","","true","",""
"comp-q","55","285085","0.0-8.0-7.0-1.0","7717","2","9","Female","approach_avoid_spark_v1","""event"",""trial"",""time""
""fullscreenenter"",""1"",""4385""
","
","
","""event"",""trial"",""time""
""fullscreenenter"",""1"",""4385""
","
","","","","","","1290.1999999284744","<p> <b> That's right! </b> You will only have 3 seconds to make each choice. </p>","","0","comp_answer","","","","","","","","","","",""
"comp-q","56","292245","0.0-8.0-8.0-0.0","7717","2","9","Female","approach_avoid_spark_v1","""event"",""trial"",""time""
""fullscreenenter"",""1"",""4385""
","
","
","""event"",""trial"",""time""
""fullscreenenter"",""1"",""4385""
","
","","","","","","2490.399999976158","<p> <b> True or False? </b> </p><p> You should use the '1' and '0' keys to make your choices. </p>","","0","comp_question","","","","","","","","","true","",""
"comp-q","57","299325","0.0-8.0-8.0-1.0","7717","2","9","Female","approach_avoid_spark_v1","""event"",""trial"",""time""
""fullscreenenter"",""1"",""4385""
","
","
","""event"",""trial"",""time""
""fullscreenenter"",""1"",""4385""
","
","","","","","","2460.600000023842","<p> <b> That's right! </b> You should use the '1' and '0' keys to make each choice. </p>","","0","comp_answer","","","","","","","","","","",""
"learning-instructions","58","307103","0.0-8.0-9.0-0.0","7717","2","9","Female","approach_avoid_spark_v1","""event"",""trial"",""time""
""fullscreenenter"",""1"",""4385""
","
","
","""event"",""trial"",""time""
""fullscreenenter"",""1"",""4385""
","
","","","","","","1500.1000000238419","<p> It's now time to start the real game. </p>Do your best, because the points you earn in the next rounds will influence your bonus payment. </p>","","0","instructions","","","","","","","","","","",""
"preload","59","307239","0.0-9.0-0.0","7717","2","9","Female","approach_avoid_spark_v1","""event"",""trial"",""time""
""fullscreenenter"",""1"",""4385""
","
","
","""event"",""trial"",""time""
""fullscreenenter"",""1"",""4385""
","
","true","false","[]","[]","[]","","","","","","","","","","","","","","","",""
"learning-instructions","60","314461","0.0-9.0-1.0-0.0","7717","2","9","Female","approach_avoid_spark_v1","""event"",""trial"",""time""
""fullscreenenter"",""1"",""4385""
","
","
","""event"",""trial"",""time""
""fullscreenenter"",""1"",""4385""
","
","","","","","","2307.600000023842","<p> Your goal in this round is to decorate your friend's new house with furniture. </p></div>","","0","instructions","","","","","","","","","","",""
"learning-instructions","61","326043","0.0-9.0-1.0-0.1","7717","2","9","Female","approach_avoid_spark_v1","""event"",""trial"",""time""
""fullscreenenter"",""1"",""4385""
","
","
","""event"",""trial"",""time""
""fullscreenenter"",""1"",""4385""
","
","","","","","","1410.5","<p> Your friend likes some pieces of furniture but not others.  </p><p> On each turn, you will see a piece of furniture.   </p><p> You need to decide whether to put it in your friend's house or not.  </p>","","0","instructions","","","","","","","","","","",""
"learning-instructions","62","334044","0.0-9.0-1.0-0.2","7717","2","9","Female","approach_avoid_spark_v1","""event"",""trial"",""time""
""fullscreenenter"",""1"",""4385""
","
","
","""event"",""trial"",""time""
""fullscreenenter"",""1"",""4385""
","
","","","","","","1889.8000000715256","<p> You can put the furniture in her house by pressing 1 and deliver it elsewhere by pressing 0. </p><br><div class=""choice-instructions-grid""> <div class=""choice-option""><img src=""images/approach.png"" class=""choice-option-img"" stage=""instructions"" position=""0"" ><div class=""choice-option-text""> Press ""1."" </div></div><div class=""choice-option""><img src=""images/avoid.png"" class=""choice-option-img"" stage=""instructions"" position=""1"" ><div class=""choice-option-text""> Press ""0."" </div></div>","","0","instructions","","","","","","","","","","",""
"learning-instructions","63","364767","0.0-9.0-1.0-0.3","7717","2","9","Female","approach_avoid_spark_v1","""event"",""trial"",""time""
""fullscreenenter"",""1"",""4385""
","
","
","""event"",""trial"",""time""
""fullscreenenter"",""1"",""4385""
","
","","","","","","21453.799999952316","<p> If you decorate your friend's house with furniture she likes, she will be happy! </p><p> But if you give her furniture that she does not like, she will be annoyed. </p>","","0","instructions","","","","","","","","","","",""
"learning-instructions","64","378852","0.0-9.0-1.0-0.4","7717","2","9","Female","approach_avoid_spark_v1","""event"",""trial"",""time""
""fullscreenenter"",""1"",""4385""
","
","
","""event"",""trial"",""time""
""fullscreenenter"",""1"",""4385""
","
","","","","","","1480.0999999046326","<p> You will earn points based on how you made your friend feel. </p><p> If you made her happy, you will WIN anywhere from 1 - 9 points, </p><p> but if you made her annoyed you will LOSE anywhere from 1 - 9 points. </p>","","0","instructions","","","","","","","","","","",""
"learning-instructions","65","387821","0.0-9.0-1.0-0.5","7717","2","9","Female","approach_avoid_spark_v1","""event"",""trial"",""time""
""fullscreenenter"",""1"",""4385""
","
","
","""event"",""trial"",""time""
""fullscreenenter"",""1"",""4385""
","
","","","","","","880.1000000238419","<p> You will see how many points you won or lost in the center of the screen. </p><p> Here is what you would see if you won 5 points: </p><p style=""color:green;font-size:50px;font-weight:bolder"">5</p>","","0","instructions","","","","","","","","","","",""
"learning-instructions","66","392311","0.0-9.0-1.0-0.6","7717","2","9","Female","approach_avoid_spark_v1","""event"",""trial"",""time""
""fullscreenenter"",""1"",""4385""
","
","
","""event"",""trial"",""time""
""fullscreenenter"",""1"",""4385""
","
","","","","","","798.8999999761581","<p> And here is what you would see if you lost 3 points: </p><p style=""color:red;font-size:50px;font-weight:bolder"">-3</p>","","0","instructions","","","","","","","","","","",""
"learning-instructions","67","411372","0.0-9.0-1.0-0.7","7717","2","9","Female","approach_avoid_spark_v1","""event"",""trial"",""time""
""fullscreenenter"",""1"",""4385""
","
","
","""event"",""trial"",""time""
""fullscreenenter"",""1"",""4385""
","
","","","","","","1170.6000000238419","<p> Some pieces of furniture will make her feel very happy or very annoyed. </p><p> These pieces of furniture will make you win or lose LOTS of points. </p><p> Other pieces of furniture will only make her feel a little happy or a little annoyed. </p><p> These pieces of furniture will make you win or lose small amounts of points. </p>","","0","instructions","","","","","","","","","","",""
"learning-instructions","68","425622","0.0-9.0-1.0-0.8","7717","2","9","Female","approach_avoid_spark_v1","""event"",""trial"",""time""
""fullscreenenter"",""1"",""4385""
","
","
","""event"",""trial"",""time""
""fullscreenenter"",""1"",""4385""
","
","","","","","","1180.1000000238419","<p> If you choose to deliver a piece of furniture elsewhere, you will not win or lose any points. </p><p>  However, in the center of the screen, you will see the number of points you WOULD HAVE won or lost if you had given the furniture to your friend. </p>","","0","instructions","","","","","","","","","","",""
"learning-instructions","69","439575","0.0-9.0-1.0-0.9","7717","2","9","Female","approach_avoid_spark_v1","""event"",""trial"",""time""
""fullscreenenter"",""1"",""4385""
","
","
","""event"",""trial"",""time""
""fullscreenenter"",""1"",""4385""
","
","","","","","","2090.899999976158","<p> Here is what you might see if you did not give a piece of furniture to your friend that would have made her happy: </p><p style=""color:grey; font-size:50px; display: inline-block; border-spacing: 15px; border-width:3px; border-style:solid; border-color:red"">  &nbsp; 6 &nbsp; </p><p> Remember, in this case, you would not win or lose ANY points because you did not give her the furniture.  </p>","","0","instructions","","","","","","","","","","",""
"learning-instructions","70","451015","0.0-9.0-1.0-0.10","7717","2","9","Female","approach_avoid_spark_v1","""event"",""trial"",""time""
""fullscreenenter"",""1"",""4385""
","
","
","""event"",""trial"",""time""
""fullscreenenter"",""1"",""4385""
","
","","","","","","3441.100000023842","<p> Try to make the best choice for each piece of furniture because </p><p> at the end of the game, you will earn bonus money based on how many points you earned. </p>","","0","instructions","","","","","","","","","","",""
"learning-instructions","71","460994","0.0-9.0-1.0-0.11","7717","2","9","Female","approach_avoid_spark_v1","""event"",""trial"",""time""
""fullscreenenter"",""1"",""4385""
","
","
","""event"",""trial"",""time""
""fullscreenenter"",""1"",""4385""
","
","","","","","","1780","<p> You will have 3 seconds to make each choice. Try to respond before time runs out! </p><p> You will lose 5 points each time you do not make a response. </p>","","0","instructions","","","","","","","","","","",""
"html-keyboard-response","72","461612","0.0-9.0-2.0-0.0","7717","2","9","Female","approach_avoid_spark_v1","""event"",""trial"",""time""
""fullscreenenter"",""1"",""4385""
","
","
","""event"",""trial"",""time""
""fullscreenenter"",""1"",""4385""
","
","","","","","","null","<div style=""font-size:60px;"">+</div>","null","","fixation","","","","","","","","","","",""
"aa-learning-trial","73","464623","0.0-9.0-2.0-1.0","7717","2","9","Female","approach_avoid_spark_v1","""event"",""trial"",""time""
""fullscreenenter"",""1"",""4385""
","
","
","""event"",""trial"",""time""
""fullscreenenter"",""1"",""4385""
","
","","","","","","null","images/bed2.png","","","learning","3","-5","","null","bed","furniture","2","0","","bad","[-4]"
"html-keyboard-response","74","465132","0.0-9.0-2.0-0.1","7717","2","9","Female","approach_avoid_spark_v1","""event"",""trial"",""time""
""fullscreenenter"",""1"",""4385""
","
","
","""event"",""trial"",""time""
""fullscreenenter"",""1"",""4385""
","
","","","","","","null","<div style=""font-size:60px;"">+</div>","null","","fixation","","","","","","","","","","",""
"aa-learning-trial","75","468142","0.0-9.0-2.0-1.1","7717","2","9","Female","approach_avoid_spark_v1","""event"",""trial"",""time""
""fullscreenenter"",""1"",""4385""
","
","
","""event"",""trial"",""time""
""fullscreenenter"",""1"",""4385""
","
","","","","","","946.1999999284744","images/bed2.png","","","learning","3","3","1","1","bed","furniture","2","0","","bad","[-4]"
"html-keyboard-response","76","468652","0.0-9.0-2.0-0.2","7717","2","9","Female","approach_avoid_spark_v1","""event"",""trial"",""time""
""fullscreenenter"",""1"",""4385""
","
","
","""event"",""trial"",""time""
""fullscreenenter"",""1"",""4385""
","
","","","","","","null","<div style=""font-size:60px;"">+</div>","null","","fixation","","","","","","","","","","",""
"aa-learning-trial","77","471673","0.0-9.0-2.0-1.2","7717","2","9","Female","approach_avoid_spark_v1","""event"",""trial"",""time""
""fullscreenenter"",""1"",""4385""
","
","
","""event"",""trial"",""time""
""fullscreenenter"",""1"",""4385""
","
","","","","","","949.3999999761581","images/chair5.png","","","learning","-4","0","0","0","chair","furniture","2","0","","good","[4]"
"html-keyboard-response","78","472193","0.0-9.0-2.0-0.3","7717","2","9","Female","approach_avoid_spark_v1","""event"",""trial"",""time""
""fullscreenenter"",""1"",""4385""
","
","
","""event"",""trial"",""time""
""fullscreenenter"",""1"",""4385""
","
","","","","","","null","<div style=""font-size:60px;"">+</div>","null","","fixation","","","","","","","","","","",""
"aa-learning-trial","79","475213","0.0-9.0-2.0-1.3","7717","2","9","Female","approach_avoid_spark_v1","""event"",""trial"",""time""
""fullscreenenter"",""1"",""4385""
","
","
","""event"",""trial"",""time""
""fullscreenenter"",""1"",""4385""
","
","","","","","","371.89999997615814","images/bed4.png","","","learning","-6","-6","1","1","bed","furniture","2","0","","bad","[-4]"
"html-keyboard-response","80","475722","0.0-9.0-2.0-0.4","7717","2","9","Female","approach_avoid_spark_v1","""event"",""trial"",""time""
""fullscreenenter"",""1"",""4385""
","
","
","""event"",""trial"",""time""
""fullscreenenter"",""1"",""4385""
","
","","","","","","null","<div style=""font-size:60px;"">+</div>","null","","fixation","","","","","","","","","","",""
"aa-learning-trial","81","478743","0.0-9.0-2.0-1.4","7717","2","9","Female","approach_avoid_spark_v1","""event"",""trial"",""time""
""fullscreenenter"",""1"",""4385""
","
","
","""event"",""trial"",""time""
""fullscreenenter"",""1"",""4385""
","
","","","","","","1000","images/chair3.png","","","learning","6","0","0","0","chair","furniture","2","0","","good","[4]"
"html-keyboard-response","82","479253","0.0-9.0-2.0-0.5","7717","2","9","Female","approach_avoid_spark_v1","""event"",""trial"",""time""
""fullscreenenter"",""1"",""4385""
","
","
","""event"",""trial"",""time""
""fullscreenenter"",""1"",""4385""
","
","","","","","","null","<div style=""font-size:60px;"">+</div>","null","","fixation","","","","","","","","","","",""
"aa-learning-trial","83","482260","0.0-9.0-2.0-1.5","7717","2","9","Female","approach_avoid_spark_v1","""event"",""trial"",""time""
""fullscreenenter"",""1"",""4385""
","
","
","""event"",""trial"",""time""
""fullscreenenter"",""1"",""4385""
","
","","","","","","1009.6000000238419","images/sofa6.png","","","learning","8","8","1","1","sofa","furniture","2","0","","neutral","0"
"html-keyboard-response","84","482783","0.0-9.0-2.0-0.6","7717","2","9","Female","approach_avoid_spark_v1","""event"",""trial"",""time""
""fullscreenenter"",""1"",""4385""
","
","
","""event"",""trial"",""time""
""fullscreenenter"",""1"",""4385""
","
","","","","","","null","<div style=""font-size:60px;"">+</div>","null","","fixation","","","","","","","","","","",""
"aa-learning-trial","85","485802","0.0-9.0-2.0-1.6","7717","2","9","Female","approach_avoid_spark_v1","""event"",""trial"",""time""
""fullscreenenter"",""1"",""4385""
","
","
","""event"",""trial"",""time""
""fullscreenenter"",""1"",""4385""
","
","","","","","","1004.8999999761581","images/chair3.png","","","learning","6","0","0","0","chair","furniture","2","0","","good","[4]"
"html-keyboard-response","86","486312","0.0-9.0-2.0-0.7","7717","2","9","Female","approach_avoid_spark_v1","""event"",""trial"",""time""
""fullscreenenter"",""1"",""4385""
","
","
","""event"",""trial"",""time""
""fullscreenenter"",""1"",""4385""
","
","","","","","","null","<div style=""font-size:60px;"">+</div>","null","","fixation","","","","","","","","","","",""
"aa-learning-trial","87","489331","0.0-9.0-2.0-1.7","7717","2","9","Female","approach_avoid_spark_v1","""event"",""trial"",""time""
""fullscreenenter"",""1"",""4385""
","
","
","""event"",""trial"",""time""
""fullscreenenter"",""1"",""4385""
","
","","","","","","1299.6999999284744","images/sofa8.png","","","learning","-3","-3","1","1","sofa","furniture","2","0","","neutral","0"
"html-keyboard-response","88","489834","0.0-9.0-2.0-0.8","7717","2","9","Female","approach_avoid_spark_v1","""event"",""trial"",""time""
""fullscreenenter"",""1"",""4385""
","
","
","""event"",""trial"",""time""
""fullscreenenter"",""1"",""4385""
","
","","","","","","null","<div style=""font-size:60px;"">+</div>","null","","fixation","","","","","","","","","","",""
"aa-learning-trial","89","492844","0.0-9.0-2.0-1.8","7717","2","9","Female","approach_avoid_spark_v1","""event"",""trial"",""time""
""fullscreenenter"",""1"",""4385""
","
","
","""event"",""trial"",""time""
""fullscreenenter"",""1"",""4385""
","
","","","","","","408.89999997615814","images/sofa8.png","","","learning","-3","-3","1","1","sofa","furniture","2","0","","neutral","0"
"html-keyboard-response","90","493353","0.0-9.0-2.0-0.9","7717","2","9","Female","approach_avoid_spark_v1","""event"",""trial"",""time""
""fullscreenenter"",""1"",""4385""
","
","
","""event"",""trial"",""time""
""fullscreenenter"",""1"",""4385""
","
","","","","","","null","<div style=""font-size:60px;"">+</div>","null","","fixation","","","","","","","","","","",""
"aa-learning-trial","91","496367","0.0-9.0-2.0-1.9","7717","2","9","Female","approach_avoid_spark_v1","""event"",""trial"",""time""
""fullscreenenter"",""1"",""4385""
","
","
","""event"",""trial"",""time""
""fullscreenenter"",""1"",""4385""
","
","","","","","","1107.3999999761581","images/chair8.png","","","learning","-9","-9","1","1","chair","furniture","2","0","","good","[4]"
"html-keyboard-response","92","496871","0.0-9.0-2.0-0.10","7717","2","9","Female","approach_avoid_spark_v1","""event"",""trial"",""time""
""fullscreenenter"",""1"",""4385""
","
","
","""event"",""trial"",""time""
""fullscreenenter"",""1"",""4385""
","
","","","","","","null","<div style=""font-size:60px;"">+</div>","null","","fixation","","","","","","","","","","",""
"aa-learning-trial","93","499877","0.0-9.0-2.0-1.10","7717","2","9","Female","approach_avoid_spark_v1","""event"",""trial"",""time""
""fullscreenenter"",""1"",""4385""
","
","
","""event"",""trial"",""time""
""fullscreenenter"",""1"",""4385""
","
","","","","","","966.1999999284744","images/sofa6.png","","","learning","8","8","1","1","sofa","furniture","2","0","","neutral","0"
"html-keyboard-response","94","500379","0.0-9.0-2.0-0.11","7717","2","9","Female","approach_avoid_spark_v1","""event"",""trial"",""time""
""fullscreenenter"",""1"",""4385""
","
","
","""event"",""trial"",""time""
""fullscreenenter"",""1"",""4385""
","
","","","","","","null","<div style=""font-size:60px;"">+</div>","null","","fixation","","","","","","","","","","",""
"aa-learning-trial","95","503385","0.0-9.0-2.0-1.11","7717","2","9","Female","approach_avoid_spark_v1","""event"",""trial"",""time""
""fullscreenenter"",""1"",""4385""
","
","
","""event"",""trial"",""time""
""fullscreenenter"",""1"",""4385""
","
","","","","","","967.8000000715256","images/bed3.png","","","learning","1","0","0","0","bed","furniture","2","0","","bad","[-4]"
"html-keyboard-response","96","503892","0.0-9.0-2.0-0.12","7717","2","9","Female","approach_avoid_spark_v1","""event"",""trial"",""time""
""fullscreenenter"",""1"",""4385""
","
","
","""event"",""trial"",""time""
""fullscreenenter"",""1"",""4385""
","
","","","","","","null","<div style=""font-size:60px;"">+</div>","null","","fixation","","","","","","","","","","",""
"aa-learning-trial","97","506903","0.0-9.0-2.0-1.12","7717","2","9","Female","approach_avoid_spark_v1","""event"",""trial"",""time""
""fullscreenenter"",""1"",""4385""
","
","
","""event"",""trial"",""time""
""fullscreenenter"",""1"",""4385""
","
","","","","","","1003","images/sofa5.png","","","learning","5","0","0","0","sofa","furniture","2","0","","neutral","0"
"html-keyboard-response","98","507413","0.0-9.0-2.0-0.13","7717","2","9","Female","approach_avoid_spark_v1","""event"",""trial"",""time""
""fullscreenenter"",""1"",""4385""
","
","
","""event"",""trial"",""time""
""fullscreenenter"",""1"",""4385""
","
","","","","","","null","<div style=""font-size:60px;"">+</div>","null","","fixation","","","","","","","","","","",""
"aa-learning-trial","99","510423","0.0-9.0-2.0-1.13","7717","2","9","Female","approach_avoid_spark_v1","""event"",""trial"",""time""
""fullscreenenter"",""1"",""4385""
","
","
","""event"",""trial"",""time""
""fullscreenenter"",""1"",""4385""
","
","","","","","","1085.2000000476837","images/bed3.png","","","learning","1","0","0","0","bed","furniture","2","0","","bad","[-4]"
"html-keyboard-response","100","510936","0.0-9.0-2.0-0.14","7717","2","9","Female","approach_avoid_spark_v1","""event"",""trial"",""time""
""fullscreenenter"",""1"",""4385""
","
","
","""event"",""trial"",""time""
""fullscreenenter"",""1"",""4385""
","
","","","","","","null","<div style=""font-size:60px;"">+</div>","null","","fixation","","","","","","","","","","",""
"aa-learning-trial","101","513947","0.0-9.0-2.0-1.14","7717","2","9","Female","approach_avoid_spark_v1","""event"",""trial"",""time""
""fullscreenenter"",""1"",""4385""
","
","
","""event"",""trial"",""time""
""fullscreenenter"",""1"",""4385""
","
","","","","","","1137.1000000238419","images/chair5.png","","","learning","-4","0","0","0","chair","furniture","2","0","","good","[4]"
"html-keyboard-response","102","514459","0.0-9.0-2.0-0.15","7717","2","9","Female","approach_avoid_spark_v1","""event"",""trial"",""time""
""fullscreenenter"",""1"",""4385""
","
","
","""event"",""trial"",""time""
""fullscreenenter"",""1"",""4385""
","
","","","","","","null","<div style=""font-size:60px;"">+</div>","null","","fixation","","","","","","","","","","",""
"aa-learning-trial","103","517464","0.0-9.0-2.0-1.15","7717","2","9","Female","approach_avoid_spark_v1","""event"",""trial"",""time""
""fullscreenenter"",""1"",""4385""
","
","
","""event"",""trial"",""time""
""fullscreenenter"",""1"",""4385""
","
","","","","","","724.7999999523163","images/chair5.png","","","learning","-4","0","0","0","chair","furniture","2","0","","good","[4]"
"html-keyboard-response","104","517966","0.0-9.0-2.0-0.16","7717","2","9","Female","approach_avoid_spark_v1","""event"",""trial"",""time""
""fullscreenenter"",""1"",""4385""
","
","
","""event"",""trial"",""time""
""fullscreenenter"",""1"",""4385""
","
","","","","","","null","<div style=""font-size:60px;"">+</div>","null","","fixation","","","","","","","","","","",""
"aa-learning-trial","105","520972","0.0-9.0-2.0-1.16","7717","2","9","Female","approach_avoid_spark_v1","""event"",""trial"",""time""
""fullscreenenter"",""1"",""4385""
","
","
","""event"",""trial"",""time""
""fullscreenenter"",""1"",""4385""
","
","","","","","","1168.8000000715256","images/bed3.png","","","learning","1","1","1","1","bed","furniture","2","0","","bad","[-4]"
"html-keyboard-response","106","521475","0.0-9.0-2.0-0.17","7717","2","9","Female","approach_avoid_spark_v1","""event"",""trial"",""time""
""fullscreenenter"",""1"",""4385""
","
","
","""event"",""trial"",""time""
""fullscreenenter"",""1"",""4385""
","
","","","","","","null","<div style=""font-size:60px;"">+</div>","null","","fixation","","","","","","","","","","",""
"aa-learning-trial","107","524493","0.0-9.0-2.0-1.17","7717","2","9","Female","approach_avoid_spark_v1","""event"",""trial"",""time""
""fullscreenenter"",""1"",""4385""
","
","
","""event"",""trial"",""time""
""fullscreenenter"",""1"",""4385""
","
","","","","","","1212","images/bed7.png","","","learning","7","0","0","0","bed","furniture","2","0","","bad","[-4]"
"html-keyboard-response","108","524997","0.0-9.0-2.0-0.18","7717","2","9","Female","approach_avoid_spark_v1","""event"",""trial"",""time""
""fullscreenenter"",""1"",""4385""
","
","
","""event"",""trial"",""time""
""fullscreenenter"",""1"",""4385""
","
","","","","","","null","<div style=""font-size:60px;"">+</div>","null","","fixation","","","","","","","","","","",""
"aa-learning-trial","109","528004","0.0-9.0-2.0-1.18","7717","2","9","Female","approach_avoid_spark_v1","""event"",""trial"",""time""
""fullscreenenter"",""1"",""4385""
","
","
","""event"",""trial"",""time""
""fullscreenenter"",""1"",""4385""
","
","","","","","","1213.7000000476837","images/bed2.png","","","learning","3","3","1","1","bed","furniture","2","0","","bad","[-4]"
"html-keyboard-response","110","528512","0.0-9.0-2.0-0.19","7717","2","9","Female","approach_avoid_spark_v1","""event"",""trial"",""time""
""fullscreenenter"",""1"",""4385""
","
","
","""event"",""trial"",""time""
""fullscreenenter"",""1"",""4385""
","
","","","","","","null","<div style=""font-size:60px;"">+</div>","null","","fixation","","","","","","","","","","",""
"aa-learning-trial","111","531517","0.0-9.0-2.0-1.19","7717","2","9","Female","approach_avoid_spark_v1","""event"",""trial"",""time""
""fullscreenenter"",""1"",""4385""
","
","
","""event"",""trial"",""time""
""fullscreenenter"",""1"",""4385""
","
","","","","","","1007.1999999284744","images/chair1.png","","","learning","2","0","0","0","chair","furniture","2","0","","good","[4]"
"html-keyboard-response","112","532021","0.0-9.0-2.0-0.20","7717","2","9","Female","approach_avoid_spark_v1","""event"",""trial"",""time""
""fullscreenenter"",""1"",""4385""
","
","
","""event"",""trial"",""time""
""fullscreenenter"",""1"",""4385""
","
","","","","","","null","<div style=""font-size:60px;"">+</div>","null","","fixation","","","","","","","","","","",""
"aa-learning-trial","113","535031","0.0-9.0-2.0-1.20","7717","2","9","Female","approach_avoid_spark_v1","""event"",""trial"",""time""
""fullscreenenter"",""1"",""4385""
","
","
","""event"",""trial"",""time""
""fullscreenenter"",""1"",""4385""
","
","","","","","","753","images/sofa8.png","","","learning","-3","-3","1","1","sofa","furniture","2","0","","neutral","0"
"html-keyboard-response","114","535538","0.0-9.0-2.0-0.21","7717","2","9","Female","approach_avoid_spark_v1","""event"",""trial"",""time""
""fullscreenenter"",""1"",""4385""
","
","
","""event"",""trial"",""time""
""fullscreenenter"",""1"",""4385""
","
","","","","","","null","<div style=""font-size:60px;"">+</div>","null","","fixation","","","","","","","","","","",""
"aa-learning-trial","115","538540","0.0-9.0-2.0-1.21","7717","2","9","Female","approach_avoid_spark_v1","""event"",""trial"",""time""
""fullscreenenter"",""1"",""4385""
","
","
","""event"",""trial"",""time""
""fullscreenenter"",""1"",""4385""
","
","","","","","","862","images/bed2.png","","","learning","3","3","1","1","bed","furniture","2","0","","bad","[-4]"
"html-keyboard-response","116","539045","0.0-9.0-2.0-0.22","7717","2","9","Female","approach_avoid_spark_v1","""event"",""trial"",""time""
""fullscreenenter"",""1"",""4385""
","
","
","""event"",""trial"",""time""
""fullscreenenter"",""1"",""4385""
","
","","","","","","null","<div style=""font-size:60px;"">+</div>","null","","fixation","","","","","","","","","","",""
"aa-learning-trial","117","542059","0.0-9.0-2.0-1.22","7717","2","9","Female","approach_avoid_spark_v1","""event"",""trial"",""time""
""fullscreenenter"",""1"",""4385""
","
","
","""event"",""trial"",""time""
""fullscreenenter"",""1"",""4385""
","
","","","","","","1201","images/bed3.png","","","learning","1","1","1","1","bed","furniture","2","0","","bad","[-4]"
"html-keyboard-response","118","542565","0.0-9.0-2.0-0.23","7717","2","9","Female","approach_avoid_spark_v1","""event"",""trial"",""time""
""fullscreenenter"",""1"",""4385""
","
","
","""event"",""trial"",""time""
""fullscreenenter"",""1"",""4385""
","
","","","","","","null","<div style=""font-size:60px;"">+</div>","null","","fixation","","","","","","","","","","",""
"aa-learning-trial","119","545575","0.0-9.0-2.0-1.23","7717","2","9","Female","approach_avoid_spark_v1","""event"",""trial"",""time""
""fullscreenenter"",""1"",""4385""
","
","
","""event"",""trial"",""time""
""fullscreenenter"",""1"",""4385""
","
","","","","","","1296.6000000238419","images/sofa5.png","","","learning","5","5","1","1","sofa","furniture","2","0","","neutral","0"
"html-keyboard-response","120","546081","0.0-9.0-2.0-0.24","7717","2","9","Female","approach_avoid_spark_v1","""event"",""trial"",""time""
""fullscreenenter"",""1"",""4385""
","
","
","""event"",""trial"",""time""
""fullscreenenter"",""1"",""4385""
","
","","","","","","null","<div style=""font-size:60px;"">+</div>","null","","fixation","","","","","","","","","","",""
"aa-learning-trial","121","549086","0.0-9.0-2.0-1.24","7717","2","9","Female","approach_avoid_spark_v1","""event"",""trial"",""time""
""fullscreenenter"",""1"",""4385""
","
","
","""event"",""trial"",""time""
""fullscreenenter"",""1"",""4385""
","
","","","","","","866.5999999046326","images/bed3.png","","","learning","1","1","1","1","bed","furniture","2","0","","bad","[-4]"
"html-keyboard-response","122","549588","0.0-9.0-2.0-0.25","7717","2","9","Female","approach_avoid_spark_v1","""event"",""trial"",""time""
""fullscreenenter"",""1"",""4385""
","
","
","""event"",""trial"",""time""
""fullscreenenter"",""1"",""4385""
","
","","","","","","null","<div style=""font-size:60px;"">+</div>","null","","fixation","","","","","","","","","","",""
"aa-learning-trial","123","552598","0.0-9.0-2.0-1.25","7717","2","9","Female","approach_avoid_spark_v1","""event"",""trial"",""time""
""fullscreenenter"",""1"",""4385""
","
","
","""event"",""trial"",""time""
""fullscreenenter"",""1"",""4385""
","
","","","","","","1087.5","images/chair8.png","","","learning","-9","-9","1","1","chair","furniture","2","0","","good","[4]"
"html-keyboard-response","124","553106","0.0-9.0-2.0-0.26","7717","2","9","Female","approach_avoid_spark_v1","""event"",""trial"",""time""
""fullscreenenter"",""1"",""4385""
","
","
","""event"",""trial"",""time""
""fullscreenenter"",""1"",""4385""
","
","","","","","","null","<div style=""font-size:60px;"">+</div>","null","","fixation","","","","","","","","","","",""
"aa-learning-trial","125","556112","0.0-9.0-2.0-1.26","7717","2","9","Female","approach_avoid_spark_v1","""event"",""trial"",""time""
""fullscreenenter"",""1"",""4385""
","
","
","""event"",""trial"",""time""
""fullscreenenter"",""1"",""4385""
","
","","","","","","1031","images/bed4.png","","","learning","-6","-6","1","1","bed","furniture","2","0","","bad","[-4]"
"html-keyboard-response","126","556622","0.0-9.0-2.0-0.27","7717","2","9","Female","approach_avoid_spark_v1","""event"",""trial"",""time""
""fullscreenenter"",""1"",""4385""
","
","
","""event"",""trial"",""time""
""fullscreenenter"",""1"",""4385""
","
","","","","","","null","<div style=""font-size:60px;"">+</div>","null","","fixation","","","","","","","","","","",""
"aa-learning-trial","127","559636","0.0-9.0-2.0-1.27","7717","2","9","Female","approach_avoid_spark_v1","""event"",""trial"",""time""
""fullscreenenter"",""1"",""4385""
","
","
","""event"",""trial"",""time""
""fullscreenenter"",""1"",""4385""
","
","","","","","","872.5","images/sofa8.png","","","learning","-3","-3","1","1","sofa","furniture","2","0","","neutral","0"
"html-keyboard-response","128","560141","0.0-9.0-2.0-0.28","7717","2","9","Female","approach_avoid_spark_v1","""event"",""trial"",""time""
""fullscreenenter"",""1"",""4385""
","
","
","""event"",""trial"",""time""
""fullscreenenter"",""1"",""4385""
","
","","","","","","null","<div style=""font-size:60px;"">+</div>","null","","fixation","","","","","","","","","","",""
"aa-learning-trial","129","563150","0.0-9.0-2.0-1.28","7717","2","9","Female","approach_avoid_spark_v1","""event"",""trial"",""time""
""fullscreenenter"",""1"",""4385""
","
","
","""event"",""trial"",""time""
""fullscreenenter"",""1"",""4385""
","
","","","","","","891.8000000715256","images/bed2.png","","","learning","3","0","0","0","bed","furniture","2","0","","bad","[-4]"
"html-keyboard-response","130","563652","0.0-9.0-2.0-0.29","7717","2","9","Female","approach_avoid_spark_v1","""event"",""trial"",""time""
""fullscreenenter"",""1"",""4385""
","
","
","""event"",""trial"",""time""
""fullscreenenter"",""1"",""4385""
","
","","","","","","null","<div style=""font-size:60px;"">+</div>","null","","fixation","","","","","","","","","","",""
"aa-learning-trial","131","566667","0.0-9.0-2.0-1.29","7717","2","9","Female","approach_avoid_spark_v1","""event"",""trial"",""time""
""fullscreenenter"",""1"",""4385""
","
","
","""event"",""trial"",""time""
""fullscreenenter"",""1"",""4385""
","
","","","","","","1780.3000000715256","images/chair5.png","","","learning","-4","0","0","0","chair","furniture","2","0","","good","[4]"
"html-keyboard-response","132","567173","0.0-9.0-2.0-0.30","7717","2","9","Female","approach_avoid_spark_v1","""event"",""trial"",""time""
""fullscreenenter"",""1"",""4385""
","
","
","""event"",""trial"",""time""
""fullscreenenter"",""1"",""4385""
","
","","","","","","null","<div style=""font-size:60px;"">+</div>","null","","fixation","","","","","","","","","","",""
"aa-learning-trial","133","570186","0.0-9.0-2.0-1.30","7717","2","9","Female","approach_avoid_spark_v1","""event"",""trial"",""time""
""fullscreenenter"",""1"",""4385""
","
","
","""event"",""trial"",""time""
""fullscreenenter"",""1"",""4385""
","
","","","","","","910.1999999284744","images/bed4.png","","","learning","-6","-6","1","1","bed","furniture","2","0","","bad","[-4]"
"html-keyboard-response","134","570689","0.0-9.0-2.0-0.31","7717","2","9","Female","approach_avoid_spark_v1","""event"",""trial"",""time""
""fullscreenenter"",""1"",""4385""
","
","
","""event"",""trial"",""time""
""fullscreenenter"",""1"",""4385""
","
","","","","","","null","<div style=""font-size:60px;"">+</div>","null","","fixation","","","","","","","","","","",""
"aa-learning-trial","135","573693","0.0-9.0-2.0-1.31","7717","2","9","Female","approach_avoid_spark_v1","""event"",""trial"",""time""
""fullscreenenter"",""1"",""4385""
","
","
","""event"",""trial"",""time""
""fullscreenenter"",""1"",""4385""
","
","","","","","","915.2999999523163","images/sofa2.png","","","learning","-8","-8","1","1","sofa","furniture","2","0","","neutral","0"
"html-keyboard-response","136","574202","0.0-9.0-2.0-0.32","7717","2","9","Female","approach_avoid_spark_v1","""event"",""trial"",""time""
""fullscreenenter"",""1"",""4385""
","
","
","""event"",""trial"",""time""
""fullscreenenter"",""1"",""4385""
","
","","","","","","null","<div style=""font-size:60px;"">+</div>","null","","fixation","","","","","","","","","","",""
"aa-learning-trial","137","577215","0.0-9.0-2.0-1.32","7717","2","9","Female","approach_avoid_spark_v1","""event"",""trial"",""time""
""fullscreenenter"",""1"",""4385""
","
","
","""event"",""trial"",""time""
""fullscreenenter"",""1"",""4385""
","
","","","","","","1125.1000000238419","images/chair5.png","","","learning","-4","-4","1","1","chair","furniture","2","0","","good","[4]"
"html-keyboard-response","138","577719","0.0-9.0-2.0-0.33","7717","2","9","Female","approach_avoid_spark_v1","""event"",""trial"",""time""
""fullscreenenter"",""1"",""4385""
","
","
","""event"",""trial"",""time""
""fullscreenenter"",""1"",""4385""
","
","","","","","","null","<div style=""font-size:60px;"">+</div>","null","","fixation","","","","","","","","","","",""
"aa-learning-trial","139","580735","0.0-9.0-2.0-1.33","7717","2","9","Female","approach_avoid_spark_v1","""event"",""trial"",""time""
""fullscreenenter"",""1"",""4385""
","
","
","""event"",""trial"",""time""
""fullscreenenter"",""1"",""4385""
","
","","","","","","916.8999999761581","images/chair3.png","","","learning","6","6","1","1","chair","furniture","2","0","","good","[4]"
"html-keyboard-response","140","581239","0.0-9.0-2.0-0.34","7717","2","9","Female","approach_avoid_spark_v1","""event"",""trial"",""time""
""fullscreenenter"",""1"",""4385""
","
","
","""event"",""trial"",""time""
""fullscreenenter"",""1"",""4385""
","
","","","","","","null","<div style=""font-size:60px;"">+</div>","null","","fixation","","","","","","","","","","",""
"aa-learning-trial","141","584248","0.0-9.0-2.0-1.34","7717","2","9","Female","approach_avoid_spark_v1","""event"",""trial"",""time""
""fullscreenenter"",""1"",""4385""
","
","
","""event"",""trial"",""time""
""fullscreenenter"",""1"",""4385""
","
","","","","","","807.8999999761581","images/sofa6.png","","","learning","8","8","1","1","sofa","furniture","2","0","","neutral","0"
"html-keyboard-response","142","584757","0.0-9.0-2.0-0.35","7717","2","9","Female","approach_avoid_spark_v1","""event"",""trial"",""time""
""fullscreenenter"",""1"",""4385""
","
","
","""event"",""trial"",""time""
""fullscreenenter"",""1"",""4385""
","
","","","","","","null","<div style=""font-size:60px;"">+</div>","null","","fixation","","","","","","","","","","",""
"aa-learning-trial","143","587766","0.0-9.0-2.0-1.35","7717","2","9","Female","approach_avoid_spark_v1","""event"",""trial"",""time""
""fullscreenenter"",""1"",""4385""
","
","
","""event"",""trial"",""time""
""fullscreenenter"",""1"",""4385""
","
","","","","","","632","images/sofa6.png","","","learning","8","8","1","1","sofa","furniture","2","0","","neutral","0"
"html-keyboard-response","144","588275","0.0-9.0-2.0-0.36","7717","2","9","Female","approach_avoid_spark_v1","""event"",""trial"",""time""
""fullscreenenter"",""1"",""4385""
","
","
","""event"",""trial"",""time""
""fullscreenenter"",""1"",""4385""
","
","","","","","","null","<div style=""font-size:60px;"">+</div>","null","","fixation","","","","","","","","","","",""
"aa-learning-trial","145","591279","0.0-9.0-2.0-1.36","7717","2","9","Female","approach_avoid_spark_v1","""event"",""trial"",""time""
""fullscreenenter"",""1"",""4385""
","
","
","""event"",""trial"",""time""
""fullscreenenter"",""1"",""4385""
","
","","","","","","1443.6000000238419","images/sofa7.png","","","learning","-2","0","0","0","sofa","furniture","2","0","","neutral","0"
"html-keyboard-response","146","591790","0.0-9.0-2.0-0.37","7717","2","9","Female","approach_avoid_spark_v1","""event"",""trial"",""time""
""fullscreenenter"",""1"",""4385""
","
","
","""event"",""trial"",""time""
""fullscreenenter"",""1"",""4385""
","
","","","","","","null","<div style=""font-size:60px;"">+</div>","null","","fixation","","","","","","","","","","",""
"aa-learning-trial","147","594799","0.0-9.0-2.0-1.37","7717","2","9","Female","approach_avoid_spark_v1","""event"",""trial"",""time""
""fullscreenenter"",""1"",""4385""
","
","
","""event"",""trial"",""time""
""fullscreenenter"",""1"",""4385""
","
","","","","","","1599","images/sofa5.png","","","learning","5","5","1","1","sofa","furniture","2","0","","neutral","0"
"html-keyboard-response","148","595307","0.0-9.0-2.0-0.38","7717","2","9","Female","approach_avoid_spark_v1","""event"",""trial"",""time""
""fullscreenenter"",""1"",""4385""
","
","
","""event"",""trial"",""time""
""fullscreenenter"",""1"",""4385""
","
","","","","","","null","<div style=""font-size:60px;"">+</div>","null","","fixation","","","","","","","","","","",""
"aa-learning-trial","149","598325","0.0-9.0-2.0-1.38","7717","2","9","Female","approach_avoid_spark_v1","""event"",""trial"",""time""
""fullscreenenter"",""1"",""4385""
","
","
","""event"",""trial"",""time""
""fullscreenenter"",""1"",""4385""
","
","","","","","","845.3999999761581","images/chair8.png","","","learning","-9","0","0","0","chair","furniture","2","0","","good","[4]"
"html-keyboard-response","150","598834","0.0-9.0-2.0-0.39","7717","2","9","Female","approach_avoid_spark_v1","""event"",""trial"",""time""
""fullscreenenter"",""1"",""4385""
","
","
","""event"",""trial"",""time""
""fullscreenenter"",""1"",""4385""
","
","","","","","","null","<div style=""font-size:60px;"">+</div>","null","","fixation","","","","","","","","","","",""
"aa-learning-trial","151","601845","0.0-9.0-2.0-1.39","7717","2","9","Female","approach_avoid_spark_v1","""event"",""trial"",""time""
""fullscreenenter"",""1"",""4385""
","
","
","""event"",""trial"",""time""
""fullscreenenter"",""1"",""4385""
","
","","","","","","876.7000000476837","images/sofa6.png","","","learning","8","8","1","1","sofa","furniture","2","0","","neutral","0"
"html-keyboard-response","152","602351","0.0-9.0-2.0-0.40","7717","2","9","Female","approach_avoid_spark_v1","""event"",""trial"",""time""
""fullscreenenter"",""1"",""4385""
","
","
","""event"",""trial"",""time""
""fullscreenenter"",""1"",""4385""
","
","","","","","","null","<div style=""font-size:60px;"">+</div>","null","","fixation","","","","","","","","","","",""
"aa-learning-trial","153","605355","0.0-9.0-2.0-1.40","7717","2","9","Female","approach_avoid_spark_v1","""event"",""trial"",""time""
""fullscreenenter"",""1"",""4385""
","
","
","""event"",""trial"",""time""
""fullscreenenter"",""1"",""4385""
","
","","","","","","720.7999999523163","images/chair5.png","","","learning","-4","0","0","0","chair","furniture","2","0","","good","[4]"
"html-keyboard-response","154","605860","0.0-9.0-2.0-0.41","7717","2","9","Female","approach_avoid_spark_v1","""event"",""trial"",""time""
""fullscreenenter"",""1"",""4385""
","
","
","""event"",""trial"",""time""
""fullscreenenter"",""1"",""4385""
","
","","","","","","null","<div style=""font-size:60px;"">+</div>","null","","fixation","","","","","","","","","","",""
"aa-learning-trial","155","608873","0.0-9.0-2.0-1.41","7717","2","9","Female","approach_avoid_spark_v1","""event"",""trial"",""time""
""fullscreenenter"",""1"",""4385""
","
","
","""event"",""trial"",""time""
""fullscreenenter"",""1"",""4385""
","
","","","","","","664.6000000238419","images/sofa6.png","","","learning","8","8","1","1","sofa","furniture","2","0","","neutral","0"
"html-keyboard-response","156","609382","0.0-9.0-2.0-0.42","7717","2","9","Female","approach_avoid_spark_v1","""event"",""trial"",""time""
""fullscreenenter"",""1"",""4385""
","
","
","""event"",""trial"",""time""
""fullscreenenter"",""1"",""4385""
","
","","","","","","null","<div style=""font-size:60px;"">+</div>","null","","fixation","","","","","","","","","","",""
"aa-learning-trial","157","612391","0.0-9.0-2.0-1.42","7717","2","9","Female","approach_avoid_spark_v1","""event"",""trial"",""time""
""fullscreenenter"",""1"",""4385""
","
","
","""event"",""trial"",""time""
""fullscreenenter"",""1"",""4385""
","
","","","","","","855.7999999523163","images/sofa8.png","","","learning","-3","-3","1","1","sofa","furniture","2","0","","neutral","0"
"html-keyboard-response","158","612899","0.0-9.0-2.0-0.43","7717","2","9","Female","approach_avoid_spark_v1","""event"",""trial"",""time""
""fullscreenenter"",""1"",""4385""
","
","
","""event"",""trial"",""time""
""fullscreenenter"",""1"",""4385""
","
","","","","","","null","<div style=""font-size:60px;"">+</div>","null","","fixation","","","","","","","","","","",""
"aa-learning-trial","159","615906","0.0-9.0-2.0-1.43","7717","2","9","Female","approach_avoid_spark_v1","""event"",""trial"",""time""
""fullscreenenter"",""1"",""4385""
","
","
","""event"",""trial"",""time""
""fullscreenenter"",""1"",""4385""
","
","","","","","","893.2000000476837","images/bed3.png","","","learning","1","1","1","1","bed","furniture","2","0","","bad","[-4]"
"html-keyboard-response","160","616416","0.0-9.0-2.0-0.44","7717","2","9","Female","approach_avoid_spark_v1","""event"",""trial"",""time""
""fullscreenenter"",""1"",""4385""
","
","
","""event"",""trial"",""time""
""fullscreenenter"",""1"",""4385""
","
","","","","","","null","<div style=""font-size:60px;"">+</div>","null","","fixation","","","","","","","","","","",""
"aa-learning-trial","161","619426","0.0-9.0-2.0-1.44","7717","2","9","Female","approach_avoid_spark_v1","""event"",""trial"",""time""
""fullscreenenter"",""1"",""4385""
","
","
","""event"",""trial"",""time""
""fullscreenenter"",""1"",""4385""
","
","","","","","","987.1999999284744","images/chair7.png","","","learning","4","0","0","0","chair","furniture","2","0","","good","[4]"
"html-keyboard-response","162","619928","0.0-9.0-2.0-0.45","7717","2","9","Female","approach_avoid_spark_v1","""event"",""trial"",""time""
""fullscreenenter"",""1"",""4385""
","
","
","""event"",""trial"",""time""
""fullscreenenter"",""1"",""4385""
","
","","","","","","null","<div style=""font-size:60px;"">+</div>","null","","fixation","","","","","","","","","","",""
"aa-learning-trial","163","622933","0.0-9.0-2.0-1.45","7717","2","9","Female","approach_avoid_spark_v1","""event"",""trial"",""time""
""fullscreenenter"",""1"",""4385""
","
","
","""event"",""trial"",""time""
""fullscreenenter"",""1"",""4385""
","
","","","","","","1234.2000000476837","images/chair3.png","","","learning","6","6","1","1","chair","furniture","2","0","","good","[4]"
"html-keyboard-response","164","623435","0.0-9.0-2.0-0.46","7717","2","9","Female","approach_avoid_spark_v1","""event"",""trial"",""time""
""fullscreenenter"",""1"",""4385""
","
","
","""event"",""trial"",""time""
""fullscreenenter"",""1"",""4385""
","
","","","","","","null","<div style=""font-size:60px;"">+</div>","null","","fixation","","","","","","","","","","",""
"aa-learning-trial","165","626445","0.0-9.0-2.0-1.46","7717","2","9","Female","approach_avoid_spark_v1","""event"",""trial"",""time""
""fullscreenenter"",""1"",""4385""
","
","
","""event"",""trial"",""time""
""fullscreenenter"",""1"",""4385""
","
","","","","","","623.1999999284744","images/chair3.png","","","learning","6","6","1","1","chair","furniture","2","0","","good","[4]"
"html-keyboard-response","166","626956","0.0-9.0-2.0-0.47","7717","2","9","Female","approach_avoid_spark_v1","""event"",""trial"",""time""
""fullscreenenter"",""1"",""4385""
","
","
","""event"",""trial"",""time""
""fullscreenenter"",""1"",""4385""
","
","","","","","","null","<div style=""font-size:60px;"">+</div>","null","","fixation","","","","","","","","","","",""
"aa-learning-trial","167","629973","0.0-9.0-2.0-1.47","7717","2","9","Female","approach_avoid_spark_v1","""event"",""trial"",""time""
""fullscreenenter"",""1"",""4385""
","
","
","""event"",""trial"",""time""
""fullscreenenter"",""1"",""4385""
","
","","","","","","555.1999999284744","images/chair3.png","","","learning","6","6","1","1","chair","furniture","2","0","","good","[4]"
"html-keyboard-response","168","630476","0.0-9.0-2.0-0.48","7717","2","9","Female","approach_avoid_spark_v1","""event"",""trial"",""time""
""fullscreenenter"",""1"",""4385""
","
","
","""event"",""trial"",""time""
""fullscreenenter"",""1"",""4385""
","
","","","","","","null","<div style=""font-size:60px;"">+</div>","null","","fixation","","","","","","","","","","",""
"aa-learning-trial","169","633480","0.0-9.0-2.0-1.48","7717","2","9","Female","approach_avoid_spark_v1","""event"",""trial"",""time""
""fullscreenenter"",""1"",""4385""
","
","
","""event"",""trial"",""time""
""fullscreenenter"",""1"",""4385""
","
","","","","","","1402.5","images/bed1.png","","","learning","-5","0","0","0","bed","furniture","2","0","","bad","[-4]"
"html-keyboard-response","170","633983","0.0-9.0-2.0-0.49","7717","2","9","Female","approach_avoid_spark_v1","""event"",""trial"",""time""
""fullscreenenter"",""1"",""4385""
","
","
","""event"",""trial"",""time""
""fullscreenenter"",""1"",""4385""
","
","","","","","","null","<div style=""font-size:60px;"">+</div>","null","","fixation","","","","","","","","","","",""
"aa-learning-trial","171","636991","0.0-9.0-2.0-1.49","7717","2","9","Female","approach_avoid_spark_v1","""event"",""trial"",""time""
""fullscreenenter"",""1"",""4385""
","
","
","""event"",""trial"",""time""
""fullscreenenter"",""1"",""4385""
","
","","","","","","743.5","images/sofa8.png","","","learning","-3","-3","1","1","sofa","furniture","2","0","","neutral","0"
"html-keyboard-response","172","637497","0.0-9.0-2.0-0.50","7717","2","9","Female","approach_avoid_spark_v1","""event"",""trial"",""time""
""fullscreenenter"",""1"",""4385""
","
","
","""event"",""trial"",""time""
""fullscreenenter"",""1"",""4385""
","
","","","","","","null","<div style=""font-size:60px;"">+</div>","null","","fixation","","","","","","","","","","",""
"aa-learning-trial","173","640508","0.0-9.0-2.0-1.50","7717","2","9","Female","approach_avoid_spark_v1","""event"",""trial"",""time""
""fullscreenenter"",""1"",""4385""
","
","
","""event"",""trial"",""time""
""fullscreenenter"",""1"",""4385""
","
","","","","","","1334","images/bed2.png","","","learning","3","3","1","1","bed","furniture","2","0","","bad","[-4]"
"html-button-response","174","642826","0.0-9.0-3.0","7717","2","9","Female","approach_avoid_spark_v1","""event"",""trial"",""time""
""fullscreenenter"",""1"",""4385""
","
","
","""event"",""trial"",""time""
""fullscreenenter"",""1"",""4385""
","
","","","","","","2316.399999976158","<p> You have completed the round! <p> In this round, you earned 27 points! </p>","0","","break","","","","","","","","","","",""
"html-button-response","175","643774","0.0-10.0","7717","2","9","Female","approach_avoid_spark_v1","""event"",""trial"",""time""
""fullscreenenter"",""1"",""4385""
","
","
","""event"",""trial"",""time""
""fullscreenenter"",""1"",""4385""
","
","","","","","","947.1000000238419","<p> Now it's time to play another round. </p>","0","","transition_screen","","","","","","","","","","",""
"preload","176","643912","0.0-11.0-0.0","7717","2","9","Female","approach_avoid_spark_v1","""event"",""trial"",""time""
""fullscreenenter"",""1"",""4385""
","
","
","""event"",""trial"",""time""
""fullscreenenter"",""1"",""4385""
","
","true","false","[]","[]","[]","","","","","","","","","","","","","","","",""
"learning-instructions","177","654835","0.0-11.0-1.0-0.0","7717","2","9","Female","approach_avoid_spark_v1","""event"",""trial"",""time""
""fullscreenenter"",""1"",""4385""
","
","
","""event"",""trial"",""time""
""fullscreenenter"",""1"",""4385""
","
","","","","","","5200","<p> Your goal in this round is to take care of lots of farm animals. </p></div>","","0","instructions","","","","","","","","","","",""
"learning-instructions","178","666035","0.0-11.0-1.0-0.1","7717","2","9","Female","approach_avoid_spark_v1","""event"",""trial"",""time""
""fullscreenenter"",""1"",""4385""
","
","
","""event"",""trial"",""time""
""fullscreenenter"",""1"",""4385""
","
","","","","","","870.7999999523163","<p> Some farm animals are hungry, while other farm animals are already full.  </p><p> On each turn, you will see a farm animal.   </p><p> You need to decide whether to feed it or not.  </p>","","0","instructions","","","","","","","","","","",""
"learning-instructions","179","674165","0.0-11.0-1.0-0.2","7717","2","9","Female","approach_avoid_spark_v1","""event"",""trial"",""time""
""fullscreenenter"",""1"",""4385""
","
","
","""event"",""trial"",""time""
""fullscreenenter"",""1"",""4385""
","
","","","","","","1830.2000000476837","<p> You can feed the farm animal by pressing 1 and leave the farm animal alone by pressing 0. </p><br><div class=""choice-instructions-grid""> <div class=""choice-option""><img src=""images/approach.png"" class=""choice-option-img"" stage=""instructions"" position=""0"" ><div class=""choice-option-text""> Press ""1."" </div></div><div class=""choice-option""><img src=""images/avoid.png"" class=""choice-option-img"" stage=""instructions"" position=""1"" ><div class=""choice-option-text""> Press ""0."" </div></div>","","0","instructions","","","","","","","","","","",""
"learning-instructions","180","686452","0.0-11.0-1.0-0.3","7717","2","9","Female","approach_avoid_spark_v1","""event"",""trial"",""time""
""fullscreenenter"",""1"",""4385""
","
","
","""event"",""trial"",""time""
""fullscreenenter"",""1"",""4385""
","
","","","","","","2418.100000023842","<p> If you feed a hungry farm animal, you will make it feel satisfied! </p><p> But if you feed the farm animal and it was already full, you will make it feel sick. </p>","","0","instructions","","","","","","","","","","",""
"learning-instructions","181","700154","0.0-11.0-1.0-0.4","7717","2","9","Female","approach_avoid_spark_v1","""event"",""trial"",""time""
""fullscreenenter"",""1"",""4385""
","
","
","""event"",""trial"",""time""
""fullscreenenter"",""1"",""4385""
","
","","","","","","1049.9000000953674","<p> You will earn points based on how you made the farm animal feel. </p><p> If you made it satisfied, you will WIN anywhere from 1 - 9 points, </p><p> but if you made it sick, you will LOSE anywhere from 1 - 9 points. </p>","","0","instructions","","","","","","","","","","",""
"learning-instructions","182","707734","0.0-11.0-1.0-0.5","7717","2","9","Female","approach_avoid_spark_v1","""event"",""trial"",""time""
""fullscreenenter"",""1"",""4385""
","
","
","""event"",""trial"",""time""
""fullscreenenter"",""1"",""4385""
","
","","","","","","910","<p> You will see how many points you won or lost in the center of the screen. </p><p> Here is what you would see if you won 5 points: </p><p style=""color:green;font-size:50px;font-weight:bolder"">5</p>","","0","instructions","","","","","","","","","","",""
"learning-instructions","183","711551","0.0-11.0-1.0-0.6","7717","2","9","Female","approach_avoid_spark_v1","""event"",""trial"",""time""
""fullscreenenter"",""1"",""4385""
","
","
","""event"",""trial"",""time""
""fullscreenenter"",""1"",""4385""
","
","","","","","","966.4000000953674","<p> And here is what you would see if you lost 3 points: </p><p style=""color:red;font-size:50px;font-weight:bolder"">-3</p>","","0","instructions","","","","","","","","","","",""
"learning-instructions","184","728143","0.0-11.0-1.0-0.7","7717","2","9","Female","approach_avoid_spark_v1","""event"",""trial"",""time""
""fullscreenenter"",""1"",""4385""
","
","
","""event"",""trial"",""time""
""fullscreenenter"",""1"",""4385""
","
","","","","","","809.6999999284744","<p> Some farm animals will become very satisfied or very sick. </p><p> These farm animals will make you win or lose LOTS of points. </p><p> Other farm animals have less strong feelings. </p><p> These farm animals will make you win or lose small amounts of points. </p>","","0","instructions","","","","","","","","","","",""
"learning-instructions","185","741564","0.0-11.0-1.0-0.8","7717","2","9","Female","approach_avoid_spark_v1","""event"",""trial"",""time""
""fullscreenenter"",""1"",""4385""
","
","
","""event"",""trial"",""time""
""fullscreenenter"",""1"",""4385""
","
","","","","","","980","<p> If you choose to leave the farm animal alone, you will not win or lose any points. </p><p>  However, in the center of the screen, you will see the number of points you WOULD HAVE won or lost if you had fed the farm animal. </p>","","0","instructions","","","","","","","","","","",""
"learning-instructions","186","754154","0.0-11.0-1.0-0.9","7717","2","9","Female","approach_avoid_spark_v1","""event"",""trial"",""time""
""fullscreenenter"",""1"",""4385""
","
","
","""event"",""trial"",""time""
""fullscreenenter"",""1"",""4385""
","
","","","","","","961","<p> Here is what you might see if you did not feed the farm animal but the animal was hungry: </p><p style=""color:grey; font-size:50px; display: inline-block; border-spacing: 15px; border-width:3px; border-style:solid; border-color:red"">  &nbsp; 6 &nbsp; </p><p> Remember, in this case, you would not win or lose ANY points because you did not feed the farm animal.  </p>","","0","instructions","","","","","","","","","","",""
"learning-instructions","187","765004","0.0-11.0-1.0-0.10","7717","2","9","Female","approach_avoid_spark_v1","""event"",""trial"",""time""
""fullscreenenter"",""1"",""4385""
","
","
","""event"",""trial"",""time""
""fullscreenenter"",""1"",""4385""
","
","","","","","","2580.100000023842","<p> Try to make the best choice for each farm animal because </p><p> at the end of the game, you will earn bonus money based on how many points you earned. </p>","","0","instructions","","","","","","","","","","",""
"learning-instructions","188","774124","0.0-11.0-1.0-0.11","7717","2","9","Female","approach_avoid_spark_v1","""event"",""trial"",""time""
""fullscreenenter"",""1"",""4385""
","
","
","""event"",""trial"",""time""
""fullscreenenter"",""1"",""4385""
","
","","","","","","920.8000000715256","<p> You will have 3 seconds to make each choice. Try to respond before time runs out! </p><p> You will lose 5 points each time you do not make a response. </p>","","0","instructions","","","","","","","","","","",""
"html-keyboard-response","189","774744","0.0-11.0-2.0-0.0","7717","2","9","Female","approach_avoid_spark_v1","""event"",""trial"",""time""
""fullscreenenter"",""1"",""4385""
","
","
","""event"",""trial"",""time""
""fullscreenenter"",""1"",""4385""
","
","","","","","","null","<div style=""font-size:60px;"">+</div>","null","","fixation","","","","","","","","","","",""
"aa-learning-trial","190","777752","0.0-11.0-2.0-1.0","7717","2","9","Female","approach_avoid_spark_v1","""event"",""trial"",""time""
""fullscreenenter"",""1"",""4385""
","
","
","""event"",""trial"",""time""
""fullscreenenter"",""1"",""4385""
","
","","","","","","1508","images/horse1.png","","","learning","-3","-3","1","1","horse","animals","1","1","","bad","[-3]"
"html-keyboard-response","191","778272","0.0-11.0-2.0-0.1","7717","2","9","Female","approach_avoid_spark_v1","""event"",""trial"",""time""
""fullscreenenter"",""1"",""4385""
","
","
","""event"",""trial"",""time""
""fullscreenenter"",""1"",""4385""
","
","","","","","","null","<div style=""font-size:60px;"">+</div>","null","","fixation","","","","","","","","","","",""
"aa-learning-trial","192","781282","0.0-11.0-2.0-1.1","7717","2","9","Female","approach_avoid_spark_v1","""event"",""trial"",""time""
""fullscreenenter"",""1"",""4385""
","
","
","""event"",""trial"",""time""
""fullscreenenter"",""1"",""4385""
","
","","","","","","833.1000000238419","images/goat4.png","","","learning","[1]","1","1","1","goat","animals","1","1","","neutral","0"
"html-keyboard-response","193","781792","0.0-11.0-2.0-0.2","7717","2","9","Female","approach_avoid_spark_v1","""event"",""trial"",""time""
""fullscreenenter"",""1"",""4385""
","
","
","""event"",""trial"",""time""
""fullscreenenter"",""1"",""4385""
","
","","","","","","null","<div style=""font-size:60px;"">+</div>","null","","fixation","","","","","","","","","","",""
"aa-learning-trial","194","784812","0.0-11.0-2.0-1.2","7717","2","9","Female","approach_avoid_spark_v1","""event"",""trial"",""time""
""fullscreenenter"",""1"",""4385""
","
","
","""event"",""trial"",""time""
""fullscreenenter"",""1"",""4385""
","
","","","","","","805.3999999761581","images/horse2.png","","","learning","-5","-5","1","1","horse","animals","1","1","","bad","[-3]"
"html-keyboard-response","195","785322","0.0-11.0-2.0-0.3","7717","2","9","Female","approach_avoid_spark_v1","""event"",""trial"",""time""
""fullscreenenter"",""1"",""4385""
","
","
","""event"",""trial"",""time""
""fullscreenenter"",""1"",""4385""
","
","","","","","","null","<div style=""font-size:60px;"">+</div>","null","","fixation","","","","","","","","","","",""
"aa-learning-trial","196","788343","0.0-11.0-2.0-1.3","7717","2","9","Female","approach_avoid_spark_v1","""event"",""trial"",""time""
""fullscreenenter"",""1"",""4385""
","
","
","""event"",""trial"",""time""
""fullscreenenter"",""1"",""4385""
","
","","","","","","818.8000000715256","images/horse7.png","","","learning","-2","0","0","0","horse","animals","1","1","","bad","[-3]"
"html-keyboard-response","197","788862","0.0-11.0-2.0-0.4","7717","2","9","Female","approach_avoid_spark_v1","""event"",""trial"",""time""
""fullscreenenter"",""1"",""4385""
","
","
","""event"",""trial"",""time""
""fullscreenenter"",""1"",""4385""
","
","","","","","","null","<div style=""font-size:60px;"">+</div>","null","","fixation","","","","","","","","","","",""
"aa-learning-trial","198","791883","0.0-11.0-2.0-1.4","7717","2","9","Female","approach_avoid_spark_v1","""event"",""trial"",""time""
""fullscreenenter"",""1"",""4385""
","
","
","""event"",""trial"",""time""
""fullscreenenter"",""1"",""4385""
","
","","","","","","676.3999999761581","images/horse1.png","","","learning","-3","0","0","0","horse","animals","1","1","","bad","[-3]"
"html-keyboard-response","199","792392","0.0-11.0-2.0-0.5","7717","2","9","Female","approach_avoid_spark_v1","""event"",""trial"",""time""
""fullscreenenter"",""1"",""4385""
","
","
","""event"",""trial"",""time""
""fullscreenenter"",""1"",""4385""
","
","","","","","","null","<div style=""font-size:60px;"">+</div>","null","","fixation","","","","","","","","","","",""
"aa-learning-trial","200","795402","0.0-11.0-2.0-1.5","7717","2","9","Female","approach_avoid_spark_v1","""event"",""trial"",""time""
""fullscreenenter"",""1"",""4385""
","
","
","""event"",""trial"",""time""
""fullscreenenter"",""1"",""4385""
","
","","","","","","618.8000000715256","images/sheep2.png","","","learning","5","5","1","1","sheep","animals","1","1","","good","[3]"
"html-keyboard-response","201","795912","0.0-11.0-2.0-0.6","7717","2","9","Female","approach_avoid_spark_v1","""event"",""trial"",""time""
""fullscreenenter"",""1"",""4385""
","
","
","""event"",""trial"",""time""
""fullscreenenter"",""1"",""4385""
","
","","","","","","null","<div style=""font-size:60px;"">+</div>","null","","fixation","","","","","","","","","","",""
"aa-learning-trial","202","798923","0.0-11.0-2.0-1.6","7717","2","9","Female","approach_avoid_spark_v1","""event"",""trial"",""time""
""fullscreenenter"",""1"",""4385""
","
","
","""event"",""trial"",""time""
""fullscreenenter"",""1"",""4385""
","
","","","","","","910","images/sheep6.png","","","learning","4","4","1","1","sheep","animals","1","1","","good","[3]"
"html-keyboard-response","203","799442","0.0-11.0-2.0-0.7","7717","2","9","Female","approach_avoid_spark_v1","""event"",""trial"",""time""
""fullscreenenter"",""1"",""4385""
","
","
","""event"",""trial"",""time""
""fullscreenenter"",""1"",""4385""
","
","","","","","","null","<div style=""font-size:60px;"">+</div>","null","","fixation","","","","","","","","","","",""
"aa-learning-trial","204","802463","0.0-11.0-2.0-1.7","7717","2","9","Female","approach_avoid_spark_v1","""event"",""trial"",""time""
""fullscreenenter"",""1"",""4385""
","
","
","""event"",""trial"",""time""
""fullscreenenter"",""1"",""4385""
","
","","","","","","527.5","images/sheep4.png","","","learning","5","5","1","1","sheep","animals","1","1","","good","[3]"
"html-keyboard-response","205","802972","0.0-11.0-2.0-0.8","7717","2","9","Female","approach_avoid_spark_v1","""event"",""trial"",""time""
""fullscreenenter"",""1"",""4385""
","
","
","""event"",""trial"",""time""
""fullscreenenter"",""1"",""4385""
","
","","","","","","null","<div style=""font-size:60px;"">+</div>","null","","fixation","","","","","","","","","","",""
"aa-learning-trial","206","805977","0.0-11.0-2.0-1.8","7717","2","9","Female","approach_avoid_spark_v1","""event"",""trial"",""time""
""fullscreenenter"",""1"",""4385""
","
","
","""event"",""trial"",""time""
""fullscreenenter"",""1"",""4385""
","
","","","","","","1007.1999999284744","images/goat2.png","","","learning","1","1","1","1","goat","animals","1","1","","neutral","0"
"html-keyboard-response","207","806486","0.0-11.0-2.0-0.9","7717","2","9","Female","approach_avoid_spark_v1","""event"",""trial"",""time""
""fullscreenenter"",""1"",""4385""
","
","
","""event"",""trial"",""time""
""fullscreenenter"",""1"",""4385""
","
","","","","","","null","<div style=""font-size:60px;"">+</div>","null","","fixation","","","","","","","","","","",""
"aa-learning-trial","208","809495","0.0-11.0-2.0-1.9","7717","2","9","Female","approach_avoid_spark_v1","""event"",""trial"",""time""
""fullscreenenter"",""1"",""4385""
","
","
","""event"",""trial"",""time""
""fullscreenenter"",""1"",""4385""
","
","","","","","","759.6999999284744","images/goat4.png","","","learning","-1","-1","1","1","goat","animals","1","1","","neutral","0"
"html-keyboard-response","209","810002","0.0-11.0-2.0-0.10","7717","2","9","Female","approach_avoid_spark_v1","""event"",""trial"",""time""
""fullscreenenter"",""1"",""4385""
","
","
","""event"",""trial"",""time""
""fullscreenenter"",""1"",""4385""
","
","","","","","","null","<div style=""font-size:60px;"">+</div>","null","","fixation","","","","","","","","","","",""
"aa-learning-trial","210","813004","0.0-11.0-2.0-1.10","7717","2","9","Female","approach_avoid_spark_v1","""event"",""trial"",""time""
""fullscreenenter"",""1"",""4385""
","
","
","""event"",""trial"",""time""
""fullscreenenter"",""1"",""4385""
","
","","","","","","900.5","images/goat3.png","","","learning","[1]","1","1","1","goat","animals","1","1","","neutral","0"
"html-keyboard-response","211","813507","0.0-11.0-2.0-0.11","7717","2","9","Female","approach_avoid_spark_v1","""event"",""trial"",""time""
""fullscreenenter"",""1"",""4385""
","
","
","""event"",""trial"",""time""
""fullscreenenter"",""1"",""4385""
","
","","","","","","null","<div style=""font-size:60px;"">+</div>","null","","fixation","","","","","","","","","","",""
"aa-learning-trial","212","816510","0.0-11.0-2.0-1.11","7717","2","9","Female","approach_avoid_spark_v1","""event"",""trial"",""time""
""fullscreenenter"",""1"",""4385""
","
","
","""event"",""trial"",""time""
""fullscreenenter"",""1"",""4385""
","
","","","","","","733","images/horse7.png","","","learning","-3","0","0","0","horse","animals","1","1","","bad","[-3]"
"html-keyboard-response","213","817020","0.0-11.0-2.0-0.12","7717","2","9","Female","approach_avoid_spark_v1","""event"",""trial"",""time""
""fullscreenenter"",""1"",""4385""
","
","
","""event"",""trial"",""time""
""fullscreenenter"",""1"",""4385""
","
","","","","","","null","<div style=""font-size:60px;"">+</div>","null","","fixation","","","","","","","","","","",""
"aa-learning-trial","214","820033","0.0-11.0-2.0-1.12","7717","2","9","Female","approach_avoid_spark_v1","""event"",""trial"",""time""
""fullscreenenter"",""1"",""4385""
","
","
","""event"",""trial"",""time""
""fullscreenenter"",""1"",""4385""
","
","","","","","","929.8999999761581","images/sheep4.png","","","learning","2","2","1","1","sheep","animals","1","1","","good","[3]"
"html-keyboard-response","215","820538","0.0-11.0-2.0-0.13","7717","2","9","Female","approach_avoid_spark_v1","""event"",""trial"",""time""
""fullscreenenter"",""1"",""4385""
","
","
","""event"",""trial"",""time""
""fullscreenenter"",""1"",""4385""
","
","","","","","","null","<div style=""font-size:60px;"">+</div>","null","","fixation","","","","","","","","","","",""
"aa-learning-trial","216","823549","0.0-11.0-2.0-1.13","7717","2","9","Female","approach_avoid_spark_v1","""event"",""trial"",""time""
""fullscreenenter"",""1"",""4385""
","
","
","""event"",""trial"",""time""
""fullscreenenter"",""1"",""4385""
","
","","","","","","819.8000000715256","images/goat2.png","","","learning","[1]","1","1","1","goat","animals","1","1","","neutral","0"
"html-keyboard-response","217","824054","0.0-11.0-2.0-0.14","7717","2","9","Female","approach_avoid_spark_v1","""event"",""trial"",""time""
""fullscreenenter"",""1"",""4385""
","
","
","""event"",""trial"",""time""
""fullscreenenter"",""1"",""4385""
","
","","","","","","null","<div style=""font-size:60px;"">+</div>","null","","fixation","","","","","","","","","","",""
"aa-learning-trial","218","827061","0.0-11.0-2.0-1.14","7717","2","9","Female","approach_avoid_spark_v1","""event"",""trial"",""time""
""fullscreenenter"",""1"",""4385""
","
","
","""event"",""trial"",""time""
""fullscreenenter"",""1"",""4385""
","
","","","","","","1346.7000000476837","images/sheep2.png","","","learning","2","2","1","1","sheep","animals","1","1","","good","[3]"
"html-keyboard-response","219","827578","0.0-11.0-2.0-0.15","7717","2","9","Female","approach_avoid_spark_v1","""event"",""trial"",""time""
""fullscreenenter"",""1"",""4385""
","
","
","""event"",""trial"",""time""
""fullscreenenter"",""1"",""4385""
","
","","","","","","null","<div style=""font-size:60px;"">+</div>","null","","fixation","","","","","","","","","","",""
"aa-learning-trial","220","830586","0.0-11.0-2.0-1.15","7717","2","9","Female","approach_avoid_spark_v1","""event"",""trial"",""time""
""fullscreenenter"",""1"",""4385""
","
","
","""event"",""trial"",""time""
""fullscreenenter"",""1"",""4385""
","
","","","","","","628.8999999761581","images/sheep2.png","","","learning","2","2","1","1","sheep","animals","1","1","","good","[3]"
"html-keyboard-response","221","831094","0.0-11.0-2.0-0.16","7717","2","9","Female","approach_avoid_spark_v1","""event"",""trial"",""time""
""fullscreenenter"",""1"",""4385""
","
","
","""event"",""trial"",""time""
""fullscreenenter"",""1"",""4385""
","
","","","","","","null","<div style=""font-size:60px;"">+</div>","null","","fixation","","","","","","","","","","",""
"aa-learning-trial","222","834097","0.0-11.0-2.0-1.16","7717","2","9","Female","approach_avoid_spark_v1","""event"",""trial"",""time""
""fullscreenenter"",""1"",""4385""
","
","
","""event"",""trial"",""time""
""fullscreenenter"",""1"",""4385""
","
","","","","","","1105.6999999284744","images/sheep4.png","","","learning","3","3","1","1","sheep","animals","1","1","","good","[3]"
"html-keyboard-response","223","834602","0.0-11.0-2.0-0.17","7717","2","9","Female","approach_avoid_spark_v1","""event"",""trial"",""time""
""fullscreenenter"",""1"",""4385""
","
","
","""event"",""trial"",""time""
""fullscreenenter"",""1"",""4385""
","
","","","","","","null","<div style=""font-size:60px;"">+</div>","null","","fixation","","","","","","","","","","",""
"aa-learning-trial","224","837607","0.0-11.0-2.0-1.17","7717","2","9","Female","approach_avoid_spark_v1","""event"",""trial"",""time""
""fullscreenenter"",""1"",""4385""
","
","
","""event"",""trial"",""time""
""fullscreenenter"",""1"",""4385""
","
","","","","","","755.8000000715256","images/sheep6.png","","","learning","4","4","1","1","sheep","animals","1","1","","good","[3]"
"html-keyboard-response","225","838117","0.0-11.0-2.0-0.18","7717","2","9","Female","approach_avoid_spark_v1","""event"",""trial"",""time""
""fullscreenenter"",""1"",""4385""
","
","
","""event"",""trial"",""time""
""fullscreenenter"",""1"",""4385""
","
","","","","","","null","<div style=""font-size:60px;"">+</div>","null","","fixation","","","","","","","","","","",""
"aa-learning-trial","226","841120","0.0-11.0-2.0-1.18","7717","2","9","Female","approach_avoid_spark_v1","""event"",""trial"",""time""
""fullscreenenter"",""1"",""4385""
","
","
","""event"",""trial"",""time""
""fullscreenenter"",""1"",""4385""
","
","","","","","","720.1000000238419","images/goat3.png","","","learning","[1]","1","1","1","goat","animals","1","1","","neutral","0"
"html-keyboard-response","227","841628","0.0-11.0-2.0-0.19","7717","2","9","Female","approach_avoid_spark_v1","""event"",""trial"",""time""
""fullscreenenter"",""1"",""4385""
","
","
","""event"",""trial"",""time""
""fullscreenenter"",""1"",""4385""
","
","","","","","","null","<div style=""font-size:60px;"">+</div>","null","","fixation","","","","","","","","","","",""
"aa-learning-trial","228","844667","0.0-11.0-2.0-1.19","7717","2","9","Female","approach_avoid_spark_v1","""event"",""trial"",""time""
""fullscreenenter"",""1"",""4385""
","
","
","""event"",""trial"",""time""
""fullscreenenter"",""1"",""4385""
","
","","","","","","1001.1000000238419","images/horse2.png","","","learning","-2","0","0","0","horse","animals","1","1","","bad","[-3]"
"html-keyboard-response","229","845208","0.0-11.0-2.0-0.20","7717","2","9","Female","approach_avoid_spark_v1","""event"",""trial"",""time""
""fullscreenenter"",""1"",""4385""
","
","
","""event"",""trial"",""time""
""fullscreenenter"",""1"",""4385""
","
","","","","","","null","<div style=""font-size:60px;"">+</div>","null","","fixation","","","","","","","","","","",""
"aa-learning-trial","230","848243","0.0-11.0-2.0-1.20","7717","2","9","Female","approach_avoid_spark_v1","""event"",""trial"",""time""
""fullscreenenter"",""1"",""4385""
","
","
","""event"",""trial"",""time""
""fullscreenenter"",""1"",""4385""
","
","","","","","","759.3999999761581","images/goat2.png","","","learning","1","1","1","1","goat","animals","1","1","","neutral","0"
"html-keyboard-response","231","848745","0.0-11.0-2.0-0.21","7717","2","9","Female","approach_avoid_spark_v1","""event"",""trial"",""time""
""fullscreenenter"",""1"",""4385""
","
","
","""event"",""trial"",""time""
""fullscreenenter"",""1"",""4385""
","
","","","","","","null","<div style=""font-size:60px;"">+</div>","null","","fixation","","","","","","","","","","",""
"aa-learning-trial","232","851753","0.0-11.0-2.0-1.21","7717","2","9","Female","approach_avoid_spark_v1","""event"",""trial"",""time""
""fullscreenenter"",""1"",""4385""
","
","
","""event"",""trial"",""time""
""fullscreenenter"",""1"",""4385""
","
","","","","","","1296.2999999523163","images/goat5.png","","","learning","1","1","1","1","goat","animals","1","1","","neutral","0"
"html-keyboard-response","233","852262","0.0-11.0-2.0-0.22","7717","2","9","Female","approach_avoid_spark_v1","""event"",""trial"",""time""
""fullscreenenter"",""1"",""4385""
","
","
","""event"",""trial"",""time""
""fullscreenenter"",""1"",""4385""
","
","","","","","","null","<div style=""font-size:60px;"">+</div>","null","","fixation","","","","","","","","","","",""
"aa-learning-trial","234","855271","0.0-11.0-2.0-1.22","7717","2","9","Female","approach_avoid_spark_v1","""event"",""trial"",""time""
""fullscreenenter"",""1"",""4385""
","
","
","""event"",""trial"",""time""
""fullscreenenter"",""1"",""4385""
","
","","","","","","727.3999999761581","images/horse1.png","","","learning","-3","-3","1","1","horse","animals","1","1","","bad","[-3]"
"html-keyboard-response","235","855773","0.0-11.0-2.0-0.23","7717","2","9","Female","approach_avoid_spark_v1","""event"",""trial"",""time""
""fullscreenenter"",""1"",""4385""
","
","
","""event"",""trial"",""time""
""fullscreenenter"",""1"",""4385""
","
","","","","","","null","<div style=""font-size:60px;"">+</div>","null","","fixation","","","","","","","","","","",""
"aa-learning-trial","236","858777","0.0-11.0-2.0-1.23","7717","2","9","Female","approach_avoid_spark_v1","""event"",""trial"",""time""
""fullscreenenter"",""1"",""4385""
","
","
","""event"",""trial"",""time""
""fullscreenenter"",""1"",""4385""
