"trial_type","trial_index","time_elapsed","internal_node_id","subject_id","task_condition","age","gender","task_version","interactions","blur_events","focus_events","fullscreenenter_events","fullscreenexit_events","success","timeout","failed_images","failed_audio","failed_video","rt","stimulus","response","button_pressed","task_part","approach_reward","points","key_press","option_selected","stim_cat","task_block","block_condition","block_number","correct","cat_type","mean_cat_reward"
"pavlovia","0","3","0.0-0.0","4526","2","24","Female","approach_avoid_spark_v1","""event"",""trial"",""time""
""fullscreenenter"",""1"",""10726""
","
","
","""event"",""trial"",""time""
""fullscreenenter"",""1"",""10726""
","
","","","","","","","","","","","","","","","","","","","","",""
"fullscreen","1","11714","0.0-1.0","4526","2","24","Female","approach_avoid_spark_v1","""event"",""trial"",""time""
""fullscreenenter"",""1"",""10726""
","
","
","""event"",""trial"",""time""
""fullscreenenter"",""1"",""10726""
","
","true","","","","","","","","","","","","","","","","","","","",""
"preload","2","16147","0.0-2.0","4526","2","24","Female","approach_avoid_spark_v1","""event"",""trial"",""time""
""fullscreenenter"",""1"",""10726""
","
","
","""event"",""trial"",""time""
""fullscreenenter"",""1"",""10726""
","
","true","false","[]","[]","[]","","","","","","","","","","","","","","","",""
"audio-keyboard-response","3","18173","0.0-3.0","4526","2","24","Female","approach_avoid_spark_v1","""event"",""trial"",""time""
""fullscreenenter"",""1"",""10726""
","
","
","""event"",""trial"",""time""
""fullscreenenter"",""1"",""10726""
","
","","","","","","2025.9410430839005","audio/beep_loop.wav"," ","","","","","","","","","","","","",""
"audio-button-response","4","21323","0.0-4.0","4526","2","24","Female","approach_avoid_spark_v1","""event"",""trial"",""time""
""fullscreenenter"",""1"",""10726""
","
","
","""event"",""trial"",""time""
""fullscreenenter"",""1"",""10726""
","
","","","","","","3152","audio/shark.wav","4","","","","","","","","","","","","",""
"audio-button-response","5","23680","0.0-5.0","4526","2","24","Female","approach_avoid_spark_v1","""event"",""trial"",""time""
""fullscreenenter"",""1"",""10726""
","
","
","""event"",""trial"",""time""
""fullscreenenter"",""1"",""10726""
","
","","","","","","1358","audio/turtle.wav","1","","","","","","","","","","","","",""
"preload","6","26732","0.0-6.0","4526","2","24","Female","approach_avoid_spark_v1","""event"",""trial"",""time""
""fullscreenenter"",""1"",""10726""
","
","
","""event"",""trial"",""time""
""fullscreenenter"",""1"",""10726""
","
","true","false","[]","[]","[]","","","","","","","","","","","","","","","",""
"html-keyboard-response","7","28242","0.0-7.0","4526","2","24","Female","approach_avoid_spark_v1","""event"",""trial"",""time""
""fullscreenenter"",""1"",""10726""
","
","
","""event"",""trial"",""time""
""fullscreenenter"",""1"",""10726""
","
","","","","","","1509","Welcome to the experiment. Press any key to begin and to advance the instructions."," ","","","","","","","","","","","","",""
"learning-instructions","8","36130","0.0-8.0-0.0-0.0","4526","2","24","Female","approach_avoid_spark_v1","""event"",""trial"",""time""
""fullscreenenter"",""1"",""10726""
","
","
","""event"",""trial"",""time""
""fullscreenenter"",""1"",""10726""
","
","","","","","","932.5999999977648","<p> Welcome! Today you are going to play 6 different rounds of a decision-making game. </p><p> Use the mouse to click next to continue. </p>","","0","instructions","","","","","","","","","","",""
"learning-instructions","9","40230","0.0-8.0-0.0-0.1","4526","2","24","Female","approach_avoid_spark_v1","""event"",""trial"",""time""
""fullscreenenter"",""1"",""10726""
","
","
","""event"",""trial"",""time""
""fullscreenenter"",""1"",""10726""
","
","","","","","","1375.300000000745","<p> You will start with a practice round to learn the rules. </p>","","0","instructions","","","","","","","","","","",""
"learning-instructions","10","44545","0.0-8.0-0.0-0.2","4526","2","24","Female","approach_avoid_spark_v1","""event"",""trial"",""time""
""fullscreenenter"",""1"",""10726""
","
","
","""event"",""trial"",""time""
""fullscreenenter"",""1"",""10726""
","
","","","","","","866.5","<p> Your goal in this round is to give out sports equipment to kids. </p></div>","","0","instructions","","","","","","","","","","",""
"learning-instructions","11","54060","0.0-8.0-0.0-0.3","4526","2","24","Female","approach_avoid_spark_v1","""event"",""trial"",""time""
""fullscreenenter"",""1"",""10726""
","
","
","""event"",""trial"",""time""
""fullscreenenter"",""1"",""10726""
","
","","","","","","1975.6000000014901","<p> The kids only like some of the equipment.  </p><p> On each turn, you will see a piece of sports equipment.   </p><p> You need to decide whether to give it to the kids or not.  </p>","","0","instructions","","","","","","","","","","",""
"learning-instructions","12","60723","0.0-8.0-0.0-0.4","4526","2","24","Female","approach_avoid_spark_v1","""event"",""trial"",""time""
""fullscreenenter"",""1"",""10726""
","
","
","""event"",""trial"",""time""
""fullscreenenter"",""1"",""10726""
","
","","","","","","1916.8999999985099","<p> You can give them the equipment by pressing 1 and choose not to give it to them by pressing 0. </p><br><div class=""choice-instructions-grid""> <div class=""choice-option""><img src=""images/approach.png"" class=""choice-option-img"" stage=""instructions"" position=""0"" ><div class=""choice-option-text""> Press ""1."" </div></div><div class=""choice-option""><img src=""images/avoid.png"" class=""choice-option-img"" stage=""instructions"" position=""1"" ><div class=""choice-option-text""> Press ""0."" </div></div>","","0","instructions","","","","","","","","","","",""
"learning-instructions","13","68588","0.0-8.0-0.0-0.5","4526","2","24","Female","approach_avoid_spark_v1","""event"",""trial"",""time""
""fullscreenenter"",""1"",""10726""
","
","
","""event"",""trial"",""time""
""fullscreenenter"",""1"",""10726""
","
","","","","","","488.19999999925494","<p> If you give them a piece of equipment they like, they will be happy! </p><p> But if you give them a piece of equipment they do not like, they will be sad. </p>","","0","instructions","","","","","","","","","","",""
"learning-instructions","14","79540","0.0-8.0-0.0-0.6","4526","2","24","Female","approach_avoid_spark_v1","""event"",""trial"",""time""
""fullscreenenter"",""1"",""10726""
","
","
","""event"",""trial"",""time""
""fullscreenenter"",""1"",""10726""
","
","","","","","","451.6000000014901","<p> You will earn points based on how you make kids feel. </p><p> If you make them happy, you will WIN anywhere from 1 - 9 points, </p><p> but if you make them sad, you will LOSE anywhere from 1 - 9 points. </p>","","0","instructions","","","","","","","","","","",""
"learning-instructions","15","90516","0.0-8.0-0.0-0.7","4526","2","24","Female","approach_avoid_spark_v1","""event"",""trial"",""time""
""fullscreenenter"",""1"",""10726""
","
","
","""event"",""trial"",""time""
""fullscreenenter"",""1"",""10726""
","
","","","","","","1424.8999999985099","<p> You will see how many points you won or lost in the center of the screen. </p><p> Here is what you would see if you won 6 points: </p><p style=""color:green;font-size:50px;font-weight:bolder"">6</p><p style=""color:green"">The text is GREEN because you WON points.</p>","","0","instructions","","","","","","","","","","",""
"learning-instructions","16","96576","0.0-8.0-0.0-0.8","4526","2","24","Female","approach_avoid_spark_v1","""event"",""trial"",""time""
""fullscreenenter"",""1"",""10726""
","
","
","""event"",""trial"",""time""
""fullscreenenter"",""1"",""10726""
","
","","","","","","559.6000000014901","<p> And here is what you would see if you lost 4 points: </p><p style=""color:red;font-size:50px;font-weight:bolder"">-4</p><p style=""color:red"">The text is RED because you LOST points. </p>","","0","instructions","","","","","","","","","","",""
"learning-instructions","17","111840","0.0-8.0-0.0-0.9","4526","2","24","Female","approach_avoid_spark_v1","""event"",""trial"",""time""
""fullscreenenter"",""1"",""10726""
","
","
","""event"",""trial"",""time""
""fullscreenenter"",""1"",""10726""
","
","","","","","","557.3000000007451","<p> Some of the equipment will make the kids VERY happy or sad. </p><p> These pieces of equipment will make you win or lose LOTS of points. </p><p> Other pieces of equipment will only make the kids a little happy or sad. </p><p> These pieces of equipment will make you win or lose small amounts of points. </p>","","0","instructions","","","","","","","","","","",""
"learning-instructions","18","123657","0.0-8.0-0.0-0.10","4526","2","24","Female","approach_avoid_spark_v1","""event"",""trial"",""time""
""fullscreenenter"",""1"",""10726""
","
","
","""event"",""trial"",""time""
""fullscreenenter"",""1"",""10726""
","
","","","","","","1199.5","<p> If you choose not to give them the equipment, you will not win or lose any points. </p><p>  However, in the center of the screen, you will see the number of points you WOULD HAVE won or lost if you had given them the equipment. </p>","","0","instructions","","","","","","","","","","",""
"learning-instructions","19","145890","0.0-8.0-0.0-0.11","4526","2","24","Female","approach_avoid_spark_v1","""event"",""trial"",""time""
""fullscreenenter"",""1"",""10726""
","
","
","""event"",""trial"",""time""
""fullscreenenter"",""1"",""10726""
","
","","","","","","705.2999999970198","<p> Here is what you might see if you did not give the equipment to the kids but it would have made them happy: </p><p style=""color:grey; font-size:50px; display: inline-block; border-spacing: 15px; border-width:3px; border-style:solid; border-color:red"">  &nbsp; 7 &nbsp; </p><p> Remember, in this case, you would not win or lose ANY points because you did not give them the equipment.  </p><p style=""color:grey"">The text is GREY because you earned ZERO points. </p><p style=""color:red"">However, choosing to give the kids the equipment would have made you win points. The box around the text is RED because you chose the worse option. </p>","","0","instructions","","","","","","","","","","",""
"learning-instructions","20","170206","0.0-8.0-0.0-0.12","4526","2","24","Female","approach_avoid_spark_v1","""event"",""trial"",""time""
""fullscreenenter"",""1"",""10726""
","
","
","""event"",""trial"",""time""
""fullscreenenter"",""1"",""10726""
","
","","","","","","3247.39999999851","<p> Here is what you might see if you did not give the equipment to the kids but it would have made them sad: </p><p style=""color:grey;font-size:50px; display: inline-block; border-spacing: 15px; border-width:3px; border-style:solid; border-color:green"">  &nbsp; -8 &nbsp; </p><p> Remember, in this case, you would not win or lose ANY points because you did not give them the equipment.  </p><p style=""color:grey"">The text is GREY because you earned ZERO points. </p><p  style=""color:green""> Choosing to give the kids the equipment would have made you lose points. The box around the text is GREEN because you chose the better option.</p>","","0","instructions","","","","","","","","","","",""
"learning-instructions","21","180426","0.0-8.0-0.0-0.13","4526","2","24","Female","approach_avoid_spark_v1","""event"",""trial"",""time""
""fullscreenenter"",""1"",""10726""
","
","
","""event"",""trial"",""time""
""fullscreenenter"",""1"",""10726""
","
","","","","","","1259.300000000745","<p> You will have 3 seconds to make each choice. Try to respond before time runs out! </p><p> You will lose 5 points each time you do not make a response. </p>","","0","instructions","","","","","","","","","","",""
"learning-instructions","22","190261","0.0-8.0-0.0-0.14","4526","2","24","Female","approach_avoid_spark_v1","""event"",""trial"",""time""
""fullscreenenter"",""1"",""10726""
","
","
","""event"",""trial"",""time""
""fullscreenenter"",""1"",""10726""
","
","","","","","","4430.5","<p> This is just a practice round, but in the real game, your bonus payment will depend on your total number of points.","","0","instructions","","","","","","","","","","",""
"learning-instructions","23","196599","0.0-8.0-0.0-0.15","4526","2","24","Female","approach_avoid_spark_v1","""event"",""trial"",""time""
""fullscreenenter"",""1"",""10726""
","
","
","""event"",""trial"",""time""
""fullscreenenter"",""1"",""10726""
","
","","","","","","580.9000000022352","<p> Remember, you can give them the equipment by pressing 1 and choose not to give it to them by pressing 0. </p><br><div class=""choice-instructions-grid""> <div class=""choice-option""><img src=""images/approach.png"" class=""choice-option-img"" stage=""instructions"" position=""0"" ><div class=""choice-option-text""> Press ""1."" </div></div><div class=""choice-option""><img src=""images/avoid.png"" class=""choice-option-img"" stage=""instructions"" position=""1"" ><div class=""choice-option-text""> Press ""0."" </div></div>","","0","instructions","","","","","","","","","","",""
"html-button-response","24","197976","0.0-8.0-1.0","4526","2","24","Female","approach_avoid_spark_v1","""event"",""trial"",""time""
""fullscreenenter"",""1"",""10726""
","
","
","""event"",""trial"",""time""
""fullscreenenter"",""1"",""10726""
","
","","","","","","1274.199999999255","<p> Ready to practice? </p>","0","","","","","","","","","","","","",""
"html-keyboard-response","25","198578","0.0-8.0-2.0-0.0","4526","2","24","Female","approach_avoid_spark_v1","""event"",""trial"",""time""
""fullscreenenter"",""1"",""10726""
","
","
","""event"",""trial"",""time""
""fullscreenenter"",""1"",""10726""
","
","","","","","","null","<div style=""font-size:60px;"">+</div>","null","","fixation","","","","","","","","","","",""
"aa-learning-trial","26","201583","0.0-8.0-2.0-1.0","4526","2","24","Female","approach_avoid_spark_v1","""event"",""trial"",""time""
""fullscreenenter"",""1"",""10726""
","
","
","""event"",""trial"",""time""
""fullscreenenter"",""1"",""10726""
","
","","","","","","2428.39999999851","images/racket3.png","","","learning","6","6","1","1","practice","practice","practice","-1","","",""
"html-keyboard-response","27","202088","0.0-8.0-2.0-0.1","4526","2","24","Female","approach_avoid_spark_v1","""event"",""trial"",""time""
""fullscreenenter"",""1"",""10726""
","
","
","""event"",""trial"",""time""
""fullscreenenter"",""1"",""10726""
","
","","","","","","null","<div style=""font-size:60px;"">+</div>","null","","fixation","","","","","","","","","","",""
"aa-learning-trial","28","205091","0.0-8.0-2.0-1.1","4526","2","24","Female","approach_avoid_spark_v1","""event"",""trial"",""time""
""fullscreenenter"",""1"",""10726""
","
","
","""event"",""trial"",""time""
""fullscreenenter"",""1"",""10726""
","
","","","","","","2034","images/racket3.png","","","learning","2","2","1","1","practice","practice","practice","-1","","",""
"html-keyboard-response","29","205594","0.0-8.0-2.0-0.2","4526","2","24","Female","approach_avoid_spark_v1","""event"",""trial"",""time""
""fullscreenenter"",""1"",""10726""
","
","
","""event"",""trial"",""time""
""fullscreenenter"",""1"",""10726""
","
","","","","","","null","<div style=""font-size:60px;"">+</div>","null","","fixation","","","","","","","","","","",""
"aa-learning-trial","30","208597","0.0-8.0-2.0-1.2","4526","2","24","Female","approach_avoid_spark_v1","""event"",""trial"",""time""
""fullscreenenter"",""1"",""10726""
","
","
","""event"",""trial"",""time""
""fullscreenenter"",""1"",""10726""
","
","","","","","","1087.7999999970198","images/ball2.png","","","learning","9","9","1","1","practice","practice","practice","-1","","",""
"html-keyboard-response","31","209102","0.0-8.0-2.0-0.3","4526","2","24","Female","approach_avoid_spark_v1","""event"",""trial"",""time""
""fullscreenenter"",""1"",""10726""
","
","
","""event"",""trial"",""time""
""fullscreenenter"",""1"",""10726""
","
","","","","","","null","<div style=""font-size:60px;"">+</div>","null","","fixation","","","","","","","","","","",""
"aa-learning-trial","32","212107","0.0-8.0-2.0-1.3","4526","2","24","Female","approach_avoid_spark_v1","""event"",""trial"",""time""
""fullscreenenter"",""1"",""10726""
","
","
","""event"",""trial"",""time""
""fullscreenenter"",""1"",""10726""
","
","","","","","","1588.6000000014901","images/racket2.png","","","learning","-1","-1","1","1","practice","practice","practice","-1","","",""
"html-keyboard-response","33","212608","0.0-8.0-2.0-0.4","4526","2","24","Female","approach_avoid_spark_v1","""event"",""trial"",""time""
""fullscreenenter"",""1"",""10726""
","
","
","""event"",""trial"",""time""
""fullscreenenter"",""1"",""10726""
","
","","","","","","null","<div style=""font-size:60px;"">+</div>","null","","fixation","","","","","","","","","","",""
"aa-learning-trial","34","215614","0.0-8.0-2.0-1.4","4526","2","24","Female","approach_avoid_spark_v1","""event"",""trial"",""time""
""fullscreenenter"",""1"",""10726""
","
","
","""event"",""trial"",""time""
""fullscreenenter"",""1"",""10726""
","
","","","","","","954.8999999985099","images/ball3.png","","","learning","6","6","1","1","practice","practice","practice","-1","","",""
"html-keyboard-response","35","216119","0.0-8.0-2.0-0.5","4526","2","24","Female","approach_avoid_spark_v1","""event"",""trial"",""time""
""fullscreenenter"",""1"",""10726""
","
","
","""event"",""trial"",""time""
""fullscreenenter"",""1"",""10726""
","
","","","","","","null","<div style=""font-size:60px;"">+</div>","null","","fixation","","","","","","","","","","",""
"aa-learning-trial","36","219126","0.0-8.0-2.0-1.5","4526","2","24","Female","approach_avoid_spark_v1","""event"",""trial"",""time""
""fullscreenenter"",""1"",""10726""
","
","
","""event"",""trial"",""time""
""fullscreenenter"",""1"",""10726""
","
","","","","","","948.1999999992549","images/racket4.png","","","learning","-4","0","0","0","practice","practice","practice","-1","","",""
"html-keyboard-response","37","219631","0.0-8.0-2.0-0.6","4526","2","24","Female","approach_avoid_spark_v1","""event"",""trial"",""time""
""fullscreenenter"",""1"",""10726""
","
","
","""event"",""trial"",""time""
""fullscreenenter"",""1"",""10726""
","
","","","","","","null","<div style=""font-size:60px;"">+</div>","null","","fixation","","","","","","","","","","",""
"aa-learning-trial","38","222638","0.0-8.0-2.0-1.6","4526","2","24","Female","approach_avoid_spark_v1","""event"",""trial"",""time""
""fullscreenenter"",""1"",""10726""
","
","
","""event"",""trial"",""time""
""fullscreenenter"",""1"",""10726""
","
","","","","","","641","images/ball4.png","","","learning","9","9","1","1","practice","practice","practice","-1","","",""
"html-keyboard-response","39","223139","0.0-8.0-2.0-0.7","4526","2","24","Female","approach_avoid_spark_v1","""event"",""trial"",""time""
""fullscreenenter"",""1"",""10726""
","
","
","""event"",""trial"",""time""
""fullscreenenter"",""1"",""10726""
","
","","","","","","null","<div style=""font-size:60px;"">+</div>","null","","fixation","","","","","","","","","","",""
"aa-learning-trial","40","226144","0.0-8.0-2.0-1.7","4526","2","24","Female","approach_avoid_spark_v1","""event"",""trial"",""time""
""fullscreenenter"",""1"",""10726""
","
","
","""event"",""trial"",""time""
""fullscreenenter"",""1"",""10726""
","
","","","","","","786.1000000014901","images/ball1.png","","","learning","-4","-4","1","1","practice","practice","practice","-1","","",""
"html-keyboard-response","41","226648","0.0-8.0-2.0-0.8","4526","2","24","Female","approach_avoid_spark_v1","""event"",""trial"",""time""
""fullscreenenter"",""1"",""10726""
","
","
","""event"",""trial"",""time""
""fullscreenenter"",""1"",""10726""
","
","","","","","","null","<div style=""font-size:60px;"">+</div>","null","","fixation","","","","","","","","","","",""
"aa-learning-trial","42","229653","0.0-8.0-2.0-1.8","4526","2","24","Female","approach_avoid_spark_v1","""event"",""trial"",""time""
""fullscreenenter"",""1"",""10726""
","
","
","""event"",""trial"",""time""
""fullscreenenter"",""1"",""10726""
","
","","","","","","762.6999999992549","images/ball1.png","","","learning","-5","-5","1","1","practice","practice","practice","-1","","",""
"html-keyboard-response","43","230158","0.0-8.0-2.0-0.9","4526","2","24","Female","approach_avoid_spark_v1","""event"",""trial"",""time""
""fullscreenenter"",""1"",""10726""
","
","
","""event"",""trial"",""time""
""fullscreenenter"",""1"",""10726""
","
","","","","","","null","<div style=""font-size:60px;"">+</div>","null","","fixation","","","","","","","","","","",""
"aa-learning-trial","44","233162","0.0-8.0-2.0-1.9","4526","2","24","Female","approach_avoid_spark_v1","""event"",""trial"",""time""
""fullscreenenter"",""1"",""10726""
","
","
","""event"",""trial"",""time""
""fullscreenenter"",""1"",""10726""
","
","","","","","","1379.800000000745","images/ball1.png","","","learning","-2","0","0","0","practice","practice","practice","-1","","",""
"html-keyboard-response","45","233667","0.0-8.0-2.0-0.10","4526","2","24","Female","approach_avoid_spark_v1","""event"",""trial"",""time""
""fullscreenenter"",""1"",""10726""
","
","
","""event"",""trial"",""time""
""fullscreenenter"",""1"",""10726""
","
","","","","","","null","<div style=""font-size:60px;"">+</div>","null","","fixation","","","","","","","","","","",""
"aa-learning-trial","46","236674","0.0-8.0-2.0-1.10","4526","2","24","Female","approach_avoid_spark_v1","""event"",""trial"",""time""
""fullscreenenter"",""1"",""10726""
","
","
","""event"",""trial"",""time""
""fullscreenenter"",""1"",""10726""
","
","","","","","","1078","images/ball3.png","","","learning","1","1","1","1","practice","practice","practice","-1","","",""
"html-keyboard-response","47","237179","0.0-8.0-2.0-0.11","4526","2","24","Female","approach_avoid_spark_v1","""event"",""trial"",""time""
""fullscreenenter"",""1"",""10726""
","
","
","""event"",""trial"",""time""
""fullscreenenter"",""1"",""10726""
","
","","","","","","null","<div style=""font-size:60px;"">+</div>","null","","fixation","","","","","","","","","","",""
"aa-learning-trial","48","240186","0.0-8.0-2.0-1.11","4526","2","24","Female","approach_avoid_spark_v1","""event"",""trial"",""time""
""fullscreenenter"",""1"",""10726""
","
","
","""event"",""trial"",""time""
""fullscreenenter"",""1"",""10726""
","
","","","","","","808","images/ball3.png","","","learning","-1","-1","1","1","practice","practice","practice","-1","","",""
"html-button-response","49","242269","0.0-8.0-3.0","4526","2","24","Female","approach_avoid_spark_v1","""event"",""trial"",""time""
""fullscreenenter"",""1"",""10726""
","
","
","""event"",""trial"",""time""
""fullscreenenter"",""1"",""10726""
","
","","","","","","2081","<p> You earned 22 points in the practice round! </p>","0","","break","","","","","","","","","","",""
"learning-instructions","50","250013","0.0-8.0-4.0-0.0","4526","2","24","Female","approach_avoid_spark_v1","""event"",""trial"",""time""
""fullscreenenter"",""1"",""10726""
","
","
","""event"",""trial"",""time""
""fullscreenenter"",""1"",""10726""
","
","","","","","","1780.5","<p> It's almost time to start the real game. </p><p> Before you start, we're going to ask you a few questions about how the game works. </p>","","0","instructions","","","","","","","","","","",""
"preload","51","251457","0.0-8.0-5.0","4526","2","24","Female","approach_avoid_spark_v1","""event"",""trial"",""time""
""fullscreenenter"",""1"",""10726""
","
","
","""event"",""trial"",""time""
""fullscreenenter"",""1"",""10726""
","
","true","false","[]","[]","[]","","","","","","","","","","","","","","","",""
"comp-q","52","257494","0.0-8.0-6.0-0.0","4526","2","24","Female","approach_avoid_spark_v1","""event"",""trial"",""time""
""fullscreenenter"",""1"",""10726""
","
","
","""event"",""trial"",""time""
""fullscreenenter"",""1"",""10726""
","
","","","","","","1042.1000000014901","<p> <b> True or False? </b> </p><p> If you see a number in GREY, that means you earned that many points. </p>","","1","comp_question","","","","","","","","","true","",""
"comp-q","53","266510","0.0-8.0-6.0-1.0","4526","2","24","Female","approach_avoid_spark_v1","""event"",""trial"",""time""
""fullscreenenter"",""1"",""10726""
","
","
","""event"",""trial"",""time""
""fullscreenenter"",""1"",""10726""
","
","","","","","","660.1999999992549","<p><b> That's right! </b> If you see a grey number, it means you earned ZERO points. <br> The grey numbers show the points you WOULD HAVE earned if you had made the other choice. </p>","","0","comp_answer","","","","","","","","","","",""
"comp-q","54","272404","0.0-8.0-7.0-0.0","4526","2","24","Female","approach_avoid_spark_v1","""event"",""trial"",""time""
""fullscreenenter"",""1"",""10726""
","
","
","""event"",""trial"",""time""
""fullscreenenter"",""1"",""10726""
","
","","","","","","1207.199999999255","<p> <b> True or False? </b> </p><p> You will have as much time as you want to make each choice. </p>","","1","comp_question","","","","","","","","","true","",""
"comp-q","55","280783","0.0-8.0-7.0-1.0","4526","2","24","Female","approach_avoid_spark_v1","""event"",""trial"",""time""
""fullscreenenter"",""1"",""10726""
","
","
","""event"",""trial"",""time""
""fullscreenenter"",""1"",""10726""
","
","","","","","","4338.699999999255","<p> <b> That's right! </b> You will only have 3 seconds to make each choice. </p>","","0","comp_answer","","","","","","","","","","",""
"comp-q","56","286565","0.0-8.0-8.0-0.0","4526","2","24","Female","approach_avoid_spark_v1","""event"",""trial"",""time""
""fullscreenenter"",""1"",""10726""
","
","
","""event"",""trial"",""time""
""fullscreenenter"",""1"",""10726""
","
","","","","","","1129.300000000745","<p> <b> True or False? </b> </p><p> You should use the '1' and '0' keys to make your choices. </p>","","0","comp_question","","","","","","","","","true","",""
"comp-q","57","305052","0.0-8.0-8.0-1.0","4526","2","24","Female","approach_avoid_spark_v1","""event"",""trial"",""time""
""fullscreenenter"",""1"",""10726""
","
","
","""event"",""trial"",""time""
""fullscreenenter"",""1"",""10726""
","
","","","","","","13881.300000000745","<p> <b> That's right! </b> You should use the '1' and '0' keys to make each choice. </p>","","0","comp_answer","","","","","","","","","","",""
"learning-instructions","58","313261","0.0-8.0-9.0-0.0","4526","2","24","Female","approach_avoid_spark_v1","""event"",""trial"",""time""
""fullscreenenter"",""1"",""10726""
","
","
","""event"",""trial"",""time""
""fullscreenenter"",""1"",""10726""
","
","","","","","","1941","<p> It's now time to start the real game. </p>Do your best, because the points you earn in the next rounds will influence your bonus payment. </p>","","0","instructions","","","","","","","","","","",""
"preload","59","313380","0.0-9.0-0.0","4526","2","24","Female","approach_avoid_spark_v1","""event"",""trial"",""time""
""fullscreenenter"",""1"",""10726""
","
","
","""event"",""trial"",""time""
""fullscreenenter"",""1"",""10726""
","
","true","false","[]","[]","[]","","","","","","","","","","","","","","","",""
"learning-instructions","60","318985","0.0-9.0-1.0-0.0","4526","2","24","Female","approach_avoid_spark_v1","""event"",""trial"",""time""
""fullscreenenter"",""1"",""10726""
","
","
","""event"",""trial"",""time""
""fullscreenenter"",""1"",""10726""
","
","","","","","","1888.800000000745","<p> Your goal in this round is to take care of lots of animals. </p></div>","","0","instructions","","","","","","","","","","",""
"learning-instructions","61","328922","0.0-9.0-1.0-0.1","4526","2","24","Female","approach_avoid_spark_v1","""event"",""trial"",""time""
""fullscreenenter"",""1"",""10726""
","
","
","""event"",""trial"",""time""
""fullscreenenter"",""1"",""10726""
","
","","","","","","558.3999999985099","<p> Some animals want to be pet, while other animals want to be left alone.  </p><p> On each turn, you will see an animal.   </p><p> You need to decide whether to pet it or not.  </p>","","0","instructions","","","","","","","","","","",""
"learning-instructions","62","334492","0.0-9.0-1.0-0.2","4526","2","24","Female","approach_avoid_spark_v1","""event"",""trial"",""time""
""fullscreenenter"",""1"",""10726""
","
","
","""event"",""trial"",""time""
""fullscreenenter"",""1"",""10726""
","
","","","","","","538.1000000014901","<p> You can pet the animal by pressing 1 and leave the animal alone by pressing 0. </p><br><div class=""choice-instructions-grid""> <div class=""choice-option""><img src=""images/approach.png"" class=""choice-option-img"" stage=""instructions"" position=""0"" ><div class=""choice-option-text""> Press ""1."" </div></div><div class=""choice-option""><img src=""images/avoid.png"" class=""choice-option-img"" stage=""instructions"" position=""1"" ><div class=""choice-option-text""> Press ""0."" </div></div>","","0","instructions","","","","","","","","","","",""
"learning-instructions","63","343596","0.0-9.0-1.0-0.3","4526","2","24","Female","approach_avoid_spark_v1","""event"",""trial"",""time""
""fullscreenenter"",""1"",""10726""
","
","
","""event"",""trial"",""time""
""fullscreenenter"",""1"",""10726""
","
","","","","","","435.30000000074506","<p> If you pet an animal that wants to be pet, you will make it feel happy! </p><p> But if you pet an animal that wants to be left alone, you will make it feel angry. </p>","","0","instructions","","","","","","","","","","",""
"learning-instructions","64","357657","0.0-9.0-1.0-0.4","4526","2","24","Female","approach_avoid_spark_v1","""event"",""trial"",""time""
""fullscreenenter"",""1"",""10726""
","
","
","""event"",""trial"",""time""
""fullscreenenter"",""1"",""10726""
","
","","","","","","1969.699999999255","<p> You will earn points based on how you made the animal feel. </p><p> If you made it feel happy, you will WIN anywhere from 1 - 9 points, </p><p> but if you made it feel angry, you will LOSE anywhere from 1 - 9 points. </p>","","0","instructions","","","","","","","","","","",""
"learning-instructions","65","367557","0.0-9.0-1.0-0.5","4526","2","24","Female","approach_avoid_spark_v1","""event"",""trial"",""time""
""fullscreenenter"",""1"",""10726""
","
","
","""event"",""trial"",""time""
""fullscreenenter"",""1"",""10726""
","
","","","","","","2465.300000000745","<p> You will see how many points you won or lost in the center of the screen. </p><p> Here is what you would see if you won 5 points: </p><p style=""color:green;font-size:50px;font-weight:bolder"">5</p>","","0","instructions","","","","","","","","","","",""
"learning-instructions","66","372630","0.0-9.0-1.0-0.6","4526","2","24","Female","approach_avoid_spark_v1","""event"",""trial"",""time""
""fullscreenenter"",""1"",""10726""
","
","
","""event"",""trial"",""time""
""fullscreenenter"",""1"",""10726""
","
","","","","","","1646.9000000022352","<p> And here is what you would see if you lost 3 points: </p><p style=""color:red;font-size:50px;font-weight:bolder"">-3</p>","","0","instructions","","","","","","","","","","",""
"learning-instructions","67","387899","0.0-9.0-1.0-0.7","4526","2","24","Female","approach_avoid_spark_v1","""event"",""trial"",""time""
""fullscreenenter"",""1"",""10726""
","
","
","""event"",""trial"",""time""
""fullscreenenter"",""1"",""10726""
","
","","","","","","1817.300000000745","<p> Some animals will become very happy or very angry. </p><p> These animals will make you win or lose LOTS of points. </p><p> Other animals have less strong feelings. </p><p> These animals will make you win or lose small amounts of points. </p>","","0","instructions","","","","","","","","","","",""
"learning-instructions","68","403698","0.0-9.0-1.0-0.8","4526","2","24","Female","approach_avoid_spark_v1","""event"",""trial"",""time""
""fullscreenenter"",""1"",""10726""
","
","
","""event"",""trial"",""time""
""fullscreenenter"",""1"",""10726""
","
","","","","","","4780.60000000149","<p> If you choose to leave the animal alone, you will not win or lose any points. </p><p>  However, in the center of the screen, you will see the number of points you WOULD HAVE won or lost if you had pet the animal. </p>","","0","instructions","","","","","","","","","","",""
"learning-instructions","69","417319","0.0-9.0-1.0-0.9","4526","2","24","Female","approach_avoid_spark_v1","""event"",""trial"",""time""
""fullscreenenter"",""1"",""10726""
","
","
","""event"",""trial"",""time""
""fullscreenenter"",""1"",""10726""
","
","","","","","","2240.60000000149","<p> Here is what you might see if you did not pet the animal but the animal wanted to be pet: </p><p style=""color:grey; font-size:50px; display: inline-block; border-spacing: 15px; border-width:3px; border-style:solid; border-color:red"">  &nbsp; 6 &nbsp; </p><p> Remember, in this case, you would not win or lose ANY points because you did not pet the animal.  </p>","","0","instructions","","","","","","","","","","",""
"learning-instructions","70","429774","0.0-9.0-1.0-0.10","4526","2","24","Female","approach_avoid_spark_v1","""event"",""trial"",""time""
""fullscreenenter"",""1"",""10726""
","
","
","""event"",""trial"",""time""
""fullscreenenter"",""1"",""10726""
","
","","","","","","5541.900000002235","<p> Try to make the best choice for each animal because </p><p> at the end of the game, you will earn bonus money based on how many points you earned. </p>","","0","instructions","","","","","","","","","","",""
"learning-instructions","71","440435","0.0-9.0-1.0-0.11","4526","2","24","Female","approach_avoid_spark_v1","""event"",""trial"",""time""
""fullscreenenter"",""1"",""10726""
","
","
","""event"",""trial"",""time""
""fullscreenenter"",""1"",""10726""
","
","","","","","","2479.800000000745","<p> You will have 3 seconds to make each choice. Try to respond before time runs out! </p><p> You will lose 5 points each time you do not make a response. </p>","","0","instructions","","","","","","","","","","",""
"html-keyboard-response","72","441043","0.0-9.0-2.0-0.0","4526","2","24","Female","approach_avoid_spark_v1","""event"",""trial"",""time""
""fullscreenenter"",""1"",""10726""
","
","
","""event"",""trial"",""time""
""fullscreenenter"",""1"",""10726""
","
","","","","","","null","<div style=""font-size:60px;"">+</div>","null","","fixation","","","","","","","","","","",""
"aa-learning-trial","73","444046","0.0-9.0-2.0-1.0","4526","2","24","Female","approach_avoid_spark_v1","""event"",""trial"",""time""
""fullscreenenter"",""1"",""10726""
","
","
","""event"",""trial"",""time""
""fullscreenenter"",""1"",""10726""
","
","","","","","","1602.300000000745","images/dog4.png","","","learning","5","5","1","1","dog","pets","2","0","","neutral","0"
"html-keyboard-response","74","444549","0.0-9.0-2.0-0.1","4526","2","24","Female","approach_avoid_spark_v1","""event"",""trial"",""time""
""fullscreenenter"",""1"",""10726""
","
","
","""event"",""trial"",""time""
""fullscreenenter"",""1"",""10726""
","
","","","","","","null","<div style=""font-size:60px;"">+</div>","null","","fixation","","","","","","","","","","",""
"aa-learning-trial","75","447556","0.0-9.0-2.0-1.1","4526","2","24","Female","approach_avoid_spark_v1","""event"",""trial"",""time""
""fullscreenenter"",""1"",""10726""
","
","
","""event"",""trial"",""time""
""fullscreenenter"",""1"",""10726""
","
","","","","","","1424.7999999970198","images/cat4.png","","","learning","-2","0","0","0","cat","pets","2","0","","bad","[-6]"
"html-keyboard-response","76","448061","0.0-9.0-2.0-0.2","4526","2","24","Female","approach_avoid_spark_v1","""event"",""trial"",""time""
""fullscreenenter"",""1"",""10726""
","
","
","""event"",""trial"",""time""
""fullscreenenter"",""1"",""10726""
","
","","","","","","null","<div style=""font-size:60px;"">+</div>","null","","fixation","","","","","","","","","","",""
"aa-learning-trial","77","451066","0.0-9.0-2.0-1.2","4526","2","24","Female","approach_avoid_spark_v1","""event"",""trial"",""time""
""fullscreenenter"",""1"",""10726""
","
","
","""event"",""trial"",""time""
""fullscreenenter"",""1"",""10726""
","
","","","","","","947.9000000022352","images/dog6.png","","","learning","1","1","1","1","dog","pets","2","0","","neutral","0"
"html-keyboard-response","78","451568","0.0-9.0-2.0-0.3","4526","2","24","Female","approach_avoid_spark_v1","""event"",""trial"",""time""
""fullscreenenter"",""1"",""10726""
","
","
","""event"",""trial"",""time""
""fullscreenenter"",""1"",""10726""
","
","","","","","","null","<div style=""font-size:60px;"">+</div>","null","","fixation","","","","","","","","","","",""
"aa-learning-trial","79","454571","0.0-9.0-2.0-1.3","4526","2","24","Female","approach_avoid_spark_v1","""event"",""trial"",""time""
""fullscreenenter"",""1"",""10726""
","
","
","""event"",""trial"",""time""
""fullscreenenter"",""1"",""10726""
","
","","","","","","1313.300000000745","images/rodent7.png","","","learning","-1","-1","1","1","rodent","pets","2","0","","good","[3]"
"html-keyboard-response","80","455074","0.0-9.0-2.0-0.4","4526","2","24","Female","approach_avoid_spark_v1","""event"",""trial"",""time""
""fullscreenenter"",""1"",""10726""
","
","
","""event"",""trial"",""time""
""fullscreenenter"",""1"",""10726""
","
","","","","","","null","<div style=""font-size:60px;"">+</div>","null","","fixation","","","","","","","","","","",""
"aa-learning-trial","81","458081","0.0-9.0-2.0-1.4","4526","2","24","Female","approach_avoid_spark_v1","""event"",""trial"",""time""
""fullscreenenter"",""1"",""10726""
","
","
","""event"",""trial"",""time""
""fullscreenenter"",""1"",""10726""
","
","","","","","","1087.699999999255","images/rodent1.png","","","learning","-4","-4","1","1","rodent","pets","2","0","","good","[3]"
"html-keyboard-response","82","458586","0.0-9.0-2.0-0.5","4526","2","24","Female","approach_avoid_spark_v1","""event"",""trial"",""time""
""fullscreenenter"",""1"",""10726""
","
","
","""event"",""trial"",""time""
""fullscreenenter"",""1"",""10726""
","
","","","","","","null","<div style=""font-size:60px;"">+</div>","null","","fixation","","","","","","","","","","",""
"aa-learning-trial","83","461588","0.0-9.0-2.0-1.5","4526","2","24","Female","approach_avoid_spark_v1","""event"",""trial"",""time""
""fullscreenenter"",""1"",""10726""
","
","
","""event"",""trial"",""time""
""fullscreenenter"",""1"",""10726""
","
","","","","","","1496.6000000014901","images/cat3.png","","","learning","9","9","1","1","cat","pets","2","0","","bad","[-6]"
"html-keyboard-response","84","462092","0.0-9.0-2.0-0.6","4526","2","24","Female","approach_avoid_spark_v1","""event"",""trial"",""time""
""fullscreenenter"",""1"",""10726""
","
","
","""event"",""trial"",""time""
""fullscreenenter"",""1"",""10726""
","
","","","","","","null","<div style=""font-size:60px;"">+</div>","null","","fixation","","","","","","","","","","",""
"aa-learning-trial","85","465099","0.0-9.0-2.0-1.6","4526","2","24","Female","approach_avoid_spark_v1","""event"",""trial"",""time""
""fullscreenenter"",""1"",""10726""
","
","
","""event"",""trial"",""time""
""fullscreenenter"",""1"",""10726""
","
","","","","","","1314.800000000745","images/rodent1.png","","","learning","-4","0","0","0","rodent","pets","2","0","","good","[3]"
"html-keyboard-response","86","465604","0.0-9.0-2.0-0.7","4526","2","24","Female","approach_avoid_spark_v1","""event"",""trial"",""time""
""fullscreenenter"",""1"",""10726""
","
","
","""event"",""trial"",""time""
""fullscreenenter"",""1"",""10726""
","
","","","","","","null","<div style=""font-size:60px;"">+</div>","null","","fixation","","","","","","","","","","",""
"aa-learning-trial","87","468611","0.0-9.0-2.0-1.7","4526","2","24","Female","approach_avoid_spark_v1","""event"",""trial"",""time""
""fullscreenenter"",""1"",""10726""
","
","
","""event"",""trial"",""time""
""fullscreenenter"",""1"",""10726""
","
","","","","","","887.5","images/rodent7.png","","","learning","-1","0","0","0","rodent","pets","2","0","","good","[3]"
"html-keyboard-response","88","469117","0.0-9.0-2.0-0.8","4526","2","24","Female","approach_avoid_spark_v1","""event"",""trial"",""time""
""fullscreenenter"",""1"",""10726""
","
","
","""event"",""trial"",""time""
""fullscreenenter"",""1"",""10726""
","
","","","","","","null","<div style=""font-size:60px;"">+</div>","null","","fixation","","","","","","","","","","",""
"aa-learning-trial","89","472123","0.0-9.0-2.0-1.8","4526","2","24","Female","approach_avoid_spark_v1","""event"",""trial"",""time""
""fullscreenenter"",""1"",""10726""
","
","
","""event"",""trial"",""time""
""fullscreenenter"",""1"",""10726""
","
","","","","","","1141.0999999977648","images/cat4.png","","","learning","-2","-2","1","1","cat","pets","2","0","","bad","[-6]"
"html-keyboard-response","90","472629","0.0-9.0-2.0-0.9","4526","2","24","Female","approach_avoid_spark_v1","""event"",""trial"",""time""
""fullscreenenter"",""1"",""10726""
","
","
","""event"",""trial"",""time""
""fullscreenenter"",""1"",""10726""
","
","","","","","","null","<div style=""font-size:60px;"">+</div>","null","","fixation","","","","","","","","","","",""
"aa-learning-trial","91","475636","0.0-9.0-2.0-1.9","4526","2","24","Female","approach_avoid_spark_v1","""event"",""trial"",""time""
""fullscreenenter"",""1"",""10726""
","
","
","""event"",""trial"",""time""
""fullscreenenter"",""1"",""10726""
","
","","","","","","1070.9000000022352","images/rodent3.png","","","learning","3","0","0","0","rodent","pets","2","0","","good","[3]"
"html-keyboard-response","92","476141","0.0-9.0-2.0-0.10","4526","2","24","Female","approach_avoid_spark_v1","""event"",""trial"",""time""
""fullscreenenter"",""1"",""10726""
","
","
","""event"",""trial"",""time""
""fullscreenenter"",""1"",""10726""
","
","","","","","","null","<div style=""font-size:60px;"">+</div>","null","","fixation","","","","","","","","","","",""
"aa-learning-trial","93","479148","0.0-9.0-2.0-1.10","4526","2","24","Female","approach_avoid_spark_v1","""event"",""trial"",""time""
""fullscreenenter"",""1"",""10726""
","
","
","""event"",""trial"",""time""
""fullscreenenter"",""1"",""10726""
","
","","","","","","1049.800000000745","images/dog8.png","","","learning","-3","-3","1","1","dog","pets","2","0","","neutral","0"
"html-keyboard-response","94","479649","0.0-9.0-2.0-0.11","4526","2","24","Female","approach_avoid_spark_v1","""event"",""trial"",""time""
""fullscreenenter"",""1"",""10726""
","
","
","""event"",""trial"",""time""
""fullscreenenter"",""1"",""10726""
","
","","","","","","null","<div style=""font-size:60px;"">+</div>","null","","fixation","","","","","","","","","","",""
"aa-learning-trial","95","482652","0.0-9.0-2.0-1.11","4526","2","24","Female","approach_avoid_spark_v1","""event"",""trial"",""time""
""fullscreenenter"",""1"",""10726""
","
","
","""event"",""trial"",""time""
""fullscreenenter"",""1"",""10726""
","
","","","","","","735.1999999992549","images/dog6.png","","","learning","1","1","1","1","dog","pets","2","0","","neutral","0"
"html-keyboard-response","96","483158","0.0-9.0-2.0-0.12","4526","2","24","Female","approach_avoid_spark_v1","""event"",""trial"",""time""
""fullscreenenter"",""1"",""10726""
","
","
","""event"",""trial"",""time""
""fullscreenenter"",""1"",""10726""
","
","","","","","","null","<div style=""font-size:60px;"">+</div>","null","","fixation","","","","","","","","","","",""
"aa-learning-trial","97","486166","0.0-9.0-2.0-1.12","4526","2","24","Female","approach_avoid_spark_v1","""event"",""trial"",""time""
""fullscreenenter"",""1"",""10726""
","
","
","""event"",""trial"",""time""
""fullscreenenter"",""1"",""10726""
","
","","","","","","825","images/cat3.png","","","learning","9","9","1","1","cat","pets","2","0","","bad","[-6]"
"html-keyboard-response","98","486669","0.0-9.0-2.0-0.13","4526","2","24","Female","approach_avoid_spark_v1","""event"",""trial"",""time""
""fullscreenenter"",""1"",""10726""
","
","
","""event"",""trial"",""time""
""fullscreenenter"",""1"",""10726""
","
","","","","","","null","<div style=""font-size:60px;"">+</div>","null","","fixation","","","","","","","","","","",""
"aa-learning-trial","99","489672","0.0-9.0-2.0-1.13","4526","2","24","Female","approach_avoid_spark_v1","""event"",""trial"",""time""
""fullscreenenter"",""1"",""10726""
","
","
","""event"",""trial"",""time""
""fullscreenenter"",""1"",""10726""
","
","","","","","","1438.699999999255","images/dog8.png","","","learning","-3","0","0","0","dog","pets","2","0","","neutral","0"
"html-keyboard-response","100","490177","0.0-9.0-2.0-0.14","4526","2","24","Female","approach_avoid_spark_v1","""event"",""trial"",""time""
""fullscreenenter"",""1"",""10726""
","
","
","""event"",""trial"",""time""
""fullscreenenter"",""1"",""10726""
","
","","","","","","null","<div style=""font-size:60px;"">+</div>","null","","fixation","","","","","","","","","","",""
"aa-learning-trial","101","493184","0.0-9.0-2.0-1.14","4526","2","24","Female","approach_avoid_spark_v1","""event"",""trial"",""time""
""fullscreenenter"",""1"",""10726""
","
","
","""event"",""trial"",""time""
""fullscreenenter"",""1"",""10726""
","
","","","","","","1195.800000000745","images/cat8.png","","","learning","-5","-5","1","1","cat","pets","2","0","","bad","[-6]"
"html-keyboard-response","102","493686","0.0-9.0-2.0-0.15","4526","2","24","Female","approach_avoid_spark_v1","""event"",""trial"",""time""
""fullscreenenter"",""1"",""10726""
","
","
","""event"",""trial"",""time""
""fullscreenenter"",""1"",""10726""
","
","","","","","","null","<div style=""font-size:60px;"">+</div>","null","","fixation","","","","","","","","","","",""
"aa-learning-trial","103","496690","0.0-9.0-2.0-1.15","4526","2","24","Female","approach_avoid_spark_v1","""event"",""trial"",""time""
""fullscreenenter"",""1"",""10726""
","
","
","""event"",""trial"",""time""
""fullscreenenter"",""1"",""10726""
","
","","","","","","1178","images/dog4.png","","","learning","5","5","1","1","dog","pets","2","0","","neutral","0"
"html-keyboard-response","104","497195","0.0-9.0-2.0-0.16","4526","2","24","Female","approach_avoid_spark_v1","""event"",""trial"",""time""
""fullscreenenter"",""1"",""10726""
","
","
","""event"",""trial"",""time""
""fullscreenenter"",""1"",""10726""
","
","","","","","","null","<div style=""font-size:60px;"">+</div>","null","","fixation","","","","","","","","","","",""
"aa-learning-trial","105","500202","0.0-9.0-2.0-1.16","4526","2","24","Female","approach_avoid_spark_v1","""event"",""trial"",""time""
""fullscreenenter"",""1"",""10726""
","
","
","""event"",""trial"",""time""
""fullscreenenter"",""1"",""10726""
","
","","","","","","1215.199999999255","images/cat1.png","","","learning","4","0","0","0","cat","pets","2","0","","bad","[-6]"
"html-keyboard-response","106","500704","0.0-9.0-2.0-0.17","4526","2","24","Female","approach_avoid_spark_v1","""event"",""trial"",""time""
""fullscreenenter"",""1"",""10726""
","
","
","""event"",""trial"",""time""
""fullscreenenter"",""1"",""10726""
","
","","","","","","null","<div style=""font-size:60px;"">+</div>","null","","fixation","","","","","","","","","","",""
"aa-learning-trial","107","503709","0.0-9.0-2.0-1.17","4526","2","24","Female","approach_avoid_spark_v1","""event"",""trial"",""time""
""fullscreenenter"",""1"",""10726""
","
","
","""event"",""trial"",""time""
""fullscreenenter"",""1"",""10726""
","
","","","","","","1080.2000000029802","images/cat3.png","","","learning","9","9","1","1","cat","pets","2","0","","bad","[-6]"
"html-keyboard-response","108","504214","0.0-9.0-2.0-0.18","4526","2","24","Female","approach_avoid_spark_v1","""event"",""trial"",""time""
""fullscreenenter"",""1"",""10726""
","
","
","""event"",""trial"",""time""
""fullscreenenter"",""1"",""10726""
","
","","","","","","null","<div style=""font-size:60px;"">+</div>","null","","fixation","","","","","","","","","","",""
"aa-learning-trial","109","507220","0.0-9.0-2.0-1.18","4526","2","24","Female","approach_avoid_spark_v1","""event"",""trial"",""time""
""fullscreenenter"",""1"",""10726""
","
","
","""event"",""trial"",""time""
""fullscreenenter"",""1"",""10726""
","
","","","","","","1155.800000000745","images/cat4.png","","","learning","-2","0","0","0","cat","pets","2","0","","bad","[-6]"
"html-keyboard-response","110","507722","0.0-9.0-2.0-0.19","4526","2","24","Female","approach_avoid_spark_v1","""event"",""trial"",""time""
""fullscreenenter"",""1"",""10726""
","
","
","""event"",""trial"",""time""
""fullscreenenter"",""1"",""10726""
","
","","","","","","null","<div style=""font-size:60px;"">+</div>","null","","fixation","","","","","","","","","","",""
"aa-learning-trial","111","510727","0.0-9.0-2.0-1.19","4526","2","24","Female","approach_avoid_spark_v1","""event"",""trial"",""time""
""fullscreenenter"",""1"",""10726""
","
","
","""event"",""trial"",""time""
""fullscreenenter"",""1"",""10726""
","
","","","","","","766.6999999992549","images/cat4.png","","","learning","-2","0","0","0","cat","pets","2","0","","bad","[-6]"
"html-keyboard-response","112","511232","0.0-9.0-2.0-0.20","4526","2","24","Female","approach_avoid_spark_v1","""event"",""trial"",""time""
""fullscreenenter"",""1"",""10726""
","
","
","""event"",""trial"",""time""
""fullscreenenter"",""1"",""10726""
","
","","","","","","null","<div style=""font-size:60px;"">+</div>","null","","fixation","","","","","","","","","","",""
"aa-learning-trial","113","514239","0.0-9.0-2.0-1.20","4526","2","24","Female","approach_avoid_spark_v1","""event"",""trial"",""time""
""fullscreenenter"",""1"",""10726""
","
","
","""event"",""trial"",""time""
""fullscreenenter"",""1"",""10726""
","
","","","","","","2107.699999999255","images/rodent1.png","","","learning","-4","0","0","0","rodent","pets","2","0","","good","[3]"
"html-keyboard-response","114","514744","0.0-9.0-2.0-0.21","4526","2","24","Female","approach_avoid_spark_v1","""event"",""trial"",""time""
""fullscreenenter"",""1"",""10726""
","
","
","""event"",""trial"",""time""
""fullscreenenter"",""1"",""10726""
","
","","","","","","null","<div style=""font-size:60px;"">+</div>","null","","fixation","","","","","","","","","","",""
"aa-learning-trial","115","517747","0.0-9.0-2.0-1.21","4526","2","24","Female","approach_avoid_spark_v1","""event"",""trial"",""time""
""fullscreenenter"",""1"",""10726""
","
","
","""event"",""trial"",""time""
""fullscreenenter"",""1"",""10726""
","
","","","","","","936","images/rodent1.png","","","learning","-4","0","0","0","rodent","pets","2","0","","good","[3]"
"html-keyboard-response","116","518250","0.0-9.0-2.0-0.22","4526","2","24","Female","approach_avoid_spark_v1","""event"",""trial"",""time""
""fullscreenenter"",""1"",""10726""
","
","
","""event"",""trial"",""time""
""fullscreenenter"",""1"",""10726""
","
","","","","","","null","<div style=""font-size:60px;"">+</div>","null","","fixation","","","","","","","","","","",""
"aa-learning-trial","117","521257","0.0-9.0-2.0-1.22","4526","2","24","Female","approach_avoid_spark_v1","""event"",""trial"",""time""
""fullscreenenter"",""1"",""10726""
","
","
","""event"",""trial"",""time""
""fullscreenenter"",""1"",""10726""
","
","","","","","","1150.800000000745","images/dog8.png","","","learning","-3","0","0","0","dog","pets","2","0","","neutral","0"
"html-keyboard-response","118","521758","0.0-9.0-2.0-0.23","4526","2","24","Female","approach_avoid_spark_v1","""event"",""trial"",""time""
""fullscreenenter"",""1"",""10726""
","
","
","""event"",""trial"",""time""
""fullscreenenter"",""1"",""10726""
","
","","","","","","null","<div style=""font-size:60px;"">+</div>","null","","fixation","","","","","","","","","","",""
"aa-learning-trial","119","524763","0.0-9.0-2.0-1.23","4526","2","24","Female","approach_avoid_spark_v1","""event"",""trial"",""time""
""fullscreenenter"",""1"",""10726""
","
","
","""event"",""trial"",""time""
""fullscreenenter"",""1"",""10726""
","
","","","","","","1267","images/rodent3.png","","","learning","3","3","1","1","rodent","pets","2","0","","good","[3]"
"html-keyboard-response","120","525268","0.0-9.0-2.0-0.24","4526","2","24","Female","approach_avoid_spark_v1","""event"",""trial"",""time""
""fullscreenenter"",""1"",""10726""
","
","
","""event"",""trial"",""time""
""fullscreenenter"",""1"",""10726""
","
","","","","","","null","<div style=""font-size:60px;"">+</div>","null","","fixation","","","","","","","","","","",""
"aa-learning-trial","121","528275","0.0-9.0-2.0-1.24","4526","2","24","Female","approach_avoid_spark_v1","""event"",""trial"",""time""
""fullscreenenter"",""1"",""10726""
","
","
","""event"",""trial"",""time""
""fullscreenenter"",""1"",""10726""
","
","","","","","","833","images/rodent1.png","","","learning","-4","0","0","0","rodent","pets","2","0","","good","[3]"
"html-keyboard-response","122","528781","0.0-9.0-2.0-0.25","4526","2","24","Female","approach_avoid_spark_v1","""event"",""trial"",""time""
""fullscreenenter"",""1"",""10726""
","
","
","""event"",""trial"",""time""
""fullscreenenter"",""1"",""10726""
","
","","","","","","null","<div style=""font-size:60px;"">+</div>","null","","fixation","","","","","","","","","","",""
"aa-learning-trial","123","531787","0.0-9.0-2.0-1.25","4526","2","24","Female","approach_avoid_spark_v1","""event"",""trial"",""time""
""fullscreenenter"",""1"",""10726""
","
","
","""event"",""trial"",""time""
""fullscreenenter"",""1"",""10726""
","
","","","","","","1053","images/dog6.png","","","learning","1","1","1","1","dog","pets","2","0","","neutral","0"
"html-keyboard-response","124","532289","0.0-9.0-2.0-0.26","4526","2","24","Female","approach_avoid_spark_v1","""event"",""trial"",""time""
""fullscreenenter"",""1"",""10726""
","
","
","""event"",""trial"",""time""
""fullscreenenter"",""1"",""10726""
","
","","","","","","null","<div style=""font-size:60px;"">+</div>","null","","fixation","","","","","","","","","","",""
"aa-learning-trial","125","535293","0.0-9.0-2.0-1.26","4526","2","24","Female","approach_avoid_spark_v1","""event"",""trial"",""time""
""fullscreenenter"",""1"",""10726""
","
","
","""event"",""trial"",""time""
""fullscreenenter"",""1"",""10726""
","
","","","","","","624.5999999977648","images/dog6.png","","","learning","1","1","1","1","dog","pets","2","0","","neutral","0"
"html-keyboard-response","126","535798","0.0-9.0-2.0-0.27","4526","2","24","Female","approach_avoid_spark_v1","""event"",""trial"",""time""
""fullscreenenter"",""1"",""10726""
","
","
","""event"",""trial"",""time""
""fullscreenenter"",""1"",""10726""
","
","","","","","","null","<div style=""font-size:60px;"">+</div>","null","","fixation","","","","","","","","","","",""
"aa-learning-trial","127","538805","0.0-9.0-2.0-1.27","4526","2","24","Female","approach_avoid_spark_v1","""event"",""trial"",""time""
""fullscreenenter"",""1"",""10726""
","
","
","""event"",""trial"",""time""
""fullscreenenter"",""1"",""10726""
","
","","","","","","788.6999999992549","images/cat4.png","","","learning","-2","0","0","0","cat","pets","2","0","","bad","[-6]"
"html-keyboard-response","128","539310","0.0-9.0-2.0-0.28","4526","2","24","Female","approach_avoid_spark_v1","""event"",""trial"",""time""
""fullscreenenter"",""1"",""10726""
","
","
","""event"",""trial"",""time""
""fullscreenenter"",""1"",""10726""
","
","","","","","","null","<div style=""font-size:60px;"">+</div>","null","","fixation","","","","","","","","","","",""
"aa-learning-trial","129","542317","0.0-9.0-2.0-1.28","4526","2","24","Female","approach_avoid_spark_v1","""event"",""trial"",""time""
""fullscreenenter"",""1"",""10726""
","
","
","""event"",""trial"",""time""
""fullscreenenter"",""1"",""10726""
","
","","","","","","793.3000000007451","images/rodent3.png","","","learning","3","3","1","1","rodent","pets","2","0","","good","[3]"
"html-keyboard-response","130","542822","0.0-9.0-2.0-0.29","4526","2","24","Female","approach_avoid_spark_v1","""event"",""trial"",""time""
""fullscreenenter"",""1"",""10726""
","
","
","""event"",""trial"",""time""
""fullscreenenter"",""1"",""10726""
","
","","","","","","null","<div style=""font-size:60px;"">+</div>","null","","fixation","","","","","","","","","","",""
"aa-learning-trial","131","545833","0.0-9.0-2.0-1.29","4526","2","24","Female","approach_avoid_spark_v1","""event"",""trial"",""time""
""fullscreenenter"",""1"",""10726""
","
","
","""event"",""trial"",""time""
""fullscreenenter"",""1"",""10726""
","
","","","","","","2042","images/rodent6.png","","","learning","-6","0","0","0","rodent","pets","2","0","","good","[3]"
"html-keyboard-response","132","546339","0.0-9.0-2.0-0.30","4526","2","24","Female","approach_avoid_spark_v1","""event"",""trial"",""time""
""fullscreenenter"",""1"",""10726""
","
","
","""event"",""trial"",""time""
""fullscreenenter"",""1"",""10726""
","
","","","","","","null","<div style=""font-size:60px;"">+</div>","null","","fixation","","","","","","","","","","",""
"aa-learning-trial","133","549353","0.0-9.0-2.0-1.30","4526","2","24","Female","approach_avoid_spark_v1","""event"",""trial"",""time""
""fullscreenenter"",""1"",""10726""
","
","
","""event"",""trial"",""time""
""fullscreenenter"",""1"",""10726""
","
","","","","","","1101.699999999255","images/rodent7.png","","","learning","-1","0","0","0","rodent","pets","2","0","","good","[3]"
"html-keyboard-response","134","549859","0.0-9.0-2.0-0.31","4526","2","24","Female","approach_avoid_spark_v1","""event"",""trial"",""time""
""fullscreenenter"",""1"",""10726""
","
","
","""event"",""trial"",""time""
""fullscreenenter"",""1"",""10726""
","
","","","","","","null","<div style=""font-size:60px;"">+</div>","null","","fixation","","","","","","","","","","",""
"aa-learning-trial","135","552872","0.0-9.0-2.0-1.31","4526","2","24","Female","approach_avoid_spark_v1","""event"",""trial"",""time""
""fullscreenenter"",""1"",""10726""
","
","
","""event"",""trial"",""time""
""fullscreenenter"",""1"",""10726""
","
","","","","","","825.5","images/cat4.png","","","learning","-2","0","0","0","cat","pets","2","0","","bad","[-6]"
"html-keyboard-response","136","553378","0.0-9.0-2.0-0.32","4526","2","24","Female","approach_avoid_spark_v1","""event"",""trial"",""time""
""fullscreenenter"",""1"",""10726""
","
","
","""event"",""trial"",""time""
""fullscreenenter"",""1"",""10726""
","
","","","","","","null","<div style=""font-size:60px;"">+</div>","null","","fixation","","","","","","","","","","",""
"aa-learning-trial","137","556389","0.0-9.0-2.0-1.32","4526","2","24","Female","approach_avoid_spark_v1","""event"",""trial"",""time""
""fullscreenenter"",""1"",""10726""
","
","
","""event"",""trial"",""time""
""fullscreenenter"",""1"",""10726""
","
","","","","","","829.1999999992549","images/dog8.png","","","learning","-3","0","0","0","dog","pets","2","0","","neutral","0"
"html-keyboard-response","138","556895","0.0-9.0-2.0-0.33","4526","2","24","Female","approach_avoid_spark_v1","""event"",""trial"",""time""
""fullscreenenter"",""1"",""10726""
","
","
","""event"",""trial"",""time""
""fullscreenenter"",""1"",""10726""
","
","","","","","","null","<div style=""font-size:60px;"">+</div>","null","","fixation","","","","","","","","","","",""
"aa-learning-trial","139","559905","0.0-9.0-2.0-1.33","4526","2","24","Female","approach_avoid_spark_v1","""event"",""trial"",""time""
""fullscreenenter"",""1"",""10726""
","
","
","""event"",""trial"",""time""
""fullscreenenter"",""1"",""10726""
","
","","","","","","1084.300000000745","images/cat7.png","","","learning","-8","0","0","0","cat","pets","2","0","","bad","[-6]"
"html-keyboard-response","140","560407","0.0-9.0-2.0-0.34","4526","2","24","Female","approach_avoid_spark_v1","""event"",""trial"",""time""
""fullscreenenter"",""1"",""10726""
","
","
","""event"",""trial"",""time""
""fullscreenenter"",""1"",""10726""
","
","","","","","","null","<div style=""font-size:60px;"">+</div>","null","","fixation","","","","","","","","","","",""
"aa-learning-trial","141","563415","0.0-9.0-2.0-1.34","4526","2","24","Female","approach_avoid_spark_v1","""event"",""trial"",""time""
""fullscreenenter"",""1"",""10726""
","
","
","""event"",""trial"",""time""
""fullscreenenter"",""1"",""10726""
","
","","","","","","892.6000000014901","images/dog8.png","","","learning","-3","0","0","0","dog","pets","2","0","","neutral","0"
"html-keyboard-response","142","563920","0.0-9.0-2.0-0.35","4526","2","24","Female","approach_avoid_spark_v1","""event"",""trial"",""time""
""fullscreenenter"",""1"",""10726""
","
","
","""event"",""trial"",""time""
""fullscreenenter"",""1"",""10726""
","
","","","","","","null","<div style=""font-size:60px;"">+</div>","null","","fixation","","","","","","","","","","",""
"aa-learning-trial","143","566930","0.0-9.0-2.0-1.35","4526","2","24","Female","approach_avoid_spark_v1","""event"",""trial"",""time""
""fullscreenenter"",""1"",""10726""
","
","
","""event"",""trial"",""time""
""fullscreenenter"",""1"",""10726""
","
","","","","","","1282.6000000014901","images/cat3.png","","","learning","9","9","1","1","cat","pets","2","0","","bad","[-6]"
"html-keyboard-response","144","567431","0.0-9.0-2.0-0.36","4526","2","24","Female","approach_avoid_spark_v1","""event"",""trial"",""time""
""fullscreenenter"",""1"",""10726""
","
","
","""event"",""trial"",""time""
""fullscreenenter"",""1"",""10726""
","
","","","","","","null","<div style=""font-size:60px;"">+</div>","null","","fixation","","","","","","","","","","",""
"aa-learning-trial","145","570438","0.0-9.0-2.0-1.36","4526","2","24","Female","approach_avoid_spark_v1","""event"",""trial"",""time""
""fullscreenenter"",""1"",""10726""
","
","
","""event"",""trial"",""time""
""fullscreenenter"",""1"",""10726""
","
","","","","","","1862.6000000014901","images/cat8.png","","","learning","-5","0","0","0","cat","pets","2","0","","bad","[-6]"
"html-keyboard-response","146","570944","0.0-9.0-2.0-0.37","4526","2","24","Female","approach_avoid_spark_v1","""event"",""trial"",""time""
""fullscreenenter"",""1"",""10726""
","
","
","""event"",""trial"",""time""
""fullscreenenter"",""1"",""10726""
","
","","","","","","null","<div style=""font-size:60px;"">+</div>","null","","fixation","","","","","","","","","","",""
"aa-learning-trial","147","573952","0.0-9.0-2.0-1.37","4526","2","24","Female","approach_avoid_spark_v1","""event"",""trial"",""time""
""fullscreenenter"",""1"",""10726""
","
","
","""event"",""trial"",""time""
""fullscreenenter"",""1"",""10726""
","
","","","","","","722.7000000029802","images/dog4.png","","","learning","5","5","1","1","dog","pets","2","0","","neutral","0"
"html-keyboard-response","148","574453","0.0-9.0-2.0-0.38","4526","2","24","Female","approach_avoid_spark_v1","""event"",""trial"",""time""
""fullscreenenter"",""1"",""10726""
","
","
","""event"",""trial"",""time""
""fullscreenenter"",""1"",""10726""
","
","","","","","","null","<div style=""font-size:60px;"">+</div>","null","","fixation","","","","","","","","","","",""
"aa-learning-trial","149","577460","0.0-9.0-2.0-1.38","4526","2","24","Female","approach_avoid_spark_v1","""event"",""trial"",""time""
""fullscreenenter"",""1"",""10726""
","
","
","""event"",""trial"",""time""
""fullscreenenter"",""1"",""10726""
","
","","","","","","960.3999999985099","images/dog7.png","","","learning","-9","-9","1","1","dog","pets","2","0","","neutral","0"
"html-keyboard-response","150","577965","0.0-9.0-2.0-0.39","4526","2","24","Female","approach_avoid_spark_v1","""event"",""trial"",""time""
""fullscreenenter"",""1"",""10726""
","
","
","""event"",""trial"",""time""
""fullscreenenter"",""1"",""10726""
","
","","","","","","null","<div style=""font-size:60px;"">+</div>","null","","fixation","","","","","","","","","","",""
"aa-learning-trial","151","580973","0.0-9.0-2.0-1.39","4526","2","24","Female","approach_avoid_spark_v1","""event"",""trial"",""time""
""fullscreenenter"",""1"",""10726""
","
","
","""event"",""trial"",""time""
""fullscreenenter"",""1"",""10726""
","
","","","","","","785.5","images/dog6.png","","","learning","1","1","1","1","dog","pets","2","0","","neutral","0"
"html-keyboard-response","152","581474","0.0-9.0-2.0-0.40","4526","2","24","Female","approach_avoid_spark_v1","""event"",""trial"",""time""
""fullscreenenter"",""1"",""10726""
","
","
","""event"",""trial"",""time""
""fullscreenenter"",""1"",""10726""
","
","","","","","","null","<div style=""font-size:60px;"">+</div>","null","","fixation","","","","","","","","","","",""
"aa-learning-trial","153","584480","0.0-9.0-2.0-1.40","4526","2","24","Female","approach_avoid_spark_v1","""event"",""trial"",""time""
""fullscreenenter"",""1"",""10726""
","
","
","""event"",""trial"",""time""
""fullscreenenter"",""1"",""10726""
","
","","","","","","855.3000000007451","images/rodent7.png","","","learning","-1","0","0","0","rodent","pets","2","0","","good","[3]"
"html-keyboard-response","154","584985","0.0-9.0-2.0-0.41","4526","2","24","Female","approach_avoid_spark_v1","""event"",""trial"",""time""
""fullscreenenter"",""1"",""10726""
","
","
","""event"",""trial"",""time""
""fullscreenenter"",""1"",""10726""
","
","","","","","","null","<div style=""font-size:60px;"">+</div>","null","","fixation","","","","","","","","","","",""
"aa-learning-trial","155","587992","0.0-9.0-2.0-1.41","4526","2","24","Female","approach_avoid_spark_v1","""event"",""trial"",""time""
""fullscreenenter"",""1"",""10726""
","
","
","""event"",""trial"",""time""
""fullscreenenter"",""1"",""10726""
","
","","","","","","987.6999999992549","images/rodent1.png","","","learning","-4","0","0","0","rodent","pets","2","0","","good","[3]"
"html-keyboard-response","156","588494","0.0-9.0-2.0-0.42","4526","2","24","Female","approach_avoid_spark_v1","""event"",""trial"",""time""
""fullscreenenter"",""1"",""10726""
","
","
","""event"",""trial"",""time""
""fullscreenenter"",""1"",""10726""
","
","","","","","","null","<div style=""font-size:60px;"">+</div>","null","","fixation","","","","","","","","","","",""
"aa-learning-trial","157","591499","0.0-9.0-2.0-1.42","4526","2","24","Female","approach_avoid_spark_v1","""event"",""trial"",""time""
""fullscreenenter"",""1"",""10726""
","
","
","""event"",""trial"",""time""
""fullscreenenter"",""1"",""10726""
","
","","","","","","1084.5999999977648","images/cat8.png","","","learning","-5","0","0","0","cat","pets","2","0","","bad","[-6]"
"html-keyboard-response","158","592004","0.0-9.0-2.0-0.43","4526","2","24","Female","approach_avoid_spark_v1","""event"",""trial"",""time""
""fullscreenenter"",""1"",""10726""
","
","
","""event"",""trial"",""time""
""fullscreenenter"",""1"",""10726""
","
","","","","","","null","<div style=""font-size:60px;"">+</div>","null","","fixation","","","","","","","","","","",""
"aa-learning-trial","159","595012","0.0-9.0-2.0-1.43","4526","2","24","Female","approach_avoid_spark_v1","""event"",""trial"",""time""
""fullscreenenter"",""1"",""10726""
","
","
","""event"",""trial"",""time""
""fullscreenenter"",""1"",""10726""
","
","","","","","","786.6999999992549","images/dog8.png","","","learning","-3","0","0","0","dog","pets","2","0","","neutral","0"
"html-keyboard-response","160","595517","0.0-9.0-2.0-0.44","4526","2","24","Female","approach_avoid_spark_v1","""event"",""trial"",""time""
""fullscreenenter"",""1"",""10726""
","
","
","""event"",""trial"",""time""
""fullscreenenter"",""1"",""10726""
","
","","","","","","null","<div style=""font-size:60px;"">+</div>","null","","fixation","","","","","","","","","","",""
"aa-learning-trial","161","598524","0.0-9.0-2.0-1.44","4526","2","24","Female","approach_avoid_spark_v1","""event"",""trial"",""time""
""fullscreenenter"",""1"",""10726""
","
","
","""event"",""trial"",""time""
""fullscreenenter"",""1"",""10726""
","
","","","","","","1786.300000000745","images/dog3.png","","","learning","8","0","0","0","dog","pets","2","0","","neutral","0"
"html-keyboard-response","162","599029","0.0-9.0-2.0-0.45","4526","2","24","Female","approach_avoid_spark_v1","""event"",""trial"",""time""
""fullscreenenter"",""1"",""10726""
","
","
","""event"",""trial"",""time""
""fullscreenenter"",""1"",""10726""
","
","","","","","","null","<div style=""font-size:60px;"">+</div>","null","","fixation","","","","","","","","","","",""
"aa-learning-trial","163","602031","0.0-9.0-2.0-1.45","4526","2","24","Female","approach_avoid_spark_v1","""event"",""trial"",""time""
""fullscreenenter"",""1"",""10726""
","
","
","""event"",""trial"",""time""
""fullscreenenter"",""1"",""10726""
","
","","","","","","945.9000000022352","images/dog6.png","","","learning","1","1","1","1","dog","pets","2","0","","neutral","0"
"html-keyboard-response","164","602536","0.0-9.0-2.0-0.46","4526","2","24","Female","approach_avoid_spark_v1","""event"",""trial"",""time""
""fullscreenenter"",""1"",""10726""
","
","
","""event"",""trial"",""time""
""fullscreenenter"",""1"",""10726""
","
","","","","","","null","<div style=""font-size:60px;"">+</div>","null","","fixation","","","","","","","","","","",""
"aa-learning-trial","165","605543","0.0-9.0-2.0-1.46","4526","2","24","Female","approach_avoid_spark_v1","""event"",""trial"",""time""
""fullscreenenter"",""1"",""10726""
","
","
","""event"",""trial"",""time""
""fullscreenenter"",""1"",""10726""
","
","","","","","","744","images/rodent2.png","","","learning","7","0","0","0","rodent","pets","2","0","","good","[3]"
"html-keyboard-response","166","606048","0.0-9.0-2.0-0.47","4526","2","24","Female","approach_avoid_spark_v1","""event"",""trial"",""time""
""fullscreenenter"",""1"",""10726""
","
","
","""event"",""trial"",""time""
""fullscreenenter"",""1"",""10726""
","
","","","","","","null","<div style=""font-size:60px;"">+</div>","null","","fixation","","","","","","","","","","",""
"aa-learning-trial","167","609055","0.0-9.0-2.0-1.47","4526","2","24","Female","approach_avoid_spark_v1","""event"",""trial"",""time""
""fullscreenenter"",""1"",""10726""
","
","
","""event"",""trial"",""time""
""fullscreenenter"",""1"",""10726""
","
","","","","","","912","images/rodent7.png","","","learning","-1","0","0","0","rodent","pets","2","0","","good","[3]"
"html-keyboard-response","168","609560","0.0-9.0-2.0-0.48","4526","2","24","Female","approach_avoid_spark_v1","""event"",""trial"",""time""
""fullscreenenter"",""1"",""10726""
","
","
","""event"",""trial"",""time""
""fullscreenenter"",""1"",""10726""
","
","","","","","","null","<div style=""font-size:60px;"">+</div>","null","","fixation","","","","","","","","","","",""
"aa-learning-trial","169","612568","0.0-9.0-2.0-1.48","4526","2","24","Female","approach_avoid_spark_v1","""event"",""trial"",""time""
""fullscreenenter"",""1"",""10726""
","
","
","""event"",""trial"",""time""
""fullscreenenter"",""1"",""10726""
","
","","","","","","728.2999999970198","images/cat3.png","","","learning","9","9","1","1","cat","pets","2","0","","bad","[-6]"
"html-keyboard-response","170","613069","0.0-9.0-2.0-0.49","4526","2","24","Female","approach_avoid_spark_v1","""event"",""trial"",""time""
""fullscreenenter"",""1"",""10726""
","
","
","""event"",""trial"",""time""
""fullscreenenter"",""1"",""10726""
","
","","","","","","null","<div style=""font-size:60px;"">+</div>","null","","fixation","","","","","","","","","","",""
"aa-learning-trial","171","616074","0.0-9.0-2.0-1.49","4526","2","24","Female","approach_avoid_spark_v1","""event"",""trial"",""time""
""fullscreenenter"",""1"",""10726""
","
","
","""event"",""trial"",""time""
""fullscreenenter"",""1"",""10726""
","
","","","","","","487.3999999985099","images/cat3.png","","","learning","9","9","1","1","cat","pets","2","0","","bad","[-6]"
"html-keyboard-response","172","616579","0.0-9.0-2.0-0.50","4526","2","24","Female","approach_avoid_spark_v1","""event"",""trial"",""time""
""fullscreenenter"",""1"",""10726""
","
","
","""event"",""trial"",""time""
""fullscreenenter"",""1"",""10726""
","
","","","","","","null","<div style=""font-size:60px;"">+</div>","null","","fixation","","","","","","","","","","",""
"aa-learning-trial","173","619586","0.0-9.0-2.0-1.50","4526","2","24","Female","approach_avoid_spark_v1","""event"",""trial"",""time""
""fullscreenenter"",""1"",""10726""
","
","
","""event"",""trial"",""time""
""fullscreenenter"",""1"",""10726""
","
","","","","","","859.1000000014901","images/rodent7.png","","","learning","-1","0","0","0","rodent","pets","2","0","","good","[3]"
"html-button-response","174","621751","0.0-9.0-3.0","4526","2","24","Female","approach_avoid_spark_v1","""event"",""trial"",""time""
""fullscreenenter"",""1"",""10726""
","
","
","""event"",""trial"",""time""
""fullscreenenter"",""1"",""10726""
","
","","","","","","2163.800000000745","<p> You have completed the round! <p> In this round, you earned 57 points! </p>","0","","break","","","","","","","","","","",""
"html-button-response","175","623399","0.0-10.0","4526","2","24","Female","approach_avoid_spark_v1","""event"",""trial"",""time""
""fullscreenenter"",""1"",""10726""
","
","
","""event"",""trial"",""time""
""fullscreenenter"",""1"",""10726""
","
","","","","","","1646","<p> Now it's time to play another round. </p>","0","","transition_screen","","","","","","","","","","",""
"preload","176","623518","0.0-11.0-0.0","4526","2","24","Female","approach_avoid_spark_v1","""event"",""trial"",""time""
""fullscreenenter"",""1"",""10726""
","
","
","""event"",""trial"",""time""
""fullscreenenter"",""1"",""10726""
","
","true","false","[]","[]","[]","","","","","","","","","","","","","","","",""
"learning-instructions","177","629225","0.0-11.0-1.0-0.0","4526","2","24","Female","approach_avoid_spark_v1","""event"",""trial"",""time""
""fullscreenenter"",""1"",""10726""
","
","
","""event"",""trial"",""time""
""fullscreenenter"",""1"",""10726""
","
","","","","","","2077.699999999255","<p> Your goal in this round is to eat tasty fruit. </p></div>","","0","instructions","","","","","","","","","","",""
"learning-instructions","178","646148","0.0-11.0-1.0-0.1","4526","2","24","Female","approach_avoid_spark_v1","""event"",""trial"",""time""
""fullscreenenter"",""1"",""10726""
","
","
","""event"",""trial"",""time""
""fullscreenenter"",""1"",""10726""
","
","","","","","","7222","<p> Some of the fruits you will see are tasty. Others are rotten on the inside.  </p><p> On each turn, you will see a fruit.   </p><p> You need to decide whether to eat it or not.  </p>","","0","instructions","","","","","","","","","","",""
"learning-instructions","179","652603","0.0-11.0-1.0-0.2","4526","2","24","Female","approach_avoid_spark_v1","""event"",""trial"",""time""
""fullscreenenter"",""1"",""10726""
","
","
","""event"",""trial"",""time""
""fullscreenenter"",""1"",""10726""
","
","","","","","","1700.6000000014901","<p> You can eat the fruit by pressing 1 and choose not to eat it by pressing 0. </p><br><div class=""choice-instructions-grid""> <div class=""choice-option""><img src=""images/approach.png"" class=""choice-option-img"" stage=""instructions"" position=""0"" ><div class=""choice-option-text""> Press ""1."" </div></div><div class=""choice-option""><img src=""images/avoid.png"" class=""choice-option-img"" stage=""instructions"" position=""1"" ><div class=""choice-option-text""> Press ""0."" </div></div>","","0","instructions","","","","","","","","","","",""
"learning-instructions","180","662415","0.0-11.0-1.0-0.3","4526","2","24","Female","approach_avoid_spark_v1","""event"",""trial"",""time""
""fullscreenenter"",""1"",""10726""
","
","
","""event"",""trial"",""time""
""fullscreenenter"",""1"",""10726""
","
","","","","","","2474.199999999255","<p> If you eat the fruit and it was tasty, you will win points! </p><p> But if you eat the fruit and it was rotten, you will lose points. </p>","","0","instructions","","","","","","","","","","",""
"learning-instructions","181","680139","0.0-11.0-1.0-0.4","4526","2","24","Female","approach_avoid_spark_v1","""event"",""trial"",""time""
""fullscreenenter"",""1"",""10726""
","
","
","""event"",""trial"",""time""
""fullscreenenter"",""1"",""10726""
","
","","","","","","6637.39999999851","<p> You will earn points based on how tasty or rotten the fruit was. </p><p> If it was tasty, you will WIN anywhere from 1 - 9 points, </p><p> but if it was rotten, you will LOSE anywhere from 1 - 9 points. </p>","","0","instructions","","","","","","","","","","",""
"learning-instructions","182","692418","0.0-11.0-1.0-0.5","4526","2","24","Female","approach_avoid_spark_v1","""event"",""trial"",""time""
""fullscreenenter"",""1"",""10726""
","
","
","""event"",""trial"",""time""
""fullscreenenter"",""1"",""10726""
","
","","","","","","5629.099999997765","<p> You will see how many points you won or lost in the center of the screen. </p><p> Here is what you would see if you earned 5 points: </p><p style=""color:green;font-size:50px;font-weight:bolder"">5</p>","","0","instructions","","","","","","","","","","",""
"learning-instructions","183","697011","0.0-11.0-1.0-0.6","4526","2","24","Female","approach_avoid_spark_v1","""event"",""trial"",""time""
""fullscreenenter"",""1"",""10726""
","
","
","""event"",""trial"",""time""
""fullscreenenter"",""1"",""10726""
","
","","","","","","1763.6000000014901","<p> And here is what you would see if you lost 3 points: </p><p style=""color:red;font-size:50px;font-weight:bolder"">-3</p>","","0","instructions","","","","","","","","","","",""
"learning-instructions","184","713360","0.0-11.0-1.0-0.7","4526","2","24","Female","approach_avoid_spark_v1","""event"",""trial"",""time""
""fullscreenenter"",""1"",""10726""
","
","
","""event"",""trial"",""time""
""fullscreenenter"",""1"",""10726""
","
","","","","","","2746.7000000029802","<p> Some fruit is very tasty or very rotten. </p><p> These fruits will make you win or lose LOTS of points. </p><p> Other fruits are only kind of tasty or kind of rotten. </p><p> These fruits will make you win or lose small amounts of points. </p>","","0","instructions","","","","","","","","","","",""
"learning-instructions","185","728781","0.0-11.0-1.0-0.8","4526","2","24","Female","approach_avoid_spark_v1","""event"",""trial"",""time""
""fullscreenenter"",""1"",""10726""
","
","
","""event"",""trial"",""time""
""fullscreenenter"",""1"",""10726""
","
","","","","","","5158.400000002235","<p> If you choose to not eat the fruit, you will not win or lose any points. </p><p>  However, in the center of the screen, you will see the number of points you WOULD HAVE earned if you had eaten the fruit. </p>","","0","instructions","","","","","","","","","","",""
"learning-instructions","186","740351","0.0-11.0-1.0-0.9","4526","2","24","Female","approach_avoid_spark_v1","""event"",""trial"",""time""
""fullscreenenter"",""1"",""10726""
","
","
","""event"",""trial"",""time""
""fullscreenenter"",""1"",""10726""
","
","","","","","","1896.699999999255","<p> Here is what you might see if you did not eat the fruit but the fruit was tasty: </p><p style=""color:grey; font-size:50px; display: inline-block; border-spacing: 15px; border-width:3px; border-style:solid; border-color:red"">  &nbsp; 6 &nbsp; </p><p> Remember, in this case, you would not win or lose ANY points because you did not eat the fruit.  </p>","","0","instructions","","","","","","","","","","",""
"learning-instructions","187","752468","0.0-11.0-1.0-0.10","4526","2","24","Female","approach_avoid_spark_v1","""event"",""trial"",""time""
""fullscreenenter"",""1"",""10726""
","
","
","""event"",""trial"",""time""
""fullscreenenter"",""1"",""10726""
","
","","","","","","4330.699999999255","<p> Try to make the best choice for each fruit because </p><p> at the end of the game, you will earn bonus money based on how many points you earned. </p>","","0","instructions","","","","","","","","","","",""
"learning-instructions","188","768476","0.0-11.0-1.0-0.11","4526","2","24","Female","approach_avoid_spark_v1","""event"",""trial"",""time""
""fullscreenenter"",""1"",""10726""
","
","
","""event"",""trial"",""time""
""fullscreenenter"",""1"",""10726""
","
","","","","","","7829.099999997765","<p> You will have 3 seconds to make each choice. Try to respond before time runs out! </p><p> You will lose 5 points each time you do not make a response. </p>","","0","instructions","","","","","","","","","","",""
"html-keyboard-response","189","769085","0.0-11.0-2.0-0.0","4526","2","24","Female","approach_avoid_spark_v1","""event"",""trial"",""time""
""fullscreenenter"",""1"",""10726""
","
","
","""event"",""trial"",""time""
""fullscreenenter"",""1"",""10726""
","
","","","","","","null","<div style=""font-size:60px;"">+</div>","null","","fixation","","","","","","","","","","",""
"aa-learning-trial","190","772089","0.0-11.0-2.0-1.0","4526","2","24","Female","approach_avoid_spark_v1","""event"",""trial"",""time""
""fullscreenenter"",""1"",""10726""
","
","
","""event"",""trial"",""time""
""fullscreenenter"",""1"",""10726""
","
","","","","","","2162.699999999255","images/apple1.png","","","learning","4","4","1","1","apple","fruit","1","1","","good","[4]"
"html-keyboard-response","191","772591","0.0-11.0-2.0-0.1","4526","2","24","Female","approach_avoid_spark_v1","""event"",""trial"",""time""
""fullscreenenter"",""1"",""10726""
","
","
","""event"",""trial"",""time""
""fullscreenenter"",""1"",""10726""
","
","","","","","","null","<div style=""font-size:60px;"">+</div>","null","","fixation","","","","","","","","","","",""
"aa-learning-trial","192","775595","0.0-11.0-2.0-1.1","4526","2","24","Female","approach_avoid_spark_v1","""event"",""trial"",""time""
""fullscreenenter"",""1"",""10726""
","
","
","""event"",""trial"",""time""
""fullscreenenter"",""1"",""10726""
","
","","","","","","1215.2000000029802","images/orange8.png","","","learning","-2","-2","1","1","orange","fruit","1","1","","bad","[-4]"
"html-keyboard-response","193","776097","0.0-11.0-2.0-0.2","4526","2","24","Female","approach_avoid_spark_v1","""event"",""trial"",""time""
""fullscreenenter"",""1"",""10726""
","
","
","""event"",""trial"",""time""
""fullscreenenter"",""1"",""10726""
","
","","","","","","null","<div style=""font-size:60px;"">+</div>","null","","fixation","","","","","","","","","","",""
"aa-learning-trial","194","779100","0.0-11.0-2.0-1.2","4526","2","24","Female","approach_avoid_spark_v1","""event"",""trial"",""time""
""fullscreenenter"",""1"",""10726""
","
","
","""event"",""trial"",""time""
""fullscreenenter"",""1"",""10726""
","
","","","","","","1042.0999999977648","images/apple8.png","","","learning","4","4","1","1","apple","fruit","1","1","","good","[4]"
"html-keyboard-response","195","779603","0.0-11.0-2.0-0.3","4526","2","24","Female","approach_avoid_spark_v1","""event"",""trial"",""time""
""fullscreenenter"",""1"",""10726""
","
","
","""event"",""trial"",""time""
""fullscreenenter"",""1"",""10726""
","
","","","","","","null","<div style=""font-size:60px;"">+</div>","null","","fixation","","","","","","","","","","",""
"aa-learning-trial","196","782611","0.0-11.0-2.0-1.3","4526","2","24","Female","approach_avoid_spark_v1","""event"",""trial"",""time""
""fullscreenenter"",""1"",""10726""
","
","
","""event"",""trial"",""time""
""fullscreenenter"",""1"",""10726""
","
","","","","","","1278","images/orange2.png","","","learning","-2","0","0","0","orange","fruit","1","1","","bad","[-4]"
"html-keyboard-response","197","783112","0.0-11.0-2.0-0.4","4526","2","24","Female","approach_avoid_spark_v1","""event"",""trial"",""time""
""fullscreenenter"",""1"",""10726""
","
","
","""event"",""trial"",""time""
""fullscreenenter"",""1"",""10726""
","
","","","","","","null","<div style=""font-size:60px;"">+</div>","null","","fixation","","","","","","","","","","",""
"aa-learning-trial","198","786117","0.0-11.0-2.0-1.4","4526","2","24","Female","approach_avoid_spark_v1","""event"",""trial"",""time""
""fullscreenenter"",""1"",""10726""
","
","
","""event"",""trial"",""time""
""fullscreenenter"",""1"",""10726""
","
","","","","","","795.1000000014901","images/orange8.png","","","learning","-5","0","0","0","orange","fruit","1","1","","bad","[-4]"
"html-keyboard-response","199","786622","0.0-11.0-2.0-0.5","4526","2","24","Female","approach_avoid_spark_v1","""event"",""trial"",""time""
""fullscreenenter"",""1"",""10726""
","
","
","""event"",""trial"",""time""
""fullscreenenter"",""1"",""10726""
","
","","","","","","null","<div style=""font-size:60px;"">+</div>","null","","fixation","","","","","","","","","","",""
"aa-learning-trial","200","789625","0.0-11.0-2.0-1.5","4526","2","24","Female","approach_avoid_spark_v1","""event"",""trial"",""time""
""fullscreenenter"",""1"",""10726""
","
","
","""event"",""trial"",""time""
""fullscreenenter"",""1"",""10726""
","
","","","","","","1235.5","images/banana8.png","","","learning","2","0","0","0","banana","fruit","1","1","","neutral","0"
"html-keyboard-response","201","790128","0.0-11.0-2.0-0.6","4526","2","24","Female","approach_avoid_spark_v1","""event"",""trial"",""time""
""fullscreenenter"",""1"",""10726""
","
","
","""event"",""trial"",""time""
""fullscreenenter"",""1"",""10726""
","
","","","","","","null","<div style=""font-size:60px;"">+</div>","null","","fixation","","","","","","","","","","",""
"aa-learning-trial","202","793133","0.0-11.0-2.0-1.6","4526","2","24","Female","approach_avoid_spark_v1","""event"",""trial"",""time""
""fullscreenenter"",""1"",""10726""
","
","
","""event"",""trial"",""time""
""fullscreenenter"",""1"",""10726""
","
","","","","","","1252","images/apple6.png","","","learning","4","4","1","1","apple","fruit","1","1","","good","[4]"
"html-keyboard-response","203","793638","0.0-11.0-2.0-0.7","4526","2","24","Female","approach_avoid_spark_v1","""event"",""trial"",""time""
""fullscreenenter"",""1"",""10726""
","
","
","""event"",""trial"",""time""
""fullscreenenter"",""1"",""10726""
","
","","","","","","null","<div style=""font-size:60px;"">+</div>","null","","fixation","","","","","","","","","","",""
"aa-learning-trial","204","796645","0.0-11.0-2.0-1.7","4526","2","24","Female","approach_avoid_spark_v1","""event"",""trial"",""time""
""fullscreenenter"",""1"",""10726""
","
","
","""event"",""trial"",""time""
""fullscreenenter"",""1"",""10726""
","
","","","","","","498.4000000022352","images/orange2.png","","","learning","-4","0","0","0","orange","fruit","1","1","","bad","[-4]"
"html-keyboard-response","205","797150","0.0-11.0-2.0-0.8","4526","2","24","Female","approach_avoid_spark_v1","""event"",""trial"",""time""
""fullscreenenter"",""1"",""10726""
","
","
","""event"",""trial"",""time""
""fullscreenenter"",""1"",""10726""
","
","","","","","","null","<div style=""font-size:60px;"">+</div>","null","","fixation","","","","","","","","","","",""
"aa-learning-trial","206","800157","0.0-11.0-2.0-1.8","4526","2","24","Female","approach_avoid_spark_v1","""event"",""trial"",""time""
""fullscreenenter"",""1"",""10726""
","
","
","""event"",""trial"",""time""
""fullscreenenter"",""1"",""10726""
","
","","","","","","644.2000000029802","images/banana2.png","","","learning","1","1","1","1","banana","fruit","1","1","","neutral","0"
"html-keyboard-response","207","800662","0.0-11.0-2.0-0.9","4526","2","24","Female","approach_avoid_spark_v1","""event"",""trial"",""time""
""fullscreenenter"",""1"",""10726""
","
","
","""event"",""trial"",""time""
""fullscreenenter"",""1"",""10726""
","
","","","","","","null","<div style=""font-size:60px;"">+</div>","null","","fixation","","","","","","","","","","",""
"aa-learning-trial","208","803669","0.0-11.0-2.0-1.9","4526","2","24","Female","approach_avoid_spark_v1","""event"",""trial"",""time""
""fullscreenenter"",""1"",""10726""
","
","
","""event"",""trial"",""time""
""fullscreenenter"",""1"",""10726""
","
","","","","","","597.8000000007451","images/banana8.png","","","learning","[1]","1","1","1","banana","fruit","1","1","","neutral","0"
"html-keyboard-response","209","804174","0.0-11.0-2.0-0.10","4526","2","24","Female","approach_avoid_spark_v1","""event"",""trial"",""time""
""fullscreenenter"",""1"",""10726""
","
","
","""event"",""trial"",""time""
""fullscreenenter"",""1"",""10726""
","
","","","","","","null","<div style=""font-size:60px;"">+</div>","null","","fixation","","","","","","","","","","",""
"aa-learning-trial","210","807181","0.0-11.0-2.0-1.10","4526","2","24","Female","approach_avoid_spark_v1","""event"",""trial"",""time""
""fullscreenenter"",""1"",""10726""
","
","
","""event"",""trial"",""time""
""fullscreenenter"",""1"",""10726""
","
","","","","","","690.8999999985099","images/orange1.png","","","learning","-3","0","0","0","orange","fruit","1","1","","bad","[-4]"
"html-keyboard-response","211","807686","0.0-11.0-2.0-0.11","4526","2","24","Female","approach_avoid_spark_v1","""event"",""trial"",""time""
""fullscreenenter"",""1"",""10726""
","
","
","""event"",""trial"",""time""
""fullscreenenter"",""1"",""10726""
","
","","","","","","null","<div style=""font-size:60px;"">+</div>","null","","fixation","","","","","","","","","","",""
"aa-learning-trial","212","810694","0.0-11.0-2.0-1.11","4526","2","24","Female","approach_avoid_spark_v1","""event"",""trial"",""time""
""fullscreenenter"",""1"",""10726""
","
","
","""event"",""trial"",""time""
""fullscreenenter"",""1"",""10726""
","
","","","","","","488.4000000022352","images/apple8.png","","","learning","4","4","1","1","apple","fruit","1","1","","good","[4]"
"html-keyboard-response","213","811197","0.0-11.0-2.0-0.12","4526","2","24","Female","approach_avoid_spark_v1","""event"",""trial"",""time""
""fullscreenenter"",""1"",""10726""
","
","
","""event"",""trial"",""time""
""fullscreenenter"",""1"",""10726""
","
","","","","","","null","<div style=""font-size:60px;"">+</div>","null","","fixation","","","","","","","","","","",""
"aa-learning-trial","214","814202","0.0-11.0-2.0-1.12","4526","2","24","Female","approach_avoid_spark_v1","""event"",""trial"",""time""
""fullscreenenter"",""1"",""10726""
","
","
","""event"",""trial"",""time""
""fullscreenenter"",""1"",""10726""
","
","","","","","","709.5","images/banana1.png","","","learning","-1","-1","1","1","banana","fruit","1","1","","neutral","0"
"html-keyboard-response","215","814707","0.0-11.0-2.0-0.13","4526","2","24","Female","approach_avoid_spark_v1","""event"",""trial"",""time""
""fullscreenenter"",""1"",""10726""
","
","
","""event"",""trial"",""time""
""fullscreenenter"",""1"",""10726""
","
","","","","","","null","<div style=""font-size:60px;"">+</div>","null","","fixation","","","","","","","","","","",""
"aa-learning-trial","216","817714","0.0-11.0-2.0-1.13","4526","2","24","Female","approach_avoid_spark_v1","""event"",""trial"",""time""
""fullscreenenter"",""1"",""10726""
","
","
","""event"",""trial"",""time""
""fullscreenenter"",""1"",""10726""
","
","","","","","","800.8000000007451","images/banana1.png","","","learning","2","0","0","0","banana","fruit","1","1","","neutral","0"
"html-keyboard-response","217","818219","0.0-11.0-2.0-0.14","4526","2","24","Female","approach_avoid_spark_v1","""event"",""trial"",""time""
""fullscreenenter"",""1"",""10726""
","
","
","""event"",""trial"",""time""
""fullscreenenter"",""1"",""10726""
","
","","","","","","null","<div style=""font-size:60px;"">+</div>","null","","fixation","","","","","","","","","","",""
"aa-learning-trial","218","821226","0.0-11.0-2.0-1.14","4526","2","24","Female","approach_avoid_spark_v1","""event"",""trial"",""time""
""fullscreenenter"",""1"",""10726""
","
","
","""event"",""trial"",""time""
""fullscreenenter"",""1"",""10726""
","
","","","","","","820.1999999992549","images/apple6.png","","","learning","3","3","1","1","apple","fruit","1","1","","good","[4]"
"html-keyboard-response","219","821728","0.0-11.0-2.0-0.15","4526","2","24","Female","approach_avoid_spark_v1","""event"",""trial"",""time""
""fullscreenenter"",""1"",""10726""
","
","
","""event"",""trial"",""time""
""fullscreenenter"",""1"",""10726""
","
","","","","","","null","<div style=""font-size:60px;"">+</div>","null","","fixation","","","","","","","","","","",""
"aa-learning-trial","220","824732","0.0-11.0-2.0-1.15","4526","2","24","Female","approach_avoid_spark_v1","""event"",""trial"",""time""
""fullscreenenter"",""1"",""10726""
","
","
","""event"",""trial"",""time""
""fullscreenenter"",""1"",""10726""
","
","","","","","","1414.9000000022352","images/apple8.png","","","learning","4","4","1","1","apple","fruit","1","1","","good","[4]"
"html-keyboard-response","221","825237","0.0-11.0-2.0-0.16","4526","2","24","Female","approach_avoid_spark_v1","""event"",""trial"",""time""
""fullscreenenter"",""1"",""10726""
","
","
","""event"",""trial"",""time""
""fullscreenenter"",""1"",""10726""
","
","","","","","","null","<div style=""font-size:60px;"">+</div>","null","","fixation","","","","","","","","","","",""
"aa-learning-trial","222","828244","0.0-11.0-2.0-1.16","4526","2","24","Female","approach_avoid_spark_v1","""event"",""trial"",""time""
""fullscreenenter"",""1"",""10726""
","
","
","""event"",""trial"",""time""
""fullscreenenter"",""1"",""10726""
","
","","","","","","706.5999999977648","images/orange8.png","","","learning","-3","0","0","0","orange","fruit","1","1","","bad","[-4]"
"html-keyboard-response","223","828749","0.0-11.0-2.0-0.17","4526","2","24","Female","approach_avoid_spark_v1","""event"",""trial"",""time""
""fullscreenenter"",""1"",""10726""
","
","
","""event"",""trial"",""time""
""fullscreenenter"",""1"",""10726""
","
","","","","","","null","<div style=""font-size:60px;"">+</div>","null","","fixation","","","","","","","","","","",""
"aa-learning-trial","224","831754","0.0-11.0-2.0-1.17","4526","2","24","Female","approach_avoid_spark_v1","""event"",""trial"",""time""
""fullscreenenter"",""1"",""10726""
","
","
","""event"",""trial"",""time""
""fullscreenenter"",""1"",""10726""
","
","","","","","","523.4000000022352","images/apple8.png","","","learning","4","4","1","1","apple","fruit","1","1","","good","[4]"
"html-keyboard-response","225","832255","0.0-11.0-2.0-0.18","4526","2","24","Female","approach_avoid_spark_v1","""event"",""trial"",""time""
""fullscreenenter"",""1"",""10726""
","
","
","""event"",""trial"",""time""
""fullscreenenter"",""1"",""10726""
","
","","","","","","null","<div style=""font-size:60px;"">+</div>","null","","fixation","","","","","","","","","","",""
"aa-learning-trial","226","835263","0.0-11.0-2.0-1.18","4526","2","24","Female","approach_avoid_spark_v1","""event"",""trial"",""time""
""fullscreenenter"",""1"",""10726""
","
","
","""event"",""trial"",""time""
""fullscreenenter"",""1"",""10726""
","
","","","","","","1149.699999999255","images/banana2.png","","","learning","4","4","1","1","banana","fruit","1","1","","neutral","0"
"html-keyboard-response","227","835767","0.0-11.0-2.0-0.19","4526","2","24","Female","approach_avoid_spark_v1","""event"",""trial"",""time""
""fullscreenenter"",""1"",""10726""
","
","
","""event"",""trial"",""time""
""fullscreenenter"",""1"",""10726""
","
","","","","","","null","<div style=""font-size:60px;"">+</div>","null","","fixation","","","","","","","","","","",""
"aa-learning-trial","228","838774","0.0-11.0-2.0-1.19","4526","2","24","Female","approach_avoid_spark_v1","""event"",""trial"",""time""
""fullscreenenter"",""1"",""10726""
","
","
","""event"",""trial"",""time""
""fullscreenenter"",""1"",""10726""
","
","","","","","","539.8999999985099","images/orange8.png","","","learning","-3","0","0","0","orange","fruit","1","1","","bad","[-4]"
"html-keyboard-response","229","839280","0.0-11.0-2.0-0.20","4526","2","24","Female","approach_avoid_spark_v1","""event"",""trial"",""time""
""fullscreenenter"",""1"",""10726""
","
","
","""event"",""trial"",""time""
""fullscreenenter"",""1"",""10726""
","
","","","","","","null","<div style=""font-size:60px;"">+</div>","null","","fixation","","","","","","","","","","",""
"aa-learning-trial","230","842287","0.0-11.0-2.0-1.20","4526","2","24","Female","approach_avoid_spark_v1","""event"",""trial"",""time""
""fullscreenenter"",""1"",""10726""
","
","
","""event"",""trial"",""time""
""fullscreenenter"",""1"",""10726""
","
","","","","","","1225.7999999970198","images/banana1.png","","","learning","[1]","0","0","0","banana","fruit","1","1","","neutral","0"
"html-keyboard-response","231","842792","0.0-11.0-2.0-0.21","4526","2","24","Female","approach_avoid_spark_v1","""event"",""trial"",""time""
""fullscreenenter"",""1"",""10726""
","
","
","""event"",""trial"",""time""
""fullscreenenter"",""1"",""10726""
","
","","","","","","null","<div style=""font-size:60px;"">+</div>","null","","fixation","","","","","","","","","","",""
"aa-learning-trial","232","845797","0.0-11.0-2.0-1.21","4526","2","24","Female","approach_avoid_spark_v1","""event"",""trial"",""time""
""fullscreenenter"",""1"",""10726""
","
","
","""event"",""trial"",""time""
""fullscreenenter"",""1"",""10726""
","
","","","","","","817.8999999985099","images/orange2.png","","","learning","-5","0","0","0","orange","fruit","1","1","","bad","[-4]"
"html-keyboard-response","233","846302","0.0-11.0-2.0-0.22","4526","2","24","Female","approach_avoid_spark_v1","""event"",""trial"",""time""
""fullscreenenter"",""1"",""10726""
","
","
","""event"",""trial"",""time""
""fullscreenenter"",""1"",""10726""
","
","","","","","","null","<div style=""font-size:60px;"">+</div>","null","","fixation","","","","","","","","","","",""
"aa-learning-trial","234","849309","0.0-11.0-2.0-1.22","4526","2","24","Female","approach_avoid_spark_v1","""event"",""trial"",""time""
""fullscreenenter"",""1"",""10726""
","
","
","""event"",""trial"",""time""
""fullscreenenter"",""1"",""10726""
","
","","","","","","785.4000000022352","images/orange4.png","","","learning","-2","0","0","0","orange","fruit","1","1","","bad","[-4]"
"html-keyboard-response","235","849814","0.0-11.0-2.0-0.23","4526","2","24","Female","approach_avoid_spark_v1","""event"",""trial"",""time""
""fullscreenenter"",""1"",""10726""
","
","
","""event"",""trial"",""time""
""fullscreenenter"",""1"",""10726""
","
","","","","","","null","<div style=""font-size:60px;"">+</div>","null","","fixation","","","","","","","","","","",""
"aa-learning-trial","236","852821","0.0-11.0-2.0-1.23","4526","2","24","Female","approach_avoid_spark_v1","""event"",""trial"",""time""
""fullscreenenter"",""1"",""10726""
","
","
