"trial_type","trial_index","time_elapsed","internal_node_id","subject_id","task_condition","age","gender","task_version","interactions","blur_events","focus_events","fullscreenenter_events","fullscreenexit_events","success","timeout","failed_images","failed_audio","failed_video","rt","stimulus","response","button_pressed","task_part","approach_reward","points","key_press","option_selected","stim_cat","task_block","block_condition","block_number","correct","cat_type","mean_cat_reward"
"pavlovia","0","17","0.0-0.0","5183","2","17","Female","approach_avoid_spark_v1","""event"",""trial"",""time""
""fullscreenenter"",""1"",""2883""
","
","
","""event"",""trial"",""time""
""fullscreenenter"",""1"",""2883""
","
","","","","","","","","","","","","","","","","","","","","",""
"fullscreen","1","3844","0.0-1.0","5183","2","17","Female","approach_avoid_spark_v1","""event"",""trial"",""time""
""fullscreenenter"",""1"",""2883""
","
","
","""event"",""trial"",""time""
""fullscreenenter"",""1"",""2883""
","
","true","","","","","","","","","","","","","","","","","","","",""
"preload","2","9626","0.0-2.0","5183","2","17","Female","approach_avoid_spark_v1","""event"",""trial"",""time""
""fullscreenenter"",""1"",""2883""
","
","
","""event"",""trial"",""time""
""fullscreenenter"",""1"",""2883""
","
","true","false","[]","[]","[]","","","","","","","","","","","","","","","",""
"audio-keyboard-response","3","14182","0.0-3.0","5183","2","17","Female","approach_avoid_spark_v1","""event"",""trial"",""time""
""fullscreenenter"",""1"",""2883""
","
","
","""event"",""trial"",""time""
""fullscreenenter"",""1"",""2883""
","
","","","","","","4538.666666666666","audio/beep_loop.wav","audiovolumeup","","","","","","","","","","","","",""
"audio-button-response","4","17839","0.0-4.0","5183","2","17","Female","approach_avoid_spark_v1","""event"",""trial"",""time""
""fullscreenenter"",""1"",""2883""
","
","
","""event"",""trial"",""time""
""fullscreenenter"",""1"",""2883""
","
","","","","","","3661","audio/shark.wav","4","","","","","","","","","","","","",""
"audio-button-response","5","20756","0.0-5.0","5183","2","17","Female","approach_avoid_spark_v1","""event"",""trial"",""time""
""fullscreenenter"",""1"",""2883""
","
","
","""event"",""trial"",""time""
""fullscreenenter"",""1"",""2883""
","
","","","","","","1909","audio/turtle.wav","1","","","","","","","","","","","","",""
"preload","6","40307","0.0-6.0","5183","2","17","Female","approach_avoid_spark_v1","""event"",""trial"",""time""
""fullscreenenter"",""1"",""2883""
","
","
","""event"",""trial"",""time""
""fullscreenenter"",""1"",""2883""
","
","true","false","[]","[]","[]","","","","","","","","","","","","","","","",""
"html-keyboard-response","7","43310","0.0-7.0","5183","2","17","Female","approach_avoid_spark_v1","""event"",""trial"",""time""
""fullscreenenter"",""1"",""2883""
","
","
","""event"",""trial"",""time""
""fullscreenenter"",""1"",""2883""
","
","","","","","","3000.7999999970198","Welcome to the experiment. Press any key to begin and to advance the instructions."," ","","","","","","","","","","","","",""
"learning-instructions","8","51908","0.0-8.0-0.0-0.0","5183","2","17","Female","approach_avoid_spark_v1","""event"",""trial"",""time""
""fullscreenenter"",""1"",""2883""
","
","
","""event"",""trial"",""time""
""fullscreenenter"",""1"",""2883""
","
","","","","","","1639.7999999970198","<p> Welcome! Today you are going to play 6 different rounds of a decision-making game. </p><p> Use the mouse to click next to continue. </p>","","0","instructions","","","","","","","","","","",""
"learning-instructions","9","59777","0.0-8.0-0.0-0.1","5183","2","17","Female","approach_avoid_spark_v1","""event"",""trial"",""time""
""fullscreenenter"",""1"",""2883""
","
","
","""event"",""trial"",""time""
""fullscreenenter"",""1"",""2883""
","
","","","","","","5130.0999999940395","<p> You will start with a practice round to learn the rules. </p>","","0","instructions","","","","","","","","","","",""
"learning-instructions","10","65085","0.0-8.0-0.0-0.2","5183","2","17","Female","approach_avoid_spark_v1","""event"",""trial"",""time""
""fullscreenenter"",""1"",""2883""
","
","
","""event"",""trial"",""time""
""fullscreenenter"",""1"",""2883""
","
","","","","","","1847.800000011921","<p> Your goal in this round is to give out sports equipment to kids. </p></div>","","0","instructions","","","","","","","","","","",""
"learning-instructions","11","73513","0.0-8.0-0.0-0.3","5183","2","17","Female","approach_avoid_spark_v1","""event"",""trial"",""time""
""fullscreenenter"",""1"",""2883""
","
","
","""event"",""trial"",""time""
""fullscreenenter"",""1"",""2883""
","
","","","","","","865.5999999940395","<p> The kids only like some of the equipment.  </p><p> On each turn, you will see a piece of sports equipment.   </p><p> You need to decide whether to give it to the kids or not.  </p>","","0","instructions","","","","","","","","","","",""
"learning-instructions","12","78950","0.0-8.0-0.0-0.4","5183","2","17","Female","approach_avoid_spark_v1","""event"",""trial"",""time""
""fullscreenenter"",""1"",""2883""
","
","
","""event"",""trial"",""time""
""fullscreenenter"",""1"",""2883""
","
","","","","","","680.3999999910593","<p> You can give them the equipment by pressing 1 and choose not to give it to them by pressing 0. </p><br><div class=""choice-instructions-grid""> <div class=""choice-option""><img src=""images/approach.png"" class=""choice-option-img"" stage=""instructions"" position=""0"" ><div class=""choice-option-text""> Press ""1."" </div></div><div class=""choice-option""><img src=""images/avoid.png"" class=""choice-option-img"" stage=""instructions"" position=""1"" ><div class=""choice-option-text""> Press ""0."" </div></div>","","0","instructions","","","","","","","","","","",""
"learning-instructions","13","87043","0.0-8.0-0.0-0.5","5183","2","17","Female","approach_avoid_spark_v1","""event"",""trial"",""time""
""fullscreenenter"",""1"",""2883""
","
","
","""event"",""trial"",""time""
""fullscreenenter"",""1"",""2883""
","
","","","","","","694.7999999970198","<p> If you give them a piece of equipment they like, they will be happy! </p><p> But if you give them a piece of equipment they do not like, they will be sad. </p>","","0","instructions","","","","","","","","","","",""
"learning-instructions","14","98108","0.0-8.0-0.0-0.6","5183","2","17","Female","approach_avoid_spark_v1","""event"",""trial"",""time""
""fullscreenenter"",""1"",""2883""
","
","
","""event"",""trial"",""time""
""fullscreenenter"",""1"",""2883""
","
","","","","","","551.4000000059605","<p> You will earn points based on how you make kids feel. </p><p> If you make them happy, you will WIN anywhere from 1 - 9 points, </p><p> but if you make them sad, you will LOSE anywhere from 1 - 9 points. </p>","","0","instructions","","","","","","","","","","",""
"learning-instructions","15","108179","0.0-8.0-0.0-0.7","5183","2","17","Female","approach_avoid_spark_v1","""event"",""trial"",""time""
""fullscreenenter"",""1"",""2883""
","
","
","""event"",""trial"",""time""
""fullscreenenter"",""1"",""2883""
","
","","","","","","509.8999999910593","<p> You will see how many points you won or lost in the center of the screen. </p><p> Here is what you would see if you won 6 points: </p><p style=""color:green;font-size:50px;font-weight:bolder"">6</p><p style=""color:green"">The text is GREEN because you WON points.</p>","","0","instructions","","","","","","","","","","",""
"learning-instructions","16","114231","0.0-8.0-0.0-0.8","5183","2","17","Female","approach_avoid_spark_v1","""event"",""trial"",""time""
""fullscreenenter"",""1"",""2883""
","
","
","""event"",""trial"",""time""
""fullscreenenter"",""1"",""2883""
","
","","","","","","533.1000000089407","<p> And here is what you would see if you lost 4 points: </p><p style=""color:red;font-size:50px;font-weight:bolder"">-4</p><p style=""color:red"">The text is RED because you LOST points. </p>","","0","instructions","","","","","","","","","","",""
"learning-instructions","17","129483","0.0-8.0-0.0-0.9","5183","2","17","Female","approach_avoid_spark_v1","""event"",""trial"",""time""
""fullscreenenter"",""1"",""2883""
","
","
","""event"",""trial"",""time""
""fullscreenenter"",""1"",""2883""
","
","","","","","","527.4000000059605","<p> Some of the equipment will make the kids VERY happy or sad. </p><p> These pieces of equipment will make you win or lose LOTS of points. </p><p> Other pieces of equipment will only make the kids a little happy or sad. </p><p> These pieces of equipment will make you win or lose small amounts of points. </p>","","0","instructions","","","","","","","","","","",""
"learning-instructions","18","140881","0.0-8.0-0.0-0.10","5183","2","17","Female","approach_avoid_spark_v1","""event"",""trial"",""time""
""fullscreenenter"",""1"",""2883""
","
","
","""event"",""trial"",""time""
""fullscreenenter"",""1"",""2883""
","
","","","","","","764.2999999970198","<p> If you choose not to give them the equipment, you will not win or lose any points. </p><p>  However, in the center of the screen, you will see the number of points you WOULD HAVE won or lost if you had given them the equipment. </p>","","0","instructions","","","","","","","","","","",""
"learning-instructions","19","167709","0.0-8.0-0.0-0.11","5183","2","17","Female","approach_avoid_spark_v1","""event"",""trial"",""time""
""fullscreenenter"",""1"",""2883""
","
","
","""event"",""trial"",""time""
""fullscreenenter"",""1"",""2883""
","
","","","","","","5301.29999999702","<p> Here is what you might see if you did not give the equipment to the kids but it would have made them happy: </p><p style=""color:grey; font-size:50px; display: inline-block; border-spacing: 15px; border-width:3px; border-style:solid; border-color:red"">  &nbsp; 7 &nbsp; </p><p> Remember, in this case, you would not win or lose ANY points because you did not give them the equipment.  </p><p style=""color:grey"">The text is GREY because you earned ZERO points. </p><p style=""color:red"">However, choosing to give the kids the equipment would have made you win points. The box around the text is RED because you chose the worse option. </p>","","0","instructions","","","","","","","","","","",""
"learning-instructions","20","190642","0.0-8.0-0.0-0.12","5183","2","17","Female","approach_avoid_spark_v1","""event"",""trial"",""time""
""fullscreenenter"",""1"",""2883""
","
","
","""event"",""trial"",""time""
""fullscreenenter"",""1"",""2883""
","
","","","","","","1845.0999999940395","<p> Here is what you might see if you did not give the equipment to the kids but it would have made them sad: </p><p style=""color:grey;font-size:50px; display: inline-block; border-spacing: 15px; border-width:3px; border-style:solid; border-color:green"">  &nbsp; -8 &nbsp; </p><p> Remember, in this case, you would not win or lose ANY points because you did not give them the equipment.  </p><p style=""color:grey"">The text is GREY because you earned ZERO points. </p><p  style=""color:green""> Choosing to give the kids the equipment would have made you lose points. The box around the text is GREEN because you chose the better option.</p>","","0","instructions","","","","","","","","","","",""
"learning-instructions","21","202052","0.0-8.0-0.0-0.13","5183","2","17","Female","approach_avoid_spark_v1","""event"",""trial"",""time""
""fullscreenenter"",""1"",""2883""
","
","
","""event"",""trial"",""time""
""fullscreenenter"",""1"",""2883""
","
","","","","","","1615","<p> You will have 3 seconds to make each choice. Try to respond before time runs out! </p><p> You will lose 5 points each time you do not make a response. </p>","","0","instructions","","","","","","","","","","",""
"learning-instructions","22","208533","0.0-8.0-0.0-0.14","5183","2","17","Female","approach_avoid_spark_v1","""event"",""trial"",""time""
""fullscreenenter"",""1"",""2883""
","
","
","""event"",""trial"",""time""
""fullscreenenter"",""1"",""2883""
","
","","","","","","1056.4000000059605","<p> This is just a practice round, but in the real game, your bonus payment will depend on your total number of points.","","0","instructions","","","","","","","","","","",""
"learning-instructions","23","214972","0.0-8.0-0.0-0.15","5183","2","17","Female","approach_avoid_spark_v1","""event"",""trial"",""time""
""fullscreenenter"",""1"",""2883""
","
","
","""event"",""trial"",""time""
""fullscreenenter"",""1"",""2883""
","
","","","","","","673.5","<p> Remember, you can give them the equipment by pressing 1 and choose not to give it to them by pressing 0. </p><br><div class=""choice-instructions-grid""> <div class=""choice-option""><img src=""images/approach.png"" class=""choice-option-img"" stage=""instructions"" position=""0"" ><div class=""choice-option-text""> Press ""1."" </div></div><div class=""choice-option""><img src=""images/avoid.png"" class=""choice-option-img"" stage=""instructions"" position=""1"" ><div class=""choice-option-text""> Press ""0."" </div></div>","","0","instructions","","","","","","","","","","",""
"html-button-response","24","216880","0.0-8.0-1.0","5183","2","17","Female","approach_avoid_spark_v1","""event"",""trial"",""time""
""fullscreenenter"",""1"",""2883""
","
","
","""event"",""trial"",""time""
""fullscreenenter"",""1"",""2883""
","
","","","","","","1801.8999999910593","<p> Ready to practice? </p>","0","","","","","","","","","","","","",""
"html-keyboard-response","25","217504","0.0-8.0-2.0-0.0","5183","2","17","Female","approach_avoid_spark_v1","""event"",""trial"",""time""
""fullscreenenter"",""1"",""2883""
","
","
","""event"",""trial"",""time""
""fullscreenenter"",""1"",""2883""
","
","","","","","","null","<div style=""font-size:60px;"">+</div>","null","","fixation","","","","","","","","","","",""
"aa-learning-trial","26","220518","0.0-8.0-2.0-1.0","5183","2","17","Female","approach_avoid_spark_v1","""event"",""trial"",""time""
""fullscreenenter"",""1"",""2883""
","
","
","""event"",""trial"",""time""
""fullscreenenter"",""1"",""2883""
","
","","","","","","1183","images/racket2.png","","","learning","6","6","1","1","practice","practice","practice","-1","","",""
"html-keyboard-response","27","221033","0.0-8.0-2.0-0.1","5183","2","17","Female","approach_avoid_spark_v1","""event"",""trial"",""time""
""fullscreenenter"",""1"",""2883""
","
","
","""event"",""trial"",""time""
""fullscreenenter"",""1"",""2883""
","
","","","","","","null","<div style=""font-size:60px;"">+</div>","null","","fixation","","","","","","","","","","",""
"aa-learning-trial","28","224045","0.0-8.0-2.0-1.1","5183","2","17","Female","approach_avoid_spark_v1","""event"",""trial"",""time""
""fullscreenenter"",""1"",""2883""
","
","
","""event"",""trial"",""time""
""fullscreenenter"",""1"",""2883""
","
","","","","","","642.8000000119209","images/ball2.png","","","learning","-3","-3","1","1","practice","practice","practice","-1","","",""
"html-keyboard-response","29","224563","0.0-8.0-2.0-0.2","5183","2","17","Female","approach_avoid_spark_v1","""event"",""trial"",""time""
""fullscreenenter"",""1"",""2883""
","
","
","""event"",""trial"",""time""
""fullscreenenter"",""1"",""2883""
","
","","","","","","null","<div style=""font-size:60px;"">+</div>","null","","fixation","","","","","","","","","","",""
"aa-learning-trial","30","227585","0.0-8.0-2.0-1.2","5183","2","17","Female","approach_avoid_spark_v1","""event"",""trial"",""time""
""fullscreenenter"",""1"",""2883""
","
","
","""event"",""trial"",""time""
""fullscreenenter"",""1"",""2883""
","
","","","","","","1229","images/racket3.png","","","learning","-5","-5","1","1","practice","practice","practice","-1","","",""
"html-keyboard-response","31","228094","0.0-8.0-2.0-0.3","5183","2","17","Female","approach_avoid_spark_v1","""event"",""trial"",""time""
""fullscreenenter"",""1"",""2883""
","
","
","""event"",""trial"",""time""
""fullscreenenter"",""1"",""2883""
","
","","","","","","null","<div style=""font-size:60px;"">+</div>","null","","fixation","","","","","","","","","","",""
"aa-learning-trial","32","231114","0.0-8.0-2.0-1.3","5183","2","17","Female","approach_avoid_spark_v1","""event"",""trial"",""time""
""fullscreenenter"",""1"",""2883""
","
","
","""event"",""trial"",""time""
""fullscreenenter"",""1"",""2883""
","
","","","","","","1124.4000000059605","images/racket1.png","","","learning","4","4","1","1","practice","practice","practice","-1","","",""
"html-keyboard-response","33","231634","0.0-8.0-2.0-0.4","5183","2","17","Female","approach_avoid_spark_v1","""event"",""trial"",""time""
""fullscreenenter"",""1"",""2883""
","
","
","""event"",""trial"",""time""
""fullscreenenter"",""1"",""2883""
","
","","","","","","null","<div style=""font-size:60px;"">+</div>","null","","fixation","","","","","","","","","","",""
"aa-learning-trial","34","234644","0.0-8.0-2.0-1.4","5183","2","17","Female","approach_avoid_spark_v1","""event"",""trial"",""time""
""fullscreenenter"",""1"",""2883""
","
","
","""event"",""trial"",""time""
""fullscreenenter"",""1"",""2883""
","
","","","","","","833.0999999940395","images/racket3.png","","","learning","9","0","0","0","practice","practice","practice","-1","","",""
"html-keyboard-response","35","235154","0.0-8.0-2.0-0.5","5183","2","17","Female","approach_avoid_spark_v1","""event"",""trial"",""time""
""fullscreenenter"",""1"",""2883""
","
","
","""event"",""trial"",""time""
""fullscreenenter"",""1"",""2883""
","
","","","","","","null","<div style=""font-size:60px;"">+</div>","null","","fixation","","","","","","","","","","",""
"aa-learning-trial","36","238174","0.0-8.0-2.0-1.5","5183","2","17","Female","approach_avoid_spark_v1","""event"",""trial"",""time""
""fullscreenenter"",""1"",""2883""
","
","
","""event"",""trial"",""time""
""fullscreenenter"",""1"",""2883""
","
","","","","","","1377.5","images/ball2.png","","","learning","-8","-8","1","1","practice","practice","practice","-1","","",""
"html-keyboard-response","37","238694","0.0-8.0-2.0-0.6","5183","2","17","Female","approach_avoid_spark_v1","""event"",""trial"",""time""
""fullscreenenter"",""1"",""2883""
","
","
","""event"",""trial"",""time""
""fullscreenenter"",""1"",""2883""
","
","","","","","","null","<div style=""font-size:60px;"">+</div>","null","","fixation","","","","","","","","","","",""
"aa-learning-trial","38","241712","0.0-8.0-2.0-1.6","5183","2","17","Female","approach_avoid_spark_v1","""event"",""trial"",""time""
""fullscreenenter"",""1"",""2883""
","
","
","""event"",""trial"",""time""
""fullscreenenter"",""1"",""2883""
","
","","","","","","1504.2999999970198","images/ball4.png","","","learning","2","2","1","1","practice","practice","practice","-1","","",""
"html-keyboard-response","39","242223","0.0-8.0-2.0-0.7","5183","2","17","Female","approach_avoid_spark_v1","""event"",""trial"",""time""
""fullscreenenter"",""1"",""2883""
","
","
","""event"",""trial"",""time""
""fullscreenenter"",""1"",""2883""
","
","","","","","","null","<div style=""font-size:60px;"">+</div>","null","","fixation","","","","","","","","","","",""
"aa-learning-trial","40","245229","0.0-8.0-2.0-1.7","5183","2","17","Female","approach_avoid_spark_v1","""event"",""trial"",""time""
""fullscreenenter"",""1"",""2883""
","
","
","""event"",""trial"",""time""
""fullscreenenter"",""1"",""2883""
","
","","","","","","797.6999999880791","images/ball2.png","","","learning","9","0","0","0","practice","practice","practice","-1","","",""
"html-keyboard-response","41","245731","0.0-8.0-2.0-0.8","5183","2","17","Female","approach_avoid_spark_v1","""event"",""trial"",""time""
""fullscreenenter"",""1"",""2883""
","
","
","""event"",""trial"",""time""
""fullscreenenter"",""1"",""2883""
","
","","","","","","null","<div style=""font-size:60px;"">+</div>","null","","fixation","","","","","","","","","","",""
"aa-learning-trial","42","248744","0.0-8.0-2.0-1.8","5183","2","17","Female","approach_avoid_spark_v1","""event"",""trial"",""time""
""fullscreenenter"",""1"",""2883""
","
","
","""event"",""trial"",""time""
""fullscreenenter"",""1"",""2883""
","
","","","","","","814.4000000059605","images/ball1.png","","","learning","2","2","1","1","practice","practice","practice","-1","","",""
"html-keyboard-response","43","249247","0.0-8.0-2.0-0.9","5183","2","17","Female","approach_avoid_spark_v1","""event"",""trial"",""time""
""fullscreenenter"",""1"",""2883""
","
","
","""event"",""trial"",""time""
""fullscreenenter"",""1"",""2883""
","
","","","","","","null","<div style=""font-size:60px;"">+</div>","null","","fixation","","","","","","","","","","",""
"aa-learning-trial","44","252255","0.0-8.0-2.0-1.9","5183","2","17","Female","approach_avoid_spark_v1","""event"",""trial"",""time""
""fullscreenenter"",""1"",""2883""
","
","
","""event"",""trial"",""time""
""fullscreenenter"",""1"",""2883""
","
","","","","","","1877.7000000029802","images/racket1.png","","","learning","7","0","0","0","practice","practice","practice","-1","","",""
"html-keyboard-response","45","252757","0.0-8.0-2.0-0.10","5183","2","17","Female","approach_avoid_spark_v1","""event"",""trial"",""time""
""fullscreenenter"",""1"",""2883""
","
","
","""event"",""trial"",""time""
""fullscreenenter"",""1"",""2883""
","
","","","","","","null","<div style=""font-size:60px;"">+</div>","null","","fixation","","","","","","","","","","",""
"aa-learning-trial","46","255764","0.0-8.0-2.0-1.10","5183","2","17","Female","approach_avoid_spark_v1","""event"",""trial"",""time""
""fullscreenenter"",""1"",""2883""
","
","
","""event"",""trial"",""time""
""fullscreenenter"",""1"",""2883""
","
","","","","","","1341.4000000059605","images/racket2.png","","","learning","5","0","0","0","practice","practice","practice","-1","","",""
"html-keyboard-response","47","256266","0.0-8.0-2.0-0.11","5183","2","17","Female","approach_avoid_spark_v1","""event"",""trial"",""time""
""fullscreenenter"",""1"",""2883""
","
","
","""event"",""trial"",""time""
""fullscreenenter"",""1"",""2883""
","
","","","","","","null","<div style=""font-size:60px;"">+</div>","null","","fixation","","","","","","","","","","",""
"aa-learning-trial","48","259272","0.0-8.0-2.0-1.11","5183","2","17","Female","approach_avoid_spark_v1","""event"",""trial"",""time""
""fullscreenenter"",""1"",""2883""
","
","
","""event"",""trial"",""time""
""fullscreenenter"",""1"",""2883""
","
","","","","","","902.5999999940395","images/ball2.png","","","learning","3","0","0","0","practice","practice","practice","-1","","",""
"html-button-response","49","261518","0.0-8.0-3.0","5183","2","17","Female","approach_avoid_spark_v1","""event"",""trial"",""time""
""fullscreenenter"",""1"",""2883""
","
","
","""event"",""trial"",""time""
""fullscreenenter"",""1"",""2883""
","
","","","","","","2240.2000000029802","<p> You earned -2 points in the practice round! </p>","0","","break","","","","","","","","","","",""
"learning-instructions","50","269632","0.0-8.0-4.0-0.0","5183","2","17","Female","approach_avoid_spark_v1","""event"",""trial"",""time""
""fullscreenenter"",""1"",""2883""
","
","
","""event"",""trial"",""time""
""fullscreenenter"",""1"",""2883""
","
","","","","","","1404.4000000059605","<p> It's almost time to start the real game. </p><p> Before you start, we're going to ask you a few questions about how the game works. </p>","","0","instructions","","","","","","","","","","",""
"preload","51","271936","0.0-8.0-5.0","5183","2","17","Female","approach_avoid_spark_v1","""event"",""trial"",""time""
""fullscreenenter"",""1"",""2883""
","
","
","""event"",""trial"",""time""
""fullscreenenter"",""1"",""2883""
","
","true","false","[]","[]","[]","","","","","","","","","","","","","","","",""
"comp-q","52","278499","0.0-8.0-6.0-0.0","5183","2","17","Female","approach_avoid_spark_v1","""event"",""trial"",""time""
""fullscreenenter"",""1"",""2883""
","
","
","""event"",""trial"",""time""
""fullscreenenter"",""1"",""2883""
","
","","","","","","1560.2000000029802","<p> <b> True or False? </b> </p><p> If you see a number in GREY, that means you earned that many points. </p>","","1","comp_question","","","","","","","","","true","",""
"comp-q","53","287835","0.0-8.0-6.0-1.0","5183","2","17","Female","approach_avoid_spark_v1","""event"",""trial"",""time""
""fullscreenenter"",""1"",""2883""
","
","
","""event"",""trial"",""time""
""fullscreenenter"",""1"",""2883""
","
","","","","","","968.2999999970198","<p><b> That's right! </b> If you see a grey number, it means you earned ZERO points. <br> The grey numbers show the points you WOULD HAVE earned if you had made the other choice. </p>","","0","comp_answer","","","","","","","","","","",""
"comp-q","54","293013","0.0-8.0-7.0-0.0","5183","2","17","Female","approach_avoid_spark_v1","""event"",""trial"",""time""
""fullscreenenter"",""1"",""2883""
","
","
","""event"",""trial"",""time""
""fullscreenenter"",""1"",""2883""
","
","","","","","","464.20000000298023","<p> <b> True or False? </b> </p><p> You will have as much time as you want to make each choice. </p>","","1","comp_question","","","","","","","","","true","",""
"comp-q","55","298230","0.0-8.0-7.0-1.0","5183","2","17","Female","approach_avoid_spark_v1","""event"",""trial"",""time""
""fullscreenenter"",""1"",""2883""
","
","
","""event"",""trial"",""time""
""fullscreenenter"",""1"",""2883""
","
","","","","","","1173.2999999970198","<p> <b> That's right! </b> You will only have 3 seconds to make each choice. </p>","","0","comp_answer","","","","","","","","","","",""
"comp-q","56","303311","0.0-8.0-8.0-0.0","5183","2","17","Female","approach_avoid_spark_v1","""event"",""trial"",""time""
""fullscreenenter"",""1"",""2883""
","
","
","""event"",""trial"",""time""
""fullscreenenter"",""1"",""2883""
","
","","","","","","412.69999998807907","<p> <b> True or False? </b> </p><p> You should use the '1' and '0' keys to make your choices. </p>","","0","comp_question","","","","","","","","","true","",""
"comp-q","57","308867","0.0-8.0-8.0-1.0","5183","2","17","Female","approach_avoid_spark_v1","""event"",""trial"",""time""
""fullscreenenter"",""1"",""2883""
","
","
","""event"",""trial"",""time""
""fullscreenenter"",""1"",""2883""
","
","","","","","","928.9000000059605","<p> <b> That's right! </b> You should use the '1' and '0' keys to make each choice. </p>","","0","comp_answer","","","","","","","","","","",""
"learning-instructions","58","316261","0.0-8.0-9.0-0.0","5183","2","17","Female","approach_avoid_spark_v1","""event"",""trial"",""time""
""fullscreenenter"",""1"",""2883""
","
","
","""event"",""trial"",""time""
""fullscreenenter"",""1"",""2883""
","
","","","","","","1103.6000000089407","<p> It's now time to start the real game. </p>Do your best, because the points you earn in the next rounds will influence your bonus payment. </p>","","0","instructions","","","","","","","","","","",""
"preload","59","316423","0.0-9.0-0.0","5183","2","17","Female","approach_avoid_spark_v1","""event"",""trial"",""time""
""fullscreenenter"",""1"",""2883""
","
","
","""event"",""trial"",""time""
""fullscreenenter"",""1"",""2883""
","
","true","false","[]","[]","[]","","","","","","","","","","","","","","","",""
"learning-instructions","60","322959","0.0-9.0-1.0-0.0","5183","2","17","Female","approach_avoid_spark_v1","""event"",""trial"",""time""
""fullscreenenter"",""1"",""2883""
","
","
","""event"",""trial"",""time""
""fullscreenenter"",""1"",""2883""
","
","","","","","","801.8999999910593","<p> Your goal in this round is to decorate your friend's new house with furniture. </p></div>","","0","instructions","","","","","","","","","","",""
"learning-instructions","61","334931","0.0-9.0-1.0-0.1","5183","2","17","Female","approach_avoid_spark_v1","""event"",""trial"",""time""
""fullscreenenter"",""1"",""2883""
","
","
","""event"",""trial"",""time""
""fullscreenenter"",""1"",""2883""
","
","","","","","","1843.4000000059605","<p> Your friend likes some pieces of furniture but not others.  </p><p> On each turn, you will see a piece of furniture.   </p><p> You need to decide whether to put it in your friend's house or not.  </p>","","0","instructions","","","","","","","","","","",""
"learning-instructions","62","342576","0.0-9.0-1.0-0.2","5183","2","17","Female","approach_avoid_spark_v1","""event"",""trial"",""time""
""fullscreenenter"",""1"",""2883""
","
","
","""event"",""trial"",""time""
""fullscreenenter"",""1"",""2883""
","
","","","","","","1257.5","<p> You can put the furniture in her house by pressing 1 and deliver it elsewhere by pressing 0. </p><br><div class=""choice-instructions-grid""> <div class=""choice-option""><img src=""images/approach.png"" class=""choice-option-img"" stage=""instructions"" position=""0"" ><div class=""choice-option-text""> Press ""1."" </div></div><div class=""choice-option""><img src=""images/avoid.png"" class=""choice-option-img"" stage=""instructions"" position=""1"" ><div class=""choice-option-text""> Press ""0."" </div></div>","","0","instructions","","","","","","","","","","",""
"learning-instructions","63","353055","0.0-9.0-1.0-0.3","5183","2","17","Female","approach_avoid_spark_v1","""event"",""trial"",""time""
""fullscreenenter"",""1"",""2883""
","
","
","""event"",""trial"",""time""
""fullscreenenter"",""1"",""2883""
","
","","","","","","789","<p> If you decorate your friend's house with furniture she likes, she will be happy! </p><p> But if you give her furniture that she does not like, she will be annoyed. </p>","","0","instructions","","","","","","","","","","",""
"learning-instructions","64","368386","0.0-9.0-1.0-0.4","5183","2","17","Female","approach_avoid_spark_v1","""event"",""trial"",""time""
""fullscreenenter"",""1"",""2883""
","
","
","""event"",""trial"",""time""
""fullscreenenter"",""1"",""2883""
","
","","","","","","908.0999999940395","<p> You will earn points based on how you made your friend feel. </p><p> If you made her happy, you will WIN anywhere from 1 - 9 points, </p><p> but if you made her annoyed you will LOSE anywhere from 1 - 9 points. </p>","","0","instructions","","","","","","","","","","",""
"learning-instructions","65","377345","0.0-9.0-1.0-0.5","5183","2","17","Female","approach_avoid_spark_v1","""event"",""trial"",""time""
""fullscreenenter"",""1"",""2883""
","
","
","""event"",""trial"",""time""
""fullscreenenter"",""1"",""2883""
","
","","","","","","577.3999999910593","<p> You will see how many points you won or lost in the center of the screen. </p><p> Here is what you would see if you won 5 points: </p><p style=""color:green;font-size:50px;font-weight:bolder"">5</p>","","0","instructions","","","","","","","","","","",""
"learning-instructions","66","381470","0.0-9.0-1.0-0.6","5183","2","17","Female","approach_avoid_spark_v1","""event"",""trial"",""time""
""fullscreenenter"",""1"",""2883""
","
","
","""event"",""trial"",""time""
""fullscreenenter"",""1"",""2883""
","
","","","","","","422.40000000596046","<p> And here is what you would see if you lost 3 points: </p><p style=""color:red;font-size:50px;font-weight:bolder"">-3</p>","","0","instructions","","","","","","","","","","",""
"learning-instructions","67","399516","0.0-9.0-1.0-0.7","5183","2","17","Female","approach_avoid_spark_v1","""event"",""trial"",""time""
""fullscreenenter"",""1"",""2883""
","
","
","""event"",""trial"",""time""
""fullscreenenter"",""1"",""2883""
","
","","","","","","417.69999998807907","<p> Some pieces of furniture will make her feel very happy or very annoyed. </p><p> These pieces of furniture will make you win or lose LOTS of points. </p><p> Other pieces of furniture will only make her feel a little happy or a little annoyed. </p><p> These pieces of furniture will make you win or lose small amounts of points. </p>","","0","instructions","","","","","","","","","","",""
"learning-instructions","68","413637","0.0-9.0-1.0-0.8","5183","2","17","Female","approach_avoid_spark_v1","""event"",""trial"",""time""
""fullscreenenter"",""1"",""2883""
","
","
","""event"",""trial"",""time""
""fullscreenenter"",""1"",""2883""
","
","","","","","","599.5999999940395","<p> If you choose to deliver a piece of furniture elsewhere, you will not win or lose any points. </p><p>  However, in the center of the screen, you will see the number of points you WOULD HAVE won or lost if you had given the furniture to your friend. </p>","","0","instructions","","","","","","","","","","",""
"learning-instructions","69","428572","0.0-9.0-1.0-0.9","5183","2","17","Female","approach_avoid_spark_v1","""event"",""trial"",""time""
""fullscreenenter"",""1"",""2883""
","
","
","""event"",""trial"",""time""
""fullscreenenter"",""1"",""2883""
","
","","","","","","2814.2999999970198","<p> Here is what you might see if you did not give a piece of furniture to your friend that would have made her happy: </p><p style=""color:grey; font-size:50px; display: inline-block; border-spacing: 15px; border-width:3px; border-style:solid; border-color:red"">  &nbsp; 6 &nbsp; </p><p> Remember, in this case, you would not win or lose ANY points because you did not give her the furniture.  </p>","","0","instructions","","","","","","","","","","",""
"learning-instructions","70","437882","0.0-9.0-1.0-0.10","5183","2","17","Female","approach_avoid_spark_v1","""event"",""trial"",""time""
""fullscreenenter"",""1"",""2883""
","
","
","""event"",""trial"",""time""
""fullscreenenter"",""1"",""2883""
","
","","","","","","476","<p> Try to make the best choice for each piece of furniture because </p><p> at the end of the game, you will earn bonus money based on how many points you earned. </p>","","0","instructions","","","","","","","","","","",""
"learning-instructions","71","446615","0.0-9.0-1.0-0.11","5183","2","17","Female","approach_avoid_spark_v1","""event"",""trial"",""time""
""fullscreenenter"",""1"",""2883""
","
","
","""event"",""trial"",""time""
""fullscreenenter"",""1"",""2883""
","
","","","","","","528.3999999910593","<p> You will have 3 seconds to make each choice. Try to respond before time runs out! </p><p> You will lose 5 points each time you do not make a response. </p>","","0","instructions","","","","","","","","","","",""
"html-keyboard-response","72","447234","0.0-9.0-2.0-0.0","5183","2","17","Female","approach_avoid_spark_v1","""event"",""trial"",""time""
""fullscreenenter"",""1"",""2883""
","
","
","""event"",""trial"",""time""
""fullscreenenter"",""1"",""2883""
","
","","","","","","null","<div style=""font-size:60px;"">+</div>","null","","fixation","","","","","","","","","","",""
"aa-learning-trial","73","450244","0.0-9.0-2.0-1.0","5183","2","17","Female","approach_avoid_spark_v1","""event"",""trial"",""time""
""fullscreenenter"",""1"",""2883""
","
","
","""event"",""trial"",""time""
""fullscreenenter"",""1"",""2883""
","
","","","","","","872.7000000029802","images/sofa7.png","","","learning","8","8","1","1","sofa","furniture","2","0","","neutral","0"
"html-keyboard-response","74","450754","0.0-9.0-2.0-0.1","5183","2","17","Female","approach_avoid_spark_v1","""event"",""trial"",""time""
""fullscreenenter"",""1"",""2883""
","
","
","""event"",""trial"",""time""
""fullscreenenter"",""1"",""2883""
","
","","","","","","null","<div style=""font-size:60px;"">+</div>","null","","fixation","","","","","","","","","","",""
"aa-learning-trial","75","453764","0.0-9.0-2.0-1.1","5183","2","17","Female","approach_avoid_spark_v1","""event"",""trial"",""time""
""fullscreenenter"",""1"",""2883""
","
","
","""event"",""trial"",""time""
""fullscreenenter"",""1"",""2883""
","
","","","","","","848","images/sofa1.png","","","learning","5","0","0","0","sofa","furniture","2","0","","neutral","0"
"html-keyboard-response","76","454274","0.0-9.0-2.0-0.2","5183","2","17","Female","approach_avoid_spark_v1","""event"",""trial"",""time""
""fullscreenenter"",""1"",""2883""
","
","
","""event"",""trial"",""time""
""fullscreenenter"",""1"",""2883""
","
","","","","","","null","<div style=""font-size:60px;"">+</div>","null","","fixation","","","","","","","","","","",""
"aa-learning-trial","77","457294","0.0-9.0-2.0-1.2","5183","2","17","Female","approach_avoid_spark_v1","""event"",""trial"",""time""
""fullscreenenter"",""1"",""2883""
","
","
","""event"",""trial"",""time""
""fullscreenenter"",""1"",""2883""
","
","","","","","","836.7999999970198","images/table5.png","","","learning","4","4","1","1","table","furniture","2","0","","bad","[-3]"
"html-keyboard-response","78","457814","0.0-9.0-2.0-0.3","5183","2","17","Female","approach_avoid_spark_v1","""event"",""trial"",""time""
""fullscreenenter"",""1"",""2883""
","
","
","""event"",""trial"",""time""
""fullscreenenter"",""1"",""2883""
","
","","","","","","null","<div style=""font-size:60px;"">+</div>","null","","fixation","","","","","","","","","","",""
"aa-learning-trial","79","460820","0.0-9.0-2.0-1.3","5183","2","17","Female","approach_avoid_spark_v1","""event"",""trial"",""time""
""fullscreenenter"",""1"",""2883""
","
","
","""event"",""trial"",""time""
""fullscreenenter"",""1"",""2883""
","
","","","","","","675.0999999940395","images/bed3.png","","","learning","-1","-1","1","1","bed","furniture","2","0","","good","[3]"
"html-keyboard-response","80","461324","0.0-9.0-2.0-0.4","5183","2","17","Female","approach_avoid_spark_v1","""event"",""trial"",""time""
""fullscreenenter"",""1"",""2883""
","
","
","""event"",""trial"",""time""
""fullscreenenter"",""1"",""2883""
","
","","","","","","null","<div style=""font-size:60px;"">+</div>","null","","fixation","","","","","","","","","","",""
"aa-learning-trial","81","464334","0.0-9.0-2.0-1.4","5183","2","17","Female","approach_avoid_spark_v1","""event"",""trial"",""time""
""fullscreenenter"",""1"",""2883""
","
","
","""event"",""trial"",""time""
""fullscreenenter"",""1"",""2883""
","
","","","","","","783.4000000059605","images/bed3.png","","","learning","-1","0","0","0","bed","furniture","2","0","","good","[3]"
"html-keyboard-response","82","464854","0.0-9.0-2.0-0.5","5183","2","17","Female","approach_avoid_spark_v1","""event"",""trial"",""time""
""fullscreenenter"",""1"",""2883""
","
","
","""event"",""trial"",""time""
""fullscreenenter"",""1"",""2883""
","
","","","","","","null","<div style=""font-size:60px;"">+</div>","null","","fixation","","","","","","","","","","",""
"aa-learning-trial","83","467864","0.0-9.0-2.0-1.5","5183","2","17","Female","approach_avoid_spark_v1","""event"",""trial"",""time""
""fullscreenenter"",""1"",""2883""
","
","
","""event"",""trial"",""time""
""fullscreenenter"",""1"",""2883""
","
","","","","","","1048.1000000089407","images/sofa8.png","","","learning","-8","0","0","0","sofa","furniture","2","0","","neutral","0"
"html-keyboard-response","84","468380","0.0-9.0-2.0-0.6","5183","2","17","Female","approach_avoid_spark_v1","""event"",""trial"",""time""
""fullscreenenter"",""1"",""2883""
","
","
","""event"",""trial"",""time""
""fullscreenenter"",""1"",""2883""
","
","","","","","","null","<div style=""font-size:60px;"">+</div>","null","","fixation","","","","","","","","","","",""
"aa-learning-trial","85","471404","0.0-9.0-2.0-1.6","5183","2","17","Female","approach_avoid_spark_v1","""event"",""trial"",""time""
""fullscreenenter"",""1"",""2883""
","
","
","""event"",""trial"",""time""
""fullscreenenter"",""1"",""2883""
","
","","","","","","1085.4000000059605","images/bed1.png","","","learning","3","0","0","0","bed","furniture","2","0","","good","[3]"
"html-keyboard-response","86","471913","0.0-9.0-2.0-0.7","5183","2","17","Female","approach_avoid_spark_v1","""event"",""trial"",""time""
""fullscreenenter"",""1"",""2883""
","
","
","""event"",""trial"",""time""
""fullscreenenter"",""1"",""2883""
","
","","","","","","null","<div style=""font-size:60px;"">+</div>","null","","fixation","","","","","","","","","","",""
"aa-learning-trial","87","474930","0.0-9.0-2.0-1.7","5183","2","17","Female","approach_avoid_spark_v1","""event"",""trial"",""time""
""fullscreenenter"",""1"",""2883""
","
","
","""event"",""trial"",""time""
""fullscreenenter"",""1"",""2883""
","
","","","","","","755.2000000029802","images/bed7.png","","","learning","9","9","1","1","bed","furniture","2","0","","good","[3]"
"html-keyboard-response","88","475444","0.0-9.0-2.0-0.8","5183","2","17","Female","approach_avoid_spark_v1","""event"",""trial"",""time""
""fullscreenenter"",""1"",""2883""
","
","
","""event"",""trial"",""time""
""fullscreenenter"",""1"",""2883""
","
","","","","","","null","<div style=""font-size:60px;"">+</div>","null","","fixation","","","","","","","","","","",""
"aa-learning-trial","89","478450","0.0-9.0-2.0-1.8","5183","2","17","Female","approach_avoid_spark_v1","""event"",""trial"",""time""
""fullscreenenter"",""1"",""2883""
","
","
","""event"",""trial"",""time""
""fullscreenenter"",""1"",""2883""
","
","","","","","","717.3000000119209","images/table2.png","","","learning","2","0","0","0","table","furniture","2","0","","bad","[-3]"
"html-keyboard-response","90","478953","0.0-9.0-2.0-0.9","5183","2","17","Female","approach_avoid_spark_v1","""event"",""trial"",""time""
""fullscreenenter"",""1"",""2883""
","
","
","""event"",""trial"",""time""
""fullscreenenter"",""1"",""2883""
","
","","","","","","null","<div style=""font-size:60px;"">+</div>","null","","fixation","","","","","","","","","","",""
"aa-learning-trial","91","481959","0.0-9.0-2.0-1.9","5183","2","17","Female","approach_avoid_spark_v1","""event"",""trial"",""time""
""fullscreenenter"",""1"",""2883""
","
","
","""event"",""trial"",""time""
""fullscreenenter"",""1"",""2883""
","
","","","","","","706","images/sofa8.png","","","learning","-8","0","0","0","sofa","furniture","2","0","","neutral","0"
"html-keyboard-response","92","482461","0.0-9.0-2.0-0.10","5183","2","17","Female","approach_avoid_spark_v1","""event"",""trial"",""time""
""fullscreenenter"",""1"",""2883""
","
","
","""event"",""trial"",""time""
""fullscreenenter"",""1"",""2883""
","
","","","","","","null","<div style=""font-size:60px;"">+</div>","null","","fixation","","","","","","","","","","",""
"aa-learning-trial","93","485469","0.0-9.0-2.0-1.10","5183","2","17","Female","approach_avoid_spark_v1","""event"",""trial"",""time""
""fullscreenenter"",""1"",""2883""
","
","
","""event"",""trial"",""time""
""fullscreenenter"",""1"",""2883""
","
","","","","","","852.5","images/table3.png","","","learning","-6","-6","1","1","table","furniture","2","0","","bad","[-3]"
"html-keyboard-response","94","485972","0.0-9.0-2.0-0.11","5183","2","17","Female","approach_avoid_spark_v1","""event"",""trial"",""time""
""fullscreenenter"",""1"",""2883""
","
","
","""event"",""trial"",""time""
""fullscreenenter"",""1"",""2883""
","
","","","","","","null","<div style=""font-size:60px;"">+</div>","null","","fixation","","","","","","","","","","",""
"aa-learning-trial","95","488978","0.0-9.0-2.0-1.11","5183","2","17","Female","approach_avoid_spark_v1","""event"",""trial"",""time""
""fullscreenenter"",""1"",""2883""
","
","
","""event"",""trial"",""time""
""fullscreenenter"",""1"",""2883""
","
","","","","","","711.5","images/table3.png","","","learning","-6","0","0","0","table","furniture","2","0","","bad","[-3]"
"html-keyboard-response","96","489480","0.0-9.0-2.0-0.12","5183","2","17","Female","approach_avoid_spark_v1","""event"",""trial"",""time""
""fullscreenenter"",""1"",""2883""
","
","
","""event"",""trial"",""time""
""fullscreenenter"",""1"",""2883""
","
","","","","","","null","<div style=""font-size:60px;"">+</div>","null","","fixation","","","","","","","","","","",""
"aa-learning-trial","97","492486","0.0-9.0-2.0-1.12","5183","2","17","Female","approach_avoid_spark_v1","""event"",""trial"",""time""
""fullscreenenter"",""1"",""2883""
","
","
","""event"",""trial"",""time""
""fullscreenenter"",""1"",""2883""
","
","","","","","","697.7999999970198","images/table2.png","","","learning","2","0","0","0","table","furniture","2","0","","bad","[-3]"
"html-keyboard-response","98","492989","0.0-9.0-2.0-0.13","5183","2","17","Female","approach_avoid_spark_v1","""event"",""trial"",""time""
""fullscreenenter"",""1"",""2883""
","
","
","""event"",""trial"",""time""
""fullscreenenter"",""1"",""2883""
","
","","","","","","null","<div style=""font-size:60px;"">+</div>","null","","fixation","","","","","","","","","","",""
"aa-learning-trial","99","495994","0.0-9.0-2.0-1.13","5183","2","17","Female","approach_avoid_spark_v1","""event"",""trial"",""time""
""fullscreenenter"",""1"",""2883""
","
","
","""event"",""trial"",""time""
""fullscreenenter"",""1"",""2883""
","
","","","","","","696.7000000029802","images/bed7.png","","","learning","9","9","1","1","bed","furniture","2","0","","good","[3]"
"html-keyboard-response","100","496497","0.0-9.0-2.0-0.14","5183","2","17","Female","approach_avoid_spark_v1","""event"",""trial"",""time""
""fullscreenenter"",""1"",""2883""
","
","
","""event"",""trial"",""time""
""fullscreenenter"",""1"",""2883""
","
","","","","","","null","<div style=""font-size:60px;"">+</div>","null","","fixation","","","","","","","","","","",""
"aa-learning-trial","101","499505","0.0-9.0-2.0-1.14","5183","2","17","Female","approach_avoid_spark_v1","""event"",""trial"",""time""
""fullscreenenter"",""1"",""2883""
","
","
","""event"",""trial"",""time""
""fullscreenenter"",""1"",""2883""
","
","","","","","","860.2999999970198","images/sofa7.png","","","learning","8","0","0","0","sofa","furniture","2","0","","neutral","0"
"html-keyboard-response","102","500007","0.0-9.0-2.0-0.15","5183","2","17","Female","approach_avoid_spark_v1","""event"",""trial"",""time""
""fullscreenenter"",""1"",""2883""
","
","
","""event"",""trial"",""time""
""fullscreenenter"",""1"",""2883""
","
","","","","","","null","<div style=""font-size:60px;"">+</div>","null","","fixation","","","","","","","","","","",""
"aa-learning-trial","103","503013","0.0-9.0-2.0-1.15","5183","2","17","Female","approach_avoid_spark_v1","""event"",""trial"",""time""
""fullscreenenter"",""1"",""2883""
","
","
","""event"",""trial"",""time""
""fullscreenenter"",""1"",""2883""
","
","","","","","","774.8999999910593","images/table6.png","","","learning","-5","0","0","0","table","furniture","2","0","","bad","[-3]"
"html-keyboard-response","104","503516","0.0-9.0-2.0-0.16","5183","2","17","Female","approach_avoid_spark_v1","""event"",""trial"",""time""
""fullscreenenter"",""1"",""2883""
","
","
","""event"",""trial"",""time""
""fullscreenenter"",""1"",""2883""
","
","","","","","","null","<div style=""font-size:60px;"">+</div>","null","","fixation","","","","","","","","","","",""
"aa-learning-trial","105","506523","0.0-9.0-2.0-1.16","5183","2","17","Female","approach_avoid_spark_v1","""event"",""trial"",""time""
""fullscreenenter"",""1"",""2883""
","
","
","""event"",""trial"",""time""
""fullscreenenter"",""1"",""2883""
","
","","","","","","764.2999999970198","images/sofa6.png","","","learning","1","0","0","0","sofa","furniture","2","0","","neutral","0"
"html-keyboard-response","106","507032","0.0-9.0-2.0-0.17","5183","2","17","Female","approach_avoid_spark_v1","""event"",""trial"",""time""
""fullscreenenter"",""1"",""2883""
","
","
","""event"",""trial"",""time""
""fullscreenenter"",""1"",""2883""
","
","","","","","","null","<div style=""font-size:60px;"">+</div>","null","","fixation","","","","","","","","","","",""
"aa-learning-trial","107","510039","0.0-9.0-2.0-1.17","5183","2","17","Female","approach_avoid_spark_v1","""event"",""trial"",""time""
""fullscreenenter"",""1"",""2883""
","
","
","""event"",""trial"",""time""
""fullscreenenter"",""1"",""2883""
","
","","","","","","818.5","images/bed7.png","","","learning","9","9","1","1","bed","furniture","2","0","","good","[3]"
"html-keyboard-response","108","510541","0.0-9.0-2.0-0.18","5183","2","17","Female","approach_avoid_spark_v1","""event"",""trial"",""time""
""fullscreenenter"",""1"",""2883""
","
","
","""event"",""trial"",""time""
""fullscreenenter"",""1"",""2883""
","
","","","","","","null","<div style=""font-size:60px;"">+</div>","null","","fixation","","","","","","","","","","",""
"aa-learning-trial","109","513550","0.0-9.0-2.0-1.18","5183","2","17","Female","approach_avoid_spark_v1","""event"",""trial"",""time""
""fullscreenenter"",""1"",""2883""
","
","
","""event"",""trial"",""time""
""fullscreenenter"",""1"",""2883""
","
","","","","","","641.2000000029802","images/sofa7.png","","","learning","8","8","1","1","sofa","furniture","2","0","","neutral","0"
"html-keyboard-response","110","514052","0.0-9.0-2.0-0.19","5183","2","17","Female","approach_avoid_spark_v1","""event"",""trial"",""time""
""fullscreenenter"",""1"",""2883""
","
","
","""event"",""trial"",""time""
""fullscreenenter"",""1"",""2883""
","
","","","","","","null","<div style=""font-size:60px;"">+</div>","null","","fixation","","","","","","","","","","",""
"aa-learning-trial","111","517059","0.0-9.0-2.0-1.19","5183","2","17","Female","approach_avoid_spark_v1","""event"",""trial"",""time""
""fullscreenenter"",""1"",""2883""
","
","
","""event"",""trial"",""time""
""fullscreenenter"",""1"",""2883""
","
","","","","","","739.2000000029802","images/table3.png","","","learning","-6","-6","1","1","table","furniture","2","0","","bad","[-3]"
"html-keyboard-response","112","517562","0.0-9.0-2.0-0.20","5183","2","17","Female","approach_avoid_spark_v1","""event"",""trial"",""time""
""fullscreenenter"",""1"",""2883""
","
","
","""event"",""trial"",""time""
""fullscreenenter"",""1"",""2883""
","
","","","","","","null","<div style=""font-size:60px;"">+</div>","null","","fixation","","","","","","","","","","",""
"aa-learning-trial","113","520569","0.0-9.0-2.0-1.20","5183","2","17","Female","approach_avoid_spark_v1","""event"",""trial"",""time""
""fullscreenenter"",""1"",""2883""
","
","
","""event"",""trial"",""time""
""fullscreenenter"",""1"",""2883""
","
","","","","","","706.7000000029802","images/bed1.png","","","learning","3","0","0","0","bed","furniture","2","0","","good","[3]"
"html-keyboard-response","114","521072","0.0-9.0-2.0-0.21","5183","2","17","Female","approach_avoid_spark_v1","""event"",""trial"",""time""
""fullscreenenter"",""1"",""2883""
","
","
","""event"",""trial"",""time""
""fullscreenenter"",""1"",""2883""
","
","","","","","","null","<div style=""font-size:60px;"">+</div>","null","","fixation","","","","","","","","","","",""
"aa-learning-trial","115","524077","0.0-9.0-2.0-1.21","5183","2","17","Female","approach_avoid_spark_v1","""event"",""trial"",""time""
""fullscreenenter"",""1"",""2883""
","
","
","""event"",""trial"",""time""
""fullscreenenter"",""1"",""2883""
","
","","","","","","869.2000000029802","images/sofa8.png","","","learning","-8","0","0","0","sofa","furniture","2","0","","neutral","0"
"html-keyboard-response","116","524580","0.0-9.0-2.0-0.22","5183","2","17","Female","approach_avoid_spark_v1","""event"",""trial"",""time""
""fullscreenenter"",""1"",""2883""
","
","
","""event"",""trial"",""time""
""fullscreenenter"",""1"",""2883""
","
","","","","","","null","<div style=""font-size:60px;"">+</div>","null","","fixation","","","","","","","","","","",""
"aa-learning-trial","117","527587","0.0-9.0-2.0-1.22","5183","2","17","Female","approach_avoid_spark_v1","""event"",""trial"",""time""
""fullscreenenter"",""1"",""2883""
","
","
","""event"",""trial"",""time""
""fullscreenenter"",""1"",""2883""
","
","","","","","","651.3000000119209","images/sofa8.png","","","learning","-8","0","0","0","sofa","furniture","2","0","","neutral","0"
"html-keyboard-response","118","528090","0.0-9.0-2.0-0.23","5183","2","17","Female","approach_avoid_spark_v1","""event"",""trial"",""time""
""fullscreenenter"",""1"",""2883""
","
","
","""event"",""trial"",""time""
""fullscreenenter"",""1"",""2883""
","
","","","","","","null","<div style=""font-size:60px;"">+</div>","null","","fixation","","","","","","","","","","",""
"aa-learning-trial","119","531096","0.0-9.0-2.0-1.23","5183","2","17","Female","approach_avoid_spark_v1","""event"",""trial"",""time""
""fullscreenenter"",""1"",""2883""
","
","
","""event"",""trial"",""time""
""fullscreenenter"",""1"",""2883""
","
","","","","","","871.2000000029802","images/table3.png","","","learning","-6","0","0","0","table","furniture","2","0","","bad","[-3]"
"html-keyboard-response","120","531599","0.0-9.0-2.0-0.24","5183","2","17","Female","approach_avoid_spark_v1","""event"",""trial"",""time""
""fullscreenenter"",""1"",""2883""
","
","
","""event"",""trial"",""time""
""fullscreenenter"",""1"",""2883""
","
","","","","","","null","<div style=""font-size:60px;"">+</div>","null","","fixation","","","","","","","","","","",""
"aa-learning-trial","121","534603","0.0-9.0-2.0-1.24","5183","2","17","Female","approach_avoid_spark_v1","""event"",""trial"",""time""
""fullscreenenter"",""1"",""2883""
","
","
","""event"",""trial"",""time""
""fullscreenenter"",""1"",""2883""
","
","","","","","","740.7999999970198","images/bed7.png","","","learning","9","9","1","1","bed","furniture","2","0","","good","[3]"
"html-keyboard-response","122","535105","0.0-9.0-2.0-0.25","5183","2","17","Female","approach_avoid_spark_v1","""event"",""trial"",""time""
""fullscreenenter"",""1"",""2883""
","
","
","""event"",""trial"",""time""
""fullscreenenter"",""1"",""2883""
","
","","","","","","null","<div style=""font-size:60px;"">+</div>","null","","fixation","","","","","","","","","","",""
"aa-learning-trial","123","538110","0.0-9.0-2.0-1.25","5183","2","17","Female","approach_avoid_spark_v1","""event"",""trial"",""time""
""fullscreenenter"",""1"",""2883""
","
","
","""event"",""trial"",""time""
""fullscreenenter"",""1"",""2883""
","
","","","","","","841.0999999940395","images/sofa7.png","","","learning","8","8","1","1","sofa","furniture","2","0","","neutral","0"
"html-keyboard-response","124","538611","0.0-9.0-2.0-0.26","5183","2","17","Female","approach_avoid_spark_v1","""event"",""trial"",""time""
""fullscreenenter"",""1"",""2883""
","
","
","""event"",""trial"",""time""
""fullscreenenter"",""1"",""2883""
","
","","","","","","null","<div style=""font-size:60px;"">+</div>","null","","fixation","","","","","","","","","","",""
"aa-learning-trial","125","541619","0.0-9.0-2.0-1.26","5183","2","17","Female","approach_avoid_spark_v1","""event"",""trial"",""time""
""fullscreenenter"",""1"",""2883""
","
","
","""event"",""trial"",""time""
""fullscreenenter"",""1"",""2883""
","
","","","","","","1059.7000000029802","images/bed3.png","","","learning","-1","0","0","0","bed","furniture","2","0","","good","[3]"
"html-keyboard-response","126","542121","0.0-9.0-2.0-0.27","5183","2","17","Female","approach_avoid_spark_v1","""event"",""trial"",""time""
""fullscreenenter"",""1"",""2883""
","
","
","""event"",""trial"",""time""
""fullscreenenter"",""1"",""2883""
","
","","","","","","null","<div style=""font-size:60px;"">+</div>","null","","fixation","","","","","","","","","","",""
"aa-learning-trial","127","545128","0.0-9.0-2.0-1.27","5183","2","17","Female","approach_avoid_spark_v1","""event"",""trial"",""time""
""fullscreenenter"",""1"",""2883""
","
","
","""event"",""trial"",""time""
""fullscreenenter"",""1"",""2883""
","
","","","","","","913.5999999940395","images/bed6.png","","","learning","-9","0","0","0","bed","furniture","2","0","","good","[3]"
"html-keyboard-response","128","545630","0.0-9.0-2.0-0.28","5183","2","17","Female","approach_avoid_spark_v1","""event"",""trial"",""time""
""fullscreenenter"",""1"",""2883""
","
","
","""event"",""trial"",""time""
""fullscreenenter"",""1"",""2883""
","
","","","","","","null","<div style=""font-size:60px;"">+</div>","null","","fixation","","","","","","","","","","",""
"aa-learning-trial","129","548635","0.0-9.0-2.0-1.28","5183","2","17","Female","approach_avoid_spark_v1","""event"",""trial"",""time""
""fullscreenenter"",""1"",""2883""
","
","
","""event"",""trial"",""time""
""fullscreenenter"",""1"",""2883""
","
","","","","","","719.3000000119209","images/sofa1.png","","","learning","5","0","0","0","sofa","furniture","2","0","","neutral","0"
"html-keyboard-response","130","549137","0.0-9.0-2.0-0.29","5183","2","17","Female","approach_avoid_spark_v1","""event"",""trial"",""time""
""fullscreenenter"",""1"",""2883""
","
","
","""event"",""trial"",""time""
""fullscreenenter"",""1"",""2883""
","
","","","","","","null","<div style=""font-size:60px;"">+</div>","null","","fixation","","","","","","","","","","",""
"aa-learning-trial","131","552144","0.0-9.0-2.0-1.29","5183","2","17","Female","approach_avoid_spark_v1","""event"",""trial"",""time""
""fullscreenenter"",""1"",""2883""
","
","
","""event"",""trial"",""time""
""fullscreenenter"",""1"",""2883""
","
","","","","","","575.2999999970198","images/sofa4.png","","","learning","-3","0","0","0","sofa","furniture","2","0","","neutral","0"
"html-keyboard-response","132","552646","0.0-9.0-2.0-0.30","5183","2","17","Female","approach_avoid_spark_v1","""event"",""trial"",""time""
""fullscreenenter"",""1"",""2883""
","
","
","""event"",""trial"",""time""
""fullscreenenter"",""1"",""2883""
","
","","","","","","null","<div style=""font-size:60px;"">+</div>","null","","fixation","","","","","","","","","","",""
"aa-learning-trial","133","555654","0.0-9.0-2.0-1.30","5183","2","17","Female","approach_avoid_spark_v1","""event"",""trial"",""time""
""fullscreenenter"",""1"",""2883""
","
","
","""event"",""trial"",""time""
""fullscreenenter"",""1"",""2883""
","
","","","","","","643","images/table3.png","","","learning","-6","0","0","0","table","furniture","2","0","","bad","[-3]"
"html-keyboard-response","134","556157","0.0-9.0-2.0-0.31","5183","2","17","Female","approach_avoid_spark_v1","""event"",""trial"",""time""
""fullscreenenter"",""1"",""2883""
","
","
","""event"",""trial"",""time""
""fullscreenenter"",""1"",""2883""
","
","","","","","","null","<div style=""font-size:60px;"">+</div>","null","","fixation","","","","","","","","","","",""
"aa-learning-trial","135","559163","0.0-9.0-2.0-1.31","5183","2","17","Female","approach_avoid_spark_v1","""event"",""trial"",""time""
""fullscreenenter"",""1"",""2883""
","
","
","""event"",""trial"",""time""
""fullscreenenter"",""1"",""2883""
","
","","","","","","661.2999999970198","images/table5.png","","","learning","4","0","0","0","table","furniture","2","0","","bad","[-3]"
"html-keyboard-response","136","559665","0.0-9.0-2.0-0.32","5183","2","17","Female","approach_avoid_spark_v1","""event"",""trial"",""time""
""fullscreenenter"",""1"",""2883""
","
","
","""event"",""trial"",""time""
""fullscreenenter"",""1"",""2883""
","
","","","","","","null","<div style=""font-size:60px;"">+</div>","null","","fixation","","","","","","","","","","",""
"aa-learning-trial","137","562672","0.0-9.0-2.0-1.32","5183","2","17","Female","approach_avoid_spark_v1","""event"",""trial"",""time""
""fullscreenenter"",""1"",""2883""
","
","
","""event"",""trial"",""time""
""fullscreenenter"",""1"",""2883""
","
","","","","","","762.4000000059605","images/bed3.png","","","learning","-1","0","0","0","bed","furniture","2","0","","good","[3]"
"html-keyboard-response","138","563181","0.0-9.0-2.0-0.33","5183","2","17","Female","approach_avoid_spark_v1","""event"",""trial"",""time""
""fullscreenenter"",""1"",""2883""
","
","
","""event"",""trial"",""time""
""fullscreenenter"",""1"",""2883""
","
","","","","","","null","<div style=""font-size:60px;"">+</div>","null","","fixation","","","","","","","","","","",""
"aa-learning-trial","139","566186","0.0-9.0-2.0-1.33","5183","2","17","Female","approach_avoid_spark_v1","""event"",""trial"",""time""
""fullscreenenter"",""1"",""2883""
","
","
","""event"",""trial"",""time""
""fullscreenenter"",""1"",""2883""
","
","","","","","","682.5","images/table5.png","","","learning","4","4","1","1","table","furniture","2","0","","bad","[-3]"
"html-keyboard-response","140","566689","0.0-9.0-2.0-0.34","5183","2","17","Female","approach_avoid_spark_v1","""event"",""trial"",""time""
""fullscreenenter"",""1"",""2883""
","
","
","""event"",""trial"",""time""
""fullscreenenter"",""1"",""2883""
","
","","","","","","null","<div style=""font-size:60px;"">+</div>","null","","fixation","","","","","","","","","","",""
"aa-learning-trial","141","569696","0.0-9.0-2.0-1.34","5183","2","17","Female","approach_avoid_spark_v1","""event"",""trial"",""time""
""fullscreenenter"",""1"",""2883""
","
","
","""event"",""trial"",""time""
""fullscreenenter"",""1"",""2883""
","
","","","","","","1160.2000000029802","images/sofa8.png","","","learning","-8","0","0","0","sofa","furniture","2","0","","neutral","0"
"html-keyboard-response","142","570199","0.0-9.0-2.0-0.35","5183","2","17","Female","approach_avoid_spark_v1","""event"",""trial"",""time""
""fullscreenenter"",""1"",""2883""
","
","
","""event"",""trial"",""time""
""fullscreenenter"",""1"",""2883""
","
","","","","","","null","<div style=""font-size:60px;"">+</div>","null","","fixation","","","","","","","","","","",""
"aa-learning-trial","143","573206","0.0-9.0-2.0-1.35","5183","2","17","Female","approach_avoid_spark_v1","""event"",""trial"",""time""
""fullscreenenter"",""1"",""2883""
","
","
","""event"",""trial"",""time""
""fullscreenenter"",""1"",""2883""
","
","","","","","","567.7999999970198","images/table2.png","","","learning","2","2","1","1","table","furniture","2","0","","bad","[-3]"
"html-keyboard-response","144","573709","0.0-9.0-2.0-0.36","5183","2","17","Female","approach_avoid_spark_v1","""event"",""trial"",""time""
""fullscreenenter"",""1"",""2883""
","
","
","""event"",""trial"",""time""
""fullscreenenter"",""1"",""2883""
","
","","","","","","null","<div style=""font-size:60px;"">+</div>","null","","fixation","","","","","","","","","","",""
"aa-learning-trial","145","576716","0.0-9.0-2.0-1.36","5183","2","17","Female","approach_avoid_spark_v1","""event"",""trial"",""time""
""fullscreenenter"",""1"",""2883""
","
","
","""event"",""trial"",""time""
""fullscreenenter"",""1"",""2883""
","
","","","","","","787.3999999910593","images/sofa1.png","","","learning","5","5","1","1","sofa","furniture","2","0","","neutral","0"
"html-keyboard-response","146","577219","0.0-9.0-2.0-0.37","5183","2","17","Female","approach_avoid_spark_v1","""event"",""trial"",""time""
""fullscreenenter"",""1"",""2883""
","
","
","""event"",""trial"",""time""
""fullscreenenter"",""1"",""2883""
","
","","","","","","null","<div style=""font-size:60px;"">+</div>","null","","fixation","","","","","","","","","","",""
"aa-learning-trial","147","580224","0.0-9.0-2.0-1.37","5183","2","17","Female","approach_avoid_spark_v1","""event"",""trial"",""time""
""fullscreenenter"",""1"",""2883""
","
","
","""event"",""trial"",""time""
""fullscreenenter"",""1"",""2883""
","
","","","","","","831.9000000059605","images/table8.png","","","learning","7","0","0","0","table","furniture","2","0","","bad","[-3]"
"html-keyboard-response","148","580728","0.0-9.0-2.0-0.38","5183","2","17","Female","approach_avoid_spark_v1","""event"",""trial"",""time""
""fullscreenenter"",""1"",""2883""
","
","
","""event"",""trial"",""time""
""fullscreenenter"",""1"",""2883""
","
","","","","","","null","<div style=""font-size:60px;"">+</div>","null","","fixation","","","","","","","","","","",""
"aa-learning-trial","149","583735","0.0-9.0-2.0-1.38","5183","2","17","Female","approach_avoid_spark_v1","""event"",""trial"",""time""
""fullscreenenter"",""1"",""2883""
","
","
","""event"",""trial"",""time""
""fullscreenenter"",""1"",""2883""
","
","","","","","","654","images/table2.png","","","learning","2","2","1","1","table","furniture","2","0","","bad","[-3]"
"html-keyboard-response","150","584237","0.0-9.0-2.0-0.39","5183","2","17","Female","approach_avoid_spark_v1","""event"",""trial"",""time""
""fullscreenenter"",""1"",""2883""
","
","
","""event"",""trial"",""time""
""fullscreenenter"",""1"",""2883""
","
","","","","","","null","<div style=""font-size:60px;"">+</div>","null","","fixation","","","","","","","","","","",""
"aa-learning-trial","151","587244","0.0-9.0-2.0-1.39","5183","2","17","Female","approach_avoid_spark_v1","""event"",""trial"",""time""
""fullscreenenter"",""1"",""2883""
","
","
","""event"",""trial"",""time""
""fullscreenenter"",""1"",""2883""
","
","","","","","","619.8000000119209","images/table3.png","","","learning","-6","0","0","0","table","furniture","2","0","","bad","[-3]"
"html-keyboard-response","152","587747","0.0-9.0-2.0-0.40","5183","2","17","Female","approach_avoid_spark_v1","""event"",""trial"",""time""
""fullscreenenter"",""1"",""2883""
","
","
","""event"",""trial"",""time""
""fullscreenenter"",""1"",""2883""
","
","","","","","","null","<div style=""font-size:60px;"">+</div>","null","","fixation","","","","","","","","","","",""
"aa-learning-trial","153","590754","0.0-9.0-2.0-1.40","5183","2","17","Female","approach_avoid_spark_v1","""event"",""trial"",""time""
""fullscreenenter"",""1"",""2883""
","
","
","""event"",""trial"",""time""
""fullscreenenter"",""1"",""2883""
","
","","","","","","667.7000000029802","images/table2.png","","","learning","2","2","1","1","table","furniture","2","0","","bad","[-3]"
"html-keyboard-response","154","591256","0.0-9.0-2.0-0.41","5183","2","17","Female","approach_avoid_spark_v1","""event"",""trial"",""time""
""fullscreenenter"",""1"",""2883""
","
","
","""event"",""trial"",""time""
""fullscreenenter"",""1"",""2883""
","
","","","","","","null","<div style=""font-size:60px;"">+</div>","null","","fixation","","","","","","","","","","",""
"aa-learning-trial","155","594261","0.0-9.0-2.0-1.41","5183","2","17","Female","approach_avoid_spark_v1","""event"",""trial"",""time""
""fullscreenenter"",""1"",""2883""
","
","
","""event"",""trial"",""time""
""fullscreenenter"",""1"",""2883""
","
","","","","","","1482.5999999940395","images/sofa7.png","","","learning","8","0","0","0","sofa","furniture","2","0","","neutral","0"
"html-keyboard-response","156","594763","0.0-9.0-2.0-0.42","5183","2","17","Female","approach_avoid_spark_v1","""event"",""trial"",""time""
""fullscreenenter"",""1"",""2883""
","
","
","""event"",""trial"",""time""
""fullscreenenter"",""1"",""2883""
","
","","","","","","null","<div style=""font-size:60px;"">+</div>","null","","fixation","","","","","","","","","","",""
"aa-learning-trial","157","597767","0.0-9.0-2.0-1.42","5183","2","17","Female","approach_avoid_spark_v1","""event"",""trial"",""time""
""fullscreenenter"",""1"",""2883""
","
","
","""event"",""trial"",""time""
""fullscreenenter"",""1"",""2883""
","
","","","","","","1274.5","images/bed1.png","","","learning","3","3","1","1","bed","furniture","2","0","","good","[3]"
"html-keyboard-response","158","598269","0.0-9.0-2.0-0.43","5183","2","17","Female","approach_avoid_spark_v1","""event"",""trial"",""time""
""fullscreenenter"",""1"",""2883""
","
","
","""event"",""trial"",""time""
""fullscreenenter"",""1"",""2883""
","
","","","","","","null","<div style=""font-size:60px;"">+</div>","null","","fixation","","","","","","","","","","",""
"aa-learning-trial","159","601276","0.0-9.0-2.0-1.43","5183","2","17","Female","approach_avoid_spark_v1","""event"",""trial"",""time""
""fullscreenenter"",""1"",""2883""
","
","
","""event"",""trial"",""time""
""fullscreenenter"",""1"",""2883""
","
","","","","","","651.2000000029802","images/bed7.png","","","learning","9","9","1","1","bed","furniture","2","0","","good","[3]"
"html-keyboard-response","160","601781","0.0-9.0-2.0-0.44","5183","2","17","Female","approach_avoid_spark_v1","""event"",""trial"",""time""
""fullscreenenter"",""1"",""2883""
","
","
","""event"",""trial"",""time""
""fullscreenenter"",""1"",""2883""
","
","","","","","","null","<div style=""font-size:60px;"">+</div>","null","","fixation","","","","","","","","","","",""
"aa-learning-trial","161","604785","0.0-9.0-2.0-1.44","5183","2","17","Female","approach_avoid_spark_v1","""event"",""trial"",""time""
""fullscreenenter"",""1"",""2883""
","
","
","""event"",""trial"",""time""
""fullscreenenter"",""1"",""2883""
","
","","","","","","573.9000000059605","images/table2.png","","","learning","2","2","1","1","table","furniture","2","0","","bad","[-3]"
"html-keyboard-response","162","605291","0.0-9.0-2.0-0.45","5183","2","17","Female","approach_avoid_spark_v1","""event"",""trial"",""time""
""fullscreenenter"",""1"",""2883""
","
","
","""event"",""trial"",""time""
""fullscreenenter"",""1"",""2883""
","
","","","","","","null","<div style=""font-size:60px;"">+</div>","null","","fixation","","","","","","","","","","",""
"aa-learning-trial","163","608294","0.0-9.0-2.0-1.45","5183","2","17","Female","approach_avoid_spark_v1","""event"",""trial"",""time""
""fullscreenenter"",""1"",""2883""
","
","
","""event"",""trial"",""time""
""fullscreenenter"",""1"",""2883""
","
","","","","","","705","images/bed3.png","","","learning","-1","0","0","0","bed","furniture","2","0","","good","[3]"
"html-keyboard-response","164","608797","0.0-9.0-2.0-0.46","5183","2","17","Female","approach_avoid_spark_v1","""event"",""trial"",""time""
""fullscreenenter"",""1"",""2883""
","
","
","""event"",""trial"",""time""
""fullscreenenter"",""1"",""2883""
","
","","","","","","null","<div style=""font-size:60px;"">+</div>","null","","fixation","","","","","","","","","","",""
"aa-learning-trial","165","611805","0.0-9.0-2.0-1.46","5183","2","17","Female","approach_avoid_spark_v1","""event"",""trial"",""time""
""fullscreenenter"",""1"",""2883""
","
","
","""event"",""trial"",""time""
""fullscreenenter"",""1"",""2883""
","
","","","","","","766.2000000029802","images/sofa8.png","","","learning","-8","0","0","0","sofa","furniture","2","0","","neutral","0"
"html-keyboard-response","166","612309","0.0-9.0-2.0-0.47","5183","2","17","Female","approach_avoid_spark_v1","""event"",""trial"",""time""
""fullscreenenter"",""1"",""2883""
","
","
","""event"",""trial"",""time""
""fullscreenenter"",""1"",""2883""
","
","","","","","","null","<div style=""font-size:60px;"">+</div>","null","","fixation","","","","","","","","","","",""
"aa-learning-trial","167","615314","0.0-9.0-2.0-1.47","5183","2","17","Female","approach_avoid_spark_v1","""event"",""trial"",""time""
""fullscreenenter"",""1"",""2883""
","
","
","""event"",""trial"",""time""
""fullscreenenter"",""1"",""2883""
","
","","","","","","763.2000000029802","images/bed3.png","","","learning","-1","0","0","0","bed","furniture","2","0","","good","[3]"
"html-keyboard-response","168","615817","0.0-9.0-2.0-0.48","5183","2","17","Female","approach_avoid_spark_v1","""event"",""trial"",""time""
""fullscreenenter"",""1"",""2883""
","
","
","""event"",""trial"",""time""
""fullscreenenter"",""1"",""2883""
","
","","","","","","null","<div style=""font-size:60px;"">+</div>","null","","fixation","","","","","","","","","","",""
"aa-learning-trial","169","618820","0.0-9.0-2.0-1.48","5183","2","17","Female","approach_avoid_spark_v1","""event"",""trial"",""time""
""fullscreenenter"",""1"",""2883""
","
","
","""event"",""trial"",""time""
""fullscreenenter"",""1"",""2883""
","
","","","","","","634.8999999910593","images/bed7.png","","","learning","9","9","1","1","bed","furniture","2","0","","good","[3]"
"html-keyboard-response","170","619322","0.0-9.0-2.0-0.49","5183","2","17","Female","approach_avoid_spark_v1","""event"",""trial"",""time""
""fullscreenenter"",""1"",""2883""
","
","
","""event"",""trial"",""time""
""fullscreenenter"",""1"",""2883""
","
","","","","","","null","<div style=""font-size:60px;"">+</div>","null","","fixation","","","","","","","","","","",""
"aa-learning-trial","171","622328","0.0-9.0-2.0-1.49","5183","2","17","Female","approach_avoid_spark_v1","""event"",""trial"",""time""
""fullscreenenter"",""1"",""2883""
","
","
","""event"",""trial"",""time""
""fullscreenenter"",""1"",""2883""
","
","","","","","","812.7999999970198","images/bed5.png","","","learning","-4","0","0","0","bed","furniture","2","0","","good","[3]"
"html-keyboard-response","172","622830","0.0-9.0-2.0-0.50","5183","2","17","Female","approach_avoid_spark_v1","""event"",""trial"",""time""
""fullscreenenter"",""1"",""2883""
","
","
","""event"",""trial"",""time""
""fullscreenenter"",""1"",""2883""
","
","","","","","","null","<div style=""font-size:60px;"">+</div>","null","","fixation","","","","","","","","","","",""
"aa-learning-trial","173","625837","0.0-9.0-2.0-1.50","5183","2","17","Female","approach_avoid_spark_v1","""event"",""trial"",""time""
""fullscreenenter"",""1"",""2883""
","
","
","""event"",""trial"",""time""
""fullscreenenter"",""1"",""2883""
","
","","","","","","608.7999999970198","images/sofa7.png","","","learning","8","8","1","1","sofa","furniture","2","0","","neutral","0"
"html-button-response","174","628295","0.0-9.0-3.0","5183","2","17","Female","approach_avoid_spark_v1","""event"",""trial"",""time""
""fullscreenenter"",""1"",""2883""
","
","
","""event"",""trial"",""time""
""fullscreenenter"",""1"",""2883""
","
","","","","","","2455.4000000059605","<p> You have completed the round! <p> In this round, you earned 97 points! </p>","0","","break","","","","","","","","","","",""
"html-button-response","175","630194","0.0-10.0","5183","2","17","Female","approach_avoid_spark_v1","""event"",""trial"",""time""
""fullscreenenter"",""1"",""2883""
","
","
","""event"",""trial"",""time""
""fullscreenenter"",""1"",""2883""
","
","","","","","","1896.2999999970198","<p> Now it's time to play another round. </p>","0","","transition_screen","","","","","","","","","","",""
"preload","176","630323","0.0-11.0-0.0","5183","2","17","Female","approach_avoid_spark_v1","""event"",""trial"",""time""
""fullscreenenter"",""1"",""2883""
","
","
","""event"",""trial"",""time""
""fullscreenenter"",""1"",""2883""
","
","true","false","[]","[]","[]","","","","","","","","","","","","","","","",""
"learning-instructions","177","636817","0.0-11.0-1.0-0.0","5183","2","17","Female","approach_avoid_spark_v1","""event"",""trial"",""time""
""fullscreenenter"",""1"",""2883""
","
","
","""event"",""trial"",""time""
""fullscreenenter"",""1"",""2883""
","
","","","","","","1808.4000000059605","<p> Your goal in this round is to eat tasty fruit. </p></div>","","0","instructions","","","","","","","","","","",""
"learning-instructions","178","647544","0.0-11.0-1.0-0.1","5183","2","17","Female","approach_avoid_spark_v1","""event"",""trial"",""time""
""fullscreenenter"",""1"",""2883""
","
","
","""event"",""trial"",""time""
""fullscreenenter"",""1"",""2883""
","
","","","","","","794.2000000029802","<p> Some of the fruits you will see are tasty. Others are rotten on the inside.  </p><p> On each turn, you will see a fruit.   </p><p> You need to decide whether to eat it or not.  </p>","","0","instructions","","","","","","","","","","",""
"learning-instructions","179","653480","0.0-11.0-1.0-0.2","5183","2","17","Female","approach_avoid_spark_v1","""event"",""trial"",""time""
""fullscreenenter"",""1"",""2883""
","
","
","""event"",""trial"",""time""
""fullscreenenter"",""1"",""2883""
","
","","","","","","708.7000000029802","<p> You can eat the fruit by pressing 1 and choose not to eat it by pressing 0. </p><br><div class=""choice-instructions-grid""> <div class=""choice-option""><img src=""images/approach.png"" class=""choice-option-img"" stage=""instructions"" position=""0"" ><div class=""choice-option-text""> Press ""1."" </div></div><div class=""choice-option""><img src=""images/avoid.png"" class=""choice-option-img"" stage=""instructions"" position=""1"" ><div class=""choice-option-text""> Press ""0."" </div></div>","","0","instructions","","","","","","","","","","",""
"learning-instructions","180","662040","0.0-11.0-1.0-0.3","5183","2","17","Female","approach_avoid_spark_v1","""event"",""trial"",""time""
""fullscreenenter"",""1"",""2883""
","
","
","""event"",""trial"",""time""
""fullscreenenter"",""1"",""2883""
","
","","","","","","769.2999999970198","<p> If you eat the fruit and it was tasty, you will win points! </p><p> But if you eat the fruit and it was rotten, you will lose points. </p>","","0","instructions","","","","","","","","","","",""
"learning-instructions","181","674500","0.0-11.0-1.0-0.4","5183","2","17","Female","approach_avoid_spark_v1","""event"",""trial"",""time""
""fullscreenenter"",""1"",""2883""
","
","
","""event"",""trial"",""time""
""fullscreenenter"",""1"",""2883""
","
","","","","","","639.7999999970198","<p> You will earn points based on how tasty or rotten the fruit was. </p><p> If it was tasty, you will WIN anywhere from 1 - 9 points, </p><p> but if it was rotten, you will LOSE anywhere from 1 - 9 points. </p>","","0","instructions","","","","","","","","","","",""
"learning-instructions","182","681960","0.0-11.0-1.0-0.5","5183","2","17","Female","approach_avoid_spark_v1","""event"",""trial"",""time""
""fullscreenenter"",""1"",""2883""
","
","
","""event"",""trial"",""time""
""fullscreenenter"",""1"",""2883""
","
","","","","","","791.2000000029802","<p> You will see how many points you won or lost in the center of the screen. </p><p> Here is what you would see if you earned 5 points: </p><p style=""color:green;font-size:50px;font-weight:bolder"">5</p>","","0","instructions","","","","","","","","","","",""
"learning-instructions","183","685479","0.0-11.0-1.0-0.6","5183","2","17","Female","approach_avoid_spark_v1","""event"",""trial"",""time""
""fullscreenenter"",""1"",""2883""
","
","
","""event"",""trial"",""time""
""fullscreenenter"",""1"",""2883""
","
","","","","","","660.6000000089407","<p> And here is what you would see if you lost 3 points: </p><p style=""color:red;font-size:50px;font-weight:bolder"">-3</p>","","0","instructions","","","","","","","","","","",""
"learning-instructions","184","700798","0.0-11.0-1.0-0.7","5183","2","17","Female","approach_avoid_spark_v1","""event"",""trial"",""time""
""fullscreenenter"",""1"",""2883""
","
","
","""event"",""trial"",""time""
""fullscreenenter"",""1"",""2883""
","
","","","","","","719.7999999970198","<p> Some fruit is very tasty or very rotten. </p><p> These fruits will make you win or lose LOTS of points. </p><p> Other fruits are only kind of tasty or kind of rotten. </p><p> These fruits will make you win or lose small amounts of points. </p>","","0","instructions","","","","","","","","","","",""
"learning-instructions","185","712559","0.0-11.0-1.0-0.8","5183","2","17","Female","approach_avoid_spark_v1","""event"",""trial"",""time""
""fullscreenenter"",""1"",""2883""
","
","
","""event"",""trial"",""time""
""fullscreenenter"",""1"",""2883""
","
","","","","","","640","<p> If you choose to not eat the fruit, you will not win or lose any points. </p><p>  However, in the center of the screen, you will see the number of points you WOULD HAVE earned if you had eaten the fruit. </p>","","0","instructions","","","","","","","","","","",""
"learning-instructions","186","723725","0.0-11.0-1.0-0.9","5183","2","17","Female","approach_avoid_spark_v1","""event"",""trial"",""time""
""fullscreenenter"",""1"",""2883""
","
","
","""event"",""trial"",""time""
""fullscreenenter"",""1"",""2883""
","
","","","","","","795.5","<p> Here is what you might see if you did not eat the fruit but the fruit was tasty: </p><p style=""color:grey; font-size:50px; display: inline-block; border-spacing: 15px; border-width:3px; border-style:solid; border-color:red"">  &nbsp; 6 &nbsp; </p><p> Remember, in this case, you would not win or lose ANY points because you did not eat the fruit.  </p>","","0","instructions","","","","","","","","","","",""
"learning-instructions","187","733603","0.0-11.0-1.0-0.10","5183","2","17","Female","approach_avoid_spark_v1","""event"",""trial"",""time""
""fullscreenenter"",""1"",""2883""
","
","
","""event"",""trial"",""time""
""fullscreenenter"",""1"",""2883""
","
","","","","","","714.7000000029802","<p> Try to make the best choice for each fruit because </p><p> at the end of the game, you will earn bonus money based on how many points you earned. </p>","","0","instructions","","","","","","","","","","",""
"learning-instructions","188","743694","0.0-11.0-1.0-0.11","5183","2","17","Female","approach_avoid_spark_v1","""event"",""trial"",""time""
""fullscreenenter"",""1"",""2883""
","
","
","""event"",""trial"",""time""
""fullscreenenter"",""1"",""2883""
","
","","","","","","1894.5","<p> You will have 3 seconds to make each choice. Try to respond before time runs out! </p><p> You will lose 5 points each time you do not make a response. </p>","","0","instructions","","","","","","","","","","",""
"html-keyboard-response","189","744327","0.0-11.0-2.0-0.0","5183","2","17","Female","approach_avoid_spark_v1","""event"",""trial"",""time""
""fullscreenenter"",""1"",""2883""
","
","
","""event"",""trial"",""time""
""fullscreenenter"",""1"",""2883""
","
","","","","","","null","<div style=""font-size:60px;"">+</div>","null","","fixation","","","","","","","","","","",""
"aa-learning-trial","190","747337","0.0-11.0-2.0-1.0","5183","2","17","Female","approach_avoid_spark_v1","""event"",""trial"",""time""
""fullscreenenter"",""1"",""2883""
","
","
","""event"",""trial"",""time""
""fullscreenenter"",""1"",""2883""
","
","","","","","","1036.300000011921","images/apple8.png","","","learning","-7","-7","1","1","apple","fruit","1","1","","bad","[-6]"
"html-keyboard-response","191","747845","0.0-11.0-2.0-0.1","5183","2","17","Female","approach_avoid_spark_v1","""event"",""trial"",""time""
""fullscreenenter"",""1"",""2883""
","
","
","""event"",""trial"",""time""
""fullscreenenter"",""1"",""2883""
","
","","","","","","null","<div style=""font-size:60px;"">+</div>","null","","fixation","","","","","","","","","","",""
"aa-learning-trial","192","750858","0.0-11.0-2.0-1.1","5183","2","17","Female","approach_avoid_spark_v1","""event"",""trial"",""time""
""fullscreenenter"",""1"",""2883""
","
","
","""event"",""trial"",""time""
""fullscreenenter"",""1"",""2883""
","
","","","","","","875.5","images/banana1.png","","","learning","-1","-1","1","1","banana","fruit","1","1","","neutral","0"
"html-keyboard-response","193","751377","0.0-11.0-2.0-0.2","5183","2","17","Female","approach_avoid_spark_v1","""event"",""trial"",""time""
""fullscreenenter"",""1"",""2883""
","
","
","""event"",""trial"",""time""
""fullscreenenter"",""1"",""2883""
","
","","","","","","null","<div style=""font-size:60px;"">+</div>","null","","fixation","","","","","","","","","","",""
"aa-learning-trial","194","754397","0.0-11.0-2.0-1.2","5183","2","17","Female","approach_avoid_spark_v1","""event"",""trial"",""time""
""fullscreenenter"",""1"",""2883""
","
","
","""event"",""trial"",""time""
""fullscreenenter"",""1"",""2883""
","
","","","","","","502.79999999701977","images/orange2.png","","","learning","6","6","1","1","orange","fruit","1","1","","good","[5]"
"html-keyboard-response","195","754907","0.0-11.0-2.0-0.3","5183","2","17","Female","approach_avoid_spark_v1","""event"",""trial"",""time""
""fullscreenenter"",""1"",""2883""
","
","
","""event"",""trial"",""time""
""fullscreenenter"",""1"",""2883""
","
","","","","","","null","<div style=""font-size:60px;"">+</div>","null","","fixation","","","","","","","","","","",""
"aa-learning-trial","196","757917","0.0-11.0-2.0-1.3","5183","2","17","Female","approach_avoid_spark_v1","""event"",""trial"",""time""
""fullscreenenter"",""1"",""2883""
","
","
","""event"",""trial"",""time""
""fullscreenenter"",""1"",""2883""
","
","","","","","","1246.199999988079","images/banana2.png","","","learning","1","1","1","1","banana","fruit","1","1","","neutral","0"
"html-keyboard-response","197","758427","0.0-11.0-2.0-0.4","5183","2","17","Female","approach_avoid_spark_v1","""event"",""trial"",""time""
""fullscreenenter"",""1"",""2883""
","
","
","""event"",""trial"",""time""
""fullscreenenter"",""1"",""2883""
","
","","","","","","null","<div style=""font-size:60px;"">+</div>","null","","fixation","","","","","","","","","","",""
"aa-learning-trial","198","761447","0.0-11.0-2.0-1.4","5183","2","17","Female","approach_avoid_spark_v1","""event"",""trial"",""time""
""fullscreenenter"",""1"",""2883""
","
","
","""event"",""trial"",""time""
""fullscreenenter"",""1"",""2883""
","
","","","","","","706.5","images/apple8.png","","","learning","-9","0","0","0","apple","fruit","1","1","","bad","[-6]"
"html-keyboard-response","199","761963","0.0-11.0-2.0-0.5","5183","2","17","Female","approach_avoid_spark_v1","""event"",""trial"",""time""
""fullscreenenter"",""1"",""2883""
","
","
","""event"",""trial"",""time""
""fullscreenenter"",""1"",""2883""
","
","","","","","","null","<div style=""font-size:60px;"">+</div>","null","","fixation","","","","","","","","","","",""
"aa-learning-trial","200","764987","0.0-11.0-2.0-1.5","5183","2","17","Female","approach_avoid_spark_v1","""event"",""trial"",""time""
""fullscreenenter"",""1"",""2883""
","
","
","""event"",""trial"",""time""
""fullscreenenter"",""1"",""2883""
","
","","","","","","789.6999999880791","images/orange2.png","","","learning","5","5","1","1","orange","fruit","1","1","","good","[5]"
"html-keyboard-response","201","765503","0.0-11.0-2.0-0.6","5183","2","17","Female","approach_avoid_spark_v1","""event"",""trial"",""time""
""fullscreenenter"",""1"",""2883""
","
","
","""event"",""trial"",""time""
""fullscreenenter"",""1"",""2883""
","
","","","","","","null","<div style=""font-size:60px;"">+</div>","null","","fixation","","","","","","","","","","",""
"aa-learning-trial","202","768517","0.0-11.0-2.0-1.6","5183","2","17","Female","approach_avoid_spark_v1","""event"",""trial"",""time""
""fullscreenenter"",""1"",""2883""
","
","
","""event"",""trial"",""time""
""fullscreenenter"",""1"",""2883""
","
","","","","","","868.0999999940395","images/apple6.png","","","learning","-5","-5","1","1","apple","fruit","1","1","","bad","[-6]"
"html-keyboard-response","203","769035","0.0-11.0-2.0-0.7","5183","2","17","Female","approach_avoid_spark_v1","""event"",""trial"",""time""
""fullscreenenter"",""1"",""2883""
","
","
","""event"",""trial"",""time""
""fullscreenenter"",""1"",""2883""
","
","","","","","","null","<div style=""font-size:60px;"">+</div>","null","","fixation","","","","","","","","","","",""
"aa-learning-trial","204","772041","0.0-11.0-2.0-1.7","5183","2","17","Female","approach_avoid_spark_v1","""event"",""trial"",""time""
""fullscreenenter"",""1"",""2883""
","
","
","""event"",""trial"",""time""
""fullscreenenter"",""1"",""2883""
","
","","","","","","1334.1000000089407","images/orange6.png","","","learning","4","4","1","1","orange","fruit","1","1","","good","[5]"
"html-keyboard-response","205","772543","0.0-11.0-2.0-0.8","5183","2","17","Female","approach_avoid_spark_v1","""event"",""trial"",""time""
""fullscreenenter"",""1"",""2883""
","
","
","""event"",""trial"",""time""
""fullscreenenter"",""1"",""2883""
","
","","","","","","null","<div style=""font-size:60px;"">+</div>","null","","fixation","","","","","","","","","","",""
"aa-learning-trial","206","775550","0.0-11.0-2.0-1.8","5183","2","17","Female","approach_avoid_spark_v1","""event"",""trial"",""time""
""fullscreenenter"",""1"",""2883""
","
","
","""event"",""trial"",""time""
""fullscreenenter"",""1"",""2883""
","
","","","","","","971.6000000089407","images/banana3.png","","","learning","-2","-2","1","1","banana","fruit","1","1","","neutral","0"
"html-keyboard-response","207","776052","0.0-11.0-2.0-0.9","5183","2","17","Female","approach_avoid_spark_v1","""event"",""trial"",""time""
""fullscreenenter"",""1"",""2883""
","
","
","""event"",""trial"",""time""
""fullscreenenter"",""1"",""2883""
","
","","","","","","null","<div style=""font-size:60px;"">+</div>","null","","fixation","","","","","","","","","","",""
"aa-learning-trial","208","779058","0.0-11.0-2.0-1.9","5183","2","17","Female","approach_avoid_spark_v1","""event"",""trial"",""time""
""fullscreenenter"",""1"",""2883""
","
","
","""event"",""trial"",""time""
""fullscreenenter"",""1"",""2883""
","
","","","","","","1119.699999988079","images/apple4.png","","","learning","-7","-7","1","1","apple","fruit","1","1","","bad","[-6]"
"html-keyboard-response","209","779561","0.0-11.0-2.0-0.10","5183","2","17","Female","approach_avoid_spark_v1","""event"",""trial"",""time""
""fullscreenenter"",""1"",""2883""
","
","
","""event"",""trial"",""time""
""fullscreenenter"",""1"",""2883""
","
","","","","","","null","<div style=""font-size:60px;"">+</div>","null","","fixation","","","","","","","","","","",""
"aa-learning-trial","210","782568","0.0-11.0-2.0-1.10","5183","2","17","Female","approach_avoid_spark_v1","""event"",""trial"",""time""
""fullscreenenter"",""1"",""2883""
","
","
","""event"",""trial"",""time""
""fullscreenenter"",""1"",""2883""
","
","","","","","","973","images/orange4.png","","","learning","5","5","1","1","orange","fruit","1","1","","good","[5]"
"html-keyboard-response","211","783071","0.0-11.0-2.0-0.11","5183","2","17","Female","approach_avoid_spark_v1","""event"",""trial"",""time""
""fullscreenenter"",""1"",""2883""
","
","
","""event"",""trial"",""time""
""fullscreenenter"",""1"",""2883""
","
","","","","","","null","<div style=""font-size:60px;"">+</div>","null","","fixation","","","","","","","","","","",""
"aa-learning-trial","212","786074","0.0-11.0-2.0-1.11","5183","2","17","Female","approach_avoid_spark_v1","""event"",""trial"",""time""
""fullscreenenter"",""1"",""2883""
","
","
","""event"",""trial"",""time""
""fullscreenenter"",""1"",""2883""
","
","","","","","","692.5999999940395","images/apple6.png","","","learning","-8","0","0","0","apple","fruit","1","1","","bad","[-6]"
"html-keyboard-response","213","786577","0.0-11.0-2.0-0.12","5183","2","17","Female","approach_avoid_spark_v1","""event"",""trial"",""time""
""fullscreenenter"",""1"",""2883""
","
","
","""event"",""trial"",""time""
""fullscreenenter"",""1"",""2883""
","
","","","","","","null","<div style=""font-size:60px;"">+</div>","null","","fixation","","","","","","","","","","",""
"aa-learning-trial","214","789584","0.0-11.0-2.0-1.12","5183","2","17","Female","approach_avoid_spark_v1","""event"",""trial"",""time""
""fullscreenenter"",""1"",""2883""
","
","
","""event"",""trial"",""time""
""fullscreenenter"",""1"",""2883""
","
","","","","","","893.7000000029802","images/banana1.png","","","learning","-2","0","0","0","banana","fruit","1","1","","neutral","0"
"html-keyboard-response","215","790086","0.0-11.0-2.0-0.13","5183","2","17","Female","approach_avoid_spark_v1","""event"",""trial"",""time""
""fullscreenenter"",""1"",""2883""
","
","
","""event"",""trial"",""time""
""fullscreenenter"",""1"",""2883""
","
","","","","","","null","<div style=""font-size:60px;"">+</div>","null","","fixation","","","","","","","","","","",""
"aa-learning-trial","216","793093","0.0-11.0-2.0-1.13","5183","2","17","Female","approach_avoid_spark_v1","""event"",""trial"",""time""
""fullscreenenter"",""1"",""2883""
","
","
","""event"",""trial"",""time""
""fullscreenenter"",""1"",""2883""
","
","","","","","","653.2000000029802","images/banana2.png","","","learning","1","1","1","1","banana","fruit","1","1","","neutral","0"
"html-keyboard-response","217","793595","0.0-11.0-2.0-0.14","5183","2","17","Female","approach_avoid_spark_v1","""event"",""trial"",""time""
""fullscreenenter"",""1"",""2883""
","
","
","""event"",""trial"",""time""
""fullscreenenter"",""1"",""2883""
","
","","","","","","null","<div style=""font-size:60px;"">+</div>","null","","fixation","","","","","","","","","","",""
"aa-learning-trial","218","796601","0.0-11.0-2.0-1.14","5183","2","17","Female","approach_avoid_spark_v1","""event"",""trial"",""time""
""fullscreenenter"",""1"",""2883""
","
","
","""event"",""trial"",""time""
""fullscreenenter"",""1"",""2883""
","
","","","","","","519.5","images/orange4.png","","","learning","1","1","1","1","orange","fruit","1","1","","good","[5]"
"html-keyboard-response","219","797104","0.0-11.0-2.0-0.15","5183","2","17","Female","approach_avoid_spark_v1","""event"",""trial"",""time""
""fullscreenenter"",""1"",""2883""
","
","
","""event"",""trial"",""time""
""fullscreenenter"",""1"",""2883""
","
","","","","","","null","<div style=""font-size:60px;"">+</div>","null","","fixation","","","","","","","","","","",""
"aa-learning-trial","220","800111","0.0-11.0-2.0-1.15","5183","2","17","Female","approach_avoid_spark_v1","""event"",""trial"",""time""
""fullscreenenter"",""1"",""2883""
","
","
","""event"",""trial"",""time""
""fullscreenenter"",""1"",""2883""
","
","","","","","","549.2999999970198","images/orange4.png","","","learning","5","5","1","1","orange","fruit","1","1","","good","[5]"
"html-keyboard-response","221","800613","0.0-11.0-2.0-0.16","5183","2","17","Female","approach_avoid_spark_v1","""event"",""trial"",""time""
""fullscreenenter"",""1"",""2883""
","
","
","""event"",""trial"",""time""
""fullscreenenter"",""1"",""2883""
","
","","","","","","null","<div style=""font-size:60px;"">+</div>","null","","fixation","","","","","","","","","","",""
"aa-learning-trial","222","803621","0.0-11.0-2.0-1.16","5183","2","17","Female","approach_avoid_spark_v1","""event"",""trial"",""time""
""fullscreenenter"",""1"",""2883""
","
","
","""event"",""trial"",""time""
""fullscreenenter"",""1"",""2883""
","
","","","","","","665.0999999940395","images/apple4.png","","","learning","-7","0","0","0","apple","fruit","1","1","","bad","[-6]"
"html-keyboard-response","223","804123","0.0-11.0-2.0-0.17","5183","2","17","Female","approach_avoid_spark_v1","""event"",""trial"",""time""
""fullscreenenter"",""1"",""2883""
","
","
","""event"",""trial"",""time""
""fullscreenenter"",""1"",""2883""
","
","","","","","","null","<div style=""font-size:60px;"">+</div>","null","","fixation","","","","","","","","","","",""
"aa-learning-trial","224","807129","0.0-11.0-2.0-1.17","5183","2","17","Female","approach_avoid_spark_v1","""event"",""trial"",""time""
""fullscreenenter"",""1"",""2883""
","
","
","""event"",""trial"",""time""
""fullscreenenter"",""1"",""2883""
","
","","","","","","403.30000001192093","images/apple8.png","","","learning","-8","0","0","0","apple","fruit","1","1","","bad","[-6]"
"html-keyboard-response","225","807632","0.0-11.0-2.0-0.18","5183","2","17","Female","approach_avoid_spark_v1","""event"",""trial"",""time""
""fullscreenenter"",""1"",""2883""
","
","
","""event"",""trial"",""time""
""fullscreenenter"",""1"",""2883""
","
","","","","","","null","<div style=""font-size:60px;"">+</div>","null","","fixation","","","","","","","","","","",""
"aa-learning-trial","226","810640","0.0-11.0-2.0-1.18","5183","2","17","Female","approach_avoid_spark_v1","""event"",""trial"",""time""
""fullscreenenter"",""1"",""2883""
","
","
","""event"",""trial"",""time""
""fullscreenenter"",""1"",""2883""
","
","","","","","","878.1000000089407","images/banana3.png","","","learning","-1","0","0","0","banana","fruit","1","1","","neutral","0"
"html-keyboard-response","227","811143","0.0-11.0-2.0-0.19","5183","2","17","Female","approach_avoid_spark_v1","""event"",""trial"",""time""
""fullscreenenter"",""1"",""2883""
","
","
","""event"",""trial"",""time""
""fullscreenenter"",""1"",""2883""
","
","","","","","","null","<div style=""font-size:60px;"">+</div>","null","","fixation","","","","","","","","","","",""
"aa-learning-trial","228","814149","0.0-11.0-2.0-1.19","5183","2","17","Female","approach_avoid_spark_v1","""event"",""trial"",""time""
""fullscreenenter"",""1"",""2883""
","
","
","""event"",""trial"",""time""
""fullscreenenter"",""1"",""2883""
","
","","","","","","980.6000000089407","images/banana1.png","","","learning","-1","0","0","0","banana","fruit","1","1","","neutral","0"
"html-keyboard-response","229","814653","0.0-11.0-2.0-0.20","5183","2","17","Female","approach_avoid_spark_v1","""event"",""trial"",""time""
""fullscreenenter"",""1"",""2883""
","
","
","""event"",""trial"",""time""
""fullscreenenter"",""1"",""2883""
","
","","","","","","null","<div style=""font-size:60px;"">+</div>","null","","fixation","","","","","","","","","","",""
"aa-learning-trial","230","817660","0.0-11.0-2.0-1.20","5183","2","17","Female","approach_avoid_spark_v1","""event"",""trial"",""time""
""fullscreenenter"",""1"",""2883""
","
","
","""event"",""trial"",""time""
""fullscreenenter"",""1"",""2883""
","
","","","","","","648","images/banana1.png","","","learning","[-1]","0","0","0","banana","fruit","1","1","","neutral","0"
"html-keyboard-response","231","818162","0.0-11.0-2.0-0.21","5183","2","17","Female","approach_avoid_spark_v1","""event"",""trial"",""time""
""fullscreenenter"",""1"",""2883""
","
","
","""event"",""trial"",""time""
""fullscreenenter"",""1"",""2883""
","
","","","","","","null","<div style=""font-size:60px;"">+</div>","null","","fixation","","","","","","","","","","",""
"aa-learning-trial","232","821167","0.0-11.0-2.0-1.21","5183","2","17","Female","approach_avoid_spark_v1","""event"",""trial"",""time""
""fullscreenenter"",""1"",""2883""
","
","
","""event"",""trial"",""time""
""fullscreenenter"",""1"",""2883""
","
","","","","","","1225.2999999970198","images/banana7.png","","","learning","[1]","1","1","1","banana","fruit","1","1","","neutral","0"
"html-keyboard-response","233","821670","0.0-11.0-2.0-0.22","5183","2","17","Female","approach_avoid_spark_v1","""event"",""trial"",""time""
""fullscreenenter"",""1"",""2883""
","
","
","""event"",""trial"",""time""
""fullscreenenter"",""1"",""2883""
","
","","","","","","null","<div style=""font-size:60px;"">+</div>","null","","fixation","","","","","","","","","","",""
"aa-learning-trial","234","824677","0.0-11.0-2.0-1.22","5183","2","17","Female","approach_avoid_spark_v1","""event"",""trial"",""time""
""fullscreenenter"",""1"",""2883""
","
","
","""event"",""trial"",""time""
""fullscreenenter"",""1"",""2883""
","
","","","","","","587.5999999940395","images/orange4.png","","","learning","7","7","1","1","orange","fruit","1","1","","good","[5]"
"html-keyboard-response","235","825179","0.0-11.0-2.0-0.23","5183","2","17","Female","approach_avoid_spark_v1","""event"",""trial"",""time""
""fullscreenenter"",""1"",""2883""
","
","
","""event"",""trial"",""time""
""fullscreenenter"",""1"",""2883""
","
","","","","","","null","<div style=""font-size:60px;"">+</div>","null","","fixation","","","","","","","","","","",""
"aa-learning-trial","236","828186","0.0-11.0-2.0-1.23","5183","2","17","Female","approach_avoid_spark_v1","""event"",""trial"",""time""
