"trial_type","trial_index","time_elapsed","internal_node_id","subject_id","task_condition","age","gender","task_version","interactions","blur_events","focus_events","fullscreenenter_events","fullscreenexit_events","success","timeout","failed_images","failed_audio","failed_video","rt","stimulus","response","button_pressed","task_part","approach_reward","points","key_press","option_selected","stim_cat","task_block","block_condition","block_number","correct","cat_type","mean_cat_reward"
"pavlovia","0","4","0.0-0.0","4003","2","12","Male","approach_avoid_spark_v1","""event"",""trial"",""time""
""fullscreenenter"",""1"",""3698""
","
","
","""event"",""trial"",""time""
""fullscreenenter"",""1"",""3698""
","
","","","","","","","","","","","","","","","","","","","","",""
"fullscreen","1","4667","0.0-1.0","4003","2","12","Male","approach_avoid_spark_v1","""event"",""trial"",""time""
""fullscreenenter"",""1"",""3698""
""blur"",""2"",""10459""
""focus"",""2"",""12133""
","""event"",""trial"",""time""
""blur"",""2"",""10459""
","""event"",""trial"",""time""
""focus"",""2"",""12133""
","""event"",""trial"",""time""
""fullscreenenter"",""1"",""3698""
","
","true","","","","","","","","","","","","","","","","","","","",""
"preload","2","27596","0.0-2.0","4003","2","12","Male","approach_avoid_spark_v1","""event"",""trial"",""time""
""fullscreenenter"",""1"",""3698""
""blur"",""2"",""10459""
""focus"",""2"",""12133""
","""event"",""trial"",""time""
""blur"",""2"",""10459""
","""event"",""trial"",""time""
""focus"",""2"",""12133""
","""event"",""trial"",""time""
""fullscreenenter"",""1"",""3698""
","
","true","false","[]","[]","[]","","","","","","","","","","","","","","","",""
"audio-keyboard-response","3","36047","0.0-3.0","4003","2","12","Male","approach_avoid_spark_v1","""event"",""trial"",""time""
""fullscreenenter"",""1"",""3698""
""blur"",""2"",""10459""
""focus"",""2"",""12133""
","""event"",""trial"",""time""
""blur"",""2"",""10459""
","""event"",""trial"",""time""
""focus"",""2"",""12133""
","""event"",""trial"",""time""
""fullscreenenter"",""1"",""3698""
","
","","","","","","8450.666666666666","audio/beep_loop.wav"," ","","","","","","","","","","","","",""
"audio-button-response","4","38600","0.0-4.0","4003","2","12","Male","approach_avoid_spark_v1","""event"",""trial"",""time""
""fullscreenenter"",""1"",""3698""
""blur"",""2"",""10459""
""focus"",""2"",""12133""
","""event"",""trial"",""time""
""blur"",""2"",""10459""
","""event"",""trial"",""time""
""focus"",""2"",""12133""
","""event"",""trial"",""time""
""fullscreenenter"",""1"",""3698""
","
","","","","","","2549","audio/shark.wav","4","","","","","","","","","","","","",""
"audio-button-response","5","41208","0.0-5.0","4003","2","12","Male","approach_avoid_spark_v1","""event"",""trial"",""time""
""fullscreenenter"",""1"",""3698""
""blur"",""2"",""10459""
""focus"",""2"",""12133""
","""event"",""trial"",""time""
""blur"",""2"",""10459""
","""event"",""trial"",""time""
""focus"",""2"",""12133""
","""event"",""trial"",""time""
""fullscreenenter"",""1"",""3698""
","
","","","","","","1611","audio/turtle.wav","1","","","","","","","","","","","","",""
"preload","6","89785","0.0-6.0","4003","2","12","Male","approach_avoid_spark_v1","""event"",""trial"",""time""
""fullscreenenter"",""1"",""3698""
""blur"",""2"",""10459""
""focus"",""2"",""12133""
","""event"",""trial"",""time""
""blur"",""2"",""10459""
","""event"",""trial"",""time""
""focus"",""2"",""12133""
","""event"",""trial"",""time""
""fullscreenenter"",""1"",""3698""
","
","true","false","[]","[]","[]","","","","","","","","","","","","","","","",""
"html-keyboard-response","7","92363","0.0-7.0","4003","2","12","Male","approach_avoid_spark_v1","""event"",""trial"",""time""
""fullscreenenter"",""1"",""3698""
""blur"",""2"",""10459""
""focus"",""2"",""12133""
","""event"",""trial"",""time""
""blur"",""2"",""10459""
","""event"",""trial"",""time""
""focus"",""2"",""12133""
","""event"",""trial"",""time""
""fullscreenenter"",""1"",""3698""
","
","","","","","","2576.4000000953674","Welcome to the experiment. Press any key to begin and to advance the instructions.","g","","","","","","","","","","","","",""
"learning-instructions","8","101293","0.0-8.0-0.0-0.0","4003","2","12","Male","approach_avoid_spark_v1","""event"",""trial"",""time""
""fullscreenenter"",""1"",""3698""
""blur"",""2"",""10459""
""focus"",""2"",""12133""
","""event"",""trial"",""time""
""blur"",""2"",""10459""
","""event"",""trial"",""time""
""focus"",""2"",""12133""
","""event"",""trial"",""time""
""fullscreenenter"",""1"",""3698""
","
","","","","","","1147.9000000953674","<p> Welcome! Today you are going to play 6 different rounds of a decision-making game. </p><p> Use the mouse to click next to continue. </p>","","0","instructions","","","","","","","","","","",""
"learning-instructions","9","104773","0.0-8.0-0.0-0.1","4003","2","12","Male","approach_avoid_spark_v1","""event"",""trial"",""time""
""fullscreenenter"",""1"",""3698""
""blur"",""2"",""10459""
""focus"",""2"",""12133""
","""event"",""trial"",""time""
""blur"",""2"",""10459""
","""event"",""trial"",""time""
""focus"",""2"",""12133""
","""event"",""trial"",""time""
""fullscreenenter"",""1"",""3698""
","
","","","","","","738","<p> You will start with a practice round to learn the rules. </p>","","0","instructions","","","","","","","","","","",""
"learning-instructions","10","109596","0.0-8.0-0.0-0.2","4003","2","12","Male","approach_avoid_spark_v1","""event"",""trial"",""time""
""fullscreenenter"",""1"",""3698""
""blur"",""2"",""10459""
""focus"",""2"",""12133""
","""event"",""trial"",""time""
""blur"",""2"",""10459""
","""event"",""trial"",""time""
""focus"",""2"",""12133""
","""event"",""trial"",""time""
""fullscreenenter"",""1"",""3698""
","
","","","","","","1361.3999999761581","<p> Your goal in this round is to give out sports equipment to kids. </p></div>","","0","instructions","","","","","","","","","","",""
"learning-instructions","11","117809","0.0-8.0-0.0-0.3","4003","2","12","Male","approach_avoid_spark_v1","""event"",""trial"",""time""
""fullscreenenter"",""1"",""3698""
""blur"",""2"",""10459""
""focus"",""2"",""12133""
","""event"",""trial"",""time""
""blur"",""2"",""10459""
","""event"",""trial"",""time""
""focus"",""2"",""12133""
","""event"",""trial"",""time""
""fullscreenenter"",""1"",""3698""
","
","","","","","","654.0999999046326","<p> The kids only like some of the equipment.  </p><p> On each turn, you will see a piece of sports equipment.   </p><p> You need to decide whether to give it to the kids or not.  </p>","","0","instructions","","","","","","","","","","",""
"learning-instructions","12","125023","0.0-8.0-0.0-0.4","4003","2","12","Male","approach_avoid_spark_v1","""event"",""trial"",""time""
""fullscreenenter"",""1"",""3698""
""blur"",""2"",""10459""
""focus"",""2"",""12133""
","""event"",""trial"",""time""
""blur"",""2"",""10459""
","""event"",""trial"",""time""
""focus"",""2"",""12133""
","""event"",""trial"",""time""
""fullscreenenter"",""1"",""3698""
","
","","","","","","2462.6999999284744","<p> You can give them the equipment by pressing 1 and choose not to give it to them by pressing 0. </p><br><div class=""choice-instructions-grid""> <div class=""choice-option""><img src=""images/approach.png"" class=""choice-option-img"" stage=""instructions"" position=""0"" ><div class=""choice-option-text""> Press ""1."" </div></div><div class=""choice-option""><img src=""images/avoid.png"" class=""choice-option-img"" stage=""instructions"" position=""1"" ><div class=""choice-option-text""> Press ""0."" </div></div>","","0","instructions","","","","","","","","","","",""
"learning-instructions","13","134674","0.0-8.0-0.0-0.5","4003","2","12","Male","approach_avoid_spark_v1","""event"",""trial"",""time""
""fullscreenenter"",""1"",""3698""
""blur"",""2"",""10459""
""focus"",""2"",""12133""
","""event"",""trial"",""time""
""blur"",""2"",""10459""
","""event"",""trial"",""time""
""focus"",""2"",""12133""
","""event"",""trial"",""time""
""fullscreenenter"",""1"",""3698""
","
","","","","","","2254.399999976158","<p> If you give them a piece of equipment they like, they will be happy! </p><p> But if you give them a piece of equipment they do not like, they will be sad. </p>","","0","instructions","","","","","","","","","","",""
"learning-instructions","14","146029","0.0-8.0-0.0-0.6","4003","2","12","Male","approach_avoid_spark_v1","""event"",""trial"",""time""
""fullscreenenter"",""1"",""3698""
""blur"",""2"",""10459""
""focus"",""2"",""12133""
","""event"",""trial"",""time""
""blur"",""2"",""10459""
","""event"",""trial"",""time""
""focus"",""2"",""12133""
","""event"",""trial"",""time""
""fullscreenenter"",""1"",""3698""
","
","","","","","","839.5999999046326","<p> You will earn points based on how you make kids feel. </p><p> If you make them happy, you will WIN anywhere from 1 - 9 points, </p><p> but if you make them sad, you will LOSE anywhere from 1 - 9 points. </p>","","0","instructions","","","","","","","","","","",""
"learning-instructions","15","157768","0.0-8.0-0.0-0.7","4003","2","12","Male","approach_avoid_spark_v1","""event"",""trial"",""time""
""fullscreenenter"",""1"",""3698""
""blur"",""2"",""10459""
""focus"",""2"",""12133""
","""event"",""trial"",""time""
""blur"",""2"",""10459""
","""event"",""trial"",""time""
""focus"",""2"",""12133""
","""event"",""trial"",""time""
""fullscreenenter"",""1"",""3698""
","
","","","","","","2168.399999976158","<p> You will see how many points you won or lost in the center of the screen. </p><p> Here is what you would see if you won 6 points: </p><p style=""color:green;font-size:50px;font-weight:bolder"">6</p><p style=""color:green"">The text is GREEN because you WON points.</p>","","0","instructions","","","","","","","","","","",""
"learning-instructions","16","165240","0.0-8.0-0.0-0.8","4003","2","12","Male","approach_avoid_spark_v1","""event"",""trial"",""time""
""fullscreenenter"",""1"",""3698""
""blur"",""2"",""10459""
""focus"",""2"",""12133""
","""event"",""trial"",""time""
""blur"",""2"",""10459""
","""event"",""trial"",""time""
""focus"",""2"",""12133""
","""event"",""trial"",""time""
""fullscreenenter"",""1"",""3698""
","
","","","","","","1970.1000000238419","<p> And here is what you would see if you lost 4 points: </p><p style=""color:red;font-size:50px;font-weight:bolder"">-4</p><p style=""color:red"">The text is RED because you LOST points. </p>","","0","instructions","","","","","","","","","","",""
"learning-instructions","17","182887","0.0-8.0-0.0-0.9","4003","2","12","Male","approach_avoid_spark_v1","""event"",""trial"",""time""
""fullscreenenter"",""1"",""3698""
""blur"",""2"",""10459""
""focus"",""2"",""12133""
","""event"",""trial"",""time""
""blur"",""2"",""10459""
","""event"",""trial"",""time""
""focus"",""2"",""12133""
","""event"",""trial"",""time""
""fullscreenenter"",""1"",""3698""
","
","","","","","","2912.100000023842","<p> Some of the equipment will make the kids VERY happy or sad. </p><p> These pieces of equipment will make you win or lose LOTS of points. </p><p> Other pieces of equipment will only make the kids a little happy or sad. </p><p> These pieces of equipment will make you win or lose small amounts of points. </p>","","0","instructions","","","","","","","","","","",""
"learning-instructions","18","195246","0.0-8.0-0.0-0.10","4003","2","12","Male","approach_avoid_spark_v1","""event"",""trial"",""time""
""fullscreenenter"",""1"",""3698""
""blur"",""2"",""10459""
""focus"",""2"",""12133""
","""event"",""trial"",""time""
""blur"",""2"",""10459""
","""event"",""trial"",""time""
""focus"",""2"",""12133""
","""event"",""trial"",""time""
""fullscreenenter"",""1"",""3698""
","
","","","","","","1730.3999999761581","<p> If you choose not to give them the equipment, you will not win or lose any points. </p><p>  However, in the center of the screen, you will see the number of points you WOULD HAVE won or lost if you had given them the equipment. </p>","","0","instructions","","","","","","","","","","",""
"learning-instructions","19","218505","0.0-8.0-0.0-0.11","4003","2","12","Male","approach_avoid_spark_v1","""event"",""trial"",""time""
""fullscreenenter"",""1"",""3698""
""blur"",""2"",""10459""
""focus"",""2"",""12133""
","""event"",""trial"",""time""
""blur"",""2"",""10459""
","""event"",""trial"",""time""
""focus"",""2"",""12133""
","""event"",""trial"",""time""
""fullscreenenter"",""1"",""3698""
","
","","","","","","1729.5","<p> Here is what you might see if you did not give the equipment to the kids but it would have made them happy: </p><p style=""color:grey; font-size:50px; display: inline-block; border-spacing: 15px; border-width:3px; border-style:solid; border-color:red"">  &nbsp; 7 &nbsp; </p><p> Remember, in this case, you would not win or lose ANY points because you did not give them the equipment.  </p><p style=""color:grey"">The text is GREY because you earned ZERO points. </p><p style=""color:red"">However, choosing to give the kids the equipment would have made you win points. The box around the text is RED because you chose the worse option. </p>","","0","instructions","","","","","","","","","","",""
"learning-instructions","20","240487","0.0-8.0-0.0-0.12","4003","2","12","Male","approach_avoid_spark_v1","""event"",""trial"",""time""
""fullscreenenter"",""1"",""3698""
""blur"",""2"",""10459""
""focus"",""2"",""12133""
","""event"",""trial"",""time""
""blur"",""2"",""10459""
","""event"",""trial"",""time""
""focus"",""2"",""12133""
","""event"",""trial"",""time""
""fullscreenenter"",""1"",""3698""
","
","","","","","","901.8999999761581","<p> Here is what you might see if you did not give the equipment to the kids but it would have made them sad: </p><p style=""color:grey;font-size:50px; display: inline-block; border-spacing: 15px; border-width:3px; border-style:solid; border-color:green"">  &nbsp; -8 &nbsp; </p><p> Remember, in this case, you would not win or lose ANY points because you did not give them the equipment.  </p><p style=""color:grey"">The text is GREY because you earned ZERO points. </p><p  style=""color:green""> Choosing to give the kids the equipment would have made you lose points. The box around the text is GREEN because you chose the better option.</p>","","0","instructions","","","","","","","","","","",""
"learning-instructions","21","252988","0.0-8.0-0.0-0.13","4003","2","12","Male","approach_avoid_spark_v1","""event"",""trial"",""time""
""fullscreenenter"",""1"",""3698""
""blur"",""2"",""10459""
""focus"",""2"",""12133""
","""event"",""trial"",""time""
""blur"",""2"",""10459""
","""event"",""trial"",""time""
""focus"",""2"",""12133""
","""event"",""trial"",""time""
""fullscreenenter"",""1"",""3698""
","
","","","","","","850.2000000476837","<p> You will have 3 seconds to make each choice. Try to respond before time runs out! </p><p> You will lose 5 points each time you do not make a response. </p>","","0","instructions","","","","","","","","","","",""
"learning-instructions","22","261089","0.0-8.0-0.0-0.14","4003","2","12","Male","approach_avoid_spark_v1","""event"",""trial"",""time""
""fullscreenenter"",""1"",""3698""
""blur"",""2"",""10459""
""focus"",""2"",""12133""
","""event"",""trial"",""time""
""blur"",""2"",""10459""
","""event"",""trial"",""time""
""focus"",""2"",""12133""
","""event"",""trial"",""time""
""fullscreenenter"",""1"",""3698""
","
","","","","","","2679.899999976158","<p> This is just a practice round, but in the real game, your bonus payment will depend on your total number of points.","","0","instructions","","","","","","","","","","",""
"learning-instructions","23","268344","0.0-8.0-0.0-0.15","4003","2","12","Male","approach_avoid_spark_v1","""event"",""trial"",""time""
""fullscreenenter"",""1"",""3698""
""blur"",""2"",""10459""
""focus"",""2"",""12133""
","""event"",""trial"",""time""
""blur"",""2"",""10459""
","""event"",""trial"",""time""
""focus"",""2"",""12133""
","""event"",""trial"",""time""
""fullscreenenter"",""1"",""3698""
","
","","","","","","1485.3999999761581","<p> Remember, you can give them the equipment by pressing 1 and choose not to give it to them by pressing 0. </p><br><div class=""choice-instructions-grid""> <div class=""choice-option""><img src=""images/approach.png"" class=""choice-option-img"" stage=""instructions"" position=""0"" ><div class=""choice-option-text""> Press ""1."" </div></div><div class=""choice-option""><img src=""images/avoid.png"" class=""choice-option-img"" stage=""instructions"" position=""1"" ><div class=""choice-option-text""> Press ""0."" </div></div>","","0","instructions","","","","","","","","","","",""
"html-button-response","24","270312","0.0-8.0-1.0","4003","2","12","Male","approach_avoid_spark_v1","""event"",""trial"",""time""
""fullscreenenter"",""1"",""3698""
""blur"",""2"",""10459""
""focus"",""2"",""12133""
","""event"",""trial"",""time""
""blur"",""2"",""10459""
","""event"",""trial"",""time""
""focus"",""2"",""12133""
","""event"",""trial"",""time""
""fullscreenenter"",""1"",""3698""
","
","","","","","","1864","<p> Ready to practice? </p>","0","","","","","","","","","","","","",""
"html-keyboard-response","25","270926","0.0-8.0-2.0-0.0","4003","2","12","Male","approach_avoid_spark_v1","""event"",""trial"",""time""
""fullscreenenter"",""1"",""3698""
""blur"",""2"",""10459""
""focus"",""2"",""12133""
","""event"",""trial"",""time""
""blur"",""2"",""10459""
","""event"",""trial"",""time""
""focus"",""2"",""12133""
","""event"",""trial"",""time""
""fullscreenenter"",""1"",""3698""
","
","","","","","","null","<div style=""font-size:60px;"">+</div>","null","","fixation","","","","","","","","","","",""
"aa-learning-trial","26","273935","0.0-8.0-2.0-1.0","4003","2","12","Male","approach_avoid_spark_v1","""event"",""trial"",""time""
""fullscreenenter"",""1"",""3698""
""blur"",""2"",""10459""
""focus"",""2"",""12133""
","""event"",""trial"",""time""
""blur"",""2"",""10459""
","""event"",""trial"",""time""
""focus"",""2"",""12133""
","""event"",""trial"",""time""
""fullscreenenter"",""1"",""3698""
","
","","","","","","1526.5","images/ball1.png","","","learning","8","8","1","1","practice","practice","practice","-1","","",""
"html-keyboard-response","27","274446","0.0-8.0-2.0-0.1","4003","2","12","Male","approach_avoid_spark_v1","""event"",""trial"",""time""
""fullscreenenter"",""1"",""3698""
""blur"",""2"",""10459""
""focus"",""2"",""12133""
","""event"",""trial"",""time""
""blur"",""2"",""10459""
","""event"",""trial"",""time""
""focus"",""2"",""12133""
","""event"",""trial"",""time""
""fullscreenenter"",""1"",""3698""
","
","","","","","","null","<div style=""font-size:60px;"">+</div>","null","","fixation","","","","","","","","","","",""
"aa-learning-trial","28","277466","0.0-8.0-2.0-1.1","4003","2","12","Male","approach_avoid_spark_v1","""event"",""trial"",""time""
""fullscreenenter"",""1"",""3698""
""blur"",""2"",""10459""
""focus"",""2"",""12133""
","""event"",""trial"",""time""
""blur"",""2"",""10459""
","""event"",""trial"",""time""
""focus"",""2"",""12133""
","""event"",""trial"",""time""
""fullscreenenter"",""1"",""3698""
","
","","","","","","1338.1999999284744","images/racket4.png","","","learning","-2","-2","1","1","practice","practice","practice","-1","","",""
"html-keyboard-response","29","277976","0.0-8.0-2.0-0.2","4003","2","12","Male","approach_avoid_spark_v1","""event"",""trial"",""time""
""fullscreenenter"",""1"",""3698""
""blur"",""2"",""10459""
""focus"",""2"",""12133""
","""event"",""trial"",""time""
""blur"",""2"",""10459""
","""event"",""trial"",""time""
""focus"",""2"",""12133""
","""event"",""trial"",""time""
""fullscreenenter"",""1"",""3698""
","
","","","","","","null","<div style=""font-size:60px;"">+</div>","null","","fixation","","","","","","","","","","",""
"aa-learning-trial","30","280996","0.0-8.0-2.0-1.2","4003","2","12","Male","approach_avoid_spark_v1","""event"",""trial"",""time""
""fullscreenenter"",""1"",""3698""
""blur"",""2"",""10459""
""focus"",""2"",""12133""
","""event"",""trial"",""time""
""blur"",""2"",""10459""
","""event"",""trial"",""time""
""focus"",""2"",""12133""
","""event"",""trial"",""time""
""fullscreenenter"",""1"",""3698""
","
","","","","","","1262.1000000238419","images/racket2.png","","","learning","9","0","0","0","practice","practice","practice","-1","","",""
"html-keyboard-response","31","281504","0.0-8.0-2.0-0.3","4003","2","12","Male","approach_avoid_spark_v1","""event"",""trial"",""time""
""fullscreenenter"",""1"",""3698""
""blur"",""2"",""10459""
""focus"",""2"",""12133""
","""event"",""trial"",""time""
""blur"",""2"",""10459""
","""event"",""trial"",""time""
""focus"",""2"",""12133""
","""event"",""trial"",""time""
""fullscreenenter"",""1"",""3698""
","
","","","","","","null","<div style=""font-size:60px;"">+</div>","null","","fixation","","","","","","","","","","",""
"aa-learning-trial","32","284516","0.0-8.0-2.0-1.3","4003","2","12","Male","approach_avoid_spark_v1","""event"",""trial"",""time""
""fullscreenenter"",""1"",""3698""
""blur"",""2"",""10459""
""focus"",""2"",""12133""
","""event"",""trial"",""time""
""blur"",""2"",""10459""
","""event"",""trial"",""time""
""focus"",""2"",""12133""
","""event"",""trial"",""time""
""fullscreenenter"",""1"",""3698""
","
","","","","","","1127.8999999761581","images/racket1.png","","","learning","-7","-7","1","1","practice","practice","practice","-1","","",""
"html-keyboard-response","33","285026","0.0-8.0-2.0-0.4","4003","2","12","Male","approach_avoid_spark_v1","""event"",""trial"",""time""
""fullscreenenter"",""1"",""3698""
""blur"",""2"",""10459""
""focus"",""2"",""12133""
","""event"",""trial"",""time""
""blur"",""2"",""10459""
","""event"",""trial"",""time""
""focus"",""2"",""12133""
","""event"",""trial"",""time""
""fullscreenenter"",""1"",""3698""
","
","","","","","","null","<div style=""font-size:60px;"">+</div>","null","","fixation","","","","","","","","","","",""
"aa-learning-trial","34","288036","0.0-8.0-2.0-1.4","4003","2","12","Male","approach_avoid_spark_v1","""event"",""trial"",""time""
""fullscreenenter"",""1"",""3698""
""blur"",""2"",""10459""
""focus"",""2"",""12133""
","""event"",""trial"",""time""
""blur"",""2"",""10459""
","""event"",""trial"",""time""
""focus"",""2"",""12133""
","""event"",""trial"",""time""
""fullscreenenter"",""1"",""3698""
","
","","","","","","773.6999999284744","images/racket3.png","","","learning","1","0","0","0","practice","practice","practice","-1","","",""
"html-keyboard-response","35","288546","0.0-8.0-2.0-0.5","4003","2","12","Male","approach_avoid_spark_v1","""event"",""trial"",""time""
""fullscreenenter"",""1"",""3698""
""blur"",""2"",""10459""
""focus"",""2"",""12133""
","""event"",""trial"",""time""
""blur"",""2"",""10459""
","""event"",""trial"",""time""
""focus"",""2"",""12133""
","""event"",""trial"",""time""
""fullscreenenter"",""1"",""3698""
","
","","","","","","null","<div style=""font-size:60px;"">+</div>","null","","fixation","","","","","","","","","","",""
"aa-learning-trial","36","291566","0.0-8.0-2.0-1.5","4003","2","12","Male","approach_avoid_spark_v1","""event"",""trial"",""time""
""fullscreenenter"",""1"",""3698""
""blur"",""2"",""10459""
""focus"",""2"",""12133""
","""event"",""trial"",""time""
""blur"",""2"",""10459""
","""event"",""trial"",""time""
""focus"",""2"",""12133""
","""event"",""trial"",""time""
""fullscreenenter"",""1"",""3698""
","
","","","","","","813.9000000953674","images/racket1.png","","","learning","6","0","0","0","practice","practice","practice","-1","","",""
"html-keyboard-response","37","292076","0.0-8.0-2.0-0.6","4003","2","12","Male","approach_avoid_spark_v1","""event"",""trial"",""time""
""fullscreenenter"",""1"",""3698""
""blur"",""2"",""10459""
""focus"",""2"",""12133""
","""event"",""trial"",""time""
""blur"",""2"",""10459""
","""event"",""trial"",""time""
""focus"",""2"",""12133""
","""event"",""trial"",""time""
""fullscreenenter"",""1"",""3698""
","
","","","","","","null","<div style=""font-size:60px;"">+</div>","null","","fixation","","","","","","","","","","",""
"aa-learning-trial","38","295084","0.0-8.0-2.0-1.6","4003","2","12","Male","approach_avoid_spark_v1","""event"",""trial"",""time""
""fullscreenenter"",""1"",""3698""
""blur"",""2"",""10459""
""focus"",""2"",""12133""
","""event"",""trial"",""time""
""blur"",""2"",""10459""
","""event"",""trial"",""time""
""focus"",""2"",""12133""
","""event"",""trial"",""time""
""fullscreenenter"",""1"",""3698""
","
","","","","","","1025","images/ball1.png","","","learning","2","-5","2","","practice","practice","practice","-1","","",""
"html-keyboard-response","39","295586","0.0-8.0-2.0-0.7","4003","2","12","Male","approach_avoid_spark_v1","""event"",""trial"",""time""
""fullscreenenter"",""1"",""3698""
""blur"",""2"",""10459""
""focus"",""2"",""12133""
","""event"",""trial"",""time""
""blur"",""2"",""10459""
","""event"",""trial"",""time""
""focus"",""2"",""12133""
","""event"",""trial"",""time""
""fullscreenenter"",""1"",""3698""
","
","","","","","","null","<div style=""font-size:60px;"">+</div>","null","","fixation","","","","","","","","","","",""
"aa-learning-trial","40","298591","0.0-8.0-2.0-1.7","4003","2","12","Male","approach_avoid_spark_v1","""event"",""trial"",""time""
""fullscreenenter"",""1"",""3698""
""blur"",""2"",""10459""
""focus"",""2"",""12133""
","""event"",""trial"",""time""
""blur"",""2"",""10459""
","""event"",""trial"",""time""
""focus"",""2"",""12133""
","""event"",""trial"",""time""
""fullscreenenter"",""1"",""3698""
","
","","","","","","885.6999999284744","images/ball3.png","","","learning","1","1","1","1","practice","practice","practice","-1","","",""
"html-keyboard-response","41","299095","0.0-8.0-2.0-0.8","4003","2","12","Male","approach_avoid_spark_v1","""event"",""trial"",""time""
""fullscreenenter"",""1"",""3698""
""blur"",""2"",""10459""
""focus"",""2"",""12133""
","""event"",""trial"",""time""
""blur"",""2"",""10459""
","""event"",""trial"",""time""
""focus"",""2"",""12133""
","""event"",""trial"",""time""
""fullscreenenter"",""1"",""3698""
","
","","","","","","null","<div style=""font-size:60px;"">+</div>","null","","fixation","","","","","","","","","","",""
"aa-learning-trial","42","302100","0.0-8.0-2.0-1.8","4003","2","12","Male","approach_avoid_spark_v1","""event"",""trial"",""time""
""fullscreenenter"",""1"",""3698""
""blur"",""2"",""10459""
""focus"",""2"",""12133""
","""event"",""trial"",""time""
""blur"",""2"",""10459""
","""event"",""trial"",""time""
""focus"",""2"",""12133""
","""event"",""trial"",""time""
""fullscreenenter"",""1"",""3698""
","
","","","","","","788.8999999761581","images/ball2.png","","","learning","7","7","1","1","practice","practice","practice","-1","","",""
"html-keyboard-response","43","302611","0.0-8.0-2.0-0.9","4003","2","12","Male","approach_avoid_spark_v1","""event"",""trial"",""time""
""fullscreenenter"",""1"",""3698""
""blur"",""2"",""10459""
""focus"",""2"",""12133""
","""event"",""trial"",""time""
""blur"",""2"",""10459""
","""event"",""trial"",""time""
""focus"",""2"",""12133""
","""event"",""trial"",""time""
""fullscreenenter"",""1"",""3698""
","
","","","","","","null","<div style=""font-size:60px;"">+</div>","null","","fixation","","","","","","","","","","",""
"aa-learning-trial","44","305625","0.0-8.0-2.0-1.9","4003","2","12","Male","approach_avoid_spark_v1","""event"",""trial"",""time""
""fullscreenenter"",""1"",""3698""
""blur"",""2"",""10459""
""focus"",""2"",""12133""
","""event"",""trial"",""time""
""blur"",""2"",""10459""
","""event"",""trial"",""time""
""focus"",""2"",""12133""
","""event"",""trial"",""time""
""fullscreenenter"",""1"",""3698""
","
","","","","","","510.5","images/ball3.png","","","learning","-5","-5","1","1","practice","practice","practice","-1","","",""
"html-keyboard-response","45","306134","0.0-8.0-2.0-0.10","4003","2","12","Male","approach_avoid_spark_v1","""event"",""trial"",""time""
""fullscreenenter"",""1"",""3698""
""blur"",""2"",""10459""
""focus"",""2"",""12133""
","""event"",""trial"",""time""
""blur"",""2"",""10459""
","""event"",""trial"",""time""
""focus"",""2"",""12133""
","""event"",""trial"",""time""
""fullscreenenter"",""1"",""3698""
","
","","","","","","null","<div style=""font-size:60px;"">+</div>","null","","fixation","","","","","","","","","","",""
"aa-learning-trial","46","309137","0.0-8.0-2.0-1.10","4003","2","12","Male","approach_avoid_spark_v1","""event"",""trial"",""time""
""fullscreenenter"",""1"",""3698""
""blur"",""2"",""10459""
""focus"",""2"",""12133""
","""event"",""trial"",""time""
""blur"",""2"",""10459""
","""event"",""trial"",""time""
""focus"",""2"",""12133""
","""event"",""trial"",""time""
""fullscreenenter"",""1"",""3698""
","
","","","","","","1370","images/ball4.png","","","learning","1","1","1","1","practice","practice","practice","-1","","",""
"html-keyboard-response","47","309646","0.0-8.0-2.0-0.11","4003","2","12","Male","approach_avoid_spark_v1","""event"",""trial"",""time""
""fullscreenenter"",""1"",""3698""
""blur"",""2"",""10459""
""focus"",""2"",""12133""
","""event"",""trial"",""time""
""blur"",""2"",""10459""
","""event"",""trial"",""time""
""focus"",""2"",""12133""
","""event"",""trial"",""time""
""fullscreenenter"",""1"",""3698""
","
","","","","","","null","<div style=""font-size:60px;"">+</div>","null","","fixation","","","","","","","","","","",""
"aa-learning-trial","48","312653","0.0-8.0-2.0-1.11","4003","2","12","Male","approach_avoid_spark_v1","""event"",""trial"",""time""
""fullscreenenter"",""1"",""3698""
""blur"",""2"",""10459""
""focus"",""2"",""12133""
","""event"",""trial"",""time""
""blur"",""2"",""10459""
","""event"",""trial"",""time""
""focus"",""2"",""12133""
","""event"",""trial"",""time""
""fullscreenenter"",""1"",""3698""
","
","","","","","","553.3999999761581","images/ball2.png","","","learning","-9","-9","1","1","practice","practice","practice","-1","","",""
"html-button-response","49","317787","0.0-8.0-3.0","4003","2","12","Male","approach_avoid_spark_v1","""event"",""trial"",""time""
""fullscreenenter"",""1"",""3698""
""blur"",""2"",""10459""
""focus"",""2"",""12133""
","""event"",""trial"",""time""
""blur"",""2"",""10459""
","""event"",""trial"",""time""
""focus"",""2"",""12133""
","""event"",""trial"",""time""
""fullscreenenter"",""1"",""3698""
","
","","","","","","5132","<p> You earned -11 points in the practice round! </p>","0","","break","","","","","","","","","","",""
"learning-instructions","50","327479","0.0-8.0-4.0-0.0","4003","2","12","Male","approach_avoid_spark_v1","""event"",""trial"",""time""
""fullscreenenter"",""1"",""3698""
""blur"",""2"",""10459""
""focus"",""2"",""12133""
","""event"",""trial"",""time""
""blur"",""2"",""10459""
","""event"",""trial"",""time""
""focus"",""2"",""12133""
","""event"",""trial"",""time""
""fullscreenenter"",""1"",""3698""
","
","","","","","","2984.3000000715256","<p> It's almost time to start the real game. </p><p> Before you start, we're going to ask you a few questions about how the game works. </p>","","0","instructions","","","","","","","","","","",""
"preload","51","346609","0.0-8.0-5.0","4003","2","12","Male","approach_avoid_spark_v1","""event"",""trial"",""time""
""fullscreenenter"",""1"",""3698""
""blur"",""2"",""10459""
""focus"",""2"",""12133""
","""event"",""trial"",""time""
""blur"",""2"",""10459""
","""event"",""trial"",""time""
""focus"",""2"",""12133""
","""event"",""trial"",""time""
""fullscreenenter"",""1"",""3698""
","
","true","false","[]","[]","[]","","","","","","","","","","","","","","","",""
"comp-q","52","353710","0.0-8.0-6.0-0.0","4003","2","12","Male","approach_avoid_spark_v1","""event"",""trial"",""time""
""fullscreenenter"",""1"",""3698""
""blur"",""2"",""10459""
""focus"",""2"",""12133""
","""event"",""trial"",""time""
""blur"",""2"",""10459""
","""event"",""trial"",""time""
""focus"",""2"",""12133""
","""event"",""trial"",""time""
""fullscreenenter"",""1"",""3698""
","
","","","","","","2104.600000023842","<p> <b> True or False? </b> </p><p> If you see a number in GREY, that means you earned that many points. </p>","","1","comp_question","","","","","","","","","true","",""
"comp-q","53","363008","0.0-8.0-6.0-1.0","4003","2","12","Male","approach_avoid_spark_v1","""event"",""trial"",""time""
""fullscreenenter"",""1"",""3698""
""blur"",""2"",""10459""
""focus"",""2"",""12133""
","""event"",""trial"",""time""
""blur"",""2"",""10459""
","""event"",""trial"",""time""
""focus"",""2"",""12133""
","""event"",""trial"",""time""
""fullscreenenter"",""1"",""3698""
","
","","","","","","932","<p><b> That's right! </b> If you see a grey number, it means you earned ZERO points. <br> The grey numbers show the points you WOULD HAVE earned if you had made the other choice. </p>","","0","comp_answer","","","","","","","","","","",""
"comp-q","54","368643","0.0-8.0-7.0-0.0","4003","2","12","Male","approach_avoid_spark_v1","""event"",""trial"",""time""
""fullscreenenter"",""1"",""3698""
""blur"",""2"",""10459""
""focus"",""2"",""12133""
","""event"",""trial"",""time""
""blur"",""2"",""10459""
","""event"",""trial"",""time""
""focus"",""2"",""12133""
","""event"",""trial"",""time""
""fullscreenenter"",""1"",""3698""
","
","","","","","","933.6000000238419","<p> <b> True or False? </b> </p><p> You will have as much time as you want to make each choice. </p>","","1","comp_question","","","","","","","","","true","",""
"comp-q","55","373866","0.0-8.0-7.0-1.0","4003","2","12","Male","approach_avoid_spark_v1","""event"",""trial"",""time""
""fullscreenenter"",""1"",""3698""
""blur"",""2"",""10459""
""focus"",""2"",""12133""
","""event"",""trial"",""time""
""blur"",""2"",""10459""
","""event"",""trial"",""time""
""focus"",""2"",""12133""
","""event"",""trial"",""time""
""fullscreenenter"",""1"",""3698""
","
","","","","","","1186.8999999761581","<p> <b> That's right! </b> You will only have 3 seconds to make each choice. </p>","","0","comp_answer","","","","","","","","","","",""
"comp-q","56","399128","0.0-8.0-8.0-0.0","4003","2","12","Male","approach_avoid_spark_v1","""event"",""trial"",""time""
""fullscreenenter"",""1"",""3698""
""blur"",""2"",""10459""
""focus"",""2"",""12133""
","""event"",""trial"",""time""
""blur"",""2"",""10459""
","""event"",""trial"",""time""
""focus"",""2"",""12133""
","""event"",""trial"",""time""
""fullscreenenter"",""1"",""3698""
","
","","","","","","20588.299999952316","<p> <b> True or False? </b> </p><p> You should use the '1' and '0' keys to make your choices. </p>","","0","comp_question","","","","","","","","","true","",""
"comp-q","57","404662","0.0-8.0-8.0-1.0","4003","2","12","Male","approach_avoid_spark_v1","""event"",""trial"",""time""
""fullscreenenter"",""1"",""3698""
""blur"",""2"",""10459""
""focus"",""2"",""12133""
","""event"",""trial"",""time""
""blur"",""2"",""10459""
","""event"",""trial"",""time""
""focus"",""2"",""12133""
","""event"",""trial"",""time""
""fullscreenenter"",""1"",""3698""
","
","","","","","","913.1000000238419","<p> <b> That's right! </b> You should use the '1' and '0' keys to make each choice. </p>","","0","comp_answer","","","","","","","","","","",""
"learning-instructions","58","412685","0.0-8.0-9.0-0.0","4003","2","12","Male","approach_avoid_spark_v1","""event"",""trial"",""time""
""fullscreenenter"",""1"",""3698""
""blur"",""2"",""10459""
""focus"",""2"",""12133""
","""event"",""trial"",""time""
""blur"",""2"",""10459""
","""event"",""trial"",""time""
""focus"",""2"",""12133""
","""event"",""trial"",""time""
""fullscreenenter"",""1"",""3698""
","
","","","","","","1756.5","<p> It's now time to start the real game. </p>Do your best, because the points you earn in the next rounds will influence your bonus payment. </p>","","0","instructions","","","","","","","","","","",""
"preload","59","412810","0.0-9.0-0.0","4003","2","12","Male","approach_avoid_spark_v1","""event"",""trial"",""time""
""fullscreenenter"",""1"",""3698""
""blur"",""2"",""10459""
""focus"",""2"",""12133""
","""event"",""trial"",""time""
""blur"",""2"",""10459""
","""event"",""trial"",""time""
""focus"",""2"",""12133""
","""event"",""trial"",""time""
""fullscreenenter"",""1"",""3698""
","
","true","false","[]","[]","[]","","","","","","","","","","","","","","","",""
"learning-instructions","60","419185","0.0-9.0-1.0-0.0","4003","2","12","Male","approach_avoid_spark_v1","""event"",""trial"",""time""
""fullscreenenter"",""1"",""3698""
""blur"",""2"",""10459""
""focus"",""2"",""12133""
","""event"",""trial"",""time""
""blur"",""2"",""10459""
","""event"",""trial"",""time""
""focus"",""2"",""12133""
","""event"",""trial"",""time""
""fullscreenenter"",""1"",""3698""
","
","","","","","","2477.399999976158","<p> Your goal in this round is to eat tasty fruit. </p></div>","","0","instructions","","","","","","","","","","",""
"learning-instructions","61","437208","0.0-9.0-1.0-0.1","4003","2","12","Male","approach_avoid_spark_v1","""event"",""trial"",""time""
""fullscreenenter"",""1"",""3698""
""blur"",""2"",""10459""
""focus"",""2"",""12133""
","""event"",""trial"",""time""
""blur"",""2"",""10459""
","""event"",""trial"",""time""
""focus"",""2"",""12133""
","""event"",""trial"",""time""
""fullscreenenter"",""1"",""3698""
","
","","","","","","1168.5","<p> Some of the fruits you will see are tasty. Others are rotten on the inside.  </p><p> On each turn, you will see a fruit.   </p><p> You need to decide whether to eat it or not.  </p>","","0","instructions","","","","","","","","","","",""
"learning-instructions","62","448649","0.0-9.0-1.0-0.2","4003","2","12","Male","approach_avoid_spark_v1","""event"",""trial"",""time""
""fullscreenenter"",""1"",""3698""
""blur"",""2"",""10459""
""focus"",""2"",""12133""
","""event"",""trial"",""time""
""blur"",""2"",""10459""
","""event"",""trial"",""time""
""focus"",""2"",""12133""
","""event"",""trial"",""time""
""fullscreenenter"",""1"",""3698""
","
","","","","","","4340","<p> You can eat the fruit by pressing 1 and choose not to eat it by pressing 0. </p><br><div class=""choice-instructions-grid""> <div class=""choice-option""><img src=""images/approach.png"" class=""choice-option-img"" stage=""instructions"" position=""0"" ><div class=""choice-option-text""> Press ""1."" </div></div><div class=""choice-option""><img src=""images/avoid.png"" class=""choice-option-img"" stage=""instructions"" position=""1"" ><div class=""choice-option-text""> Press ""0."" </div></div>","","0","instructions","","","","","","","","","","",""
"learning-instructions","63","460583","0.0-9.0-1.0-0.3","4003","2","12","Male","approach_avoid_spark_v1","""event"",""trial"",""time""
""fullscreenenter"",""1"",""3698""
""blur"",""2"",""10459""
""focus"",""2"",""12133""
","""event"",""trial"",""time""
""blur"",""2"",""10459""
","""event"",""trial"",""time""
""focus"",""2"",""12133""
","""event"",""trial"",""time""
""fullscreenenter"",""1"",""3698""
","
","","","","","","1734.3999999761581","<p> If you eat the fruit and it was tasty, you will win points! </p><p> But if you eat the fruit and it was rotten, you will lose points. </p>","","0","instructions","","","","","","","","","","",""
"learning-instructions","64","475911","0.0-9.0-1.0-0.4","4003","2","12","Male","approach_avoid_spark_v1","""event"",""trial"",""time""
""fullscreenenter"",""1"",""3698""
""blur"",""2"",""10459""
""focus"",""2"",""12133""
","""event"",""trial"",""time""
""blur"",""2"",""10459""
","""event"",""trial"",""time""
""focus"",""2"",""12133""
","""event"",""trial"",""time""
""fullscreenenter"",""1"",""3698""
","
","","","","","","641.3999999761581","<p> You will earn points based on how tasty or rotten the fruit was. </p><p> If it was tasty, you will WIN anywhere from 1 - 9 points, </p><p> but if it was rotten, you will LOSE anywhere from 1 - 9 points. </p>","","0","instructions","","","","","","","","","","",""
"learning-instructions","65","487499","0.0-9.0-1.0-0.5","4003","2","12","Male","approach_avoid_spark_v1","""event"",""trial"",""time""
""fullscreenenter"",""1"",""3698""
""blur"",""2"",""10459""
""focus"",""2"",""12133""
","""event"",""trial"",""time""
""blur"",""2"",""10459""
","""event"",""trial"",""time""
""focus"",""2"",""12133""
","""event"",""trial"",""time""
""fullscreenenter"",""1"",""3698""
","
","","","","","","1753.1999999284744","<p> You will see how many points you won or lost in the center of the screen. </p><p> Here is what you would see if you earned 5 points: </p><p style=""color:green;font-size:50px;font-weight:bolder"">5</p>","","0","instructions","","","","","","","","","","",""
"learning-instructions","66","493402","0.0-9.0-1.0-0.6","4003","2","12","Male","approach_avoid_spark_v1","""event"",""trial"",""time""
""fullscreenenter"",""1"",""3698""
""blur"",""2"",""10459""
""focus"",""2"",""12133""
","""event"",""trial"",""time""
""blur"",""2"",""10459""
","""event"",""trial"",""time""
""focus"",""2"",""12133""
","""event"",""trial"",""time""
""fullscreenenter"",""1"",""3698""
","
","","","","","","1374.8999999761581","<p> And here is what you would see if you lost 3 points: </p><p style=""color:red;font-size:50px;font-weight:bolder"">-3</p>","","0","instructions","","","","","","","","","","",""
"learning-instructions","67","514785","0.0-9.0-1.0-0.7","4003","2","12","Male","approach_avoid_spark_v1","""event"",""trial"",""time""
""fullscreenenter"",""1"",""3698""
""blur"",""2"",""10459""
""focus"",""2"",""12133""
","""event"",""trial"",""time""
""blur"",""2"",""10459""
","""event"",""trial"",""time""
""focus"",""2"",""12133""
","""event"",""trial"",""time""
""fullscreenenter"",""1"",""3698""
","
","","","","","","2499.899999976158","<p> Some fruit is very tasty or very rotten. </p><p> These fruits will make you win or lose LOTS of points. </p><p> Other fruits are only kind of tasty or kind of rotten. </p><p> These fruits will make you win or lose small amounts of points. </p>","","0","instructions","","","","","","","","","","",""
"learning-instructions","68","532241","0.0-9.0-1.0-0.8","4003","2","12","Male","approach_avoid_spark_v1","""event"",""trial"",""time""
""fullscreenenter"",""1"",""3698""
""blur"",""2"",""10459""
""focus"",""2"",""12133""
","""event"",""trial"",""time""
""blur"",""2"",""10459""
","""event"",""trial"",""time""
""focus"",""2"",""12133""
","""event"",""trial"",""time""
""fullscreenenter"",""1"",""3698""
","
","","","","","","3085.7999999523163","<p> If you choose to not eat the fruit, you will not win or lose any points. </p><p>  However, in the center of the screen, you will see the number of points you WOULD HAVE earned if you had eaten the fruit. </p>","","0","instructions","","","","","","","","","","",""
"learning-instructions","69","547523","0.0-9.0-1.0-0.9","4003","2","12","Male","approach_avoid_spark_v1","""event"",""trial"",""time""
""fullscreenenter"",""1"",""3698""
""blur"",""2"",""10459""
""focus"",""2"",""12133""
","""event"",""trial"",""time""
""blur"",""2"",""10459""
","""event"",""trial"",""time""
""focus"",""2"",""12133""
","""event"",""trial"",""time""
""fullscreenenter"",""1"",""3698""
","
","","","","","","1575.7999999523163","<p> Here is what you might see if you did not eat the fruit but the fruit was tasty: </p><p style=""color:grey; font-size:50px; display: inline-block; border-spacing: 15px; border-width:3px; border-style:solid; border-color:red"">  &nbsp; 6 &nbsp; </p><p> Remember, in this case, you would not win or lose ANY points because you did not eat the fruit.  </p>","","0","instructions","","","","","","","","","","",""
"learning-instructions","70","560989","0.0-9.0-1.0-0.10","4003","2","12","Male","approach_avoid_spark_v1","""event"",""trial"",""time""
""fullscreenenter"",""1"",""3698""
""blur"",""2"",""10459""
""focus"",""2"",""12133""
","""event"",""trial"",""time""
""blur"",""2"",""10459""
","""event"",""trial"",""time""
""focus"",""2"",""12133""
","""event"",""trial"",""time""
""fullscreenenter"",""1"",""3698""
","
","","","","","","3331.2999999523163","<p> Try to make the best choice for each fruit because </p><p> at the end of the game, you will earn bonus money based on how many points you earned. </p>","","0","instructions","","","","","","","","","","",""
"learning-instructions","71","571402","0.0-9.0-1.0-0.11","4003","2","12","Male","approach_avoid_spark_v1","""event"",""trial"",""time""
""fullscreenenter"",""1"",""3698""
""blur"",""2"",""10459""
""focus"",""2"",""12133""
","""event"",""trial"",""time""
""blur"",""2"",""10459""
","""event"",""trial"",""time""
""focus"",""2"",""12133""
","""event"",""trial"",""time""
""fullscreenenter"",""1"",""3698""
","
","","","","","","2224.7999999523163","<p> You will have 3 seconds to make each choice. Try to respond before time runs out! </p><p> You will lose 5 points each time you do not make a response. </p>","","0","instructions","","","","","","","","","","",""
"html-keyboard-response","72","572015","0.0-9.0-2.0-0.0","4003","2","12","Male","approach_avoid_spark_v1","""event"",""trial"",""time""
""fullscreenenter"",""1"",""3698""
""blur"",""2"",""10459""
""focus"",""2"",""12133""
","""event"",""trial"",""time""
""blur"",""2"",""10459""
","""event"",""trial"",""time""
""focus"",""2"",""12133""
","""event"",""trial"",""time""
""fullscreenenter"",""1"",""3698""
","
","","","","","","null","<div style=""font-size:60px;"">+</div>","null","","fixation","","","","","","","","","","",""
"aa-learning-trial","73","575025","0.0-9.0-2.0-1.0","4003","2","12","Male","approach_avoid_spark_v1","""event"",""trial"",""time""
""fullscreenenter"",""1"",""3698""
""blur"",""2"",""10459""
""focus"",""2"",""12133""
","""event"",""trial"",""time""
""blur"",""2"",""10459""
","""event"",""trial"",""time""
""focus"",""2"",""12133""
","""event"",""trial"",""time""
""fullscreenenter"",""1"",""3698""
","
","","","","","","1493.5","images/apple6.png","","","learning","-4","-4","1","1","apple","fruit","2","0","","bad","[-5]"
"html-keyboard-response","74","575535","0.0-9.0-2.0-0.1","4003","2","12","Male","approach_avoid_spark_v1","""event"",""trial"",""time""
""fullscreenenter"",""1"",""3698""
""blur"",""2"",""10459""
""focus"",""2"",""12133""
","""event"",""trial"",""time""
""blur"",""2"",""10459""
","""event"",""trial"",""time""
""focus"",""2"",""12133""
","""event"",""trial"",""time""
""fullscreenenter"",""1"",""3698""
","
","","","","","","null","<div style=""font-size:60px;"">+</div>","null","","fixation","","","","","","","","","","",""
"aa-learning-trial","75","578543","0.0-9.0-2.0-1.1","4003","2","12","Male","approach_avoid_spark_v1","""event"",""trial"",""time""
""fullscreenenter"",""1"",""3698""
""blur"",""2"",""10459""
""focus"",""2"",""12133""
","""event"",""trial"",""time""
""blur"",""2"",""10459""
","""event"",""trial"",""time""
""focus"",""2"",""12133""
","""event"",""trial"",""time""
""fullscreenenter"",""1"",""3698""
","
","","","","","","1377.5","images/banana6.png","","","learning","-9","-9","1","1","banana","fruit","2","0","","neutral","0"
"html-keyboard-response","76","579055","0.0-9.0-2.0-0.2","4003","2","12","Male","approach_avoid_spark_v1","""event"",""trial"",""time""
""fullscreenenter"",""1"",""3698""
""blur"",""2"",""10459""
""focus"",""2"",""12133""
","""event"",""trial"",""time""
""blur"",""2"",""10459""
","""event"",""trial"",""time""
""focus"",""2"",""12133""
","""event"",""trial"",""time""
""fullscreenenter"",""1"",""3698""
","
","","","","","","null","<div style=""font-size:60px;"">+</div>","null","","fixation","","","","","","","","","","",""
"aa-learning-trial","77","582075","0.0-9.0-2.0-1.2","4003","2","12","Male","approach_avoid_spark_v1","""event"",""trial"",""time""
""fullscreenenter"",""1"",""3698""
""blur"",""2"",""10459""
""focus"",""2"",""12133""
","""event"",""trial"",""time""
""blur"",""2"",""10459""
","""event"",""trial"",""time""
""focus"",""2"",""12133""
","""event"",""trial"",""time""
""fullscreenenter"",""1"",""3698""
","
","","","","","","1578.6000000238419","images/apple7.png","","","learning","-2","-2","1","1","apple","fruit","2","0","","bad","[-5]"
"html-keyboard-response","78","582585","0.0-9.0-2.0-0.3","4003","2","12","Male","approach_avoid_spark_v1","""event"",""trial"",""time""
""fullscreenenter"",""1"",""3698""
""blur"",""2"",""10459""
""focus"",""2"",""12133""
","""event"",""trial"",""time""
""blur"",""2"",""10459""
","""event"",""trial"",""time""
""focus"",""2"",""12133""
","""event"",""trial"",""time""
""fullscreenenter"",""1"",""3698""
","
","","","","","","null","<div style=""font-size:60px;"">+</div>","null","","fixation","","","","","","","","","","",""
"aa-learning-trial","79","585595","0.0-9.0-2.0-1.3","4003","2","12","Male","approach_avoid_spark_v1","""event"",""trial"",""time""
""fullscreenenter"",""1"",""3698""
""blur"",""2"",""10459""
""focus"",""2"",""12133""
","""event"",""trial"",""time""
""blur"",""2"",""10459""
","""event"",""trial"",""time""
""focus"",""2"",""12133""
","""event"",""trial"",""time""
""fullscreenenter"",""1"",""3698""
","
","","","","","","1449","images/straw4.png","","","learning","-6","-6","1","1","straw","fruit","2","0","","good","[4]"
"html-keyboard-response","80","586105","0.0-9.0-2.0-0.4","4003","2","12","Male","approach_avoid_spark_v1","""event"",""trial"",""time""
""fullscreenenter"",""1"",""3698""
""blur"",""2"",""10459""
""focus"",""2"",""12133""
","""event"",""trial"",""time""
""blur"",""2"",""10459""
","""event"",""trial"",""time""
""focus"",""2"",""12133""
","""event"",""trial"",""time""
""fullscreenenter"",""1"",""3698""
","
","","","","","","null","<div style=""font-size:60px;"">+</div>","null","","fixation","","","","","","","","","","",""
"aa-learning-trial","81","589115","0.0-9.0-2.0-1.4","4003","2","12","Male","approach_avoid_spark_v1","""event"",""trial"",""time""
""fullscreenenter"",""1"",""3698""
""blur"",""2"",""10459""
""focus"",""2"",""12133""
","""event"",""trial"",""time""
""blur"",""2"",""10459""
","""event"",""trial"",""time""
""focus"",""2"",""12133""
","""event"",""trial"",""time""
""fullscreenenter"",""1"",""3698""
","
","","","","","","1126.6000000238419","images/apple6.png","","","learning","-4","0","0","0","apple","fruit","2","0","","bad","[-5]"
"html-keyboard-response","82","589625","0.0-9.0-2.0-0.5","4003","2","12","Male","approach_avoid_spark_v1","""event"",""trial"",""time""
""fullscreenenter"",""1"",""3698""
""blur"",""2"",""10459""
""focus"",""2"",""12133""
","""event"",""trial"",""time""
""blur"",""2"",""10459""
","""event"",""trial"",""time""
""focus"",""2"",""12133""
","""event"",""trial"",""time""
""fullscreenenter"",""1"",""3698""
","
","","","","","","null","<div style=""font-size:60px;"">+</div>","null","","fixation","","","","","","","","","","",""
"aa-learning-trial","83","592635","0.0-9.0-2.0-1.5","4003","2","12","Male","approach_avoid_spark_v1","""event"",""trial"",""time""
""fullscreenenter"",""1"",""3698""
""blur"",""2"",""10459""
""focus"",""2"",""12133""
","""event"",""trial"",""time""
""blur"",""2"",""10459""
","""event"",""trial"",""time""
""focus"",""2"",""12133""
","""event"",""trial"",""time""
""fullscreenenter"",""1"",""3698""
","
","","","","","","1569.7000000476837","images/straw4.png","","","learning","-6","0","0","0","straw","fruit","2","0","","good","[4]"
"html-keyboard-response","84","593145","0.0-9.0-2.0-0.6","4003","2","12","Male","approach_avoid_spark_v1","""event"",""trial"",""time""
""fullscreenenter"",""1"",""3698""
""blur"",""2"",""10459""
""focus"",""2"",""12133""
","""event"",""trial"",""time""
""blur"",""2"",""10459""
","""event"",""trial"",""time""
""focus"",""2"",""12133""
","""event"",""trial"",""time""
""fullscreenenter"",""1"",""3698""
","
","","","","","","null","<div style=""font-size:60px;"">+</div>","null","","fixation","","","","","","","","","","",""
"aa-learning-trial","85","596155","0.0-9.0-2.0-1.6","4003","2","12","Male","approach_avoid_spark_v1","""event"",""trial"",""time""
""fullscreenenter"",""1"",""3698""
""blur"",""2"",""10459""
""focus"",""2"",""12133""
","""event"",""trial"",""time""
""blur"",""2"",""10459""
","""event"",""trial"",""time""
""focus"",""2"",""12133""
","""event"",""trial"",""time""
""fullscreenenter"",""1"",""3698""
","
","","","","","","826.6000000238419","images/banana4.png","","","learning","8","0","0","0","banana","fruit","2","0","","neutral","0"
"html-keyboard-response","86","596665","0.0-9.0-2.0-0.7","4003","2","12","Male","approach_avoid_spark_v1","""event"",""trial"",""time""
""fullscreenenter"",""1"",""3698""
""blur"",""2"",""10459""
""focus"",""2"",""12133""
","""event"",""trial"",""time""
""blur"",""2"",""10459""
","""event"",""trial"",""time""
""focus"",""2"",""12133""
","""event"",""trial"",""time""
""fullscreenenter"",""1"",""3698""
","
","","","","","","null","<div style=""font-size:60px;"">+</div>","null","","fixation","","","","","","","","","","",""
"aa-learning-trial","87","599672","0.0-9.0-2.0-1.7","4003","2","12","Male","approach_avoid_spark_v1","""event"",""trial"",""time""
""fullscreenenter"",""1"",""3698""
""blur"",""2"",""10459""
""focus"",""2"",""12133""
","""event"",""trial"",""time""
""blur"",""2"",""10459""
","""event"",""trial"",""time""
""focus"",""2"",""12133""
","""event"",""trial"",""time""
""fullscreenenter"",""1"",""3698""
","
","","","","","","1207.5","images/banana1.png","","","learning","-5","0","0","0","banana","fruit","2","0","","neutral","0"
"html-keyboard-response","88","600185","0.0-9.0-2.0-0.8","4003","2","12","Male","approach_avoid_spark_v1","""event"",""trial"",""time""
""fullscreenenter"",""1"",""3698""
""blur"",""2"",""10459""
""focus"",""2"",""12133""
","""event"",""trial"",""time""
""blur"",""2"",""10459""
","""event"",""trial"",""time""
""focus"",""2"",""12133""
","""event"",""trial"",""time""
""fullscreenenter"",""1"",""3698""
","
","","","","","","null","<div style=""font-size:60px;"">+</div>","null","","fixation","","","","","","","","","","",""
"aa-learning-trial","89","603204","0.0-9.0-2.0-1.8","4003","2","12","Male","approach_avoid_spark_v1","""event"",""trial"",""time""
""fullscreenenter"",""1"",""3698""
""blur"",""2"",""10459""
""focus"",""2"",""12133""
","""event"",""trial"",""time""
""blur"",""2"",""10459""
","""event"",""trial"",""time""
""focus"",""2"",""12133""
","""event"",""trial"",""time""
""fullscreenenter"",""1"",""3698""
","
","","","","","","880.1999999284744","images/banana1.png","","","learning","-5","0","0","0","banana","fruit","2","0","","neutral","0"
"html-keyboard-response","90","603709","0.0-9.0-2.0-0.9","4003","2","12","Male","approach_avoid_spark_v1","""event"",""trial"",""time""
""fullscreenenter"",""1"",""3698""
""blur"",""2"",""10459""
""focus"",""2"",""12133""
","""event"",""trial"",""time""
""blur"",""2"",""10459""
","""event"",""trial"",""time""
""focus"",""2"",""12133""
","""event"",""trial"",""time""
""fullscreenenter"",""1"",""3698""
","
","","","","","","null","<div style=""font-size:60px;"">+</div>","null","","fixation","","","","","","","","","","",""
"aa-learning-trial","91","606729","0.0-9.0-2.0-1.9","4003","2","12","Male","approach_avoid_spark_v1","""event"",""trial"",""time""
""fullscreenenter"",""1"",""3698""
""blur"",""2"",""10459""
""focus"",""2"",""12133""
","""event"",""trial"",""time""
""blur"",""2"",""10459""
","""event"",""trial"",""time""
""focus"",""2"",""12133""
","""event"",""trial"",""time""
""fullscreenenter"",""1"",""3698""
","
","","","","","","1379","images/apple7.png","","","learning","-2","-2","1","1","apple","fruit","2","0","","bad","[-5]"
"html-keyboard-response","92","607232","0.0-9.0-2.0-0.10","4003","2","12","Male","approach_avoid_spark_v1","""event"",""trial"",""time""
""fullscreenenter"",""1"",""3698""
""blur"",""2"",""10459""
""focus"",""2"",""12133""
","""event"",""trial"",""time""
""blur"",""2"",""10459""
","""event"",""trial"",""time""
""focus"",""2"",""12133""
","""event"",""trial"",""time""
""fullscreenenter"",""1"",""3698""
","
","","","","","","null","<div style=""font-size:60px;"">+</div>","null","","fixation","","","","","","","","","","",""
"aa-learning-trial","93","610245","0.0-9.0-2.0-1.10","4003","2","12","Male","approach_avoid_spark_v1","""event"",""trial"",""time""
""fullscreenenter"",""1"",""3698""
""blur"",""2"",""10459""
""focus"",""2"",""12133""
","""event"",""trial"",""time""
""blur"",""2"",""10459""
","""event"",""trial"",""time""
""focus"",""2"",""12133""
","""event"",""trial"",""time""
""fullscreenenter"",""1"",""3698""
","
","","","","","","1272.1000000238419","images/apple8.png","","","learning","4","4","1","1","apple","fruit","2","0","","bad","[-5]"
"html-keyboard-response","94","610752","0.0-9.0-2.0-0.11","4003","2","12","Male","approach_avoid_spark_v1","""event"",""trial"",""time""
""fullscreenenter"",""1"",""3698""
""blur"",""2"",""10459""
""focus"",""2"",""12133""
","""event"",""trial"",""time""
""blur"",""2"",""10459""
","""event"",""trial"",""time""
""focus"",""2"",""12133""
","""event"",""trial"",""time""
""fullscreenenter"",""1"",""3698""
","
","","","","","","null","<div style=""font-size:60px;"">+</div>","null","","fixation","","","","","","","","","","",""
"aa-learning-trial","95","613758","0.0-9.0-2.0-1.11","4003","2","12","Male","approach_avoid_spark_v1","""event"",""trial"",""time""
""fullscreenenter"",""1"",""3698""
""blur"",""2"",""10459""
""focus"",""2"",""12133""
","""event"",""trial"",""time""
""blur"",""2"",""10459""
","""event"",""trial"",""time""
""focus"",""2"",""12133""
","""event"",""trial"",""time""
""fullscreenenter"",""1"",""3698""
","
","","","","","","1634.1999999284744","images/banana6.png","","","learning","-9","0","0","0","banana","fruit","2","0","","neutral","0"
"html-keyboard-response","96","614263","0.0-9.0-2.0-0.12","4003","2","12","Male","approach_avoid_spark_v1","""event"",""trial"",""time""
""fullscreenenter"",""1"",""3698""
""blur"",""2"",""10459""
""focus"",""2"",""12133""
","""event"",""trial"",""time""
""blur"",""2"",""10459""
","""event"",""trial"",""time""
""focus"",""2"",""12133""
","""event"",""trial"",""time""
""fullscreenenter"",""1"",""3698""
","
","","","","","","null","<div style=""font-size:60px;"">+</div>","null","","fixation","","","","","","","","","","",""
"aa-learning-trial","97","617273","0.0-9.0-2.0-1.12","4003","2","12","Male","approach_avoid_spark_v1","""event"",""trial"",""time""
""fullscreenenter"",""1"",""3698""
""blur"",""2"",""10459""
""focus"",""2"",""12133""
","""event"",""trial"",""time""
""blur"",""2"",""10459""
","""event"",""trial"",""time""
""focus"",""2"",""12133""
","""event"",""trial"",""time""
""fullscreenenter"",""1"",""3698""
","
","","","","","","1361.2000000476837","images/straw6.png","","","learning","1","1","1","1","straw","fruit","2","0","","good","[4]"
"html-keyboard-response","98","617777","0.0-9.0-2.0-0.13","4003","2","12","Male","approach_avoid_spark_v1","""event"",""trial"",""time""
""fullscreenenter"",""1"",""3698""
""blur"",""2"",""10459""
""focus"",""2"",""12133""
","""event"",""trial"",""time""
""blur"",""2"",""10459""
","""event"",""trial"",""time""
""focus"",""2"",""12133""
","""event"",""trial"",""time""
""fullscreenenter"",""1"",""3698""
","
","","","","","","null","<div style=""font-size:60px;"">+</div>","null","","fixation","","","","","","","","","","",""
"aa-learning-trial","99","620786","0.0-9.0-2.0-1.13","4003","2","12","Male","approach_avoid_spark_v1","""event"",""trial"",""time""
""fullscreenenter"",""1"",""3698""
""blur"",""2"",""10459""
""focus"",""2"",""12133""
","""event"",""trial"",""time""
""blur"",""2"",""10459""
","""event"",""trial"",""time""
""focus"",""2"",""12133""
","""event"",""trial"",""time""
""fullscreenenter"",""1"",""3698""
","
","","","","","","1180.1000000238419","images/straw8.png","","","learning","3","3","1","1","straw","fruit","2","0","","good","[4]"
"html-keyboard-response","100","621291","0.0-9.0-2.0-0.14","4003","2","12","Male","approach_avoid_spark_v1","""event"",""trial"",""time""
""fullscreenenter"",""1"",""3698""
""blur"",""2"",""10459""
""focus"",""2"",""12133""
","""event"",""trial"",""time""
""blur"",""2"",""10459""
","""event"",""trial"",""time""
""focus"",""2"",""12133""
","""event"",""trial"",""time""
""fullscreenenter"",""1"",""3698""
","
","","","","","","null","<div style=""font-size:60px;"">+</div>","null","","fixation","","","","","","","","","","",""
"aa-learning-trial","101","624307","0.0-9.0-2.0-1.14","4003","2","12","Male","approach_avoid_spark_v1","""event"",""trial"",""time""
""fullscreenenter"",""1"",""3698""
""blur"",""2"",""10459""
""focus"",""2"",""12133""
","""event"",""trial"",""time""
""blur"",""2"",""10459""
","""event"",""trial"",""time""
""focus"",""2"",""12133""
","""event"",""trial"",""time""
""fullscreenenter"",""1"",""3698""
","
","","","","","","780.7000000476837","images/straw6.png","","","learning","1","1","1","1","straw","fruit","2","0","","good","[4]"
"html-keyboard-response","102","624815","0.0-9.0-2.0-0.15","4003","2","12","Male","approach_avoid_spark_v1","""event"",""trial"",""time""
""fullscreenenter"",""1"",""3698""
""blur"",""2"",""10459""
""focus"",""2"",""12133""
","""event"",""trial"",""time""
""blur"",""2"",""10459""
","""event"",""trial"",""time""
""focus"",""2"",""12133""
","""event"",""trial"",""time""
""fullscreenenter"",""1"",""3698""
","
","","","","","","null","<div style=""font-size:60px;"">+</div>","null","","fixation","","","","","","","","","","",""
"aa-learning-trial","103","627820","0.0-9.0-2.0-1.15","4003","2","12","Male","approach_avoid_spark_v1","""event"",""trial"",""time""
""fullscreenenter"",""1"",""3698""
""blur"",""2"",""10459""
""focus"",""2"",""12133""
","""event"",""trial"",""time""
""blur"",""2"",""10459""
","""event"",""trial"",""time""
""focus"",""2"",""12133""
","""event"",""trial"",""time""
""fullscreenenter"",""1"",""3698""
","
","","","","","","1300.5","images/banana4.png","","","learning","8","8","1","1","banana","fruit","2","0","","neutral","0"
"html-keyboard-response","104","628334","0.0-9.0-2.0-0.16","4003","2","12","Male","approach_avoid_spark_v1","""event"",""trial"",""time""
""fullscreenenter"",""1"",""3698""
""blur"",""2"",""10459""
""focus"",""2"",""12133""
","""event"",""trial"",""time""
""blur"",""2"",""10459""
","""event"",""trial"",""time""
""focus"",""2"",""12133""
","""event"",""trial"",""time""
""fullscreenenter"",""1"",""3698""
","
","","","","","","null","<div style=""font-size:60px;"">+</div>","null","","fixation","","","","","","","","","","",""
"aa-learning-trial","105","631340","0.0-9.0-2.0-1.16","4003","2","12","Male","approach_avoid_spark_v1","""event"",""trial"",""time""
""fullscreenenter"",""1"",""3698""
""blur"",""2"",""10459""
""focus"",""2"",""12133""
","""event"",""trial"",""time""
""blur"",""2"",""10459""
","""event"",""trial"",""time""
""focus"",""2"",""12133""
","""event"",""trial"",""time""
""fullscreenenter"",""1"",""3698""
","
","","","","","","1565.5","images/straw3.png","","","learning","9","0","0","0","straw","fruit","2","0","","good","[4]"
"html-keyboard-response","106","631852","0.0-9.0-2.0-0.17","4003","2","12","Male","approach_avoid_spark_v1","""event"",""trial"",""time""
""fullscreenenter"",""1"",""3698""
""blur"",""2"",""10459""
""focus"",""2"",""12133""
","""event"",""trial"",""time""
""blur"",""2"",""10459""
","""event"",""trial"",""time""
""focus"",""2"",""12133""
","""event"",""trial"",""time""
""fullscreenenter"",""1"",""3698""
","
","","","","","","null","<div style=""font-size:60px;"">+</div>","null","","fixation","","","","","","","","","","",""
"aa-learning-trial","107","634866","0.0-9.0-2.0-1.17","4003","2","12","Male","approach_avoid_spark_v1","""event"",""trial"",""time""
""fullscreenenter"",""1"",""3698""
""blur"",""2"",""10459""
""focus"",""2"",""12133""
","""event"",""trial"",""time""
""blur"",""2"",""10459""
","""event"",""trial"",""time""
""focus"",""2"",""12133""
","""event"",""trial"",""time""
""fullscreenenter"",""1"",""3698""
","
","","","","","","1482.7000000476837","images/straw4.png","","","learning","-6","-6","1","1","straw","fruit","2","0","","good","[4]"
"html-keyboard-response","108","635371","0.0-9.0-2.0-0.18","4003","2","12","Male","approach_avoid_spark_v1","""event"",""trial"",""time""
""fullscreenenter"",""1"",""3698""
""blur"",""2"",""10459""
""focus"",""2"",""12133""
","""event"",""trial"",""time""
""blur"",""2"",""10459""
","""event"",""trial"",""time""
""focus"",""2"",""12133""
","""event"",""trial"",""time""
""fullscreenenter"",""1"",""3698""
","
","","","","","","null","<div style=""font-size:60px;"">+</div>","null","","fixation","","","","","","","","","","",""
"aa-learning-trial","109","638382","0.0-9.0-2.0-1.18","4003","2","12","Male","approach_avoid_spark_v1","""event"",""trial"",""time""
""fullscreenenter"",""1"",""3698""
""blur"",""2"",""10459""
""focus"",""2"",""12133""
","""event"",""trial"",""time""
""blur"",""2"",""10459""
","""event"",""trial"",""time""
""focus"",""2"",""12133""
","""event"",""trial"",""time""
""fullscreenenter"",""1"",""3698""
","
","","","","","","1332.5999999046326","images/straw7.png","","","learning","-3","-3","1","1","straw","fruit","2","0","","good","[4]"
"html-keyboard-response","110","638885","0.0-9.0-2.0-0.19","4003","2","12","Male","approach_avoid_spark_v1","""event"",""trial"",""time""
""fullscreenenter"",""1"",""3698""
""blur"",""2"",""10459""
""focus"",""2"",""12133""
","""event"",""trial"",""time""
""blur"",""2"",""10459""
","""event"",""trial"",""time""
""focus"",""2"",""12133""
","""event"",""trial"",""time""
""fullscreenenter"",""1"",""3698""
","
","","","","","","null","<div style=""font-size:60px;"">+</div>","null","","fixation","","","","","","","","","","",""
"aa-learning-trial","111","641894","0.0-9.0-2.0-1.19","4003","2","12","Male","approach_avoid_spark_v1","""event"",""trial"",""time""
""fullscreenenter"",""1"",""3698""
""blur"",""2"",""10459""
""focus"",""2"",""12133""
","""event"",""trial"",""time""
""blur"",""2"",""10459""
","""event"",""trial"",""time""
""focus"",""2"",""12133""
","""event"",""trial"",""time""
""fullscreenenter"",""1"",""3698""
","
","","","","","","927.1000000238419","images/apple2.png","","","learning","-7","0","0","0","apple","fruit","2","0","","bad","[-5]"
"html-keyboard-response","112","642400","0.0-9.0-2.0-0.20","4003","2","12","Male","approach_avoid_spark_v1","""event"",""trial"",""time""
""fullscreenenter"",""1"",""3698""
""blur"",""2"",""10459""
""focus"",""2"",""12133""
","""event"",""trial"",""time""
""blur"",""2"",""10459""
","""event"",""trial"",""time""
""focus"",""2"",""12133""
","""event"",""trial"",""time""
""fullscreenenter"",""1"",""3698""
","
","","","","","","null","<div style=""font-size:60px;"">+</div>","null","","fixation","","","","","","","","","","",""
"aa-learning-trial","113","645406","0.0-9.0-2.0-1.20","4003","2","12","Male","approach_avoid_spark_v1","""event"",""trial"",""time""
""fullscreenenter"",""1"",""3698""
""blur"",""2"",""10459""
""focus"",""2"",""12133""
","""event"",""trial"",""time""
""blur"",""2"",""10459""
","""event"",""trial"",""time""
""focus"",""2"",""12133""
","""event"",""trial"",""time""
""fullscreenenter"",""1"",""3698""
","
","","","","","","1000","images/apple7.png","","","learning","-2","0","0","0","apple","fruit","2","0","","bad","[-5]"
"html-keyboard-response","114","645921","0.0-9.0-2.0-0.21","4003","2","12","Male","approach_avoid_spark_v1","""event"",""trial"",""time""
""fullscreenenter"",""1"",""3698""
""blur"",""2"",""10459""
""focus"",""2"",""12133""
","""event"",""trial"",""time""
""blur"",""2"",""10459""
","""event"",""trial"",""time""
""focus"",""2"",""12133""
","""event"",""trial"",""time""
""fullscreenenter"",""1"",""3698""
","
","","","","","","null","<div style=""font-size:60px;"">+</div>","null","","fixation","","","","","","","","","","",""
"aa-learning-trial","115","648928","0.0-9.0-2.0-1.21","4003","2","12","Male","approach_avoid_spark_v1","""event"",""trial"",""time""
""fullscreenenter"",""1"",""3698""
""blur"",""2"",""10459""
""focus"",""2"",""12133""
","""event"",""trial"",""time""
""blur"",""2"",""10459""
","""event"",""trial"",""time""
""focus"",""2"",""12133""
","""event"",""trial"",""time""
""fullscreenenter"",""1"",""3698""
","
","","","","","","1009.5","images/straw4.png","","","learning","-6","0","0","0","straw","fruit","2","0","","good","[4]"
"html-keyboard-response","116","649432","0.0-9.0-2.0-0.22","4003","2","12","Male","approach_avoid_spark_v1","""event"",""trial"",""time""
""fullscreenenter"",""1"",""3698""
""blur"",""2"",""10459""
""focus"",""2"",""12133""
","""event"",""trial"",""time""
""blur"",""2"",""10459""
","""event"",""trial"",""time""
""focus"",""2"",""12133""
","""event"",""trial"",""time""
""fullscreenenter"",""1"",""3698""
","
","","","","","","null","<div style=""font-size:60px;"">+</div>","null","","fixation","","","","","","","","","","",""
"aa-learning-trial","117","652442","0.0-9.0-2.0-1.22","4003","2","12","Male","approach_avoid_spark_v1","""event"",""trial"",""time""
""fullscreenenter"",""1"",""3698""
""blur"",""2"",""10459""
""focus"",""2"",""12133""
","""event"",""trial"",""time""
""blur"",""2"",""10459""
","""event"",""trial"",""time""
""focus"",""2"",""12133""
","""event"",""trial"",""time""
""fullscreenenter"",""1"",""3698""
","
","","","","","","1333.7000000476837","images/banana4.png","","","learning","8","8","1","1","banana","fruit","2","0","","neutral","0"
"html-keyboard-response","118","652955","0.0-9.0-2.0-0.23","4003","2","12","Male","approach_avoid_spark_v1","""event"",""trial"",""time""
""fullscreenenter"",""1"",""3698""
""blur"",""2"",""10459""
""focus"",""2"",""12133""
","""event"",""trial"",""time""
""blur"",""2"",""10459""
","""event"",""trial"",""time""
""focus"",""2"",""12133""
","""event"",""trial"",""time""
""fullscreenenter"",""1"",""3698""
","
","","","","","","null","<div style=""font-size:60px;"">+</div>","null","","fixation","","","","","","","","","","",""
"aa-learning-trial","119","655962","0.0-9.0-2.0-1.23","4003","2","12","Male","approach_avoid_spark_v1","""event"",""trial"",""time""
""fullscreenenter"",""1"",""3698""
""blur"",""2"",""10459""
""focus"",""2"",""12133""
","""event"",""trial"",""time""
""blur"",""2"",""10459""
","""event"",""trial"",""time""
""focus"",""2"",""12133""
","""event"",""trial"",""time""
""fullscreenenter"",""1"",""3698""
","
","","","","","","1164.9000000953674","images/straw6.png","","","learning","1","0","0","0","straw","fruit","2","0","","good","[4]"
"html-keyboard-response","120","656472","0.0-9.0-2.0-0.24","4003","2","12","Male","approach_avoid_spark_v1","""event"",""trial"",""time""
""fullscreenenter"",""1"",""3698""
""blur"",""2"",""10459""
""focus"",""2"",""12133""
","""event"",""trial"",""time""
""blur"",""2"",""10459""
","""event"",""trial"",""time""
""focus"",""2"",""12133""
","""event"",""trial"",""time""
""fullscreenenter"",""1"",""3698""
","
","","","","","","null","<div style=""font-size:60px;"">+</div>","null","","fixation","","","","","","","","","","",""
"aa-learning-trial","121","659481","0.0-9.0-2.0-1.24","4003","2","12","Male","approach_avoid_spark_v1","""event"",""trial"",""time""
""fullscreenenter"",""1"",""3698""
""blur"",""2"",""10459""
""focus"",""2"",""12133""
","""event"",""trial"",""time""
""blur"",""2"",""10459""
","""event"",""trial"",""time""
""focus"",""2"",""12133""
","""event"",""trial"",""time""
""fullscreenenter"",""1"",""3698""
","
","","","","","","810.8999999761581","images/banana1.png","","","learning","-5","0","0","0","banana","fruit","2","0","","neutral","0"
"html-keyboard-response","122","659996","0.0-9.0-2.0-0.25","4003","2","12","Male","approach_avoid_spark_v1","""event"",""trial"",""time""
""fullscreenenter"",""1"",""3698""
""blur"",""2"",""10459""
""focus"",""2"",""12133""
","""event"",""trial"",""time""
""blur"",""2"",""10459""
","""event"",""trial"",""time""
""focus"",""2"",""12133""
","""event"",""trial"",""time""
""fullscreenenter"",""1"",""3698""
","
","","","","","","null","<div style=""font-size:60px;"">+</div>","null","","fixation","","","","","","","","","","",""
"aa-learning-trial","123","662999","0.0-9.0-2.0-1.25","4003","2","12","Male","approach_avoid_spark_v1","""event"",""trial"",""time""
""fullscreenenter"",""1"",""3698""
""blur"",""2"",""10459""
""focus"",""2"",""12133""
","""event"",""trial"",""time""
""blur"",""2"",""10459""
","""event"",""trial"",""time""
""focus"",""2"",""12133""
","""event"",""trial"",""time""
""fullscreenenter"",""1"",""3698""
","
","","","","","","960","images/banana1.png","","","learning","-5","0","0","0","banana","fruit","2","0","","neutral","0"
"html-keyboard-response","124","663510","0.0-9.0-2.0-0.26","4003","2","12","Male","approach_avoid_spark_v1","""event"",""trial"",""time""
""fullscreenenter"",""1"",""3698""
""blur"",""2"",""10459""
""focus"",""2"",""12133""
","""event"",""trial"",""time""
""blur"",""2"",""10459""
","""event"",""trial"",""time""
""focus"",""2"",""12133""
","""event"",""trial"",""time""
""fullscreenenter"",""1"",""3698""
","
","","","","","","null","<div style=""font-size:60px;"">+</div>","null","","fixation","","","","","","","","","","",""
"aa-learning-trial","125","666522","0.0-9.0-2.0-1.26","4003","2","12","Male","approach_avoid_spark_v1","""event"",""trial"",""time""
""fullscreenenter"",""1"",""3698""
""blur"",""2"",""10459""
""focus"",""2"",""12133""
","""event"",""trial"",""time""
""blur"",""2"",""10459""
","""event"",""trial"",""time""
""focus"",""2"",""12133""
","""event"",""trial"",""time""
""fullscreenenter"",""1"",""3698""
","
","","","","","","1139.1999999284744","images/straw4.png","","","learning","-6","0","0","0","straw","fruit","2","0","","good","[4]"
"html-keyboard-response","126","667031","0.0-9.0-2.0-0.27","4003","2","12","Male","approach_avoid_spark_v1","""event"",""trial"",""time""
""fullscreenenter"",""1"",""3698""
""blur"",""2"",""10459""
""focus"",""2"",""12133""
","""event"",""trial"",""time""
""blur"",""2"",""10459""
","""event"",""trial"",""time""
""focus"",""2"",""12133""
","""event"",""trial"",""time""
""fullscreenenter"",""1"",""3698""
","
","","","","","","null","<div style=""font-size:60px;"">+</div>","null","","fixation","","","","","","","","","","",""
"aa-learning-trial","127","670042","0.0-9.0-2.0-1.27","4003","2","12","Male","approach_avoid_spark_v1","""event"",""trial"",""time""
""fullscreenenter"",""1"",""3698""
""blur"",""2"",""10459""
""focus"",""2"",""12133""
","""event"",""trial"",""time""
""blur"",""2"",""10459""
","""event"",""trial"",""time""
""focus"",""2"",""12133""
","""event"",""trial"",""time""
""fullscreenenter"",""1"",""3698""
","
","","","","","","1273.5","images/apple1.png","","","learning","7","0","0","0","apple","fruit","2","0","","bad","[-5]"
"html-keyboard-response","128","670550","0.0-9.0-2.0-0.28","4003","2","12","Male","approach_avoid_spark_v1","""event"",""trial"",""time""
""fullscreenenter"",""1"",""3698""
""blur"",""2"",""10459""
""focus"",""2"",""12133""
","""event"",""trial"",""time""
""blur"",""2"",""10459""
","""event"",""trial"",""time""
""focus"",""2"",""12133""
","""event"",""trial"",""time""
""fullscreenenter"",""1"",""3698""
","
","","","","","","null","<div style=""font-size:60px;"">+</div>","null","","fixation","","","","","","","","","","",""
"aa-learning-trial","129","673555","0.0-9.0-2.0-1.28","4003","2","12","Male","approach_avoid_spark_v1","""event"",""trial"",""time""
""fullscreenenter"",""1"",""3698""
""blur"",""2"",""10459""
""focus"",""2"",""12133""
","""event"",""trial"",""time""
""blur"",""2"",""10459""
","""event"",""trial"",""time""
""focus"",""2"",""12133""
","""event"",""trial"",""time""
""fullscreenenter"",""1"",""3698""
","
","","","","","","1015.3000000715256","images/apple7.png","","","learning","-2","0","0","0","apple","fruit","2","0","","bad","[-5]"
"html-keyboard-response","130","674065","0.0-9.0-2.0-0.29","4003","2","12","Male","approach_avoid_spark_v1","""event"",""trial"",""time""
""fullscreenenter"",""1"",""3698""
""blur"",""2"",""10459""
""focus"",""2"",""12133""
","""event"",""trial"",""time""
""blur"",""2"",""10459""
","""event"",""trial"",""time""
""focus"",""2"",""12133""
","""event"",""trial"",""time""
""fullscreenenter"",""1"",""3698""
","
","","","","","","null","<div style=""font-size:60px;"">+</div>","null","","fixation","","","","","","","","","","",""
"aa-learning-trial","131","677072","0.0-9.0-2.0-1.29","4003","2","12","Male","approach_avoid_spark_v1","""event"",""trial"",""time""
""fullscreenenter"",""1"",""3698""
""blur"",""2"",""10459""
""focus"",""2"",""12133""
","""event"",""trial"",""time""
""blur"",""2"",""10459""
","""event"",""trial"",""time""
""focus"",""2"",""12133""
","""event"",""trial"",""time""
""fullscreenenter"",""1"",""3698""
","
","","","","","","1211.1000000238419","images/banana6.png","","","learning","-9","0","0","0","banana","fruit","2","0","","neutral","0"
"html-keyboard-response","132","677580","0.0-9.0-2.0-0.30","4003","2","12","Male","approach_avoid_spark_v1","""event"",""trial"",""time""
""fullscreenenter"",""1"",""3698""
""blur"",""2"",""10459""
""focus"",""2"",""12133""
","""event"",""trial"",""time""
""blur"",""2"",""10459""
","""event"",""trial"",""time""
""focus"",""2"",""12133""
","""event"",""trial"",""time""
""fullscreenenter"",""1"",""3698""
","
","","","","","","null","<div style=""font-size:60px;"">+</div>","null","","fixation","","","","","","","","","","",""
"aa-learning-trial","133","680588","0.0-9.0-2.0-1.30","4003","2","12","Male","approach_avoid_spark_v1","""event"",""trial"",""time""
""fullscreenenter"",""1"",""3698""
""blur"",""2"",""10459""
""focus"",""2"",""12133""
","""event"",""trial"",""time""
""blur"",""2"",""10459""
","""event"",""trial"",""time""
""focus"",""2"",""12133""
","""event"",""trial"",""time""
""fullscreenenter"",""1"",""3698""
","
","","","","","","1028.0999999046326","images/straw6.png","","","learning","1","0","0","0","straw","fruit","2","0","","good","[4]"
"html-keyboard-response","134","681094","0.0-9.0-2.0-0.31","4003","2","12","Male","approach_avoid_spark_v1","""event"",""trial"",""time""
""fullscreenenter"",""1"",""3698""
""blur"",""2"",""10459""
""focus"",""2"",""12133""
","""event"",""trial"",""time""
""blur"",""2"",""10459""
","""event"",""trial"",""time""
""focus"",""2"",""12133""
","""event"",""trial"",""time""
""fullscreenenter"",""1"",""3698""
","
","","","","","","null","<div style=""font-size:60px;"">+</div>","null","","fixation","","","","","","","","","","",""
"aa-learning-trial","135","684107","0.0-9.0-2.0-1.31","4003","2","12","Male","approach_avoid_spark_v1","""event"",""trial"",""time""
""fullscreenenter"",""1"",""3698""
""blur"",""2"",""10459""
""focus"",""2"",""12133""
","""event"",""trial"",""time""
""blur"",""2"",""10459""
","""event"",""trial"",""time""
""focus"",""2"",""12133""
","""event"",""trial"",""time""
""fullscreenenter"",""1"",""3698""
","
","","","","","","1202.2000000476837","images/banana6.png","","","learning","-9","0","0","0","banana","fruit","2","0","","neutral","0"
"html-keyboard-response","136","684610","0.0-9.0-2.0-0.32","4003","2","12","Male","approach_avoid_spark_v1","""event"",""trial"",""time""
""fullscreenenter"",""1"",""3698""
""blur"",""2"",""10459""
""focus"",""2"",""12133""
","""event"",""trial"",""time""
""blur"",""2"",""10459""
","""event"",""trial"",""time""
""focus"",""2"",""12133""
","""event"",""trial"",""time""
""fullscreenenter"",""1"",""3698""
","
","","","","","","null","<div style=""font-size:60px;"">+</div>","null","","fixation","","","","","","","","","","",""
"aa-learning-trial","137","687614","0.0-9.0-2.0-1.32","4003","2","12","Male","approach_avoid_spark_v1","""event"",""trial"",""time""
""fullscreenenter"",""1"",""3698""
""blur"",""2"",""10459""
""focus"",""2"",""12133""
","""event"",""trial"",""time""
""blur"",""2"",""10459""
","""event"",""trial"",""time""
""focus"",""2"",""12133""
","""event"",""trial"",""time""
""fullscreenenter"",""1"",""3698""
","
","","","","","","799.8999999761581","images/banana2.png","","","learning","5","5","1","1","banana","fruit","2","0","","neutral","0"
"html-keyboard-response","138","688126","0.0-9.0-2.0-0.33","4003","2","12","Male","approach_avoid_spark_v1","""event"",""trial"",""time""
""fullscreenenter"",""1"",""3698""
""blur"",""2"",""10459""
""focus"",""2"",""12133""
","""event"",""trial"",""time""
""blur"",""2"",""10459""
","""event"",""trial"",""time""
""focus"",""2"",""12133""
","""event"",""trial"",""time""
""fullscreenenter"",""1"",""3698""
","
","","","","","","null","<div style=""font-size:60px;"">+</div>","null","","fixation","","","","","","","","","","",""
"aa-learning-trial","139","691135","0.0-9.0-2.0-1.33","4003","2","12","Male","approach_avoid_spark_v1","""event"",""trial"",""time""
""fullscreenenter"",""1"",""3698""
""blur"",""2"",""10459""
""focus"",""2"",""12133""
","""event"",""trial"",""time""
""blur"",""2"",""10459""
","""event"",""trial"",""time""
""focus"",""2"",""12133""
","""event"",""trial"",""time""
""fullscreenenter"",""1"",""3698""
","
","","","","","","1042.7999999523163","images/apple6.png","","","learning","-4","0","0","0","apple","fruit","2","0","","bad","[-5]"
"html-keyboard-response","140","691639","0.0-9.0-2.0-0.34","4003","2","12","Male","approach_avoid_spark_v1","""event"",""trial"",""time""
""fullscreenenter"",""1"",""3698""
""blur"",""2"",""10459""
""focus"",""2"",""12133""
","""event"",""trial"",""time""
""blur"",""2"",""10459""
","""event"",""trial"",""time""
""focus"",""2"",""12133""
","""event"",""trial"",""time""
""fullscreenenter"",""1"",""3698""
","
","","","","","","null","<div style=""font-size:60px;"">+</div>","null","","fixation","","","","","","","","","","",""
"aa-learning-trial","141","694649","0.0-9.0-2.0-1.34","4003","2","12","Male","approach_avoid_spark_v1","""event"",""trial"",""time""
""fullscreenenter"",""1"",""3698""
""blur"",""2"",""10459""
""focus"",""2"",""12133""
","""event"",""trial"",""time""
""blur"",""2"",""10459""
","""event"",""trial"",""time""
""focus"",""2"",""12133""
","""event"",""trial"",""time""
""fullscreenenter"",""1"",""3698""
","
","","","","","","647.3999999761581","images/banana1.png","","","learning","-5","0","0","0","banana","fruit","2","0","","neutral","0"
"html-keyboard-response","142","695158","0.0-9.0-2.0-0.35","4003","2","12","Male","approach_avoid_spark_v1","""event"",""trial"",""time""
""fullscreenenter"",""1"",""3698""
""blur"",""2"",""10459""
""focus"",""2"",""12133""
","""event"",""trial"",""time""
""blur"",""2"",""10459""
","""event"",""trial"",""time""
""focus"",""2"",""12133""
","""event"",""trial"",""time""
""fullscreenenter"",""1"",""3698""
","
","","","","","","null","<div style=""font-size:60px;"">+</div>","null","","fixation","","","","","","","","","","",""
"aa-learning-trial","143","698173","0.0-9.0-2.0-1.35","4003","2","12","Male","approach_avoid_spark_v1","""event"",""trial"",""time""
""fullscreenenter"",""1"",""3698""
""blur"",""2"",""10459""
""focus"",""2"",""12133""
","""event"",""trial"",""time""
""blur"",""2"",""10459""
","""event"",""trial"",""time""
""focus"",""2"",""12133""
","""event"",""trial"",""time""
""fullscreenenter"",""1"",""3698""
","
","","","","","","693.2000000476837","images/banana1.png","","","learning","-5","0","0","0","banana","fruit","2","0","","neutral","0"
"html-keyboard-response","144","698680","0.0-9.0-2.0-0.36","4003","2","12","Male","approach_avoid_spark_v1","""event"",""trial"",""time""
""fullscreenenter"",""1"",""3698""
""blur"",""2"",""10459""
""focus"",""2"",""12133""
","""event"",""trial"",""time""
""blur"",""2"",""10459""
","""event"",""trial"",""time""
""focus"",""2"",""12133""
","""event"",""trial"",""time""
""fullscreenenter"",""1"",""3698""
","
","","","","","","null","<div style=""font-size:60px;"">+</div>","null","","fixation","","","","","","","","","","",""
"aa-learning-trial","145","701682","0.0-9.0-2.0-1.36","4003","2","12","Male","approach_avoid_spark_v1","""event"",""trial"",""time""
""fullscreenenter"",""1"",""3698""
""blur"",""2"",""10459""
""focus"",""2"",""12133""
","""event"",""trial"",""time""
""blur"",""2"",""10459""
","""event"",""trial"",""time""
""focus"",""2"",""12133""
","""event"",""trial"",""time""
""fullscreenenter"",""1"",""3698""
","
","","","","","","1134","images/apple8.png","","","learning","4","4","1","1","apple","fruit","2","0","","bad","[-5]"
"html-keyboard-response","146","702191","0.0-9.0-2.0-0.37","4003","2","12","Male","approach_avoid_spark_v1","""event"",""trial"",""time""
""fullscreenenter"",""1"",""3698""
""blur"",""2"",""10459""
""focus"",""2"",""12133""
","""event"",""trial"",""time""
""blur"",""2"",""10459""
","""event"",""trial"",""time""
""focus"",""2"",""12133""
","""event"",""trial"",""time""
""fullscreenenter"",""1"",""3698""
","
","","","","","","null","<div style=""font-size:60px;"">+</div>","null","","fixation","","","","","","","","","","",""
"aa-learning-trial","147","705196","0.0-9.0-2.0-1.37","4003","2","12","Male","approach_avoid_spark_v1","""event"",""trial"",""time""
""fullscreenenter"",""1"",""3698""
""blur"",""2"",""10459""
""focus"",""2"",""12133""
","""event"",""trial"",""time""
""blur"",""2"",""10459""
","""event"",""trial"",""time""
""focus"",""2"",""12133""
","""event"",""trial"",""time""
""fullscreenenter"",""1"",""3698""
","
","","","","","","975.8000000715256","images/straw8.png","","","learning","3","3","1","1","straw","fruit","2","0","","good","[4]"
"html-keyboard-response","148","705698","0.0-9.0-2.0-0.38","4003","2","12","Male","approach_avoid_spark_v1","""event"",""trial"",""time""
""fullscreenenter"",""1"",""3698""
""blur"",""2"",""10459""
""focus"",""2"",""12133""
","""event"",""trial"",""time""
""blur"",""2"",""10459""
","""event"",""trial"",""time""
""focus"",""2"",""12133""
","""event"",""trial"",""time""
""fullscreenenter"",""1"",""3698""
","
","","","","","","null","<div style=""font-size:60px;"">+</div>","null","","fixation","","","","","","","","","","",""
"aa-learning-trial","149","708704","0.0-9.0-2.0-1.38","4003","2","12","Male","approach_avoid_spark_v1","""event"",""trial"",""time""
""fullscreenenter"",""1"",""3698""
""blur"",""2"",""10459""
""focus"",""2"",""12133""
","""event"",""trial"",""time""
""blur"",""2"",""10459""
","""event"",""trial"",""time""
""focus"",""2"",""12133""
","""event"",""trial"",""time""
""fullscreenenter"",""1"",""3698""
","
","","","","","","997.1000000238419","images/apple6.png","","","learning","-4","0","0","0","apple","fruit","2","0","","bad","[-5]"
"html-keyboard-response","150","709213","0.0-9.0-2.0-0.39","4003","2","12","Male","approach_avoid_spark_v1","""event"",""trial"",""time""
""fullscreenenter"",""1"",""3698""
""blur"",""2"",""10459""
""focus"",""2"",""12133""
","""event"",""trial"",""time""
""blur"",""2"",""10459""
","""event"",""trial"",""time""
""focus"",""2"",""12133""
","""event"",""trial"",""time""
""fullscreenenter"",""1"",""3698""
","
","","","","","","null","<div style=""font-size:60px;"">+</div>","null","","fixation","","","","","","","","","","",""
"aa-learning-trial","151","712222","0.0-9.0-2.0-1.39","4003","2","12","Male","approach_avoid_spark_v1","""event"",""trial"",""time""
""fullscreenenter"",""1"",""3698""
""blur"",""2"",""10459""
""focus"",""2"",""12133""
","""event"",""trial"",""time""
""blur"",""2"",""10459""
","""event"",""trial"",""time""
""focus"",""2"",""12133""
","""event"",""trial"",""time""
""fullscreenenter"",""1"",""3698""
","
","","","","","","731.8999999761581","images/apple6.png","","","learning","-4","0","0","0","apple","fruit","2","0","","bad","[-5]"
"html-keyboard-response","152","712726","0.0-9.0-2.0-0.40","4003","2","12","Male","approach_avoid_spark_v1","""event"",""trial"",""time""
""fullscreenenter"",""1"",""3698""
""blur"",""2"",""10459""
""focus"",""2"",""12133""
","""event"",""trial"",""time""
""blur"",""2"",""10459""
","""event"",""trial"",""time""
""focus"",""2"",""12133""
","""event"",""trial"",""time""
""fullscreenenter"",""1"",""3698""
","
","","","","","","null","<div style=""font-size:60px;"">+</div>","null","","fixation","","","","","","","","","","",""
"aa-learning-trial","153","715735","0.0-9.0-2.0-1.40","4003","2","12","Male","approach_avoid_spark_v1","""event"",""trial"",""time""
""fullscreenenter"",""1"",""3698""
""blur"",""2"",""10459""
""focus"",""2"",""12133""
","""event"",""trial"",""time""
""blur"",""2"",""10459""
","""event"",""trial"",""time""
""focus"",""2"",""12133""
","""event"",""trial"",""time""
""fullscreenenter"",""1"",""3698""
","
","","","","","","799","images/apple7.png","","","learning","-2","0","0","0","apple","fruit","2","0","","bad","[-5]"
"html-keyboard-response","154","716249","0.0-9.0-2.0-0.41","4003","2","12","Male","approach_avoid_spark_v1","""event"",""trial"",""time""
""fullscreenenter"",""1"",""3698""
""blur"",""2"",""10459""
""focus"",""2"",""12133""
","""event"",""trial"",""time""
""blur"",""2"",""10459""
","""event"",""trial"",""time""
""focus"",""2"",""12133""
","""event"",""trial"",""time""
""fullscreenenter"",""1"",""3698""
","
","","","","","","null","<div style=""font-size:60px;"">+</div>","null","","fixation","","","","","","","","","","",""
"aa-learning-trial","155","719252","0.0-9.0-2.0-1.41","4003","2","12","Male","approach_avoid_spark_v1","""event"",""trial"",""time""
""fullscreenenter"",""1"",""3698""
""blur"",""2"",""10459""
""focus"",""2"",""12133""
","""event"",""trial"",""time""
""blur"",""2"",""10459""
","""event"",""trial"",""time""
""focus"",""2"",""12133""
","""event"",""trial"",""time""
""fullscreenenter"",""1"",""3698""
","
","","","","","","796.3000000715256","images/apple8.png","","","learning","4","4","1","1","apple","fruit","2","0","","bad","[-5]"
"html-keyboard-response","156","719764","0.0-9.0-2.0-0.42","4003","2","12","Male","approach_avoid_spark_v1","""event"",""trial"",""time""
""fullscreenenter"",""1"",""3698""
""blur"",""2"",""10459""
""focus"",""2"",""12133""
","""event"",""trial"",""time""
""blur"",""2"",""10459""
","""event"",""trial"",""time""
""focus"",""2"",""12133""
","""event"",""trial"",""time""
""fullscreenenter"",""1"",""3698""
","
","","","","","","null","<div style=""font-size:60px;"">+</div>","null","","fixation","","","","","","","","","","",""
"aa-learning-trial","157","722770","0.0-9.0-2.0-1.42","4003","2","12","Male","approach_avoid_spark_v1","""event"",""trial"",""time""
""fullscreenenter"",""1"",""3698""
""blur"",""2"",""10459""
""focus"",""2"",""12133""
","""event"",""trial"",""time""
""blur"",""2"",""10459""
","""event"",""trial"",""time""
""focus"",""2"",""12133""
","""event"",""trial"",""time""
""fullscreenenter"",""1"",""3698""
","
","","","","","","720.8000000715256","images/apple7.png","","","learning","-2","0","0","0","apple","fruit","2","0","","bad","[-5]"
"html-keyboard-response","158","723272","0.0-9.0-2.0-0.43","4003","2","12","Male","approach_avoid_spark_v1","""event"",""trial"",""time""
""fullscreenenter"",""1"",""3698""
""blur"",""2"",""10459""
""focus"",""2"",""12133""
","""event"",""trial"",""time""
""blur"",""2"",""10459""
","""event"",""trial"",""time""
""focus"",""2"",""12133""
","""event"",""trial"",""time""
""fullscreenenter"",""1"",""3698""
","
","","","","","","null","<div style=""font-size:60px;"">+</div>","null","","fixation","","","","","","","","","","",""
"aa-learning-trial","159","726281","0.0-9.0-2.0-1.43","4003","2","12","Male","approach_avoid_spark_v1","""event"",""trial"",""time""
""fullscreenenter"",""1"",""3698""
""blur"",""2"",""10459""
""focus"",""2"",""12133""
","""event"",""trial"",""time""
""blur"",""2"",""10459""
","""event"",""trial"",""time""
""focus"",""2"",""12133""
","""event"",""trial"",""time""
""fullscreenenter"",""1"",""3698""
","
","","","","","","829.0999999046326","images/banana6.png","","","learning","-9","0","0","0","banana","fruit","2","0","","neutral","0"
"html-keyboard-response","160","726789","0.0-9.0-2.0-0.44","4003","2","12","Male","approach_avoid_spark_v1","""event"",""trial"",""time""
""fullscreenenter"",""1"",""3698""
""blur"",""2"",""10459""
""focus"",""2"",""12133""
","""event"",""trial"",""time""
""blur"",""2"",""10459""
","""event"",""trial"",""time""
""focus"",""2"",""12133""
","""event"",""trial"",""time""
""fullscreenenter"",""1"",""3698""
","
","","","","","","null","<div style=""font-size:60px;"">+</div>","null","","fixation","","","","","","","","","","",""
"aa-learning-trial","161","729798","0.0-9.0-2.0-1.44","4003","2","12","Male","approach_avoid_spark_v1","""event"",""trial"",""time""
""fullscreenenter"",""1"",""3698""
""blur"",""2"",""10459""
""focus"",""2"",""12133""
","""event"",""trial"",""time""
""blur"",""2"",""10459""
","""event"",""trial"",""time""
""focus"",""2"",""12133""
","""event"",""trial"",""time""
""fullscreenenter"",""1"",""3698""
","
","","","","","","809.6999999284744","images/banana5.png","","","learning","2","2","1","1","banana","fruit","2","0","","neutral","0"
"html-keyboard-response","162","730305","0.0-9.0-2.0-0.45","4003","2","12","Male","approach_avoid_spark_v1","""event"",""trial"",""time""
""fullscreenenter"",""1"",""3698""
""blur"",""2"",""10459""
""focus"",""2"",""12133""
","""event"",""trial"",""time""
""blur"",""2"",""10459""
","""event"",""trial"",""time""
""focus"",""2"",""12133""
","""event"",""trial"",""time""
""fullscreenenter"",""1"",""3698""
","
","","","","","","null","<div style=""font-size:60px;"">+</div>","null","","fixation","","","","","","","","","","",""
"aa-learning-trial","163","733320","0.0-9.0-2.0-1.45","4003","2","12","Male","approach_avoid_spark_v1","""event"",""trial"",""time""
""fullscreenenter"",""1"",""3698""
""blur"",""2"",""10459""
""focus"",""2"",""12133""
","""event"",""trial"",""time""
""blur"",""2"",""10459""
","""event"",""trial"",""time""
""focus"",""2"",""12133""
","""event"",""trial"",""time""
""fullscreenenter"",""1"",""3698""
","
","","","","","","810.7000000476837","images/straw8.png","","","learning","3","3","1","1","straw","fruit","2","0","","good","[4]"
"html-keyboard-response","164","733823","0.0-9.0-2.0-0.46","4003","2","12","Male","approach_avoid_spark_v1","""event"",""trial"",""time""
""fullscreenenter"",""1"",""3698""
""blur"",""2"",""10459""
""focus"",""2"",""12133""
","""event"",""trial"",""time""
""blur"",""2"",""10459""
","""event"",""trial"",""time""
""focus"",""2"",""12133""
","""event"",""trial"",""time""
""fullscreenenter"",""1"",""3698""
","
","","","","","","null","<div style=""font-size:60px;"">+</div>","null","","fixation","","","","","","","","","","",""
"aa-learning-trial","165","736836","0.0-9.0-2.0-1.46","4003","2","12","Male","approach_avoid_spark_v1","""event"",""trial"",""time""
""fullscreenenter"",""1"",""3698""
""blur"",""2"",""10459""
""focus"",""2"",""12133""
","""event"",""trial"",""time""
""blur"",""2"",""10459""
","""event"",""trial"",""time""
""focus"",""2"",""12133""
","""event"",""trial"",""time""
""fullscreenenter"",""1"",""3698""
","
","","","","","","659.6999999284744","images/apple6.png","","","learning","-4","0","0","0","apple","fruit","2","0","","bad","[-5]"
"html-keyboard-response","166","737339","0.0-9.0-2.0-0.47","4003","2","12","Male","approach_avoid_spark_v1","""event"",""trial"",""time""
""fullscreenenter"",""1"",""3698""
""blur"",""2"",""10459""
""focus"",""2"",""12133""
","""event"",""trial"",""time""
""blur"",""2"",""10459""
","""event"",""trial"",""time""
""focus"",""2"",""12133""
","""event"",""trial"",""time""
""fullscreenenter"",""1"",""3698""
","
","","","","","","null","<div style=""font-size:60px;"">+</div>","null","","fixation","","","","","","","","","","",""
"aa-learning-trial","167","740344","0.0-9.0-2.0-1.47","4003","2","12","Male","approach_avoid_spark_v1","""event"",""trial"",""time""
""fullscreenenter"",""1"",""3698""
""blur"",""2"",""10459""
""focus"",""2"",""12133""
","""event"",""trial"",""time""
""blur"",""2"",""10459""
","""event"",""trial"",""time""
""focus"",""2"",""12133""
","""event"",""trial"",""time""
""fullscreenenter"",""1"",""3698""
","
","","","","","","925.3999999761581","images/banana6.png","","","learning","-9","0","0","0","banana","fruit","2","0","","neutral","0"
"html-keyboard-response","168","740852","0.0-9.0-2.0-0.48","4003","2","12","Male","approach_avoid_spark_v1","""event"",""trial"",""time""
""fullscreenenter"",""1"",""3698""
""blur"",""2"",""10459""
""focus"",""2"",""12133""
","""event"",""trial"",""time""
""blur"",""2"",""10459""
","""event"",""trial"",""time""
""focus"",""2"",""12133""
","""event"",""trial"",""time""
""fullscreenenter"",""1"",""3698""
","
","","","","","","null","<div style=""font-size:60px;"">+</div>","null","","fixation","","","","","","","","","","",""
"aa-learning-trial","169","743866","0.0-9.0-2.0-1.48","4003","2","12","Male","approach_avoid_spark_v1","""event"",""trial"",""time""
""fullscreenenter"",""1"",""3698""
""blur"",""2"",""10459""
""focus"",""2"",""12133""
","""event"",""trial"",""time""
""blur"",""2"",""10459""
","""event"",""trial"",""time""
""focus"",""2"",""12133""
","""event"",""trial"",""time""
""fullscreenenter"",""1"",""3698""
","
","","","","","","1234.8000000715256","images/straw4.png","","","learning","-6","-6","1","1","straw","fruit","2","0","","good","[4]"
"html-keyboard-response","170","744368","0.0-9.0-2.0-0.49","4003","2","12","Male","approach_avoid_spark_v1","""event"",""trial"",""time""
""fullscreenenter"",""1"",""3698""
""blur"",""2"",""10459""
""focus"",""2"",""12133""
","""event"",""trial"",""time""
""blur"",""2"",""10459""
","""event"",""trial"",""time""
""focus"",""2"",""12133""
","""event"",""trial"",""time""
""fullscreenenter"",""1"",""3698""
","
","","","","","","null","<div style=""font-size:60px;"">+</div>","null","","fixation","","","","","","","","","","",""
"aa-learning-trial","171","747378","0.0-9.0-2.0-1.49","4003","2","12","Male","approach_avoid_spark_v1","""event"",""trial"",""time""
""fullscreenenter"",""1"",""3698""
""blur"",""2"",""10459""
""focus"",""2"",""12133""
","""event"",""trial"",""time""
""blur"",""2"",""10459""
","""event"",""trial"",""time""
""focus"",""2"",""12133""
","""event"",""trial"",""time""
""fullscreenenter"",""1"",""3698""
","
","","","","","","1612","images/straw6.png","","","learning","1","0","0","0","straw","fruit","2","0","","good","[4]"
