"trial_type","trial_index","time_elapsed","internal_node_id","subject_id","task_condition","age","gender","task_version","interactions","blur_events","focus_events","fullscreenenter_events","fullscreenexit_events","success","timeout","failed_images","failed_audio","failed_video","rt","stimulus","response","button_pressed","task_part","approach_reward","points","key_press","option_selected","stim_cat","task_block","block_condition","block_number","correct","cat_type","mean_cat_reward"
"pavlovia","0","4","0.0-0.0","4022","2","14","Female","approach_avoid_spark_v1","""event"",""trial"",""time""
""fullscreenenter"",""1"",""2954""
","
","
","""event"",""trial"",""time""
""fullscreenenter"",""1"",""2954""
","
","","","","","","","","","","","","","","","","","","","","",""
"fullscreen","1","3923","0.0-1.0","4022","2","14","Female","approach_avoid_spark_v1","""event"",""trial"",""time""
""fullscreenenter"",""1"",""2954""
","
","
","""event"",""trial"",""time""
""fullscreenenter"",""1"",""2954""
","
","true","","","","","","","","","","","","","","","","","","","",""
"preload","2","10060","0.0-2.0","4022","2","14","Female","approach_avoid_spark_v1","""event"",""trial"",""time""
""fullscreenenter"",""1"",""2954""
","
","
","""event"",""trial"",""time""
""fullscreenenter"",""1"",""2954""
","
","true","false","[]","[]","[]","","","","","","","","","","","","","","","",""
"audio-keyboard-response","3","13260","0.0-3.0","4022","2","14","Female","approach_avoid_spark_v1","""event"",""trial"",""time""
""fullscreenenter"",""1"",""2954""
","
","
","""event"",""trial"",""time""
""fullscreenenter"",""1"",""2954""
","
","","","","","","0","audio/beep_loop.wav"," ","","","","","","","","","","","","",""
"audio-button-response","4","15310","0.0-4.0","4022","2","14","Female","approach_avoid_spark_v1","""event"",""trial"",""time""
""fullscreenenter"",""1"",""2954""
","
","
","""event"",""trial"",""time""
""fullscreenenter"",""1"",""2954""
","
","","","","","","1949","audio/shark.wav","4","","","","","","","","","","","","",""
"audio-button-response","5","18060","0.0-5.0","4022","2","14","Female","approach_avoid_spark_v1","""event"",""trial"",""time""
""fullscreenenter"",""1"",""2954""
","
","
","""event"",""trial"",""time""
""fullscreenenter"",""1"",""2954""
","
","","","","","","1744","audio/turtle.wav","1","","","","","","","","","","","","",""
"preload","6","21089","0.0-6.0","4022","2","14","Female","approach_avoid_spark_v1","""event"",""trial"",""time""
""fullscreenenter"",""1"",""2954""
","
","
","""event"",""trial"",""time""
""fullscreenenter"",""1"",""2954""
","
","true","false","[]","[]","[]","","","","","","","","","","","","","","","",""
"html-keyboard-response","7","22647","0.0-7.0","4022","2","14","Female","approach_avoid_spark_v1","""event"",""trial"",""time""
""fullscreenenter"",""1"",""2954""
","
","
","""event"",""trial"",""time""
""fullscreenenter"",""1"",""2954""
","
","","","","","","1557","Welcome to the experiment. Press any key to begin and to advance the instructions.","n","","","","","","","","","","","","",""
"learning-instructions","8","30827","0.0-8.0-0.0-0.0","4022","2","14","Female","approach_avoid_spark_v1","""event"",""trial"",""time""
""fullscreenenter"",""1"",""2954""
","
","
","""event"",""trial"",""time""
""fullscreenenter"",""1"",""2954""
","
","","","","","","1222","<p> Welcome! Today you are going to play 6 different rounds of a decision-making game. </p><p> Use the mouse to click next to continue. </p>","","0","instructions","","","","","","","","","","",""
"learning-instructions","9","34561","0.0-8.0-0.0-0.1","4022","2","14","Female","approach_avoid_spark_v1","""event"",""trial"",""time""
""fullscreenenter"",""1"",""2954""
","
","
","""event"",""trial"",""time""
""fullscreenenter"",""1"",""2954""
","
","","","","","","1005","<p> You will start with a practice round to learn the rules. </p>","","0","instructions","","","","","","","","","","",""
"learning-instructions","10","39028","0.0-8.0-0.0-0.2","4022","2","14","Female","approach_avoid_spark_v1","""event"",""trial"",""time""
""fullscreenenter"",""1"",""2954""
","
","
","""event"",""trial"",""time""
""fullscreenenter"",""1"",""2954""
","
","","","","","","1020","<p> Your goal in this round is to give out sports equipment to kids. </p></div>","","0","instructions","","","","","","","","","","",""
"learning-instructions","11","47049","0.0-8.0-0.0-0.3","4022","2","14","Female","approach_avoid_spark_v1","""event"",""trial"",""time""
""fullscreenenter"",""1"",""2954""
","
","
","""event"",""trial"",""time""
""fullscreenenter"",""1"",""2954""
","
","","","","","","476","<p> The kids only like some of the equipment.  </p><p> On each turn, you will see a piece of sports equipment.   </p><p> You need to decide whether to give it to the kids or not.  </p>","","0","instructions","","","","","","","","","","",""
"learning-instructions","12","53131","0.0-8.0-0.0-0.4","4022","2","14","Female","approach_avoid_spark_v1","""event"",""trial"",""time""
""fullscreenenter"",""1"",""2954""
","
","
","""event"",""trial"",""time""
""fullscreenenter"",""1"",""2954""
","
","","","","","","1334","<p> You can give them the equipment by pressing 1 and choose not to give it to them by pressing 0. </p><br><div class=""choice-instructions-grid""> <div class=""choice-option""><img src=""images/approach.png"" class=""choice-option-img"" stage=""instructions"" position=""0"" ><div class=""choice-option-text""> Press ""1."" </div></div><div class=""choice-option""><img src=""images/avoid.png"" class=""choice-option-img"" stage=""instructions"" position=""1"" ><div class=""choice-option-text""> Press ""0."" </div></div>","","0","instructions","","","","","","","","","","",""
"learning-instructions","13","62548","0.0-8.0-0.0-0.5","4022","2","14","Female","approach_avoid_spark_v1","""event"",""trial"",""time""
""fullscreenenter"",""1"",""2954""
","
","
","""event"",""trial"",""time""
""fullscreenenter"",""1"",""2954""
","
","","","","","","2034","<p> If you give them a piece of equipment they like, they will be happy! </p><p> But if you give them a piece of equipment they do not like, they will be sad. </p>","","0","instructions","","","","","","","","","","",""
"learning-instructions","14","74882","0.0-8.0-0.0-0.6","4022","2","14","Female","approach_avoid_spark_v1","""event"",""trial"",""time""
""fullscreenenter"",""1"",""2954""
","
","
","""event"",""trial"",""time""
""fullscreenenter"",""1"",""2954""
","
","","","","","","1829","<p> You will earn points based on how you make kids feel. </p><p> If you make them happy, you will WIN anywhere from 1 - 9 points, </p><p> but if you make them sad, you will LOSE anywhere from 1 - 9 points. </p>","","0","instructions","","","","","","","","","","",""
"learning-instructions","15","86200","0.0-8.0-0.0-0.7","4022","2","14","Female","approach_avoid_spark_v1","""event"",""trial"",""time""
""fullscreenenter"",""1"",""2954""
","
","
","""event"",""trial"",""time""
""fullscreenenter"",""1"",""2954""
","
","","","","","","1766","<p> You will see how many points you won or lost in the center of the screen. </p><p> Here is what you would see if you won 6 points: </p><p style=""color:green;font-size:50px;font-weight:bolder"">6</p><p style=""color:green"">The text is GREEN because you WON points.</p>","","0","instructions","","","","","","","","","","",""
"learning-instructions","16","92551","0.0-8.0-0.0-0.8","4022","2","14","Female","approach_avoid_spark_v1","""event"",""trial"",""time""
""fullscreenenter"",""1"",""2954""
","
","
","""event"",""trial"",""time""
""fullscreenenter"",""1"",""2954""
","
","","","","","","848","<p> And here is what you would see if you lost 4 points: </p><p style=""color:red;font-size:50px;font-weight:bolder"">-4</p><p style=""color:red"">The text is RED because you LOST points. </p>","","0","instructions","","","","","","","","","","",""
"learning-instructions","17","107921","0.0-8.0-0.0-0.9","4022","2","14","Female","approach_avoid_spark_v1","""event"",""trial"",""time""
""fullscreenenter"",""1"",""2954""
","
","
","""event"",""trial"",""time""
""fullscreenenter"",""1"",""2954""
","
","","","","","","662.9999999999854","<p> Some of the equipment will make the kids VERY happy or sad. </p><p> These pieces of equipment will make you win or lose LOTS of points. </p><p> Other pieces of equipment will only make the kids a little happy or sad. </p><p> These pieces of equipment will make you win or lose small amounts of points. </p>","","0","instructions","","","","","","","","","","",""
"learning-instructions","18","119291","0.0-8.0-0.0-0.10","4022","2","14","Female","approach_avoid_spark_v1","""event"",""trial"",""time""
""fullscreenenter"",""1"",""2954""
""blur"",""19"",""131904""
""fullscreenexit"",""19"",""141808""
""focus"",""19"",""141846""
","""event"",""trial"",""time""
""blur"",""19"",""131904""
","""event"",""trial"",""time""
""focus"",""19"",""141846""
","""event"",""trial"",""time""
""fullscreenenter"",""1"",""2954""
","""event"",""trial"",""time""
""fullscreenexit"",""19"",""141808""
","","","","","","747","<p> If you choose not to give them the equipment, you will not win or lose any points. </p><p>  However, in the center of the screen, you will see the number of points you WOULD HAVE won or lost if you had given them the equipment. </p>","","0","instructions","","","","","","","","","","",""
"learning-instructions","19","143724","0.0-8.0-0.0-0.11","4022","2","14","Female","approach_avoid_spark_v1","""event"",""trial"",""time""
""fullscreenenter"",""1"",""2954""
""blur"",""19"",""131904""
""fullscreenexit"",""19"",""141808""
""focus"",""19"",""141846""
","""event"",""trial"",""time""
""blur"",""19"",""131904""
","""event"",""trial"",""time""
""focus"",""19"",""141846""
","""event"",""trial"",""time""
""fullscreenenter"",""1"",""2954""
","""event"",""trial"",""time""
""fullscreenexit"",""19"",""141808""
","","","","","","2906.000000000029","<p> Here is what you might see if you did not give the equipment to the kids but it would have made them happy: </p><p style=""color:grey; font-size:50px; display: inline-block; border-spacing: 15px; border-width:3px; border-style:solid; border-color:red"">  &nbsp; 7 &nbsp; </p><p> Remember, in this case, you would not win or lose ANY points because you did not give them the equipment.  </p><p style=""color:grey"">The text is GREY because you earned ZERO points. </p><p style=""color:red"">However, choosing to give the kids the equipment would have made you win points. The box around the text is RED because you chose the worse option. </p>","","0","instructions","","","","","","","","","","",""
"learning-instructions","20","165545","0.0-8.0-0.0-0.12","4022","2","14","Female","approach_avoid_spark_v1","""event"",""trial"",""time""
""fullscreenenter"",""1"",""2954""
""blur"",""19"",""131904""
""fullscreenexit"",""19"",""141808""
""focus"",""19"",""141846""
","""event"",""trial"",""time""
""blur"",""19"",""131904""
","""event"",""trial"",""time""
""focus"",""19"",""141846""
","""event"",""trial"",""time""
""fullscreenenter"",""1"",""2954""
","""event"",""trial"",""time""
""fullscreenexit"",""19"",""141808""
","","","","","","747","<p> Here is what you might see if you did not give the equipment to the kids but it would have made them sad: </p><p style=""color:grey;font-size:50px; display: inline-block; border-spacing: 15px; border-width:3px; border-style:solid; border-color:green"">  &nbsp; -8 &nbsp; </p><p> Remember, in this case, you would not win or lose ANY points because you did not give them the equipment.  </p><p style=""color:grey"">The text is GREY because you earned ZERO points. </p><p  style=""color:green""> Choosing to give the kids the equipment would have made you lose points. The box around the text is GREEN because you chose the better option.</p>","","0","instructions","","","","","","","","","","",""
"learning-instructions","21","176278","0.0-8.0-0.0-0.13","4022","2","14","Female","approach_avoid_spark_v1","""event"",""trial"",""time""
""fullscreenenter"",""1"",""2954""
""blur"",""19"",""131904""
""fullscreenexit"",""19"",""141808""
""focus"",""19"",""141846""
","""event"",""trial"",""time""
""blur"",""19"",""131904""
","""event"",""trial"",""time""
""focus"",""19"",""141846""
","""event"",""trial"",""time""
""fullscreenenter"",""1"",""2954""
","""event"",""trial"",""time""
""fullscreenexit"",""19"",""141808""
","","","","","","1913","<p> You will have 3 seconds to make each choice. Try to respond before time runs out! </p><p> You will lose 5 points each time you do not make a response. </p>","","0","instructions","","","","","","","","","","",""
"learning-instructions","22","183996","0.0-8.0-0.0-0.14","4022","2","14","Female","approach_avoid_spark_v1","""event"",""trial"",""time""
""fullscreenenter"",""1"",""2954""
""blur"",""19"",""131904""
""fullscreenexit"",""19"",""141808""
""focus"",""19"",""141846""
","""event"",""trial"",""time""
""blur"",""19"",""131904""
","""event"",""trial"",""time""
""focus"",""19"",""141846""
","""event"",""trial"",""time""
""fullscreenenter"",""1"",""2954""
","""event"",""trial"",""time""
""fullscreenexit"",""19"",""141808""
","","","","","","2308","<p> This is just a practice round, but in the real game, your bonus payment will depend on your total number of points.","","0","instructions","","","","","","","","","","",""
"learning-instructions","23","190880","0.0-8.0-0.0-0.15","4022","2","14","Female","approach_avoid_spark_v1","""event"",""trial"",""time""
""fullscreenenter"",""1"",""2954""
""blur"",""19"",""131904""
""fullscreenexit"",""19"",""141808""
""focus"",""19"",""141846""
","""event"",""trial"",""time""
""blur"",""19"",""131904""
","""event"",""trial"",""time""
""focus"",""19"",""141846""
","""event"",""trial"",""time""
""fullscreenenter"",""1"",""2954""
","""event"",""trial"",""time""
""fullscreenexit"",""19"",""141808""
","","","","","","1126","<p> Remember, you can give them the equipment by pressing 1 and choose not to give it to them by pressing 0. </p><br><div class=""choice-instructions-grid""> <div class=""choice-option""><img src=""images/approach.png"" class=""choice-option-img"" stage=""instructions"" position=""0"" ><div class=""choice-option-text""> Press ""1."" </div></div><div class=""choice-option""><img src=""images/avoid.png"" class=""choice-option-img"" stage=""instructions"" position=""1"" ><div class=""choice-option-text""> Press ""0."" </div></div>","","0","instructions","","","","","","","","","","",""
"html-button-response","24","192180","0.0-8.0-1.0","4022","2","14","Female","approach_avoid_spark_v1","""event"",""trial"",""time""
""fullscreenenter"",""1"",""2954""
""blur"",""19"",""131904""
""fullscreenexit"",""19"",""141808""
""focus"",""19"",""141846""
","""event"",""trial"",""time""
""blur"",""19"",""131904""
","""event"",""trial"",""time""
""focus"",""19"",""141846""
","""event"",""trial"",""time""
""fullscreenenter"",""1"",""2954""
","""event"",""trial"",""time""
""fullscreenexit"",""19"",""141808""
","","","","","","1196","<p> Ready to practice? </p>","0","","","","","","","","","","","","",""
"html-keyboard-response","25","192784","0.0-8.0-2.0-0.0","4022","2","14","Female","approach_avoid_spark_v1","""event"",""trial"",""time""
""fullscreenenter"",""1"",""2954""
""blur"",""19"",""131904""
""fullscreenexit"",""19"",""141808""
""focus"",""19"",""141846""
","""event"",""trial"",""time""
""blur"",""19"",""131904""
","""event"",""trial"",""time""
""focus"",""19"",""141846""
","""event"",""trial"",""time""
""fullscreenenter"",""1"",""2954""
","""event"",""trial"",""time""
""fullscreenexit"",""19"",""141808""
","","","","","","null","<div style=""font-size:60px;"">+</div>","null","","fixation","","","","","","","","","","",""
"aa-learning-trial","26","195787","0.0-8.0-2.0-1.0","4022","2","14","Female","approach_avoid_spark_v1","""event"",""trial"",""time""
""fullscreenenter"",""1"",""2954""
""blur"",""19"",""131904""
""fullscreenexit"",""19"",""141808""
""focus"",""19"",""141846""
","""event"",""trial"",""time""
""blur"",""19"",""131904""
","""event"",""trial"",""time""
""focus"",""19"",""141846""
","""event"",""trial"",""time""
""fullscreenenter"",""1"",""2954""
","""event"",""trial"",""time""
""fullscreenexit"",""19"",""141808""
","","","","","","1179","images/ball2.png","","","learning","1","1","1","1","practice","practice","practice","-1","","",""
"html-keyboard-response","27","196289","0.0-8.0-2.0-0.1","4022","2","14","Female","approach_avoid_spark_v1","""event"",""trial"",""time""
""fullscreenenter"",""1"",""2954""
""blur"",""19"",""131904""
""fullscreenexit"",""19"",""141808""
""focus"",""19"",""141846""
","""event"",""trial"",""time""
""blur"",""19"",""131904""
","""event"",""trial"",""time""
""focus"",""19"",""141846""
","""event"",""trial"",""time""
""fullscreenenter"",""1"",""2954""
","""event"",""trial"",""time""
""fullscreenexit"",""19"",""141808""
","","","","","","null","<div style=""font-size:60px;"">+</div>","null","","fixation","","","","","","","","","","",""
"aa-learning-trial","28","199293","0.0-8.0-2.0-1.1","4022","2","14","Female","approach_avoid_spark_v1","""event"",""trial"",""time""
""fullscreenenter"",""1"",""2954""
""blur"",""19"",""131904""
""fullscreenexit"",""19"",""141808""
""focus"",""19"",""141846""
","""event"",""trial"",""time""
""blur"",""19"",""131904""
","""event"",""trial"",""time""
""focus"",""19"",""141846""
","""event"",""trial"",""time""
""fullscreenenter"",""1"",""2954""
","""event"",""trial"",""time""
""fullscreenexit"",""19"",""141808""
","","","","","","1216","images/racket2.png","","","learning","-4","0","0","0","practice","practice","practice","-1","","",""
"html-keyboard-response","29","199795","0.0-8.0-2.0-0.2","4022","2","14","Female","approach_avoid_spark_v1","""event"",""trial"",""time""
""fullscreenenter"",""1"",""2954""
""blur"",""19"",""131904""
""fullscreenexit"",""19"",""141808""
""focus"",""19"",""141846""
","""event"",""trial"",""time""
""blur"",""19"",""131904""
","""event"",""trial"",""time""
""focus"",""19"",""141846""
","""event"",""trial"",""time""
""fullscreenenter"",""1"",""2954""
","""event"",""trial"",""time""
""fullscreenexit"",""19"",""141808""
","","","","","","null","<div style=""font-size:60px;"">+</div>","null","","fixation","","","","","","","","","","",""
"aa-learning-trial","30","202799","0.0-8.0-2.0-1.2","4022","2","14","Female","approach_avoid_spark_v1","""event"",""trial"",""time""
""fullscreenenter"",""1"",""2954""
""blur"",""19"",""131904""
""fullscreenexit"",""19"",""141808""
""focus"",""19"",""141846""
","""event"",""trial"",""time""
""blur"",""19"",""131904""
","""event"",""trial"",""time""
""focus"",""19"",""141846""
","""event"",""trial"",""time""
""fullscreenenter"",""1"",""2954""
","""event"",""trial"",""time""
""fullscreenexit"",""19"",""141808""
","","","","","","965","images/racket3.png","","","learning","-8","-8","1","1","practice","practice","practice","-1","","",""
"html-keyboard-response","31","203301","0.0-8.0-2.0-0.3","4022","2","14","Female","approach_avoid_spark_v1","""event"",""trial"",""time""
""fullscreenenter"",""1"",""2954""
""blur"",""19"",""131904""
""fullscreenexit"",""19"",""141808""
""focus"",""19"",""141846""
","""event"",""trial"",""time""
""blur"",""19"",""131904""
","""event"",""trial"",""time""
""focus"",""19"",""141846""
","""event"",""trial"",""time""
""fullscreenenter"",""1"",""2954""
","""event"",""trial"",""time""
""fullscreenexit"",""19"",""141808""
","","","","","","null","<div style=""font-size:60px;"">+</div>","null","","fixation","","","","","","","","","","",""
"aa-learning-trial","32","206304","0.0-8.0-2.0-1.3","4022","2","14","Female","approach_avoid_spark_v1","""event"",""trial"",""time""
""fullscreenenter"",""1"",""2954""
""blur"",""19"",""131904""
""fullscreenexit"",""19"",""141808""
""focus"",""19"",""141846""
","""event"",""trial"",""time""
""blur"",""19"",""131904""
","""event"",""trial"",""time""
""focus"",""19"",""141846""
","""event"",""trial"",""time""
""fullscreenenter"",""1"",""2954""
","""event"",""trial"",""time""
""fullscreenexit"",""19"",""141808""
","","","","","","1264","images/racket3.png","","","learning","5","0","0","0","practice","practice","practice","-1","","",""
"html-keyboard-response","33","206806","0.0-8.0-2.0-0.4","4022","2","14","Female","approach_avoid_spark_v1","""event"",""trial"",""time""
""fullscreenenter"",""1"",""2954""
""blur"",""19"",""131904""
""fullscreenexit"",""19"",""141808""
""focus"",""19"",""141846""
","""event"",""trial"",""time""
""blur"",""19"",""131904""
","""event"",""trial"",""time""
""focus"",""19"",""141846""
","""event"",""trial"",""time""
""fullscreenenter"",""1"",""2954""
","""event"",""trial"",""time""
""fullscreenexit"",""19"",""141808""
","","","","","","null","<div style=""font-size:60px;"">+</div>","null","","fixation","","","","","","","","","","",""
"aa-learning-trial","34","209810","0.0-8.0-2.0-1.4","4022","2","14","Female","approach_avoid_spark_v1","""event"",""trial"",""time""
""fullscreenenter"",""1"",""2954""
""blur"",""19"",""131904""
""fullscreenexit"",""19"",""141808""
""focus"",""19"",""141846""
","""event"",""trial"",""time""
""blur"",""19"",""131904""
","""event"",""trial"",""time""
""focus"",""19"",""141846""
","""event"",""trial"",""time""
""fullscreenenter"",""1"",""2954""
","""event"",""trial"",""time""
""fullscreenexit"",""19"",""141808""
","","","","","","938.0000000000291","images/racket3.png","","","learning","2","0","0","0","practice","practice","practice","-1","","",""
"html-keyboard-response","35","210313","0.0-8.0-2.0-0.5","4022","2","14","Female","approach_avoid_spark_v1","""event"",""trial"",""time""
""fullscreenenter"",""1"",""2954""
""blur"",""19"",""131904""
""fullscreenexit"",""19"",""141808""
""focus"",""19"",""141846""
","""event"",""trial"",""time""
""blur"",""19"",""131904""
","""event"",""trial"",""time""
""focus"",""19"",""141846""
","""event"",""trial"",""time""
""fullscreenenter"",""1"",""2954""
","""event"",""trial"",""time""
""fullscreenexit"",""19"",""141808""
","","","","","","null","<div style=""font-size:60px;"">+</div>","null","","fixation","","","","","","","","","","",""
"aa-learning-trial","36","213316","0.0-8.0-2.0-1.5","4022","2","14","Female","approach_avoid_spark_v1","""event"",""trial"",""time""
""fullscreenenter"",""1"",""2954""
""blur"",""19"",""131904""
""fullscreenexit"",""19"",""141808""
""focus"",""19"",""141846""
","""event"",""trial"",""time""
""blur"",""19"",""131904""
","""event"",""trial"",""time""
""focus"",""19"",""141846""
","""event"",""trial"",""time""
""fullscreenenter"",""1"",""2954""
","""event"",""trial"",""time""
""fullscreenexit"",""19"",""141808""
","","","","","","861","images/ball4.png","","","learning","8","8","1","1","practice","practice","practice","-1","","",""
"html-keyboard-response","37","213819","0.0-8.0-2.0-0.6","4022","2","14","Female","approach_avoid_spark_v1","""event"",""trial"",""time""
""fullscreenenter"",""1"",""2954""
""blur"",""19"",""131904""
""fullscreenexit"",""19"",""141808""
""focus"",""19"",""141846""
","""event"",""trial"",""time""
""blur"",""19"",""131904""
","""event"",""trial"",""time""
""focus"",""19"",""141846""
","""event"",""trial"",""time""
""fullscreenenter"",""1"",""2954""
","""event"",""trial"",""time""
""fullscreenexit"",""19"",""141808""
","","","","","","null","<div style=""font-size:60px;"">+</div>","null","","fixation","","","","","","","","","","",""
"aa-learning-trial","38","216821","0.0-8.0-2.0-1.6","4022","2","14","Female","approach_avoid_spark_v1","""event"",""trial"",""time""
""fullscreenenter"",""1"",""2954""
""blur"",""19"",""131904""
""fullscreenexit"",""19"",""141808""
""focus"",""19"",""141846""
","""event"",""trial"",""time""
""blur"",""19"",""131904""
","""event"",""trial"",""time""
""focus"",""19"",""141846""
","""event"",""trial"",""time""
""fullscreenenter"",""1"",""2954""
","""event"",""trial"",""time""
""fullscreenexit"",""19"",""141808""
","","","","","","915","images/racket4.png","","","learning","-7","0","0","0","practice","practice","practice","-1","","",""
"html-keyboard-response","39","217324","0.0-8.0-2.0-0.7","4022","2","14","Female","approach_avoid_spark_v1","""event"",""trial"",""time""
""fullscreenenter"",""1"",""2954""
""blur"",""19"",""131904""
""fullscreenexit"",""19"",""141808""
""focus"",""19"",""141846""
","""event"",""trial"",""time""
""blur"",""19"",""131904""
","""event"",""trial"",""time""
""focus"",""19"",""141846""
","""event"",""trial"",""time""
""fullscreenenter"",""1"",""2954""
","""event"",""trial"",""time""
""fullscreenexit"",""19"",""141808""
","","","","","","null","<div style=""font-size:60px;"">+</div>","null","","fixation","","","","","","","","","","",""
"aa-learning-trial","40","220327","0.0-8.0-2.0-1.7","4022","2","14","Female","approach_avoid_spark_v1","""event"",""trial"",""time""
""fullscreenenter"",""1"",""2954""
""blur"",""19"",""131904""
""fullscreenexit"",""19"",""141808""
""focus"",""19"",""141846""
","""event"",""trial"",""time""
""blur"",""19"",""131904""
","""event"",""trial"",""time""
""focus"",""19"",""141846""
","""event"",""trial"",""time""
""fullscreenenter"",""1"",""2954""
","""event"",""trial"",""time""
""fullscreenexit"",""19"",""141808""
","","","","","","847","images/ball3.png","","","learning","3","3","1","1","practice","practice","practice","-1","","",""
"html-keyboard-response","41","220828","0.0-8.0-2.0-0.8","4022","2","14","Female","approach_avoid_spark_v1","""event"",""trial"",""time""
""fullscreenenter"",""1"",""2954""
""blur"",""19"",""131904""
""fullscreenexit"",""19"",""141808""
""focus"",""19"",""141846""
","""event"",""trial"",""time""
""blur"",""19"",""131904""
","""event"",""trial"",""time""
""focus"",""19"",""141846""
","""event"",""trial"",""time""
""fullscreenenter"",""1"",""2954""
","""event"",""trial"",""time""
""fullscreenexit"",""19"",""141808""
","","","","","","null","<div style=""font-size:60px;"">+</div>","null","","fixation","","","","","","","","","","",""
"aa-learning-trial","42","223831","0.0-8.0-2.0-1.8","4022","2","14","Female","approach_avoid_spark_v1","""event"",""trial"",""time""
""fullscreenenter"",""1"",""2954""
""blur"",""19"",""131904""
""fullscreenexit"",""19"",""141808""
""focus"",""19"",""141846""
","""event"",""trial"",""time""
""blur"",""19"",""131904""
","""event"",""trial"",""time""
""focus"",""19"",""141846""
","""event"",""trial"",""time""
""fullscreenenter"",""1"",""2954""
","""event"",""trial"",""time""
""fullscreenexit"",""19"",""141808""
","","","","","","816","images/ball1.png","","","learning","2","2","1","1","practice","practice","practice","-1","","",""
"html-keyboard-response","43","224334","0.0-8.0-2.0-0.9","4022","2","14","Female","approach_avoid_spark_v1","""event"",""trial"",""time""
""fullscreenenter"",""1"",""2954""
""blur"",""19"",""131904""
""fullscreenexit"",""19"",""141808""
""focus"",""19"",""141846""
","""event"",""trial"",""time""
""blur"",""19"",""131904""
","""event"",""trial"",""time""
""focus"",""19"",""141846""
","""event"",""trial"",""time""
""fullscreenenter"",""1"",""2954""
","""event"",""trial"",""time""
""fullscreenexit"",""19"",""141808""
","","","","","","null","<div style=""font-size:60px;"">+</div>","null","","fixation","","","","","","","","","","",""
"aa-learning-trial","44","227338","0.0-8.0-2.0-1.9","4022","2","14","Female","approach_avoid_spark_v1","""event"",""trial"",""time""
""fullscreenenter"",""1"",""2954""
""blur"",""19"",""131904""
""fullscreenexit"",""19"",""141808""
""focus"",""19"",""141846""
","""event"",""trial"",""time""
""blur"",""19"",""131904""
","""event"",""trial"",""time""
""focus"",""19"",""141846""
","""event"",""trial"",""time""
""fullscreenenter"",""1"",""2954""
","""event"",""trial"",""time""
""fullscreenexit"",""19"",""141808""
","","","","","","629","images/ball2.png","","","learning","-5","-5","1","1","practice","practice","practice","-1","","",""
"html-keyboard-response","45","227840","0.0-8.0-2.0-0.10","4022","2","14","Female","approach_avoid_spark_v1","""event"",""trial"",""time""
""fullscreenenter"",""1"",""2954""
""blur"",""19"",""131904""
""fullscreenexit"",""19"",""141808""
""focus"",""19"",""141846""
","""event"",""trial"",""time""
""blur"",""19"",""131904""
","""event"",""trial"",""time""
""focus"",""19"",""141846""
","""event"",""trial"",""time""
""fullscreenenter"",""1"",""2954""
","""event"",""trial"",""time""
""fullscreenexit"",""19"",""141808""
","","","","","","null","<div style=""font-size:60px;"">+</div>","null","","fixation","","","","","","","","","","",""
"aa-learning-trial","46","230844","0.0-8.0-2.0-1.10","4022","2","14","Female","approach_avoid_spark_v1","""event"",""trial"",""time""
""fullscreenenter"",""1"",""2954""
""blur"",""19"",""131904""
""fullscreenexit"",""19"",""141808""
""focus"",""19"",""141846""
","""event"",""trial"",""time""
""blur"",""19"",""131904""
","""event"",""trial"",""time""
""focus"",""19"",""141846""
","""event"",""trial"",""time""
""fullscreenenter"",""1"",""2954""
","""event"",""trial"",""time""
""fullscreenexit"",""19"",""141808""
","","","","","","1264","images/ball3.png","","","learning","8","0","0","0","practice","practice","practice","-1","","",""
"html-keyboard-response","47","231346","0.0-8.0-2.0-0.11","4022","2","14","Female","approach_avoid_spark_v1","""event"",""trial"",""time""
""fullscreenenter"",""1"",""2954""
""blur"",""19"",""131904""
""fullscreenexit"",""19"",""141808""
""focus"",""19"",""141846""
","""event"",""trial"",""time""
""blur"",""19"",""131904""
","""event"",""trial"",""time""
""focus"",""19"",""141846""
","""event"",""trial"",""time""
""fullscreenenter"",""1"",""2954""
","""event"",""trial"",""time""
""fullscreenexit"",""19"",""141808""
","","","","","","null","<div style=""font-size:60px;"">+</div>","null","","fixation","","","","","","","","","","",""
"aa-learning-trial","48","234349","0.0-8.0-2.0-1.11","4022","2","14","Female","approach_avoid_spark_v1","""event"",""trial"",""time""
""fullscreenenter"",""1"",""2954""
""blur"",""19"",""131904""
""fullscreenexit"",""19"",""141808""
""focus"",""19"",""141846""
","""event"",""trial"",""time""
""blur"",""19"",""131904""
","""event"",""trial"",""time""
""focus"",""19"",""141846""
","""event"",""trial"",""time""
""fullscreenenter"",""1"",""2954""
","""event"",""trial"",""time""
""fullscreenexit"",""19"",""141808""
","","","","","","972","images/ball2.png","","","learning","3","3","1","1","practice","practice","practice","-1","","",""
"html-button-response","49","236352","0.0-8.0-3.0","4022","2","14","Female","approach_avoid_spark_v1","""event"",""trial"",""time""
""fullscreenenter"",""1"",""2954""
""blur"",""19"",""131904""
""fullscreenexit"",""19"",""141808""
""focus"",""19"",""141846""
","""event"",""trial"",""time""
""blur"",""19"",""131904""
","""event"",""trial"",""time""
""focus"",""19"",""141846""
","""event"",""trial"",""time""
""fullscreenenter"",""1"",""2954""
","""event"",""trial"",""time""
""fullscreenexit"",""19"",""141808""
","","","","","","1997.999999999971","<p> You earned 4 points in the practice round! </p>","0","","break","","","","","","","","","","",""
"learning-instructions","50","244654","0.0-8.0-4.0-0.0","4022","2","14","Female","approach_avoid_spark_v1","""event"",""trial"",""time""
""fullscreenenter"",""1"",""2954""
""blur"",""19"",""131904""
""fullscreenexit"",""19"",""141808""
""focus"",""19"",""141846""
","""event"",""trial"",""time""
""blur"",""19"",""131904""
","""event"",""trial"",""time""
""focus"",""19"",""141846""
","""event"",""trial"",""time""
""fullscreenenter"",""1"",""2954""
","""event"",""trial"",""time""
""fullscreenexit"",""19"",""141808""
","","","","","","2341.999999999971","<p> It's almost time to start the real game. </p><p> Before you start, we're going to ask you a few questions about how the game works. </p>","","0","instructions","","","","","","","","","","",""
"preload","51","245857","0.0-8.0-5.0","4022","2","14","Female","approach_avoid_spark_v1","""event"",""trial"",""time""
""fullscreenenter"",""1"",""2954""
""blur"",""19"",""131904""
""fullscreenexit"",""19"",""141808""
""focus"",""19"",""141846""
","""event"",""trial"",""time""
""blur"",""19"",""131904""
","""event"",""trial"",""time""
""focus"",""19"",""141846""
","""event"",""trial"",""time""
""fullscreenenter"",""1"",""2954""
","""event"",""trial"",""time""
""fullscreenexit"",""19"",""141808""
","true","false","[]","[]","[]","","","","","","","","","","","","","","","",""
"comp-q","52","251808","0.0-8.0-6.0-0.0","4022","2","14","Female","approach_avoid_spark_v1","""event"",""trial"",""time""
""fullscreenenter"",""1"",""2954""
""blur"",""19"",""131904""
""fullscreenexit"",""19"",""141808""
""focus"",""19"",""141846""
","""event"",""trial"",""time""
""blur"",""19"",""131904""
","""event"",""trial"",""time""
""focus"",""19"",""141846""
","""event"",""trial"",""time""
""fullscreenenter"",""1"",""2954""
","""event"",""trial"",""time""
""fullscreenexit"",""19"",""141808""
","","","","","","954.9999999999709","<p> <b> True or False? </b> </p><p> If you see a number in GREY, that means you earned that many points. </p>","","1","comp_question","","","","","","","","","true","",""
"comp-q","53","261025","0.0-8.0-6.0-1.0","4022","2","14","Female","approach_avoid_spark_v1","""event"",""trial"",""time""
""fullscreenenter"",""1"",""2954""
""blur"",""19"",""131904""
""fullscreenexit"",""19"",""141808""
""focus"",""19"",""141846""
","""event"",""trial"",""time""
""blur"",""19"",""131904""
","""event"",""trial"",""time""
""focus"",""19"",""141846""
","""event"",""trial"",""time""
""fullscreenenter"",""1"",""2954""
","""event"",""trial"",""time""
""fullscreenexit"",""19"",""141808""
","","","","","","857","<p><b> That's right! </b> If you see a grey number, it means you earned ZERO points. <br> The grey numbers show the points you WOULD HAVE earned if you had made the other choice. </p>","","0","comp_answer","","","","","","","","","","",""
"comp-q","54","266391","0.0-8.0-7.0-0.0","4022","2","14","Female","approach_avoid_spark_v1","""event"",""trial"",""time""
""fullscreenenter"",""1"",""2954""
""blur"",""19"",""131904""
""fullscreenexit"",""19"",""141808""
""focus"",""19"",""141846""
","""event"",""trial"",""time""
""blur"",""19"",""131904""
","""event"",""trial"",""time""
""focus"",""19"",""141846""
","""event"",""trial"",""time""
""fullscreenenter"",""1"",""2954""
","""event"",""trial"",""time""
""fullscreenexit"",""19"",""141808""
","","","","","","677","<p> <b> True or False? </b> </p><p> You will have as much time as you want to make each choice. </p>","","1","comp_question","","","","","","","","","true","",""
"comp-q","55","271589","0.0-8.0-7.0-1.0","4022","2","14","Female","approach_avoid_spark_v1","""event"",""trial"",""time""
""fullscreenenter"",""1"",""2954""
""blur"",""19"",""131904""
""fullscreenexit"",""19"",""141808""
""focus"",""19"",""141846""
","""event"",""trial"",""time""
""blur"",""19"",""131904""
","""event"",""trial"",""time""
""focus"",""19"",""141846""
","""event"",""trial"",""time""
""fullscreenenter"",""1"",""2954""
","""event"",""trial"",""time""
""fullscreenexit"",""19"",""141808""
","","","","","","1161","<p> <b> That's right! </b> You will only have 3 seconds to make each choice. </p>","","0","comp_answer","","","","","","","","","","",""
"comp-q","56","276940","0.0-8.0-8.0-0.0","4022","2","14","Female","approach_avoid_spark_v1","""event"",""trial"",""time""
""fullscreenenter"",""1"",""2954""
""blur"",""19"",""131904""
""fullscreenexit"",""19"",""141808""
""focus"",""19"",""141846""
","""event"",""trial"",""time""
""blur"",""19"",""131904""
","""event"",""trial"",""time""
""focus"",""19"",""141846""
","""event"",""trial"",""time""
""fullscreenenter"",""1"",""2954""
","""event"",""trial"",""time""
""fullscreenexit"",""19"",""141808""
","","","","","","696","<p> <b> True or False? </b> </p><p> You should use the '1' and '0' keys to make your choices. </p>","","0","comp_question","","","","","","","","","true","",""
"comp-q","57","282357","0.0-8.0-8.0-1.0","4022","2","14","Female","approach_avoid_spark_v1","""event"",""trial"",""time""
""fullscreenenter"",""1"",""2954""
""blur"",""19"",""131904""
""fullscreenexit"",""19"",""141808""
""focus"",""19"",""141846""
""blur"",""58"",""283477""
""focus"",""58"",""289845""
","""event"",""trial"",""time""
""blur"",""19"",""131904""
""blur"",""58"",""283477""
","""event"",""trial"",""time""
""focus"",""19"",""141846""
""focus"",""58"",""289845""
","""event"",""trial"",""time""
""fullscreenenter"",""1"",""2954""
","""event"",""trial"",""time""
""fullscreenexit"",""19"",""141808""
","","","","","","809","<p> <b> That's right! </b> You should use the '1' and '0' keys to make each choice. </p>","","0","comp_answer","","","","","","","","","","",""
"learning-instructions","58","292359","0.0-8.0-9.0-0.0","4022","2","14","Female","approach_avoid_spark_v1","""event"",""trial"",""time""
""fullscreenenter"",""1"",""2954""
""blur"",""19"",""131904""
""fullscreenexit"",""19"",""141808""
""focus"",""19"",""141846""
""blur"",""58"",""283477""
""focus"",""58"",""289845""
","""event"",""trial"",""time""
""blur"",""19"",""131904""
""blur"",""58"",""283477""
","""event"",""trial"",""time""
""focus"",""19"",""141846""
""focus"",""58"",""289845""
","""event"",""trial"",""time""
""fullscreenenter"",""1"",""2954""
","""event"",""trial"",""time""
""fullscreenexit"",""19"",""141808""
","","","","","","3733","<p> It's now time to start the real game. </p>Do your best, because the points you earn in the next rounds will influence your bonus payment. </p>","","0","instructions","","","","","","","","","","",""
"preload","59","292468","0.0-9.0-0.0","4022","2","14","Female","approach_avoid_spark_v1","""event"",""trial"",""time""
""fullscreenenter"",""1"",""2954""
""blur"",""19"",""131904""
""fullscreenexit"",""19"",""141808""
""focus"",""19"",""141846""
""blur"",""58"",""283477""
""focus"",""58"",""289845""
","""event"",""trial"",""time""
""blur"",""19"",""131904""
""blur"",""58"",""283477""
","""event"",""trial"",""time""
""focus"",""19"",""141846""
""focus"",""58"",""289845""
","""event"",""trial"",""time""
""fullscreenenter"",""1"",""2954""
","""event"",""trial"",""time""
""fullscreenexit"",""19"",""141808""
","true","false","[]","[]","[]","","","","","","","","","","","","","","","",""
"learning-instructions","60","296459","0.0-9.0-1.0-0.0","4022","2","14","Female","approach_avoid_spark_v1","""event"",""trial"",""time""
""fullscreenenter"",""1"",""2954""
""blur"",""19"",""131904""
""fullscreenexit"",""19"",""141808""
""focus"",""19"",""141846""
""blur"",""58"",""283477""
""focus"",""58"",""289845""
","""event"",""trial"",""time""
""blur"",""19"",""131904""
""blur"",""58"",""283477""
","""event"",""trial"",""time""
""focus"",""19"",""141846""
""focus"",""58"",""289845""
","""event"",""trial"",""time""
""fullscreenenter"",""1"",""2954""
","""event"",""trial"",""time""
""fullscreenexit"",""19"",""141808""
","","","","","","924","<p> Your goal in this round is to eat tasty fruit. </p></div>","","0","instructions","","","","","","","","","","",""
"learning-instructions","61","306927","0.0-9.0-1.0-0.1","4022","2","14","Female","approach_avoid_spark_v1","""event"",""trial"",""time""
""fullscreenenter"",""1"",""2954""
""blur"",""19"",""131904""
""fullscreenexit"",""19"",""141808""
""focus"",""19"",""141846""
""blur"",""58"",""283477""
""focus"",""58"",""289845""
","""event"",""trial"",""time""
""blur"",""19"",""131904""
""blur"",""58"",""283477""
","""event"",""trial"",""time""
""focus"",""19"",""141846""
""focus"",""58"",""289845""
","""event"",""trial"",""time""
""fullscreenenter"",""1"",""2954""
","""event"",""trial"",""time""
""fullscreenexit"",""19"",""141808""
","","","","","","1119","<p> Some of the fruits you will see are tasty. Others are rotten on the inside.  </p><p> On each turn, you will see a fruit.   </p><p> You need to decide whether to eat it or not.  </p>","","0","instructions","","","","","","","","","","",""
"learning-instructions","62","312327","0.0-9.0-1.0-0.2","4022","2","14","Female","approach_avoid_spark_v1","""event"",""trial"",""time""
""fullscreenenter"",""1"",""2954""
""blur"",""19"",""131904""
""fullscreenexit"",""19"",""141808""
""focus"",""19"",""141846""
""blur"",""58"",""283477""
""focus"",""58"",""289845""
","""event"",""trial"",""time""
""blur"",""19"",""131904""
""blur"",""58"",""283477""
","""event"",""trial"",""time""
""focus"",""19"",""141846""
""focus"",""58"",""289845""
","""event"",""trial"",""time""
""fullscreenenter"",""1"",""2954""
","""event"",""trial"",""time""
""fullscreenexit"",""19"",""141808""
","","","","","","759","<p> You can eat the fruit by pressing 1 and choose not to eat it by pressing 0. </p><br><div class=""choice-instructions-grid""> <div class=""choice-option""><img src=""images/approach.png"" class=""choice-option-img"" stage=""instructions"" position=""0"" ><div class=""choice-option-text""> Press ""1."" </div></div><div class=""choice-option""><img src=""images/avoid.png"" class=""choice-option-img"" stage=""instructions"" position=""1"" ><div class=""choice-option-text""> Press ""0."" </div></div>","","0","instructions","","","","","","","","","","",""
"learning-instructions","63","320162","0.0-9.0-1.0-0.3","4022","2","14","Female","approach_avoid_spark_v1","""event"",""trial"",""time""
""fullscreenenter"",""1"",""2954""
""blur"",""19"",""131904""
""fullscreenexit"",""19"",""141808""
""focus"",""19"",""141846""
""blur"",""58"",""283477""
""focus"",""58"",""289845""
","""event"",""trial"",""time""
""blur"",""19"",""131904""
""blur"",""58"",""283477""
","""event"",""trial"",""time""
""focus"",""19"",""141846""
""focus"",""58"",""289845""
","""event"",""trial"",""time""
""fullscreenenter"",""1"",""2954""
","""event"",""trial"",""time""
""fullscreenexit"",""19"",""141808""
","","","","","","789","<p> If you eat the fruit and it was tasty, you will win points! </p><p> But if you eat the fruit and it was rotten, you will lose points. </p>","","0","instructions","","","","","","","","","","",""
"learning-instructions","64","331629","0.0-9.0-1.0-0.4","4022","2","14","Female","approach_avoid_spark_v1","""event"",""trial"",""time""
""fullscreenenter"",""1"",""2954""
""blur"",""19"",""131904""
""fullscreenexit"",""19"",""141808""
""focus"",""19"",""141846""
""blur"",""58"",""283477""
""focus"",""58"",""289845""
","""event"",""trial"",""time""
""blur"",""19"",""131904""
""blur"",""58"",""283477""
","""event"",""trial"",""time""
""focus"",""19"",""141846""
""focus"",""58"",""289845""
","""event"",""trial"",""time""
""fullscreenenter"",""1"",""2954""
","""event"",""trial"",""time""
""fullscreenexit"",""19"",""141808""
","","","","","","553","<p> You will earn points based on how tasty or rotten the fruit was. </p><p> If it was tasty, you will WIN anywhere from 1 - 9 points, </p><p> but if it was rotten, you will LOSE anywhere from 1 - 9 points. </p>","","0","instructions","","","","","","","","","","",""
"learning-instructions","65","339598","0.0-9.0-1.0-0.5","4022","2","14","Female","approach_avoid_spark_v1","""event"",""trial"",""time""
""fullscreenenter"",""1"",""2954""
""blur"",""19"",""131904""
""fullscreenexit"",""19"",""141808""
""focus"",""19"",""141846""
""blur"",""58"",""283477""
""focus"",""58"",""289845""
","""event"",""trial"",""time""
""blur"",""19"",""131904""
""blur"",""58"",""283477""
","""event"",""trial"",""time""
""focus"",""19"",""141846""
""focus"",""58"",""289845""
","""event"",""trial"",""time""
""fullscreenenter"",""1"",""2954""
","""event"",""trial"",""time""
""fullscreenexit"",""19"",""141808""
","","","","","","713","<p> You will see how many points you won or lost in the center of the screen. </p><p> Here is what you would see if you earned 5 points: </p><p style=""color:green;font-size:50px;font-weight:bolder"">5</p>","","0","instructions","","","","","","","","","","",""
"learning-instructions","66","344032","0.0-9.0-1.0-0.6","4022","2","14","Female","approach_avoid_spark_v1","""event"",""trial"",""time""
""fullscreenenter"",""1"",""2954""
""blur"",""19"",""131904""
""fullscreenexit"",""19"",""141808""
""focus"",""19"",""141846""
""blur"",""58"",""283477""
""focus"",""58"",""289845""
","""event"",""trial"",""time""
""blur"",""19"",""131904""
""blur"",""58"",""283477""
","""event"",""trial"",""time""
""focus"",""19"",""141846""
""focus"",""58"",""289845""
","""event"",""trial"",""time""
""fullscreenenter"",""1"",""2954""
","""event"",""trial"",""time""
""fullscreenexit"",""19"",""141808""
","","","","","","381","<p> And here is what you would see if you lost 3 points: </p><p style=""color:red;font-size:50px;font-weight:bolder"">-3</p>","","0","instructions","","","","","","","","","","",""
"learning-instructions","67","358383","0.0-9.0-1.0-0.7","4022","2","14","Female","approach_avoid_spark_v1","""event"",""trial"",""time""
""fullscreenenter"",""1"",""2954""
""blur"",""19"",""131904""
""fullscreenexit"",""19"",""141808""
""focus"",""19"",""141846""
""blur"",""58"",""283477""
""focus"",""58"",""289845""
","""event"",""trial"",""time""
""blur"",""19"",""131904""
""blur"",""58"",""283477""
","""event"",""trial"",""time""
""focus"",""19"",""141846""
""focus"",""58"",""289845""
","""event"",""trial"",""time""
""fullscreenenter"",""1"",""2954""
","""event"",""trial"",""time""
""fullscreenexit"",""19"",""141808""
","","","","","","998","<p> Some fruit is very tasty or very rotten. </p><p> These fruits will make you win or lose LOTS of points. </p><p> Other fruits are only kind of tasty or kind of rotten. </p><p> These fruits will make you win or lose small amounts of points. </p>","","0","instructions","","","","","","","","","","",""
"learning-instructions","68","368951","0.0-9.0-1.0-0.8","4022","2","14","Female","approach_avoid_spark_v1","""event"",""trial"",""time""
""fullscreenenter"",""1"",""2954""
""blur"",""19"",""131904""
""fullscreenexit"",""19"",""141808""
""focus"",""19"",""141846""
""blur"",""58"",""283477""
""focus"",""58"",""289845""
","""event"",""trial"",""time""
""blur"",""19"",""131904""
""blur"",""58"",""283477""
","""event"",""trial"",""time""
""focus"",""19"",""141846""
""focus"",""58"",""289845""
","""event"",""trial"",""time""
""fullscreenenter"",""1"",""2954""
","""event"",""trial"",""time""
""fullscreenexit"",""19"",""141808""
","","","","","","548","<p> If you choose to not eat the fruit, you will not win or lose any points. </p><p>  However, in the center of the screen, you will see the number of points you WOULD HAVE earned if you had eaten the fruit. </p>","","0","instructions","","","","","","","","","","",""
"learning-instructions","69","378871","0.0-9.0-1.0-0.9","4022","2","14","Female","approach_avoid_spark_v1","""event"",""trial"",""time""
""fullscreenenter"",""1"",""2954""
""blur"",""19"",""131904""
""fullscreenexit"",""19"",""141808""
""focus"",""19"",""141846""
""blur"",""58"",""283477""
""focus"",""58"",""289845""
","""event"",""trial"",""time""
""blur"",""19"",""131904""
""blur"",""58"",""283477""
","""event"",""trial"",""time""
""focus"",""19"",""141846""
""focus"",""58"",""289845""
","""event"",""trial"",""time""
""fullscreenenter"",""1"",""2954""
","""event"",""trial"",""time""
""fullscreenexit"",""19"",""141808""
","","","","","","391","<p> Here is what you might see if you did not eat the fruit but the fruit was tasty: </p><p style=""color:grey; font-size:50px; display: inline-block; border-spacing: 15px; border-width:3px; border-style:solid; border-color:red"">  &nbsp; 6 &nbsp; </p><p> Remember, in this case, you would not win or lose ANY points because you did not eat the fruit.  </p>","","0","instructions","","","","","","","","","","",""
"learning-instructions","70","386919","0.0-9.0-1.0-0.10","4022","2","14","Female","approach_avoid_spark_v1","""event"",""trial"",""time""
""fullscreenenter"",""1"",""2954""
""blur"",""19"",""131904""
""fullscreenexit"",""19"",""141808""
""focus"",""19"",""141846""
""blur"",""58"",""283477""
""focus"",""58"",""289845""
","""event"",""trial"",""time""
""blur"",""19"",""131904""
""blur"",""58"",""283477""
","""event"",""trial"",""time""
""focus"",""19"",""141846""
""focus"",""58"",""289845""
","""event"",""trial"",""time""
""fullscreenenter"",""1"",""2954""
","""event"",""trial"",""time""
""fullscreenexit"",""19"",""141808""
","","","","","","514","<p> Try to make the best choice for each fruit because </p><p> at the end of the game, you will earn bonus money based on how many points you earned. </p>","","0","instructions","","","","","","","","","","",""
"learning-instructions","71","396238","0.0-9.0-1.0-0.11","4022","2","14","Female","approach_avoid_spark_v1","""event"",""trial"",""time""
""fullscreenenter"",""1"",""2954""
""blur"",""19"",""131904""
""fullscreenexit"",""19"",""141808""
""focus"",""19"",""141846""
""blur"",""58"",""283477""
""focus"",""58"",""289845""
","""event"",""trial"",""time""
""blur"",""19"",""131904""
""blur"",""58"",""283477""
","""event"",""trial"",""time""
""focus"",""19"",""141846""
""focus"",""58"",""289845""
","""event"",""trial"",""time""
""fullscreenenter"",""1"",""2954""
","""event"",""trial"",""time""
""fullscreenexit"",""19"",""141808""
","","","","","","1133.9999999999418","<p> You will have 3 seconds to make each choice. Try to respond before time runs out! </p><p> You will lose 5 points each time you do not make a response. </p>","","0","instructions","","","","","","","","","","",""
"html-keyboard-response","72","396841","0.0-9.0-2.0-0.0","4022","2","14","Female","approach_avoid_spark_v1","""event"",""trial"",""time""
""fullscreenenter"",""1"",""2954""
""blur"",""19"",""131904""
""fullscreenexit"",""19"",""141808""
""focus"",""19"",""141846""
""blur"",""58"",""283477""
""focus"",""58"",""289845""
","""event"",""trial"",""time""
""blur"",""19"",""131904""
""blur"",""58"",""283477""
","""event"",""trial"",""time""
""focus"",""19"",""141846""
""focus"",""58"",""289845""
","""event"",""trial"",""time""
""fullscreenenter"",""1"",""2954""
","""event"",""trial"",""time""
""fullscreenexit"",""19"",""141808""
","","","","","","null","<div style=""font-size:60px;"">+</div>","null","","fixation","","","","","","","","","","",""
"aa-learning-trial","73","399846","0.0-9.0-2.0-1.0","4022","2","14","Female","approach_avoid_spark_v1","""event"",""trial"",""time""
""fullscreenenter"",""1"",""2954""
""blur"",""19"",""131904""
""fullscreenexit"",""19"",""141808""
""focus"",""19"",""141846""
""blur"",""58"",""283477""
""focus"",""58"",""289845""
","""event"",""trial"",""time""
""blur"",""19"",""131904""
""blur"",""58"",""283477""
","""event"",""trial"",""time""
""focus"",""19"",""141846""
""focus"",""58"",""289845""
","""event"",""trial"",""time""
""fullscreenenter"",""1"",""2954""
","""event"",""trial"",""time""
""fullscreenexit"",""19"",""141808""
","","","","","","881","images/straw8.png","","","learning","4","4","1","1","straw","fruit","2","0","","neutral","0"
"html-keyboard-response","74","400348","0.0-9.0-2.0-0.1","4022","2","14","Female","approach_avoid_spark_v1","""event"",""trial"",""time""
""fullscreenenter"",""1"",""2954""
""blur"",""19"",""131904""
""fullscreenexit"",""19"",""141808""
""focus"",""19"",""141846""
""blur"",""58"",""283477""
""focus"",""58"",""289845""
","""event"",""trial"",""time""
""blur"",""19"",""131904""
""blur"",""58"",""283477""
","""event"",""trial"",""time""
""focus"",""19"",""141846""
""focus"",""58"",""289845""
","""event"",""trial"",""time""
""fullscreenenter"",""1"",""2954""
","""event"",""trial"",""time""
""fullscreenexit"",""19"",""141808""
","","","","","","null","<div style=""font-size:60px;"">+</div>","null","","fixation","","","","","","","","","","",""
"aa-learning-trial","75","403351","0.0-9.0-2.0-1.1","4022","2","14","Female","approach_avoid_spark_v1","""event"",""trial"",""time""
""fullscreenenter"",""1"",""2954""
""blur"",""19"",""131904""
""fullscreenexit"",""19"",""141808""
""focus"",""19"",""141846""
""blur"",""58"",""283477""
""focus"",""58"",""289845""
","""event"",""trial"",""time""
""blur"",""19"",""131904""
""blur"",""58"",""283477""
","""event"",""trial"",""time""
""focus"",""19"",""141846""
""focus"",""58"",""289845""
","""event"",""trial"",""time""
""fullscreenenter"",""1"",""2954""
","""event"",""trial"",""time""
""fullscreenexit"",""19"",""141808""
","","","","","","667","images/orange7.png","","","learning","7","0","0","0","orange","fruit","2","0","","good","[6]"
"html-keyboard-response","76","403854","0.0-9.0-2.0-0.2","4022","2","14","Female","approach_avoid_spark_v1","""event"",""trial"",""time""
""fullscreenenter"",""1"",""2954""
""blur"",""19"",""131904""
""fullscreenexit"",""19"",""141808""
""focus"",""19"",""141846""
""blur"",""58"",""283477""
""focus"",""58"",""289845""
","""event"",""trial"",""time""
""blur"",""19"",""131904""
""blur"",""58"",""283477""
","""event"",""trial"",""time""
""focus"",""19"",""141846""
""focus"",""58"",""289845""
","""event"",""trial"",""time""
""fullscreenenter"",""1"",""2954""
","""event"",""trial"",""time""
""fullscreenexit"",""19"",""141808""
","","","","","","null","<div style=""font-size:60px;"">+</div>","null","","fixation","","","","","","","","","","",""
"aa-learning-trial","77","406857","0.0-9.0-2.0-1.2","4022","2","14","Female","approach_avoid_spark_v1","""event"",""trial"",""time""
""fullscreenenter"",""1"",""2954""
""blur"",""19"",""131904""
""fullscreenexit"",""19"",""141808""
""focus"",""19"",""141846""
""blur"",""58"",""283477""
""focus"",""58"",""289845""
","""event"",""trial"",""time""
""blur"",""19"",""131904""
""blur"",""58"",""283477""
","""event"",""trial"",""time""
""focus"",""19"",""141846""
""focus"",""58"",""289845""
","""event"",""trial"",""time""
""fullscreenenter"",""1"",""2954""
","""event"",""trial"",""time""
""fullscreenexit"",""19"",""141808""
","","","","","","893","images/orange2.png","","","learning","-5","0","0","0","orange","fruit","2","0","","good","[6]"
"html-keyboard-response","78","407359","0.0-9.0-2.0-0.3","4022","2","14","Female","approach_avoid_spark_v1","""event"",""trial"",""time""
""fullscreenenter"",""1"",""2954""
""blur"",""19"",""131904""
""fullscreenexit"",""19"",""141808""
""focus"",""19"",""141846""
""blur"",""58"",""283477""
""focus"",""58"",""289845""
","""event"",""trial"",""time""
""blur"",""19"",""131904""
""blur"",""58"",""283477""
","""event"",""trial"",""time""
""focus"",""19"",""141846""
""focus"",""58"",""289845""
","""event"",""trial"",""time""
""fullscreenenter"",""1"",""2954""
","""event"",""trial"",""time""
""fullscreenexit"",""19"",""141808""
","","","","","","null","<div style=""font-size:60px;"">+</div>","null","","fixation","","","","","","","","","","",""
"aa-learning-trial","79","410363","0.0-9.0-2.0-1.3","4022","2","14","Female","approach_avoid_spark_v1","""event"",""trial"",""time""
""fullscreenenter"",""1"",""2954""
""blur"",""19"",""131904""
""fullscreenexit"",""19"",""141808""
""focus"",""19"",""141846""
""blur"",""58"",""283477""
""focus"",""58"",""289845""
","""event"",""trial"",""time""
""blur"",""19"",""131904""
""blur"",""58"",""283477""
","""event"",""trial"",""time""
""focus"",""19"",""141846""
""focus"",""58"",""289845""
","""event"",""trial"",""time""
""fullscreenenter"",""1"",""2954""
","""event"",""trial"",""time""
""fullscreenexit"",""19"",""141808""
","","","","","","1026","images/straw3.png","","","learning","8","8","1","1","straw","fruit","2","0","","neutral","0"
"html-keyboard-response","80","410865","0.0-9.0-2.0-0.4","4022","2","14","Female","approach_avoid_spark_v1","""event"",""trial"",""time""
""fullscreenenter"",""1"",""2954""
""blur"",""19"",""131904""
""fullscreenexit"",""19"",""141808""
""focus"",""19"",""141846""
""blur"",""58"",""283477""
""focus"",""58"",""289845""
","""event"",""trial"",""time""
""blur"",""19"",""131904""
""blur"",""58"",""283477""
","""event"",""trial"",""time""
""focus"",""19"",""141846""
""focus"",""58"",""289845""
","""event"",""trial"",""time""
""fullscreenenter"",""1"",""2954""
","""event"",""trial"",""time""
""fullscreenexit"",""19"",""141808""
","","","","","","null","<div style=""font-size:60px;"">+</div>","null","","fixation","","","","","","","","","","",""
"aa-learning-trial","81","413868","0.0-9.0-2.0-1.4","4022","2","14","Female","approach_avoid_spark_v1","""event"",""trial"",""time""
""fullscreenenter"",""1"",""2954""
""blur"",""19"",""131904""
""fullscreenexit"",""19"",""141808""
""focus"",""19"",""141846""
""blur"",""58"",""283477""
""focus"",""58"",""289845""
","""event"",""trial"",""time""
""blur"",""19"",""131904""
""blur"",""58"",""283477""
","""event"",""trial"",""time""
""focus"",""19"",""141846""
""focus"",""58"",""289845""
","""event"",""trial"",""time""
""fullscreenenter"",""1"",""2954""
","""event"",""trial"",""time""
""fullscreenexit"",""19"",""141808""
","","","","","","630.0000000000582","images/orange2.png","","","learning","-5","0","0","0","orange","fruit","2","0","","good","[6]"
"html-keyboard-response","82","414370","0.0-9.0-2.0-0.5","4022","2","14","Female","approach_avoid_spark_v1","""event"",""trial"",""time""
""fullscreenenter"",""1"",""2954""
""blur"",""19"",""131904""
""fullscreenexit"",""19"",""141808""
""focus"",""19"",""141846""
""blur"",""58"",""283477""
""focus"",""58"",""289845""
","""event"",""trial"",""time""
""blur"",""19"",""131904""
""blur"",""58"",""283477""
","""event"",""trial"",""time""
""focus"",""19"",""141846""
""focus"",""58"",""289845""
","""event"",""trial"",""time""
""fullscreenenter"",""1"",""2954""
","""event"",""trial"",""time""
""fullscreenexit"",""19"",""141808""
","","","","","","null","<div style=""font-size:60px;"">+</div>","null","","fixation","","","","","","","","","","",""
"aa-learning-trial","83","417373","0.0-9.0-2.0-1.5","4022","2","14","Female","approach_avoid_spark_v1","""event"",""trial"",""time""
""fullscreenenter"",""1"",""2954""
""blur"",""19"",""131904""
""fullscreenexit"",""19"",""141808""
""focus"",""19"",""141846""
""blur"",""58"",""283477""
""focus"",""58"",""289845""
","""event"",""trial"",""time""
""blur"",""19"",""131904""
""blur"",""58"",""283477""
","""event"",""trial"",""time""
""focus"",""19"",""141846""
""focus"",""58"",""289845""
","""event"",""trial"",""time""
""fullscreenenter"",""1"",""2954""
","""event"",""trial"",""time""
""fullscreenexit"",""19"",""141808""
","","","","","","925.9999999999418","images/banana1.png","","","learning","3","3","1","1","banana","fruit","2","0","","bad","[-4]"
"html-keyboard-response","84","417875","0.0-9.0-2.0-0.6","4022","2","14","Female","approach_avoid_spark_v1","""event"",""trial"",""time""
""fullscreenenter"",""1"",""2954""
""blur"",""19"",""131904""
""fullscreenexit"",""19"",""141808""
""focus"",""19"",""141846""
""blur"",""58"",""283477""
""focus"",""58"",""289845""
","""event"",""trial"",""time""
""blur"",""19"",""131904""
""blur"",""58"",""283477""
","""event"",""trial"",""time""
""focus"",""19"",""141846""
""focus"",""58"",""289845""
","""event"",""trial"",""time""
""fullscreenenter"",""1"",""2954""
","""event"",""trial"",""time""
""fullscreenexit"",""19"",""141808""
","","","","","","null","<div style=""font-size:60px;"">+</div>","null","","fixation","","","","","","","","","","",""
"aa-learning-trial","85","420878","0.0-9.0-2.0-1.6","4022","2","14","Female","approach_avoid_spark_v1","""event"",""trial"",""time""
""fullscreenenter"",""1"",""2954""
""blur"",""19"",""131904""
""fullscreenexit"",""19"",""141808""
""focus"",""19"",""141846""
""blur"",""58"",""283477""
""focus"",""58"",""289845""
","""event"",""trial"",""time""
""blur"",""19"",""131904""
""blur"",""58"",""283477""
","""event"",""trial"",""time""
""focus"",""19"",""141846""
""focus"",""58"",""289845""
","""event"",""trial"",""time""
""fullscreenenter"",""1"",""2954""
","""event"",""trial"",""time""
""fullscreenexit"",""19"",""141808""
","","","","","","635.9999999999418","images/banana5.png","","","learning","-4","0","0","0","banana","fruit","2","0","","bad","[-4]"
"html-keyboard-response","86","421380","0.0-9.0-2.0-0.7","4022","2","14","Female","approach_avoid_spark_v1","""event"",""trial"",""time""
""fullscreenenter"",""1"",""2954""
""blur"",""19"",""131904""
""fullscreenexit"",""19"",""141808""
""focus"",""19"",""141846""
""blur"",""58"",""283477""
""focus"",""58"",""289845""
","""event"",""trial"",""time""
""blur"",""19"",""131904""
""blur"",""58"",""283477""
","""event"",""trial"",""time""
""focus"",""19"",""141846""
""focus"",""58"",""289845""
","""event"",""trial"",""time""
""fullscreenenter"",""1"",""2954""
","""event"",""trial"",""time""
""fullscreenexit"",""19"",""141808""
","","","","","","null","<div style=""font-size:60px;"">+</div>","null","","fixation","","","","","","","","","","",""
"aa-learning-trial","87","424384","0.0-9.0-2.0-1.7","4022","2","14","Female","approach_avoid_spark_v1","""event"",""trial"",""time""
""fullscreenenter"",""1"",""2954""
""blur"",""19"",""131904""
""fullscreenexit"",""19"",""141808""
""focus"",""19"",""141846""
""blur"",""58"",""283477""
""focus"",""58"",""289845""
","""event"",""trial"",""time""
""blur"",""19"",""131904""
""blur"",""58"",""283477""
","""event"",""trial"",""time""
""focus"",""19"",""141846""
""focus"",""58"",""289845""
","""event"",""trial"",""time""
""fullscreenenter"",""1"",""2954""
","""event"",""trial"",""time""
""fullscreenexit"",""19"",""141808""
","","","","","","1040","images/banana5.png","","","learning","-4","-4","1","1","banana","fruit","2","0","","bad","[-4]"
"html-keyboard-response","88","424886","0.0-9.0-2.0-0.8","4022","2","14","Female","approach_avoid_spark_v1","""event"",""trial"",""time""
""fullscreenenter"",""1"",""2954""
""blur"",""19"",""131904""
""fullscreenexit"",""19"",""141808""
""focus"",""19"",""141846""
""blur"",""58"",""283477""
""focus"",""58"",""289845""
","""event"",""trial"",""time""
""blur"",""19"",""131904""
""blur"",""58"",""283477""
","""event"",""trial"",""time""
""focus"",""19"",""141846""
""focus"",""58"",""289845""
","""event"",""trial"",""time""
""fullscreenenter"",""1"",""2954""
","""event"",""trial"",""time""
""fullscreenexit"",""19"",""141808""
","","","","","","null","<div style=""font-size:60px;"">+</div>","null","","fixation","","","","","","","","","","",""
"aa-learning-trial","89","427888","0.0-9.0-2.0-1.8","4022","2","14","Female","approach_avoid_spark_v1","""event"",""trial"",""time""
""fullscreenenter"",""1"",""2954""
""blur"",""19"",""131904""
""fullscreenexit"",""19"",""141808""
""focus"",""19"",""141846""
""blur"",""58"",""283477""
""focus"",""58"",""289845""
","""event"",""trial"",""time""
""blur"",""19"",""131904""
""blur"",""58"",""283477""
","""event"",""trial"",""time""
""focus"",""19"",""141846""
""focus"",""58"",""289845""
","""event"",""trial"",""time""
""fullscreenenter"",""1"",""2954""
","""event"",""trial"",""time""
""fullscreenexit"",""19"",""141808""
","","","","","","1094","images/banana1.png","","","learning","3","0","0","0","banana","fruit","2","0","","bad","[-4]"
"html-keyboard-response","90","428390","0.0-9.0-2.0-0.9","4022","2","14","Female","approach_avoid_spark_v1","""event"",""trial"",""time""
""fullscreenenter"",""1"",""2954""
""blur"",""19"",""131904""
""fullscreenexit"",""19"",""141808""
""focus"",""19"",""141846""
""blur"",""58"",""283477""
""focus"",""58"",""289845""
","""event"",""trial"",""time""
""blur"",""19"",""131904""
""blur"",""58"",""283477""
","""event"",""trial"",""time""
""focus"",""19"",""141846""
""focus"",""58"",""289845""
","""event"",""trial"",""time""
""fullscreenenter"",""1"",""2954""
","""event"",""trial"",""time""
""fullscreenexit"",""19"",""141808""
","","","","","","null","<div style=""font-size:60px;"">+</div>","null","","fixation","","","","","","","","","","",""
"aa-learning-trial","91","431394","0.0-9.0-2.0-1.9","4022","2","14","Female","approach_avoid_spark_v1","""event"",""trial"",""time""
""fullscreenenter"",""1"",""2954""
""blur"",""19"",""131904""
""fullscreenexit"",""19"",""141808""
""focus"",""19"",""141846""
""blur"",""58"",""283477""
""focus"",""58"",""289845""
","""event"",""trial"",""time""
""blur"",""19"",""131904""
""blur"",""58"",""283477""
","""event"",""trial"",""time""
""focus"",""19"",""141846""
""focus"",""58"",""289845""
","""event"",""trial"",""time""
""fullscreenenter"",""1"",""2954""
","""event"",""trial"",""time""
""fullscreenexit"",""19"",""141808""
","","","","","","874","images/orange3.png","","","learning","-6","-6","1","1","orange","fruit","2","0","","good","[6]"
"html-keyboard-response","92","431895","0.0-9.0-2.0-0.10","4022","2","14","Female","approach_avoid_spark_v1","""event"",""trial"",""time""
""fullscreenenter"",""1"",""2954""
""blur"",""19"",""131904""
""fullscreenexit"",""19"",""141808""
""focus"",""19"",""141846""
""blur"",""58"",""283477""
""focus"",""58"",""289845""
","""event"",""trial"",""time""
""blur"",""19"",""131904""
""blur"",""58"",""283477""
","""event"",""trial"",""time""
""focus"",""19"",""141846""
""focus"",""58"",""289845""
","""event"",""trial"",""time""
""fullscreenenter"",""1"",""2954""
","""event"",""trial"",""time""
""fullscreenexit"",""19"",""141808""
","","","","","","null","<div style=""font-size:60px;"">+</div>","null","","fixation","","","","","","","","","","",""
"aa-learning-trial","93","434899","0.0-9.0-2.0-1.10","4022","2","14","Female","approach_avoid_spark_v1","""event"",""trial"",""time""
""fullscreenenter"",""1"",""2954""
""blur"",""19"",""131904""
""fullscreenexit"",""19"",""141808""
""focus"",""19"",""141846""
""blur"",""58"",""283477""
""focus"",""58"",""289845""
","""event"",""trial"",""time""
""blur"",""19"",""131904""
""blur"",""58"",""283477""
","""event"",""trial"",""time""
""focus"",""19"",""141846""
""focus"",""58"",""289845""
","""event"",""trial"",""time""
""fullscreenenter"",""1"",""2954""
","""event"",""trial"",""time""
""fullscreenexit"",""19"",""141808""
","","","","","","1182.0000000000582","images/straw4.png","","","learning","-9","-9","1","1","straw","fruit","2","0","","neutral","0"
"html-keyboard-response","94","435401","0.0-9.0-2.0-0.11","4022","2","14","Female","approach_avoid_spark_v1","""event"",""trial"",""time""
""fullscreenenter"",""1"",""2954""
""blur"",""19"",""131904""
""fullscreenexit"",""19"",""141808""
""focus"",""19"",""141846""
""blur"",""58"",""283477""
""focus"",""58"",""289845""
","""event"",""trial"",""time""
""blur"",""19"",""131904""
""blur"",""58"",""283477""
","""event"",""trial"",""time""
""focus"",""19"",""141846""
""focus"",""58"",""289845""
","""event"",""trial"",""time""
""fullscreenenter"",""1"",""2954""
","""event"",""trial"",""time""
""fullscreenexit"",""19"",""141808""
","","","","","","null","<div style=""font-size:60px;"">+</div>","null","","fixation","","","","","","","","","","",""
"aa-learning-trial","95","438404","0.0-9.0-2.0-1.11","4022","2","14","Female","approach_avoid_spark_v1","""event"",""trial"",""time""
""fullscreenenter"",""1"",""2954""
""blur"",""19"",""131904""
""fullscreenexit"",""19"",""141808""
""focus"",""19"",""141846""
""blur"",""58"",""283477""
""focus"",""58"",""289845""
","""event"",""trial"",""time""
""blur"",""19"",""131904""
""blur"",""58"",""283477""
","""event"",""trial"",""time""
""focus"",""19"",""141846""
""focus"",""58"",""289845""
","""event"",""trial"",""time""
""fullscreenenter"",""1"",""2954""
","""event"",""trial"",""time""
""fullscreenexit"",""19"",""141808""
","","","","","","766","images/banana2.png","","","learning","9","9","1","1","banana","fruit","2","0","","bad","[-4]"
"html-keyboard-response","96","438905","0.0-9.0-2.0-0.12","4022","2","14","Female","approach_avoid_spark_v1","""event"",""trial"",""time""
""fullscreenenter"",""1"",""2954""
""blur"",""19"",""131904""
""fullscreenexit"",""19"",""141808""
""focus"",""19"",""141846""
""blur"",""58"",""283477""
""focus"",""58"",""289845""
","""event"",""trial"",""time""
""blur"",""19"",""131904""
""blur"",""58"",""283477""
","""event"",""trial"",""time""
""focus"",""19"",""141846""
""focus"",""58"",""289845""
","""event"",""trial"",""time""
""fullscreenenter"",""1"",""2954""
","""event"",""trial"",""time""
""fullscreenexit"",""19"",""141808""
","","","","","","null","<div style=""font-size:60px;"">+</div>","null","","fixation","","","","","","","","","","",""
"aa-learning-trial","97","441909","0.0-9.0-2.0-1.12","4022","2","14","Female","approach_avoid_spark_v1","""event"",""trial"",""time""
""fullscreenenter"",""1"",""2954""
""blur"",""19"",""131904""
""fullscreenexit"",""19"",""141808""
""focus"",""19"",""141846""
""blur"",""58"",""283477""
""focus"",""58"",""289845""
","""event"",""trial"",""time""
""blur"",""19"",""131904""
""blur"",""58"",""283477""
","""event"",""trial"",""time""
""focus"",""19"",""141846""
""focus"",""58"",""289845""
","""event"",""trial"",""time""
""fullscreenenter"",""1"",""2954""
","""event"",""trial"",""time""
""fullscreenexit"",""19"",""141808""
","","","","","","1103","images/orange7.png","","","learning","7","0","0","0","orange","fruit","2","0","","good","[6]"
"html-keyboard-response","98","442411","0.0-9.0-2.0-0.13","4022","2","14","Female","approach_avoid_spark_v1","""event"",""trial"",""time""
""fullscreenenter"",""1"",""2954""
""blur"",""19"",""131904""
""fullscreenexit"",""19"",""141808""
""focus"",""19"",""141846""
""blur"",""58"",""283477""
""focus"",""58"",""289845""
","""event"",""trial"",""time""
""blur"",""19"",""131904""
""blur"",""58"",""283477""
","""event"",""trial"",""time""
""focus"",""19"",""141846""
""focus"",""58"",""289845""
","""event"",""trial"",""time""
""fullscreenenter"",""1"",""2954""
","""event"",""trial"",""time""
""fullscreenexit"",""19"",""141808""
","","","","","","null","<div style=""font-size:60px;"">+</div>","null","","fixation","","","","","","","","","","",""
"aa-learning-trial","99","445414","0.0-9.0-2.0-1.13","4022","2","14","Female","approach_avoid_spark_v1","""event"",""trial"",""time""
""fullscreenenter"",""1"",""2954""
""blur"",""19"",""131904""
""fullscreenexit"",""19"",""141808""
""focus"",""19"",""141846""
""blur"",""58"",""283477""
""focus"",""58"",""289845""
","""event"",""trial"",""time""
""blur"",""19"",""131904""
""blur"",""58"",""283477""
","""event"",""trial"",""time""
""focus"",""19"",""141846""
""focus"",""58"",""289845""
","""event"",""trial"",""time""
""fullscreenenter"",""1"",""2954""
","""event"",""trial"",""time""
""fullscreenexit"",""19"",""141808""
","","","","","","673.9999999999418","images/straw3.png","","","learning","8","0","0","0","straw","fruit","2","0","","neutral","0"
"html-keyboard-response","100","445916","0.0-9.0-2.0-0.14","4022","2","14","Female","approach_avoid_spark_v1","""event"",""trial"",""time""
""fullscreenenter"",""1"",""2954""
""blur"",""19"",""131904""
""fullscreenexit"",""19"",""141808""
""focus"",""19"",""141846""
""blur"",""58"",""283477""
""focus"",""58"",""289845""
","""event"",""trial"",""time""
""blur"",""19"",""131904""
""blur"",""58"",""283477""
","""event"",""trial"",""time""
""focus"",""19"",""141846""
""focus"",""58"",""289845""
","""event"",""trial"",""time""
""fullscreenenter"",""1"",""2954""
","""event"",""trial"",""time""
""fullscreenexit"",""19"",""141808""
","","","","","","null","<div style=""font-size:60px;"">+</div>","null","","fixation","","","","","","","","","","",""
"aa-learning-trial","101","448920","0.0-9.0-2.0-1.14","4022","2","14","Female","approach_avoid_spark_v1","""event"",""trial"",""time""
""fullscreenenter"",""1"",""2954""
""blur"",""19"",""131904""
""fullscreenexit"",""19"",""141808""
""focus"",""19"",""141846""
""blur"",""58"",""283477""
""focus"",""58"",""289845""
","""event"",""trial"",""time""
""blur"",""19"",""131904""
""blur"",""58"",""283477""
","""event"",""trial"",""time""
""focus"",""19"",""141846""
""focus"",""58"",""289845""
","""event"",""trial"",""time""
""fullscreenenter"",""1"",""2954""
","""event"",""trial"",""time""
""fullscreenexit"",""19"",""141808""
","","","","","","448","images/straw4.png","","","learning","-9","-9","1","1","straw","fruit","2","0","","neutral","0"
"html-keyboard-response","102","449422","0.0-9.0-2.0-0.15","4022","2","14","Female","approach_avoid_spark_v1","""event"",""trial"",""time""
""fullscreenenter"",""1"",""2954""
""blur"",""19"",""131904""
""fullscreenexit"",""19"",""141808""
""focus"",""19"",""141846""
""blur"",""58"",""283477""
""focus"",""58"",""289845""
","""event"",""trial"",""time""
""blur"",""19"",""131904""
""blur"",""58"",""283477""
","""event"",""trial"",""time""
""focus"",""19"",""141846""
""focus"",""58"",""289845""
","""event"",""trial"",""time""
""fullscreenenter"",""1"",""2954""
","""event"",""trial"",""time""
""fullscreenexit"",""19"",""141808""
","","","","","","null","<div style=""font-size:60px;"">+</div>","null","","fixation","","","","","","","","","","",""
"aa-learning-trial","103","452425","0.0-9.0-2.0-1.15","4022","2","14","Female","approach_avoid_spark_v1","""event"",""trial"",""time""
""fullscreenenter"",""1"",""2954""
""blur"",""19"",""131904""
""fullscreenexit"",""19"",""141808""
""focus"",""19"",""141846""
""blur"",""58"",""283477""
""focus"",""58"",""289845""
","""event"",""trial"",""time""
""blur"",""19"",""131904""
""blur"",""58"",""283477""
","""event"",""trial"",""time""
""focus"",""19"",""141846""
""focus"",""58"",""289845""
","""event"",""trial"",""time""
""fullscreenenter"",""1"",""2954""
","""event"",""trial"",""time""
""fullscreenexit"",""19"",""141808""
","","","","","","945","images/straw4.png","","","learning","-9","-9","1","1","straw","fruit","2","0","","neutral","0"
"html-keyboard-response","104","452927","0.0-9.0-2.0-0.16","4022","2","14","Female","approach_avoid_spark_v1","""event"",""trial"",""time""
""fullscreenenter"",""1"",""2954""
""blur"",""19"",""131904""
""fullscreenexit"",""19"",""141808""
""focus"",""19"",""141846""
""blur"",""58"",""283477""
""focus"",""58"",""289845""
","""event"",""trial"",""time""
""blur"",""19"",""131904""
""blur"",""58"",""283477""
","""event"",""trial"",""time""
""focus"",""19"",""141846""
""focus"",""58"",""289845""
","""event"",""trial"",""time""
""fullscreenenter"",""1"",""2954""
","""event"",""trial"",""time""
""fullscreenexit"",""19"",""141808""
","","","","","","null","<div style=""font-size:60px;"">+</div>","null","","fixation","","","","","","","","","","",""
"aa-learning-trial","105","455930","0.0-9.0-2.0-1.16","4022","2","14","Female","approach_avoid_spark_v1","""event"",""trial"",""time""
""fullscreenenter"",""1"",""2954""
""blur"",""19"",""131904""
""fullscreenexit"",""19"",""141808""
""focus"",""19"",""141846""
""blur"",""58"",""283477""
""focus"",""58"",""289845""
","""event"",""trial"",""time""
""blur"",""19"",""131904""
""blur"",""58"",""283477""
","""event"",""trial"",""time""
""focus"",""19"",""141846""
""focus"",""58"",""289845""
","""event"",""trial"",""time""
""fullscreenenter"",""1"",""2954""
","""event"",""trial"",""time""
""fullscreenexit"",""19"",""141808""
","","","","","","617","images/straw4.png","","","learning","-9","0","0","0","straw","fruit","2","0","","neutral","0"
"html-keyboard-response","106","456433","0.0-9.0-2.0-0.17","4022","2","14","Female","approach_avoid_spark_v1","""event"",""trial"",""time""
""fullscreenenter"",""1"",""2954""
""blur"",""19"",""131904""
""fullscreenexit"",""19"",""141808""
""focus"",""19"",""141846""
""blur"",""58"",""283477""
""focus"",""58"",""289845""
","""event"",""trial"",""time""
""blur"",""19"",""131904""
""blur"",""58"",""283477""
","""event"",""trial"",""time""
""focus"",""19"",""141846""
""focus"",""58"",""289845""
","""event"",""trial"",""time""
""fullscreenenter"",""1"",""2954""
","""event"",""trial"",""time""
""fullscreenexit"",""19"",""141808""
","","","","","","null","<div style=""font-size:60px;"">+</div>","null","","fixation","","","","","","","","","","",""
"aa-learning-trial","107","459436","0.0-9.0-2.0-1.17","4022","2","14","Female","approach_avoid_spark_v1","""event"",""trial"",""time""
""fullscreenenter"",""1"",""2954""
""blur"",""19"",""131904""
""fullscreenexit"",""19"",""141808""
""focus"",""19"",""141846""
""blur"",""58"",""283477""
""focus"",""58"",""289845""
","""event"",""trial"",""time""
""blur"",""19"",""131904""
""blur"",""58"",""283477""
","""event"",""trial"",""time""
""focus"",""19"",""141846""
""focus"",""58"",""289845""
","""event"",""trial"",""time""
""fullscreenenter"",""1"",""2954""
","""event"",""trial"",""time""
""fullscreenexit"",""19"",""141808""
","","","","","","1078","images/banana2.png","","","learning","9","9","1","1","banana","fruit","2","0","","bad","[-4]"
"html-keyboard-response","108","459938","0.0-9.0-2.0-0.18","4022","2","14","Female","approach_avoid_spark_v1","""event"",""trial"",""time""
""fullscreenenter"",""1"",""2954""
""blur"",""19"",""131904""
""fullscreenexit"",""19"",""141808""
""focus"",""19"",""141846""
""blur"",""58"",""283477""
""focus"",""58"",""289845""
","""event"",""trial"",""time""
""blur"",""19"",""131904""
""blur"",""58"",""283477""
","""event"",""trial"",""time""
""focus"",""19"",""141846""
""focus"",""58"",""289845""
","""event"",""trial"",""time""
""fullscreenenter"",""1"",""2954""
","""event"",""trial"",""time""
""fullscreenexit"",""19"",""141808""
","","","","","","null","<div style=""font-size:60px;"">+</div>","null","","fixation","","","","","","","","","","",""
"aa-learning-trial","109","462941","0.0-9.0-2.0-1.18","4022","2","14","Female","approach_avoid_spark_v1","""event"",""trial"",""time""
""fullscreenenter"",""1"",""2954""
""blur"",""19"",""131904""
""fullscreenexit"",""19"",""141808""
""focus"",""19"",""141846""
""blur"",""58"",""283477""
""focus"",""58"",""289845""
","""event"",""trial"",""time""
""blur"",""19"",""131904""
""blur"",""58"",""283477""
","""event"",""trial"",""time""
""focus"",""19"",""141846""
""focus"",""58"",""289845""
","""event"",""trial"",""time""
""fullscreenenter"",""1"",""2954""
","""event"",""trial"",""time""
""fullscreenexit"",""19"",""141808""
","","","","","","860.0000000000582","images/straw3.png","","","learning","8","8","1","1","straw","fruit","2","0","","neutral","0"
"html-keyboard-response","110","463443","0.0-9.0-2.0-0.19","4022","2","14","Female","approach_avoid_spark_v1","""event"",""trial"",""time""
""fullscreenenter"",""1"",""2954""
""blur"",""19"",""131904""
""fullscreenexit"",""19"",""141808""
""focus"",""19"",""141846""
""blur"",""58"",""283477""
""focus"",""58"",""289845""
","""event"",""trial"",""time""
""blur"",""19"",""131904""
""blur"",""58"",""283477""
","""event"",""trial"",""time""
""focus"",""19"",""141846""
""focus"",""58"",""289845""
","""event"",""trial"",""time""
""fullscreenenter"",""1"",""2954""
","""event"",""trial"",""time""
""fullscreenexit"",""19"",""141808""
","","","","","","null","<div style=""font-size:60px;"">+</div>","null","","fixation","","","","","","","","","","",""
"aa-learning-trial","111","466446","0.0-9.0-2.0-1.19","4022","2","14","Female","approach_avoid_spark_v1","""event"",""trial"",""time""
""fullscreenenter"",""1"",""2954""
""blur"",""19"",""131904""
""fullscreenexit"",""19"",""141808""
""focus"",""19"",""141846""
""blur"",""58"",""283477""
""focus"",""58"",""289845""
","""event"",""trial"",""time""
""blur"",""19"",""131904""
""blur"",""58"",""283477""
","""event"",""trial"",""time""
""focus"",""19"",""141846""
""focus"",""58"",""289845""
","""event"",""trial"",""time""
""fullscreenenter"",""1"",""2954""
","""event"",""trial"",""time""
""fullscreenexit"",""19"",""141808""
","","","","","","507","images/orange2.png","","","learning","-5","0","0","0","orange","fruit","2","0","","good","[6]"
"html-keyboard-response","112","466949","0.0-9.0-2.0-0.20","4022","2","14","Female","approach_avoid_spark_v1","""event"",""trial"",""time""
""fullscreenenter"",""1"",""2954""
""blur"",""19"",""131904""
""fullscreenexit"",""19"",""141808""
""focus"",""19"",""141846""
""blur"",""58"",""283477""
""focus"",""58"",""289845""
","""event"",""trial"",""time""
""blur"",""19"",""131904""
""blur"",""58"",""283477""
","""event"",""trial"",""time""
""focus"",""19"",""141846""
""focus"",""58"",""289845""
","""event"",""trial"",""time""
""fullscreenenter"",""1"",""2954""
","""event"",""trial"",""time""
""fullscreenexit"",""19"",""141808""
","","","","","","null","<div style=""font-size:60px;"">+</div>","null","","fixation","","","","","","","","","","",""
"aa-learning-trial","113","469951","0.0-9.0-2.0-1.20","4022","2","14","Female","approach_avoid_spark_v1","""event"",""trial"",""time""
""fullscreenenter"",""1"",""2954""
""blur"",""19"",""131904""
""fullscreenexit"",""19"",""141808""
""focus"",""19"",""141846""
""blur"",""58"",""283477""
""focus"",""58"",""289845""
","""event"",""trial"",""time""
""blur"",""19"",""131904""
""blur"",""58"",""283477""
","""event"",""trial"",""time""
""focus"",""19"",""141846""
""focus"",""58"",""289845""
","""event"",""trial"",""time""
""fullscreenenter"",""1"",""2954""
","""event"",""trial"",""time""
""fullscreenexit"",""19"",""141808""
","","","","","","654","images/orange3.png","","","learning","-6","0","0","0","orange","fruit","2","0","","good","[6]"
"html-keyboard-response","114","470453","0.0-9.0-2.0-0.21","4022","2","14","Female","approach_avoid_spark_v1","""event"",""trial"",""time""
""fullscreenenter"",""1"",""2954""
""blur"",""19"",""131904""
""fullscreenexit"",""19"",""141808""
""focus"",""19"",""141846""
""blur"",""58"",""283477""
""focus"",""58"",""289845""
","""event"",""trial"",""time""
""blur"",""19"",""131904""
""blur"",""58"",""283477""
","""event"",""trial"",""time""
""focus"",""19"",""141846""
""focus"",""58"",""289845""
","""event"",""trial"",""time""
""fullscreenenter"",""1"",""2954""
","""event"",""trial"",""time""
""fullscreenexit"",""19"",""141808""
","","","","","","null","<div style=""font-size:60px;"">+</div>","null","","fixation","","","","","","","","","","",""
"aa-learning-trial","115","473456","0.0-9.0-2.0-1.21","4022","2","14","Female","approach_avoid_spark_v1","""event"",""trial"",""time""
""fullscreenenter"",""1"",""2954""
""blur"",""19"",""131904""
""fullscreenexit"",""19"",""141808""
""focus"",""19"",""141846""
""blur"",""58"",""283477""
""focus"",""58"",""289845""
","""event"",""trial"",""time""
""blur"",""19"",""131904""
""blur"",""58"",""283477""
","""event"",""trial"",""time""
""focus"",""19"",""141846""
""focus"",""58"",""289845""
","""event"",""trial"",""time""
""fullscreenenter"",""1"",""2954""
","""event"",""trial"",""time""
""fullscreenexit"",""19"",""141808""
","","","","","","568","images/banana1.png","","","learning","3","3","1","1","banana","fruit","2","0","","bad","[-4]"
"html-keyboard-response","116","473958","0.0-9.0-2.0-0.22","4022","2","14","Female","approach_avoid_spark_v1","""event"",""trial"",""time""
""fullscreenenter"",""1"",""2954""
""blur"",""19"",""131904""
""fullscreenexit"",""19"",""141808""
""focus"",""19"",""141846""
""blur"",""58"",""283477""
""focus"",""58"",""289845""
","""event"",""trial"",""time""
""blur"",""19"",""131904""
""blur"",""58"",""283477""
","""event"",""trial"",""time""
""focus"",""19"",""141846""
""focus"",""58"",""289845""
","""event"",""trial"",""time""
""fullscreenenter"",""1"",""2954""
","""event"",""trial"",""time""
""fullscreenexit"",""19"",""141808""
","","","","","","null","<div style=""font-size:60px;"">+</div>","null","","fixation","","","","","","","","","","",""
"aa-learning-trial","117","476962","0.0-9.0-2.0-1.22","4022","2","14","Female","approach_avoid_spark_v1","""event"",""trial"",""time""
""fullscreenenter"",""1"",""2954""
""blur"",""19"",""131904""
""fullscreenexit"",""19"",""141808""
""focus"",""19"",""141846""
""blur"",""58"",""283477""
""focus"",""58"",""289845""
","""event"",""trial"",""time""
""blur"",""19"",""131904""
""blur"",""58"",""283477""
","""event"",""trial"",""time""
""focus"",""19"",""141846""
""focus"",""58"",""289845""
","""event"",""trial"",""time""
""fullscreenenter"",""1"",""2954""
","""event"",""trial"",""time""
""fullscreenexit"",""19"",""141808""
","","","","","","822","images/straw3.png","","","learning","8","8","1","1","straw","fruit","2","0","","neutral","0"
"html-keyboard-response","118","477464","0.0-9.0-2.0-0.23","4022","2","14","Female","approach_avoid_spark_v1","""event"",""trial"",""time""
""fullscreenenter"",""1"",""2954""
""blur"",""19"",""131904""
""fullscreenexit"",""19"",""141808""
""focus"",""19"",""141846""
""blur"",""58"",""283477""
""focus"",""58"",""289845""
","""event"",""trial"",""time""
""blur"",""19"",""131904""
""blur"",""58"",""283477""
","""event"",""trial"",""time""
""focus"",""19"",""141846""
""focus"",""58"",""289845""
","""event"",""trial"",""time""
""fullscreenenter"",""1"",""2954""
","""event"",""trial"",""time""
""fullscreenexit"",""19"",""141808""
","","","","","","null","<div style=""font-size:60px;"">+</div>","null","","fixation","","","","","","","","","","",""
"aa-learning-trial","119","480466","0.0-9.0-2.0-1.23","4022","2","14","Female","approach_avoid_spark_v1","""event"",""trial"",""time""
""fullscreenenter"",""1"",""2954""
""blur"",""19"",""131904""
""fullscreenexit"",""19"",""141808""
""focus"",""19"",""141846""
""blur"",""58"",""283477""
""focus"",""58"",""289845""
","""event"",""trial"",""time""
""blur"",""19"",""131904""
""blur"",""58"",""283477""
","""event"",""trial"",""time""
""focus"",""19"",""141846""
""focus"",""58"",""289845""
","""event"",""trial"",""time""
""fullscreenenter"",""1"",""2954""
","""event"",""trial"",""time""
""fullscreenexit"",""19"",""141808""
","","","","","","411.9999999999418","images/banana1.png","","","learning","3","0","0","0","banana","fruit","2","0","","bad","[-4]"
"html-keyboard-response","120","480969","0.0-9.0-2.0-0.24","4022","2","14","Female","approach_avoid_spark_v1","""event"",""trial"",""time""
""fullscreenenter"",""1"",""2954""
""blur"",""19"",""131904""
""fullscreenexit"",""19"",""141808""
""focus"",""19"",""141846""
""blur"",""58"",""283477""
""focus"",""58"",""289845""
","""event"",""trial"",""time""
""blur"",""19"",""131904""
""blur"",""58"",""283477""
","""event"",""trial"",""time""
""focus"",""19"",""141846""
""focus"",""58"",""289845""
","""event"",""trial"",""time""
""fullscreenenter"",""1"",""2954""
","""event"",""trial"",""time""
""fullscreenexit"",""19"",""141808""
","","","","","","null","<div style=""font-size:60px;"">+</div>","null","","fixation","","","","","","","","","","",""
"aa-learning-trial","121","483972","0.0-9.0-2.0-1.24","4022","2","14","Female","approach_avoid_spark_v1","""event"",""trial"",""time""
""fullscreenenter"",""1"",""2954""
""blur"",""19"",""131904""
""fullscreenexit"",""19"",""141808""
""focus"",""19"",""141846""
""blur"",""58"",""283477""
""focus"",""58"",""289845""
","""event"",""trial"",""time""
""blur"",""19"",""131904""
""blur"",""58"",""283477""
","""event"",""trial"",""time""
""focus"",""19"",""141846""
""focus"",""58"",""289845""
","""event"",""trial"",""time""
""fullscreenenter"",""1"",""2954""
","""event"",""trial"",""time""
""fullscreenexit"",""19"",""141808""
","","","","","","563","images/banana2.png","","","learning","9","0","0","0","banana","fruit","2","0","","bad","[-4]"
"html-keyboard-response","122","484474","0.0-9.0-2.0-0.25","4022","2","14","Female","approach_avoid_spark_v1","""event"",""trial"",""time""
""fullscreenenter"",""1"",""2954""
""blur"",""19"",""131904""
""fullscreenexit"",""19"",""141808""
""focus"",""19"",""141846""
""blur"",""58"",""283477""
""focus"",""58"",""289845""
","""event"",""trial"",""time""
""blur"",""19"",""131904""
""blur"",""58"",""283477""
","""event"",""trial"",""time""
""focus"",""19"",""141846""
""focus"",""58"",""289845""
","""event"",""trial"",""time""
""fullscreenenter"",""1"",""2954""
","""event"",""trial"",""time""
""fullscreenexit"",""19"",""141808""
","","","","","","null","<div style=""font-size:60px;"">+</div>","null","","fixation","","","","","","","","","","",""
"aa-learning-trial","123","487477","0.0-9.0-2.0-1.25","4022","2","14","Female","approach_avoid_spark_v1","""event"",""trial"",""time""
""fullscreenenter"",""1"",""2954""
""blur"",""19"",""131904""
""fullscreenexit"",""19"",""141808""
""focus"",""19"",""141846""
""blur"",""58"",""283477""
""focus"",""58"",""289845""
","""event"",""trial"",""time""
""blur"",""19"",""131904""
""blur"",""58"",""283477""
","""event"",""trial"",""time""
""focus"",""19"",""141846""
""focus"",""58"",""289845""
","""event"",""trial"",""time""
""fullscreenenter"",""1"",""2954""
","""event"",""trial"",""time""
""fullscreenexit"",""19"",""141808""
","","","","","","342","images/banana5.png","","","learning","-4","-4","1","1","banana","fruit","2","0","","bad","[-4]"
"html-keyboard-response","124","487979","0.0-9.0-2.0-0.26","4022","2","14","Female","approach_avoid_spark_v1","""event"",""trial"",""time""
""fullscreenenter"",""1"",""2954""
""blur"",""19"",""131904""
""fullscreenexit"",""19"",""141808""
""focus"",""19"",""141846""
""blur"",""58"",""283477""
""focus"",""58"",""289845""
","""event"",""trial"",""time""
""blur"",""19"",""131904""
""blur"",""58"",""283477""
","""event"",""trial"",""time""
""focus"",""19"",""141846""
""focus"",""58"",""289845""
","""event"",""trial"",""time""
""fullscreenenter"",""1"",""2954""
","""event"",""trial"",""time""
""fullscreenexit"",""19"",""141808""
","","","","","","null","<div style=""font-size:60px;"">+</div>","null","","fixation","","","","","","","","","","",""
"aa-learning-trial","125","490982","0.0-9.0-2.0-1.26","4022","2","14","Female","approach_avoid_spark_v1","""event"",""trial"",""time""
""fullscreenenter"",""1"",""2954""
""blur"",""19"",""131904""
""fullscreenexit"",""19"",""141808""
""focus"",""19"",""141846""
""blur"",""58"",""283477""
""focus"",""58"",""289845""
","""event"",""trial"",""time""
""blur"",""19"",""131904""
""blur"",""58"",""283477""
","""event"",""trial"",""time""
""focus"",""19"",""141846""
""focus"",""58"",""289845""
","""event"",""trial"",""time""
""fullscreenenter"",""1"",""2954""
","""event"",""trial"",""time""
""fullscreenexit"",""19"",""141808""
","","","","","","678","images/banana4.png","","","learning","2","0","0","0","banana","fruit","2","0","","bad","[-4]"
"html-keyboard-response","126","491484","0.0-9.0-2.0-0.27","4022","2","14","Female","approach_avoid_spark_v1","""event"",""trial"",""time""
""fullscreenenter"",""1"",""2954""
""blur"",""19"",""131904""
""fullscreenexit"",""19"",""141808""
""focus"",""19"",""141846""
""blur"",""58"",""283477""
""focus"",""58"",""289845""
","""event"",""trial"",""time""
""blur"",""19"",""131904""
""blur"",""58"",""283477""
","""event"",""trial"",""time""
""focus"",""19"",""141846""
""focus"",""58"",""289845""
","""event"",""trial"",""time""
""fullscreenenter"",""1"",""2954""
","""event"",""trial"",""time""
""fullscreenexit"",""19"",""141808""
","","","","","","null","<div style=""font-size:60px;"">+</div>","null","","fixation","","","","","","","","","","",""
"aa-learning-trial","127","494487","0.0-9.0-2.0-1.27","4022","2","14","Female","approach_avoid_spark_v1","""event"",""trial"",""time""
""fullscreenenter"",""1"",""2954""
""blur"",""19"",""131904""
""fullscreenexit"",""19"",""141808""
""focus"",""19"",""141846""
""blur"",""58"",""283477""
""focus"",""58"",""289845""
","""event"",""trial"",""time""
""blur"",""19"",""131904""
""blur"",""58"",""283477""
","""event"",""trial"",""time""
""focus"",""19"",""141846""
""focus"",""58"",""289845""
","""event"",""trial"",""time""
""fullscreenenter"",""1"",""2954""
","""event"",""trial"",""time""
""fullscreenexit"",""19"",""141808""
","","","","","","630","images/straw4.png","","","learning","-9","-9","1","1","straw","fruit","2","0","","neutral","0"
"html-keyboard-response","128","494989","0.0-9.0-2.0-0.28","4022","2","14","Female","approach_avoid_spark_v1","""event"",""trial"",""time""
""fullscreenenter"",""1"",""2954""
""blur"",""19"",""131904""
""fullscreenexit"",""19"",""141808""
""focus"",""19"",""141846""
""blur"",""58"",""283477""
""focus"",""58"",""289845""
","""event"",""trial"",""time""
""blur"",""19"",""131904""
""blur"",""58"",""283477""
","""event"",""trial"",""time""
""focus"",""19"",""141846""
""focus"",""58"",""289845""
","""event"",""trial"",""time""
""fullscreenenter"",""1"",""2954""
","""event"",""trial"",""time""
""fullscreenexit"",""19"",""141808""
","","","","","","null","<div style=""font-size:60px;"">+</div>","null","","fixation","","","","","","","","","","",""
"aa-learning-trial","129","497991","0.0-9.0-2.0-1.28","4022","2","14","Female","approach_avoid_spark_v1","""event"",""trial"",""time""
""fullscreenenter"",""1"",""2954""
""blur"",""19"",""131904""
""fullscreenexit"",""19"",""141808""
""focus"",""19"",""141846""
""blur"",""58"",""283477""
""focus"",""58"",""289845""
","""event"",""trial"",""time""
""blur"",""19"",""131904""
""blur"",""58"",""283477""
","""event"",""trial"",""time""
""focus"",""19"",""141846""
""focus"",""58"",""289845""
","""event"",""trial"",""time""
""fullscreenenter"",""1"",""2954""
","""event"",""trial"",""time""
""fullscreenexit"",""19"",""141808""
","","","","","","706","images/banana5.png","","","learning","-4","-4","1","1","banana","fruit","2","0","","bad","[-4]"
"html-keyboard-response","130","498492","0.0-9.0-2.0-0.29","4022","2","14","Female","approach_avoid_spark_v1","""event"",""trial"",""time""
""fullscreenenter"",""1"",""2954""
""blur"",""19"",""131904""
""fullscreenexit"",""19"",""141808""
""focus"",""19"",""141846""
""blur"",""58"",""283477""
""focus"",""58"",""289845""
","""event"",""trial"",""time""
""blur"",""19"",""131904""
""blur"",""58"",""283477""
","""event"",""trial"",""time""
""focus"",""19"",""141846""
""focus"",""58"",""289845""
","""event"",""trial"",""time""
""fullscreenenter"",""1"",""2954""
","""event"",""trial"",""time""
""fullscreenexit"",""19"",""141808""
","","","","","","null","<div style=""font-size:60px;"">+</div>","null","","fixation","","","","","","","","","","",""
"aa-learning-trial","131","501496","0.0-9.0-2.0-1.29","4022","2","14","Female","approach_avoid_spark_v1","""event"",""trial"",""time""
""fullscreenenter"",""1"",""2954""
""blur"",""19"",""131904""
""fullscreenexit"",""19"",""141808""
""focus"",""19"",""141846""
""blur"",""58"",""283477""
""focus"",""58"",""289845""
","""event"",""trial"",""time""
""blur"",""19"",""131904""
""blur"",""58"",""283477""
","""event"",""trial"",""time""
""focus"",""19"",""141846""
""focus"",""58"",""289845""
","""event"",""trial"",""time""
""fullscreenenter"",""1"",""2954""
","""event"",""trial"",""time""
""fullscreenexit"",""19"",""141808""
","","","","","","460","images/straw3.png","","","learning","8","0","0","0","straw","fruit","2","0","","neutral","0"
"html-keyboard-response","132","501997","0.0-9.0-2.0-0.30","4022","2","14","Female","approach_avoid_spark_v1","""event"",""trial"",""time""
""fullscreenenter"",""1"",""2954""
""blur"",""19"",""131904""
""fullscreenexit"",""19"",""141808""
""focus"",""19"",""141846""
""blur"",""58"",""283477""
""focus"",""58"",""289845""
","""event"",""trial"",""time""
""blur"",""19"",""131904""
""blur"",""58"",""283477""
","""event"",""trial"",""time""
""focus"",""19"",""141846""
""focus"",""58"",""289845""
","""event"",""trial"",""time""
""fullscreenenter"",""1"",""2954""
","""event"",""trial"",""time""
""fullscreenexit"",""19"",""141808""
","","","","","","null","<div style=""font-size:60px;"">+</div>","null","","fixation","","","","","","","","","","",""
"aa-learning-trial","133","504999","0.0-9.0-2.0-1.30","4022","2","14","Female","approach_avoid_spark_v1","""event"",""trial"",""time""
""fullscreenenter"",""1"",""2954""
""blur"",""19"",""131904""
""fullscreenexit"",""19"",""141808""
""focus"",""19"",""141846""
""blur"",""58"",""283477""
""focus"",""58"",""289845""
","""event"",""trial"",""time""
""blur"",""19"",""131904""
""blur"",""58"",""283477""
","""event"",""trial"",""time""
""focus"",""19"",""141846""
""focus"",""58"",""289845""
","""event"",""trial"",""time""
""fullscreenenter"",""1"",""2954""
","""event"",""trial"",""time""
""fullscreenexit"",""19"",""141808""
","","","","","","420.0000000000582","images/orange7.png","","","learning","7","7","1","1","orange","fruit","2","0","","good","[6]"
"html-keyboard-response","134","505501","0.0-9.0-2.0-0.31","4022","2","14","Female","approach_avoid_spark_v1","""event"",""trial"",""time""
""fullscreenenter"",""1"",""2954""
""blur"",""19"",""131904""
""fullscreenexit"",""19"",""141808""
""focus"",""19"",""141846""
""blur"",""58"",""283477""
""focus"",""58"",""289845""
","""event"",""trial"",""time""
""blur"",""19"",""131904""
""blur"",""58"",""283477""
","""event"",""trial"",""time""
""focus"",""19"",""141846""
""focus"",""58"",""289845""
","""event"",""trial"",""time""
""fullscreenenter"",""1"",""2954""
","""event"",""trial"",""time""
""fullscreenexit"",""19"",""141808""
","","","","","","null","<div style=""font-size:60px;"">+</div>","null","","fixation","","","","","","","","","","",""
"aa-learning-trial","135","508505","0.0-9.0-2.0-1.31","4022","2","14","Female","approach_avoid_spark_v1","""event"",""trial"",""time""
""fullscreenenter"",""1"",""2954""
""blur"",""19"",""131904""
""fullscreenexit"",""19"",""141808""
""focus"",""19"",""141846""
""blur"",""58"",""283477""
""focus"",""58"",""289845""
","""event"",""trial"",""time""
""blur"",""19"",""131904""
""blur"",""58"",""283477""
","""event"",""trial"",""time""
""focus"",""19"",""141846""
""focus"",""58"",""289845""
","""event"",""trial"",""time""
""fullscreenenter"",""1"",""2954""
","""event"",""trial"",""time""
""fullscreenexit"",""19"",""141808""
","","","","","","495","images/straw2.png","","","learning","-1","-1","1","1","straw","fruit","2","0","","neutral","0"
"html-keyboard-response","136","509007","0.0-9.0-2.0-0.32","4022","2","14","Female","approach_avoid_spark_v1","""event"",""trial"",""time""
""fullscreenenter"",""1"",""2954""
""blur"",""19"",""131904""
""fullscreenexit"",""19"",""141808""
""focus"",""19"",""141846""
""blur"",""58"",""283477""
""focus"",""58"",""289845""
","""event"",""trial"",""time""
""blur"",""19"",""131904""
""blur"",""58"",""283477""
","""event"",""trial"",""time""
""focus"",""19"",""141846""
""focus"",""58"",""289845""
