"trial_type","trial_index","time_elapsed","internal_node_id","subject_id","task_condition","age","gender","task_version","interactions","blur_events","focus_events","fullscreenenter_events","fullscreenexit_events","success","timeout","failed_images","failed_audio","failed_video","rt","stimulus","response","button_pressed","task_part","approach_reward","points","key_press","option_selected","stim_cat","task_block","block_condition","block_number","correct","cat_type","mean_cat_reward"
"pavlovia","0","3","0.0-0.0","6289","1","11","Male","approach_avoid_spark_v1","""event"",""trial"",""time""
""fullscreenenter"",""1"",""1995""
","
","
","""event"",""trial"",""time""
""fullscreenenter"",""1"",""1995""
","
","","","","","","","","","","","","","","","","","","","","",""
"fullscreen","1","2983","0.0-1.0","6289","1","11","Male","approach_avoid_spark_v1","""event"",""trial"",""time""
""fullscreenenter"",""1"",""1995""
","
","
","""event"",""trial"",""time""
""fullscreenenter"",""1"",""1995""
","
","true","","","","","","","","","","","","","","","","","","","",""
"preload","2","37034","0.0-2.0","6289","1","11","Male","approach_avoid_spark_v1","""event"",""trial"",""time""
""fullscreenenter"",""1"",""1995""
","
","
","""event"",""trial"",""time""
""fullscreenenter"",""1"",""1995""
","
","true","false","[]","[]","[]","","","","","","","","","","","","","","","",""
"audio-keyboard-response","3","39918","0.0-3.0","6289","1","11","Male","approach_avoid_spark_v1","""event"",""trial"",""time""
""fullscreenenter"",""1"",""1995""
","
","
","""event"",""trial"",""time""
""fullscreenenter"",""1"",""1995""
","
","","","","","","2898.666666666664","audio/beep_loop.wav"," ","","","","","","","","","","","","",""
"audio-button-response","4","50894","0.0-4.0","6289","1","11","Male","approach_avoid_spark_v1","""event"",""trial"",""time""
""fullscreenenter"",""1"",""1995""
","
","
","""event"",""trial"",""time""
""fullscreenenter"",""1"",""1995""
","
","","","","","","10971","audio/shark.wav","4","","","","","","","","","","","","",""
"audio-button-response","5","54478","0.0-5.0","6289","1","11","Male","approach_avoid_spark_v1","""event"",""trial"",""time""
""fullscreenenter"",""1"",""1995""
","
","
","""event"",""trial"",""time""
""fullscreenenter"",""1"",""1995""
","
","","","","","","2589","audio/turtle.wav","1","","","","","","","","","","","","",""
"preload","6","66507","0.0-6.0","6289","1","11","Male","approach_avoid_spark_v1","""event"",""trial"",""time""
""fullscreenenter"",""1"",""1995""
","
","
","""event"",""trial"",""time""
""fullscreenenter"",""1"",""1995""
","
","true","false","[]","[]","[]","","","","","","","","","","","","","","","",""
"html-keyboard-response","7","69230","0.0-7.0","6289","1","11","Male","approach_avoid_spark_v1","""event"",""trial"",""time""
""fullscreenenter"",""1"",""1995""
","
","
","""event"",""trial"",""time""
""fullscreenenter"",""1"",""1995""
","
","","","","","","2722.1000000089407","Welcome to the experiment. Press any key to begin and to advance the instructions."," ","","","","","","","","","","","","",""
"learning-instructions","8","77645","0.0-8.0-0.0-0.0","6289","1","11","Male","approach_avoid_spark_v1","""event"",""trial"",""time""
""fullscreenenter"",""1"",""1995""
","
","
","""event"",""trial"",""time""
""fullscreenenter"",""1"",""1995""
","
","","","","","","1457","<p> Welcome! Today you are going to play 6 different rounds of a decision-making game. </p><p> Use the mouse to click next to continue. </p>","","0","instructions","","","","","","","","","","",""
"learning-instructions","9","81566","0.0-8.0-0.0-0.1","6289","1","11","Male","approach_avoid_spark_v1","""event"",""trial"",""time""
""fullscreenenter"",""1"",""1995""
","
","
","""event"",""trial"",""time""
""fullscreenenter"",""1"",""1995""
","
","","","","","","1176.7999999970198","<p> You will start with a practice round to learn the rules. </p>","","0","instructions","","","","","","","","","","",""
"learning-instructions","10","85789","0.0-8.0-0.0-0.2","6289","1","11","Male","approach_avoid_spark_v1","""event"",""trial"",""time""
""fullscreenenter"",""1"",""1995""
","
","
","""event"",""trial"",""time""
""fullscreenenter"",""1"",""1995""
","
","","","","","","760.8999999910593","<p> Your goal in this round is to give out sports equipment to kids. </p></div>","","0","instructions","","","","","","","","","","",""
"learning-instructions","11","94685","0.0-8.0-0.0-0.3","6289","1","11","Male","approach_avoid_spark_v1","""event"",""trial"",""time""
""fullscreenenter"",""1"",""1995""
","
","
","""event"",""trial"",""time""
""fullscreenenter"",""1"",""1995""
","
","","","","","","1336.4000000059605","<p> The kids only like some of the equipment.  </p><p> On each turn, you will see a piece of sports equipment.   </p><p> You need to decide whether to give it to the kids or not.  </p>","","0","instructions","","","","","","","","","","",""
"learning-instructions","12","101413","0.0-8.0-0.0-0.4","6289","1","11","Male","approach_avoid_spark_v1","""event"",""trial"",""time""
""fullscreenenter"",""1"",""1995""
","
","
","""event"",""trial"",""time""
""fullscreenenter"",""1"",""1995""
","
","","","","","","1963.7999999970198","<p> You can give them the equipment by pressing 1 and choose not to give it to them by pressing 0. </p><br><div class=""choice-instructions-grid""> <div class=""choice-option""><img src=""images/approach.png"" class=""choice-option-img"" stage=""instructions"" position=""0"" ><div class=""choice-option-text""> Press ""1."" </div></div><div class=""choice-option""><img src=""images/avoid.png"" class=""choice-option-img"" stage=""instructions"" position=""1"" ><div class=""choice-option-text""> Press ""0."" </div></div>","","0","instructions","","","","","","","","","","",""
"learning-instructions","13","109477","0.0-8.0-0.0-0.5","6289","1","11","Male","approach_avoid_spark_v1","""event"",""trial"",""time""
""fullscreenenter"",""1"",""1995""
","
","
","""event"",""trial"",""time""
""fullscreenenter"",""1"",""1995""
","
","","","","","","668.5","<p> If you give them a piece of equipment they like, they will be happy! </p><p> But if you give them a piece of equipment they do not like, they will be sad. </p>","","0","instructions","","","","","","","","","","",""
"learning-instructions","14","120614","0.0-8.0-0.0-0.6","6289","1","11","Male","approach_avoid_spark_v1","""event"",""trial"",""time""
""fullscreenenter"",""1"",""1995""
","
","
","""event"",""trial"",""time""
""fullscreenenter"",""1"",""1995""
","
","","","","","","625.5","<p> You will earn points based on how you make kids feel. </p><p> If you make them happy, you will WIN anywhere from 1 - 9 points, </p><p> but if you make them sad, you will LOSE anywhere from 1 - 9 points. </p>","","0","instructions","","","","","","","","","","",""
"learning-instructions","15","131230","0.0-8.0-0.0-0.7","6289","1","11","Male","approach_avoid_spark_v1","""event"",""trial"",""time""
""fullscreenenter"",""1"",""1995""
","
","
","""event"",""trial"",""time""
""fullscreenenter"",""1"",""1995""
","
","","","","","","1051.0999999940395","<p> You will see how many points you won or lost in the center of the screen. </p><p> Here is what you would see if you won 6 points: </p><p style=""color:green;font-size:50px;font-weight:bolder"">6</p><p style=""color:green"">The text is GREEN because you WON points.</p>","","0","instructions","","","","","","","","","","",""
"learning-instructions","16","138190","0.0-8.0-0.0-0.8","6289","1","11","Male","approach_avoid_spark_v1","""event"",""trial"",""time""
""fullscreenenter"",""1"",""1995""
","
","
","""event"",""trial"",""time""
""fullscreenenter"",""1"",""1995""
","
","","","","","","1449.5","<p> And here is what you would see if you lost 4 points: </p><p style=""color:red;font-size:50px;font-weight:bolder"">-4</p><p style=""color:red"">The text is RED because you LOST points. </p>","","0","instructions","","","","","","","","","","",""
"learning-instructions","17","154262","0.0-8.0-0.0-0.9","6289","1","11","Male","approach_avoid_spark_v1","""event"",""trial"",""time""
""fullscreenenter"",""1"",""1995""
","
","
","""event"",""trial"",""time""
""fullscreenenter"",""1"",""1995""
","
","","","","","","1352.199999988079","<p> Some of the equipment will make the kids VERY happy or sad. </p><p> These pieces of equipment will make you win or lose LOTS of points. </p><p> Other pieces of equipment will only make the kids a little happy or sad. </p><p> These pieces of equipment will make you win or lose small amounts of points. </p>","","0","instructions","","","","","","","","","","",""
"learning-instructions","18","166702","0.0-8.0-0.0-0.10","6289","1","11","Male","approach_avoid_spark_v1","""event"",""trial"",""time""
""fullscreenenter"",""1"",""1995""
","
","
","""event"",""trial"",""time""
""fullscreenenter"",""1"",""1995""
","
","","","","","","1812.0999999940395","<p> If you choose not to give them the equipment, you will not win or lose any points. </p><p>  However, in the center of the screen, you will see the number of points you WOULD HAVE won or lost if you had given them the equipment. </p>","","0","instructions","","","","","","","","","","",""
"learning-instructions","19","188766","0.0-8.0-0.0-0.11","6289","1","11","Male","approach_avoid_spark_v1","""event"",""trial"",""time""
""fullscreenenter"",""1"",""1995""
","
","
","""event"",""trial"",""time""
""fullscreenenter"",""1"",""1995""
","
","","","","","","536.8000000119209","<p> Here is what you might see if you did not give the equipment to the kids but it would have made them happy: </p><p style=""color:grey; font-size:50px; display: inline-block; border-spacing: 15px; border-width:3px; border-style:solid; border-color:red"">  &nbsp; 7 &nbsp; </p><p> Remember, in this case, you would not win or lose ANY points because you did not give them the equipment.  </p><p style=""color:grey"">The text is GREY because you earned ZERO points. </p><p style=""color:red"">However, choosing to give the kids the equipment would have made you win points. The box around the text is RED because you chose the worse option. </p>","","0","instructions","","","","","","","","","","",""
"learning-instructions","20","210718","0.0-8.0-0.0-0.12","6289","1","11","Male","approach_avoid_spark_v1","""event"",""trial"",""time""
""fullscreenenter"",""1"",""1995""
","
","
","""event"",""trial"",""time""
""fullscreenenter"",""1"",""1995""
","
","","","","","","878.5","<p> Here is what you might see if you did not give the equipment to the kids but it would have made them sad: </p><p style=""color:grey;font-size:50px; display: inline-block; border-spacing: 15px; border-width:3px; border-style:solid; border-color:green"">  &nbsp; -8 &nbsp; </p><p> Remember, in this case, you would not win or lose ANY points because you did not give them the equipment.  </p><p style=""color:grey"">The text is GREY because you earned ZERO points. </p><p  style=""color:green""> Choosing to give the kids the equipment would have made you lose points. The box around the text is GREEN because you chose the better option.</p>","","0","instructions","","","","","","","","","","",""
"learning-instructions","21","222902","0.0-8.0-0.0-0.13","6289","1","11","Male","approach_avoid_spark_v1","""event"",""trial"",""time""
""fullscreenenter"",""1"",""1995""
","
","
","""event"",""trial"",""time""
""fullscreenenter"",""1"",""1995""
","
","","","","","","2511.8999999910593","<p> You will have 3 seconds to make each choice. Try to respond before time runs out! </p><p> You will lose 5 points each time you do not make a response. </p>","","0","instructions","","","","","","","","","","",""
"learning-instructions","22","229582","0.0-8.0-0.0-0.14","6289","1","11","Male","approach_avoid_spark_v1","""event"",""trial"",""time""
""fullscreenenter"",""1"",""1995""
","
","
","""event"",""trial"",""time""
""fullscreenenter"",""1"",""1995""
","
","","","","","","1262","<p> This is just a practice round, but in the real game, your bonus payment will depend on your total number of points.","","0","instructions","","","","","","","","","","",""
"learning-instructions","23","236614","0.0-8.0-0.0-0.15","6289","1","11","Male","approach_avoid_spark_v1","""event"",""trial"",""time""
""fullscreenenter"",""1"",""1995""
","
","
","""event"",""trial"",""time""
""fullscreenenter"",""1"",""1995""
","
","","","","","","1253.5","<p> Remember, you can give them the equipment by pressing 1 and choose not to give it to them by pressing 0. </p><br><div class=""choice-instructions-grid""> <div class=""choice-option""><img src=""images/approach.png"" class=""choice-option-img"" stage=""instructions"" position=""0"" ><div class=""choice-option-text""> Press ""1."" </div></div><div class=""choice-option""><img src=""images/avoid.png"" class=""choice-option-img"" stage=""instructions"" position=""1"" ><div class=""choice-option-text""> Press ""0."" </div></div>","","0","instructions","","","","","","","","","","",""
"html-button-response","24","238381","0.0-8.0-1.0","6289","1","11","Male","approach_avoid_spark_v1","""event"",""trial"",""time""
""fullscreenenter"",""1"",""1995""
","
","
","""event"",""trial"",""time""
""fullscreenenter"",""1"",""1995""
","
","","","","","","1653.2000000029802","<p> Ready to practice? </p>","0","","","","","","","","","","","","",""
"html-keyboard-response","25","239006","0.0-8.0-2.0-0.0","6289","1","11","Male","approach_avoid_spark_v1","""event"",""trial"",""time""
""fullscreenenter"",""1"",""1995""
","
","
","""event"",""trial"",""time""
""fullscreenenter"",""1"",""1995""
","
","","","","","","null","<div style=""font-size:60px;"">+</div>","null","","fixation","","","","","","","","","","",""
"aa-learning-trial","26","242016","0.0-8.0-2.0-1.0","6289","1","11","Male","approach_avoid_spark_v1","""event"",""trial"",""time""
""fullscreenenter"",""1"",""1995""
","
","
","""event"",""trial"",""time""
""fullscreenenter"",""1"",""1995""
","
","","","","","","1741.7000000029802","images/racket1.png","","","learning","7","7","1","1","practice","practice","practice","-1","","",""
"html-keyboard-response","27","242519","0.0-8.0-2.0-0.1","6289","1","11","Male","approach_avoid_spark_v1","""event"",""trial"",""time""
""fullscreenenter"",""1"",""1995""
","
","
","""event"",""trial"",""time""
""fullscreenenter"",""1"",""1995""
","
","","","","","","null","<div style=""font-size:60px;"">+</div>","null","","fixation","","","","","","","","","","",""
"aa-learning-trial","28","245527","0.0-8.0-2.0-1.1","6289","1","11","Male","approach_avoid_spark_v1","""event"",""trial"",""time""
""fullscreenenter"",""1"",""1995""
","
","
","""event"",""trial"",""time""
""fullscreenenter"",""1"",""1995""
","
","","","","","","1188.7000000029802","images/ball3.png","","","learning","-1","-1","1","1","practice","practice","practice","-1","","",""
"html-keyboard-response","29","246032","0.0-8.0-2.0-0.2","6289","1","11","Male","approach_avoid_spark_v1","""event"",""trial"",""time""
""fullscreenenter"",""1"",""1995""
","
","
","""event"",""trial"",""time""
""fullscreenenter"",""1"",""1995""
","
","","","","","","null","<div style=""font-size:60px;"">+</div>","null","","fixation","","","","","","","","","","",""
"aa-learning-trial","30","249039","0.0-8.0-2.0-1.2","6289","1","11","Male","approach_avoid_spark_v1","""event"",""trial"",""time""
""fullscreenenter"",""1"",""1995""
","
","
","""event"",""trial"",""time""
""fullscreenenter"",""1"",""1995""
","
","","","","","","939.2000000029802","images/ball2.png","","","learning","-8","-8","1","1","practice","practice","practice","-1","","",""
"html-keyboard-response","31","249551","0.0-8.0-2.0-0.3","6289","1","11","Male","approach_avoid_spark_v1","""event"",""trial"",""time""
""fullscreenenter"",""1"",""1995""
","
","
","""event"",""trial"",""time""
""fullscreenenter"",""1"",""1995""
","
","","","","","","null","<div style=""font-size:60px;"">+</div>","null","","fixation","","","","","","","","","","",""
"aa-learning-trial","32","252557","0.0-8.0-2.0-1.3","6289","1","11","Male","approach_avoid_spark_v1","""event"",""trial"",""time""
""fullscreenenter"",""1"",""1995""
","
","
","""event"",""trial"",""time""
""fullscreenenter"",""1"",""1995""
","
","","","","","","1163.8999999910593","images/racket2.png","","","learning","-4","-4","1","1","practice","practice","practice","-1","","",""
"html-keyboard-response","33","253062","0.0-8.0-2.0-0.4","6289","1","11","Male","approach_avoid_spark_v1","""event"",""trial"",""time""
""fullscreenenter"",""1"",""1995""
","
","
","""event"",""trial"",""time""
""fullscreenenter"",""1"",""1995""
","
","","","","","","null","<div style=""font-size:60px;"">+</div>","null","","fixation","","","","","","","","","","",""
"aa-learning-trial","34","256077","0.0-8.0-2.0-1.4","6289","1","11","Male","approach_avoid_spark_v1","""event"",""trial"",""time""
""fullscreenenter"",""1"",""1995""
","
","
","""event"",""trial"",""time""
""fullscreenenter"",""1"",""1995""
","
","","","","","","1317.7000000029802","images/racket1.png","","","learning","-6","-6","1","1","practice","practice","practice","-1","","",""
"html-keyboard-response","35","256584","0.0-8.0-2.0-0.5","6289","1","11","Male","approach_avoid_spark_v1","""event"",""trial"",""time""
""fullscreenenter"",""1"",""1995""
","
","
","""event"",""trial"",""time""
""fullscreenenter"",""1"",""1995""
","
","","","","","","null","<div style=""font-size:60px;"">+</div>","null","","fixation","","","","","","","","","","",""
"aa-learning-trial","36","259600","0.0-8.0-2.0-1.5","6289","1","11","Male","approach_avoid_spark_v1","""event"",""trial"",""time""
""fullscreenenter"",""1"",""1995""
","
","
","""event"",""trial"",""time""
""fullscreenenter"",""1"",""1995""
","
","","","","","","964.1000000089407","images/ball1.png","","","learning","-6","0","0","0","practice","practice","practice","-1","","",""
"html-keyboard-response","37","260116","0.0-8.0-2.0-0.6","6289","1","11","Male","approach_avoid_spark_v1","""event"",""trial"",""time""
""fullscreenenter"",""1"",""1995""
","
","
","""event"",""trial"",""time""
""fullscreenenter"",""1"",""1995""
","
","","","","","","null","<div style=""font-size:60px;"">+</div>","null","","fixation","","","","","","","","","","",""
"aa-learning-trial","38","263135","0.0-8.0-2.0-1.6","6289","1","11","Male","approach_avoid_spark_v1","""event"",""trial"",""time""
""fullscreenenter"",""1"",""1995""
","
","
","""event"",""trial"",""time""
""fullscreenenter"",""1"",""1995""
","
","","","","","","2230.7000000029802","images/racket3.png","","","learning","-8","-8","1","1","practice","practice","practice","-1","","",""
"html-keyboard-response","39","263651","0.0-8.0-2.0-0.7","6289","1","11","Male","approach_avoid_spark_v1","""event"",""trial"",""time""
""fullscreenenter"",""1"",""1995""
","
","
","""event"",""trial"",""time""
""fullscreenenter"",""1"",""1995""
","
","","","","","","null","<div style=""font-size:60px;"">+</div>","null","","fixation","","","","","","","","","","",""
"aa-learning-trial","40","266656","0.0-8.0-2.0-1.7","6289","1","11","Male","approach_avoid_spark_v1","""event"",""trial"",""time""
""fullscreenenter"",""1"",""1995""
","
","
","""event"",""trial"",""time""
""fullscreenenter"",""1"",""1995""
","
","","","","","","1016.5","images/racket3.png","","","learning","-1","0","0","0","practice","practice","practice","-1","","",""
"html-keyboard-response","41","267159","0.0-8.0-2.0-0.8","6289","1","11","Male","approach_avoid_spark_v1","""event"",""trial"",""time""
""fullscreenenter"",""1"",""1995""
","
","
","""event"",""trial"",""time""
""fullscreenenter"",""1"",""1995""
","
","","","","","","null","<div style=""font-size:60px;"">+</div>","null","","fixation","","","","","","","","","","",""
"aa-learning-trial","42","270167","0.0-8.0-2.0-1.8","6289","1","11","Male","approach_avoid_spark_v1","""event"",""trial"",""time""
""fullscreenenter"",""1"",""1995""
","
","
","""event"",""trial"",""time""
""fullscreenenter"",""1"",""1995""
","
","","","","","","1124.4000000059605","images/racket1.png","","","learning","7","0","0","0","practice","practice","practice","-1","","",""
"html-keyboard-response","43","270668","0.0-8.0-2.0-0.9","6289","1","11","Male","approach_avoid_spark_v1","""event"",""trial"",""time""
""fullscreenenter"",""1"",""1995""
","
","
","""event"",""trial"",""time""
""fullscreenenter"",""1"",""1995""
","
","","","","","","null","<div style=""font-size:60px;"">+</div>","null","","fixation","","","","","","","","","","",""
"aa-learning-trial","44","273671","0.0-8.0-2.0-1.9","6289","1","11","Male","approach_avoid_spark_v1","""event"",""trial"",""time""
""fullscreenenter"",""1"",""1995""
","
","
","""event"",""trial"",""time""
""fullscreenenter"",""1"",""1995""
","
","","","","","","1088.5","images/racket1.png","","","learning","6","6","1","1","practice","practice","practice","-1","","",""
"html-keyboard-response","45","274175","0.0-8.0-2.0-0.10","6289","1","11","Male","approach_avoid_spark_v1","""event"",""trial"",""time""
""fullscreenenter"",""1"",""1995""
","
","
","""event"",""trial"",""time""
""fullscreenenter"",""1"",""1995""
","
","","","","","","null","<div style=""font-size:60px;"">+</div>","null","","fixation","","","","","","","","","","",""
"aa-learning-trial","46","277183","0.0-8.0-2.0-1.10","6289","1","11","Male","approach_avoid_spark_v1","""event"",""trial"",""time""
""fullscreenenter"",""1"",""1995""
","
","
","""event"",""trial"",""time""
""fullscreenenter"",""1"",""1995""
","
","","","","","","1261","images/ball4.png","","","learning","8","0","0","0","practice","practice","practice","-1","","",""
"html-keyboard-response","47","277687","0.0-8.0-2.0-0.11","6289","1","11","Male","approach_avoid_spark_v1","""event"",""trial"",""time""
""fullscreenenter"",""1"",""1995""
","
","
","""event"",""trial"",""time""
""fullscreenenter"",""1"",""1995""
","
","","","","","","null","<div style=""font-size:60px;"">+</div>","null","","fixation","","","","","","","","","","",""
"aa-learning-trial","48","280695","0.0-8.0-2.0-1.11","6289","1","11","Male","approach_avoid_spark_v1","""event"",""trial"",""time""
""fullscreenenter"",""1"",""1995""
","
","
","""event"",""trial"",""time""
""fullscreenenter"",""1"",""1995""
","
","","","","","","805","images/racket4.png","","","learning","-5","-5","1","1","practice","practice","practice","-1","","",""
"html-button-response","49","286677","0.0-8.0-3.0","6289","1","11","Male","approach_avoid_spark_v1","""event"",""trial"",""time""
""fullscreenenter"",""1"",""1995""
","
","
","""event"",""trial"",""time""
""fullscreenenter"",""1"",""1995""
","
","","","","","","5980.20000000298","<p> You earned -19 points in the practice round! </p>","0","","break","","","","","","","","","","",""
"learning-instructions","50","293997","0.0-8.0-4.0-0.0","6289","1","11","Male","approach_avoid_spark_v1","""event"",""trial"",""time""
""fullscreenenter"",""1"",""1995""
","
","
","""event"",""trial"",""time""
""fullscreenenter"",""1"",""1995""
","
","","","","","","1302.2999999970198","<p> It's almost time to start the real game. </p><p> Before you start, we're going to ask you a few questions about how the game works. </p>","","0","instructions","","","","","","","","","","",""
"preload","51","297766","0.0-8.0-5.0","6289","1","11","Male","approach_avoid_spark_v1","""event"",""trial"",""time""
""fullscreenenter"",""1"",""1995""
","
","
","""event"",""trial"",""time""
""fullscreenenter"",""1"",""1995""
","
","true","false","[]","[]","[]","","","","","","","","","","","","","","","",""
"comp-q","52","304277","0.0-8.0-6.0-0.0","6289","1","11","Male","approach_avoid_spark_v1","""event"",""trial"",""time""
""fullscreenenter"",""1"",""1995""
","
","
","""event"",""trial"",""time""
""fullscreenenter"",""1"",""1995""
","
","","","","","","1511.9000000059605","<p> <b> True or False? </b> </p><p> If you see a number in GREY, that means you earned that many points. </p>","","1","comp_question","","","","","","","","","true","",""
"comp-q","53","326965","0.0-8.0-6.0-1.0","6289","1","11","Male","approach_avoid_spark_v1","""event"",""trial"",""time""
""fullscreenenter"",""1"",""1995""
","
","
","""event"",""trial"",""time""
""fullscreenenter"",""1"",""1995""
","
","","","","","","14308.79999999702","<p><b> That's right! </b> If you see a grey number, it means you earned ZERO points. <br> The grey numbers show the points you WOULD HAVE earned if you had made the other choice. </p>","","0","comp_answer","","","","","","","","","","",""
"comp-q","54","332413","0.0-8.0-7.0-0.0","6289","1","11","Male","approach_avoid_spark_v1","""event"",""trial"",""time""
""fullscreenenter"",""1"",""1995""
","
","
","""event"",""trial"",""time""
""fullscreenenter"",""1"",""1995""
","
","","","","","","738.1000000089407","<p> <b> True or False? </b> </p><p> You will have as much time as you want to make each choice. </p>","","1","comp_question","","","","","","","","","true","",""
"comp-q","55","338142","0.0-8.0-7.0-1.0","6289","1","11","Male","approach_avoid_spark_v1","""event"",""trial"",""time""
""fullscreenenter"",""1"",""1995""
","
","
","""event"",""trial"",""time""
""fullscreenenter"",""1"",""1995""
","
","","","","","","1676.2999999970198","<p> <b> That's right! </b> You will only have 3 seconds to make each choice. </p>","","0","comp_answer","","","","","","","","","","",""
"comp-q","56","343605","0.0-8.0-8.0-0.0","6289","1","11","Male","approach_avoid_spark_v1","""event"",""trial"",""time""
""fullscreenenter"",""1"",""1995""
","
","
","""event"",""trial"",""time""
""fullscreenenter"",""1"",""1995""
","
","","","","","","800.1999999880791","<p> <b> True or False? </b> </p><p> You should use the '1' and '0' keys to make your choices. </p>","","0","comp_question","","","","","","","","","true","",""
"comp-q","57","349237","0.0-8.0-8.0-1.0","6289","1","11","Male","approach_avoid_spark_v1","""event"",""trial"",""time""
""fullscreenenter"",""1"",""1995""
","
","
","""event"",""trial"",""time""
""fullscreenenter"",""1"",""1995""
","
","","","","","","1011.2999999970198","<p> <b> That's right! </b> You should use the '1' and '0' keys to make each choice. </p>","","0","comp_answer","","","","","","","","","","",""
"learning-instructions","58","358005","0.0-8.0-9.0-0.0","6289","1","11","Male","approach_avoid_spark_v1","""event"",""trial"",""time""
""fullscreenenter"",""1"",""1995""
","
","
","""event"",""trial"",""time""
""fullscreenenter"",""1"",""1995""
","
","","","","","","2488.8999999910593","<p> It's now time to start the real game. </p>Do your best, because the points you earn in the next rounds will influence your bonus payment. </p>","","0","instructions","","","","","","","","","","",""
"preload","59","358122","0.0-9.0-0.0","6289","1","11","Male","approach_avoid_spark_v1","""event"",""trial"",""time""
""fullscreenenter"",""1"",""1995""
","
","
","""event"",""trial"",""time""
""fullscreenenter"",""1"",""1995""
","
","true","false","[]","[]","[]","","","","","","","","","","","","","","","",""
"learning-instructions","60","365653","0.0-9.0-1.0-0.0","6289","1","11","Male","approach_avoid_spark_v1","""event"",""trial"",""time""
""fullscreenenter"",""1"",""1995""
","
","
","""event"",""trial"",""time""
""fullscreenenter"",""1"",""1995""
","
","","","","","","2147.7000000029802","<p> Your goal in this round is to sell different plants to a picky customer. </p></div>","","0","instructions","","","","","","","","","","",""
"learning-instructions","61","377054","0.0-9.0-1.0-0.1","6289","1","11","Male","approach_avoid_spark_v1","""event"",""trial"",""time""
""fullscreenenter"",""1"",""1995""
","
","
","""event"",""trial"",""time""
""fullscreenenter"",""1"",""1995""
","
","","","","","","1627.699999988079","<p> The customer likes some plants and dislikes others.  </p><p> On each turn, you will see a plant.   </p><p> You need to decide whether to offer it to the customer or not.  </p>","","0","instructions","","","","","","","","","","",""
"learning-instructions","62","384349","0.0-9.0-1.0-0.2","6289","1","11","Male","approach_avoid_spark_v1","""event"",""trial"",""time""
""fullscreenenter"",""1"",""1995""
","
","
","""event"",""trial"",""time""
""fullscreenenter"",""1"",""1995""
","
","","","","","","1412.7000000029802","<p> You can offer the plant by pressing 1 and decide to not offer it by pressing 0. </p><br><div class=""choice-instructions-grid""> <div class=""choice-option""><img src=""images/approach.png"" class=""choice-option-img"" stage=""instructions"" position=""0"" ><div class=""choice-option-text""> Press ""1."" </div></div><div class=""choice-option""><img src=""images/avoid.png"" class=""choice-option-img"" stage=""instructions"" position=""1"" ><div class=""choice-option-text""> Press ""0."" </div></div>","","0","instructions","","","","","","","","","","",""
"learning-instructions","63","394846","0.0-9.0-1.0-0.3","6289","1","11","Male","approach_avoid_spark_v1","""event"",""trial"",""time""
""fullscreenenter"",""1"",""1995""
","
","
","""event"",""trial"",""time""
""fullscreenenter"",""1"",""1995""
","
","","","","","","1090.5999999940395","<p> If you offer a plant to the customer that she likes, she will be very pleased! </p><p> But if you offer a plant that she does NOT like, she will be annoyed. </p>","","0","instructions","","","","","","","","","","",""
"learning-instructions","64","408686","0.0-9.0-1.0-0.4","6289","1","11","Male","approach_avoid_spark_v1","""event"",""trial"",""time""
""fullscreenenter"",""1"",""1995""
","
","
","""event"",""trial"",""time""
""fullscreenenter"",""1"",""1995""
","
","","","","","","779.2999999970198","<p> You will earn points based on how you made the customer feel. </p><p> If you made her pleased, you will WIN anywhere from 1 - 9 points, </p><p> but if you made her annoyed, you will LOSE anywhere from 1 - 9 points. </p>","","0","instructions","","","","","","","","","","",""
"learning-instructions","65","417189","0.0-9.0-1.0-0.5","6289","1","11","Male","approach_avoid_spark_v1","""event"",""trial"",""time""
""fullscreenenter"",""1"",""1995""
","
","
","""event"",""trial"",""time""
""fullscreenenter"",""1"",""1995""
","
","","","","","","663.7999999970198","<p> You will see how many points you won or lost in the center of the screen. </p><p> Here is what you would see if you won 5 points: </p><p style=""color:green;font-size:50px;font-weight:bolder"">5</p>","","0","instructions","","","","","","","","","","",""
"learning-instructions","66","421262","0.0-9.0-1.0-0.6","6289","1","11","Male","approach_avoid_spark_v1","""event"",""trial"",""time""
""fullscreenenter"",""1"",""1995""
","
","
","""event"",""trial"",""time""
""fullscreenenter"",""1"",""1995""
","
","","","","","","435.59999999403954","<p> And here is what you would see if you lost 3 points: </p><p style=""color:red;font-size:50px;font-weight:bolder"">-3</p>","","0","instructions","","","","","","","","","","",""
"learning-instructions","67","437645","0.0-9.0-1.0-0.7","6289","1","11","Male","approach_avoid_spark_v1","""event"",""trial"",""time""
""fullscreenenter"",""1"",""1995""
","
","
","""event"",""trial"",""time""
""fullscreenenter"",""1"",""1995""
","
","","","","","","1170.0999999940395","<p> Some plants will make the customer VERY pleased or annoyed. </p><p> These plants will make you win or lose LOTS of points. </p><p> The customer will have less strong feelings about other plants. </p><p> These plants will make you win or lose small amounts of points. </p>","","0","instructions","","","","","","","","","","",""
"learning-instructions","68","452038","0.0-9.0-1.0-0.8","6289","1","11","Male","approach_avoid_spark_v1","""event"",""trial"",""time""
""fullscreenenter"",""1"",""1995""
","
","
","""event"",""trial"",""time""
""fullscreenenter"",""1"",""1995""
","
","","","","","","1252.8999999910593","<p> If you choose to not offer the plant to the customer, you will not win or lose any points. </p><p>  However, in the center of the screen, you will see the number of points you WOULD HAVE won or lost if you had offered the plant. </p>","","0","instructions","","","","","","","","","","",""
"learning-instructions","69","464958","0.0-9.0-1.0-0.9","6289","1","11","Male","approach_avoid_spark_v1","""event"",""trial"",""time""
""fullscreenenter"",""1"",""1995""
","
","
","""event"",""trial"",""time""
""fullscreenenter"",""1"",""1995""
","
","","","","","","1033.0999999940395","<p> Here is what you might see if you did not offer the plant but the customer would have liked it: </p><p style=""color:grey; font-size:50px; display: inline-block; border-spacing: 15px; border-width:3px; border-style:solid; border-color:red"">  &nbsp; 6 &nbsp; </p><p> Remember, in this case, you would not win or lose ANY points because you did not offer the plant.  </p>","","0","instructions","","","","","","","","","","",""
"learning-instructions","70","474445","0.0-9.0-1.0-0.10","6289","1","11","Male","approach_avoid_spark_v1","""event"",""trial"",""time""
""fullscreenenter"",""1"",""1995""
","
","
","""event"",""trial"",""time""
""fullscreenenter"",""1"",""1995""
","
","","","","","","1159.199999988079","<p> Try to make the best choice for each plant because </p><p> at the end of the game, you will earn bonus money based on how many points you earned. </p>","","0","instructions","","","","","","","","","","",""
"learning-instructions","71","484549","0.0-9.0-1.0-0.11","6289","1","11","Male","approach_avoid_spark_v1","""event"",""trial"",""time""
""fullscreenenter"",""1"",""1995""
","
","
","""event"",""trial"",""time""
""fullscreenenter"",""1"",""1995""
","
","","","","","","1903.5999999940395","<p> You will have 3 seconds to make each choice. Try to respond before time runs out! </p><p> You will lose 5 points each time you do not make a response. </p>","","0","instructions","","","","","","","","","","",""
"html-keyboard-response","72","485173","0.0-9.0-2.0-0.0","6289","1","11","Male","approach_avoid_spark_v1","""event"",""trial"",""time""
""fullscreenenter"",""1"",""1995""
","
","
","""event"",""trial"",""time""
""fullscreenenter"",""1"",""1995""
","
","","","","","","null","<div style=""font-size:60px;"">+</div>","null","","fixation","","","","","","","","","","",""
"aa-learning-trial","73","488184","0.0-9.0-2.0-1.0","6289","1","11","Male","approach_avoid_spark_v1","""event"",""trial"",""time""
""fullscreenenter"",""1"",""1995""
","
","
","""event"",""trial"",""time""
""fullscreenenter"",""1"",""1995""
","
","","","","","","2118.2000000029802","images/tree8.png","","","learning","-1","-1","1","1","tree","plants","1","0","","neutral","0"
"html-keyboard-response","74","488687","0.0-9.0-2.0-0.1","6289","1","11","Male","approach_avoid_spark_v1","""event"",""trial"",""time""
""fullscreenenter"",""1"",""1995""
","
","
","""event"",""trial"",""time""
""fullscreenenter"",""1"",""1995""
","
","","","","","","null","<div style=""font-size:60px;"">+</div>","null","","fixation","","","","","","","","","","",""
"aa-learning-trial","75","491696","0.0-9.0-2.0-1.1","6289","1","11","Male","approach_avoid_spark_v1","""event"",""trial"",""time""
""fullscreenenter"",""1"",""1995""
","
","
","""event"",""trial"",""time""
""fullscreenenter"",""1"",""1995""
","
","","","","","","1453.300000011921","images/tree2.png","","","learning","1","0","0","0","tree","plants","1","0","","neutral","0"
"html-keyboard-response","76","492199","0.0-9.0-2.0-0.2","6289","1","11","Male","approach_avoid_spark_v1","""event"",""trial"",""time""
""fullscreenenter"",""1"",""1995""
","
","
","""event"",""trial"",""time""
""fullscreenenter"",""1"",""1995""
","
","","","","","","null","<div style=""font-size:60px;"">+</div>","null","","fixation","","","","","","","","","","",""
"aa-learning-trial","77","495202","0.0-9.0-2.0-1.2","6289","1","11","Male","approach_avoid_spark_v1","""event"",""trial"",""time""
""fullscreenenter"",""1"",""1995""
","
","
","""event"",""trial"",""time""
""fullscreenenter"",""1"",""1995""
","
","","","","","","1636.4000000059605","images/bush2.png","","","learning","2","2","1","1","bush","plants","1","0","","good","[4]"
"html-keyboard-response","78","495703","0.0-9.0-2.0-0.3","6289","1","11","Male","approach_avoid_spark_v1","""event"",""trial"",""time""
""fullscreenenter"",""1"",""1995""
","
","
","""event"",""trial"",""time""
""fullscreenenter"",""1"",""1995""
","
","","","","","","null","<div style=""font-size:60px;"">+</div>","null","","fixation","","","","","","","","","","",""
"aa-learning-trial","79","498718","0.0-9.0-2.0-1.3","6289","1","11","Male","approach_avoid_spark_v1","""event"",""trial"",""time""
""fullscreenenter"",""1"",""1995""
","
","
","""event"",""trial"",""time""
""fullscreenenter"",""1"",""1995""
","
","","","","","","1140.7000000029802","images/flower7.png","","","learning","-6","-6","1","1","flower","plants","1","0","","bad","[-4]"
"html-keyboard-response","80","499221","0.0-9.0-2.0-0.4","6289","1","11","Male","approach_avoid_spark_v1","""event"",""trial"",""time""
""fullscreenenter"",""1"",""1995""
","
","
","""event"",""trial"",""time""
""fullscreenenter"",""1"",""1995""
","
","","","","","","null","<div style=""font-size:60px;"">+</div>","null","","fixation","","","","","","","","","","",""
"aa-learning-trial","81","502224","0.0-9.0-2.0-1.4","6289","1","11","Male","approach_avoid_spark_v1","""event"",""trial"",""time""
""fullscreenenter"",""1"",""1995""
","
","
","""event"",""trial"",""time""
""fullscreenenter"",""1"",""1995""
","
","","","","","","1238.3999999910593","images/bush3.png","","","learning","3","3","1","1","bush","plants","1","0","","good","[4]"
"html-keyboard-response","82","502727","0.0-9.0-2.0-0.5","6289","1","11","Male","approach_avoid_spark_v1","""event"",""trial"",""time""
""fullscreenenter"",""1"",""1995""
","
","
","""event"",""trial"",""time""
""fullscreenenter"",""1"",""1995""
","
","","","","","","null","<div style=""font-size:60px;"">+</div>","null","","fixation","","","","","","","","","","",""
"aa-learning-trial","83","505751","0.0-9.0-2.0-1.5","6289","1","11","Male","approach_avoid_spark_v1","""event"",""trial"",""time""
""fullscreenenter"",""1"",""1995""
","
","
","""event"",""trial"",""time""
""fullscreenenter"",""1"",""1995""
","
","","","","","","1028.5","images/flower7.png","","","learning","-6","0","0","0","flower","plants","1","0","","bad","[-4]"
"html-keyboard-response","84","506256","0.0-9.0-2.0-0.6","6289","1","11","Male","approach_avoid_spark_v1","""event"",""trial"",""time""
""fullscreenenter"",""1"",""1995""
","
","
","""event"",""trial"",""time""
""fullscreenenter"",""1"",""1995""
","
","","","","","","null","<div style=""font-size:60px;"">+</div>","null","","fixation","","","","","","","","","","",""
"aa-learning-trial","85","509267","0.0-9.0-2.0-1.6","6289","1","11","Male","approach_avoid_spark_v1","""event"",""trial"",""time""
""fullscreenenter"",""1"",""1995""
","
","
","""event"",""trial"",""time""
""fullscreenenter"",""1"",""1995""
","
","","","","","","1436.5","images/flower2.png","","","learning","-1","0","0","0","flower","plants","1","0","","bad","[-4]"
"html-keyboard-response","86","509783","0.0-9.0-2.0-0.7","6289","1","11","Male","approach_avoid_spark_v1","""event"",""trial"",""time""
""fullscreenenter"",""1"",""1995""
","
","
","""event"",""trial"",""time""
""fullscreenenter"",""1"",""1995""
","
","","","","","","null","<div style=""font-size:60px;"">+</div>","null","","fixation","","","","","","","","","","",""
"aa-learning-trial","87","512791","0.0-9.0-2.0-1.7","6289","1","11","Male","approach_avoid_spark_v1","""event"",""trial"",""time""
""fullscreenenter"",""1"",""1995""
","
","
","""event"",""trial"",""time""
""fullscreenenter"",""1"",""1995""
","
","","","","","","1347.4000000059605","images/flower6.png","","","learning","-5","0","0","0","flower","plants","1","0","","bad","[-4]"
"html-keyboard-response","88","513295","0.0-9.0-2.0-0.8","6289","1","11","Male","approach_avoid_spark_v1","""event"",""trial"",""time""
""fullscreenenter"",""1"",""1995""
","
","
","""event"",""trial"",""time""
""fullscreenenter"",""1"",""1995""
","
","","","","","","null","<div style=""font-size:60px;"">+</div>","null","","fixation","","","","","","","","","","",""
"aa-learning-trial","89","516302","0.0-9.0-2.0-1.8","6289","1","11","Male","approach_avoid_spark_v1","""event"",""trial"",""time""
""fullscreenenter"",""1"",""1995""
","
","
","""event"",""trial"",""time""
""fullscreenenter"",""1"",""1995""
","
","","","","","","973.2000000029802","images/bush2.png","","","learning","1","1","1","1","bush","plants","1","0","","good","[4]"
"html-keyboard-response","90","516805","0.0-9.0-2.0-0.9","6289","1","11","Male","approach_avoid_spark_v1","""event"",""trial"",""time""
""fullscreenenter"",""1"",""1995""
","
","
","""event"",""trial"",""time""
""fullscreenenter"",""1"",""1995""
","
","","","","","","null","<div style=""font-size:60px;"">+</div>","null","","fixation","","","","","","","","","","",""
"aa-learning-trial","91","519808","0.0-9.0-2.0-1.9","6289","1","11","Male","approach_avoid_spark_v1","""event"",""trial"",""time""
""fullscreenenter"",""1"",""1995""
","
","
","""event"",""trial"",""time""
""fullscreenenter"",""1"",""1995""
","
","","","","","","1415.2000000029802","images/tree2.png","","","learning","[1]","0","0","0","tree","plants","1","0","","neutral","0"
"html-keyboard-response","92","520311","0.0-9.0-2.0-0.10","6289","1","11","Male","approach_avoid_spark_v1","""event"",""trial"",""time""
""fullscreenenter"",""1"",""1995""
","
","
","""event"",""trial"",""time""
""fullscreenenter"",""1"",""1995""
","
","","","","","","null","<div style=""font-size:60px;"">+</div>","null","","fixation","","","","","","","","","","",""
"aa-learning-trial","93","523321","0.0-9.0-2.0-1.10","6289","1","11","Male","approach_avoid_spark_v1","""event"",""trial"",""time""
""fullscreenenter"",""1"",""1995""
","
","
","""event"",""trial"",""time""
""fullscreenenter"",""1"",""1995""
","
","","","","","","1125.0999999940395","images/tree8.png","","","learning","2","0","0","0","tree","plants","1","0","","neutral","0"
"html-keyboard-response","94","523824","0.0-9.0-2.0-0.11","6289","1","11","Male","approach_avoid_spark_v1","""event"",""trial"",""time""
""fullscreenenter"",""1"",""1995""
","
","
","""event"",""trial"",""time""
""fullscreenenter"",""1"",""1995""
","
","","","","","","null","<div style=""font-size:60px;"">+</div>","null","","fixation","","","","","","","","","","",""
"aa-learning-trial","95","526831","0.0-9.0-2.0-1.11","6289","1","11","Male","approach_avoid_spark_v1","""event"",""trial"",""time""
""fullscreenenter"",""1"",""1995""
","
","
","""event"",""trial"",""time""
""fullscreenenter"",""1"",""1995""
","
","","","","","","1627.7000000029802","images/tree3.png","","","learning","-2","-2","1","1","tree","plants","1","0","","neutral","0"
"html-keyboard-response","96","527334","0.0-9.0-2.0-0.12","6289","1","11","Male","approach_avoid_spark_v1","""event"",""trial"",""time""
""fullscreenenter"",""1"",""1995""
","
","
","""event"",""trial"",""time""
""fullscreenenter"",""1"",""1995""
","
","","","","","","null","<div style=""font-size:60px;"">+</div>","null","","fixation","","","","","","","","","","",""
"aa-learning-trial","97","530344","0.0-9.0-2.0-1.12","6289","1","11","Male","approach_avoid_spark_v1","""event"",""trial"",""time""
""fullscreenenter"",""1"",""1995""
","
","
","""event"",""trial"",""time""
""fullscreenenter"",""1"",""1995""
","
","","","","","","1558.5999999940395","images/bush3.png","","","learning","5","5","1","1","bush","plants","1","0","","good","[4]"
"html-keyboard-response","98","530848","0.0-9.0-2.0-0.13","6289","1","11","Male","approach_avoid_spark_v1","""event"",""trial"",""time""
""fullscreenenter"",""1"",""1995""
","
","
","""event"",""trial"",""time""
""fullscreenenter"",""1"",""1995""
","
","","","","","","null","<div style=""font-size:60px;"">+</div>","null","","fixation","","","","","","","","","","",""
"aa-learning-trial","99","533855","0.0-9.0-2.0-1.13","6289","1","11","Male","approach_avoid_spark_v1","""event"",""trial"",""time""
""fullscreenenter"",""1"",""1995""
","
","
","""event"",""trial"",""time""
""fullscreenenter"",""1"",""1995""
","
","","","","","","892.2000000029802","images/flower2.png","","","learning","-9","0","0","0","flower","plants","1","0","","bad","[-4]"
"html-keyboard-response","100","534359","0.0-9.0-2.0-0.14","6289","1","11","Male","approach_avoid_spark_v1","""event"",""trial"",""time""
""fullscreenenter"",""1"",""1995""
","
","
","""event"",""trial"",""time""
""fullscreenenter"",""1"",""1995""
","
","","","","","","null","<div style=""font-size:60px;"">+</div>","null","","fixation","","","","","","","","","","",""
"aa-learning-trial","101","537368","0.0-9.0-2.0-1.14","6289","1","11","Male","approach_avoid_spark_v1","""event"",""trial"",""time""
""fullscreenenter"",""1"",""1995""
","
","
","""event"",""trial"",""time""
""fullscreenenter"",""1"",""1995""
","
","","","","","","1747.7999999970198","images/bush1.png","","","learning","4","4","1","1","bush","plants","1","0","","good","[4]"
"html-keyboard-response","102","537869","0.0-9.0-2.0-0.15","6289","1","11","Male","approach_avoid_spark_v1","""event"",""trial"",""time""
""fullscreenenter"",""1"",""1995""
","
","
","""event"",""trial"",""time""
""fullscreenenter"",""1"",""1995""
","
","","","","","","null","<div style=""font-size:60px;"">+</div>","null","","fixation","","","","","","","","","","",""
"aa-learning-trial","103","540880","0.0-9.0-2.0-1.15","6289","1","11","Male","approach_avoid_spark_v1","""event"",""trial"",""time""
""fullscreenenter"",""1"",""1995""
","
","
","""event"",""trial"",""time""
""fullscreenenter"",""1"",""1995""
","
","","","","","","830.9000000059605","images/tree8.png","","","learning","1","0","0","0","tree","plants","1","0","","neutral","0"
"html-keyboard-response","104","541383","0.0-9.0-2.0-0.16","6289","1","11","Male","approach_avoid_spark_v1","""event"",""trial"",""time""
""fullscreenenter"",""1"",""1995""
","
","
","""event"",""trial"",""time""
""fullscreenenter"",""1"",""1995""
","
","","","","","","null","<div style=""font-size:60px;"">+</div>","null","","fixation","","","","","","","","","","",""
"aa-learning-trial","105","544390","0.0-9.0-2.0-1.16","6289","1","11","Male","approach_avoid_spark_v1","""event"",""trial"",""time""
""fullscreenenter"",""1"",""1995""
","
","
","""event"",""trial"",""time""
""fullscreenenter"",""1"",""1995""
","
","","","","","","1044.5999999940395","images/tree2.png","","","learning","1","1","1","1","tree","plants","1","0","","neutral","0"
"html-keyboard-response","106","544895","0.0-9.0-2.0-0.17","6289","1","11","Male","approach_avoid_spark_v1","""event"",""trial"",""time""
""fullscreenenter"",""1"",""1995""
","
","
","""event"",""trial"",""time""
""fullscreenenter"",""1"",""1995""
","
","","","","","","null","<div style=""font-size:60px;"">+</div>","null","","fixation","","","","","","","","","","",""
"aa-learning-trial","107","547902","0.0-9.0-2.0-1.17","6289","1","11","Male","approach_avoid_spark_v1","""event"",""trial"",""time""
""fullscreenenter"",""1"",""1995""
","
","
","""event"",""trial"",""time""
""fullscreenenter"",""1"",""1995""
","
","","","","","","989","images/bush2.png","","","learning","4","0","0","0","bush","plants","1","0","","good","[4]"
"html-keyboard-response","108","548406","0.0-9.0-2.0-0.18","6289","1","11","Male","approach_avoid_spark_v1","""event"",""trial"",""time""
""fullscreenenter"",""1"",""1995""
","
","
","""event"",""trial"",""time""
""fullscreenenter"",""1"",""1995""
","
","","","","","","null","<div style=""font-size:60px;"">+</div>","null","","fixation","","","","","","","","","","",""
"aa-learning-trial","109","551416","0.0-9.0-2.0-1.18","6289","1","11","Male","approach_avoid_spark_v1","""event"",""trial"",""time""
""fullscreenenter"",""1"",""1995""
","
","
","""event"",""trial"",""time""
""fullscreenenter"",""1"",""1995""
","
","","","","","","1462","images/tree7.png","","","learning","[-1]","-1","1","1","tree","plants","1","0","","neutral","0"
"html-keyboard-response","110","551918","0.0-9.0-2.0-0.19","6289","1","11","Male","approach_avoid_spark_v1","""event"",""trial"",""time""
""fullscreenenter"",""1"",""1995""
","
","
","""event"",""trial"",""time""
""fullscreenenter"",""1"",""1995""
","
","","","","","","null","<div style=""font-size:60px;"">+</div>","null","","fixation","","","","","","","","","","",""
"aa-learning-trial","111","554928","0.0-9.0-2.0-1.19","6289","1","11","Male","approach_avoid_spark_v1","""event"",""trial"",""time""
""fullscreenenter"",""1"",""1995""
","
","
","""event"",""trial"",""time""
""fullscreenenter"",""1"",""1995""
","
","","","","","","1774.5999999940395","images/tree2.png","","","learning","-3","0","0","0","tree","plants","1","0","","neutral","0"
"html-keyboard-response","112","555432","0.0-9.0-2.0-0.20","6289","1","11","Male","approach_avoid_spark_v1","""event"",""trial"",""time""
""fullscreenenter"",""1"",""1995""
","
","
","""event"",""trial"",""time""
""fullscreenenter"",""1"",""1995""
","
","","","","","","null","<div style=""font-size:60px;"">+</div>","null","","fixation","","","","","","","","","","",""
"aa-learning-trial","113","558440","0.0-9.0-2.0-1.20","6289","1","11","Male","approach_avoid_spark_v1","""event"",""trial"",""time""
""fullscreenenter"",""1"",""1995""
","
","
","""event"",""trial"",""time""
""fullscreenenter"",""1"",""1995""
","
","","","","","","772.6000000089407","images/flower2.png","","","learning","-5","0","0","0","flower","plants","1","0","","bad","[-4]"
"html-keyboard-response","114","558944","0.0-9.0-2.0-0.21","6289","1","11","Male","approach_avoid_spark_v1","""event"",""trial"",""time""
""fullscreenenter"",""1"",""1995""
","
","
","""event"",""trial"",""time""
""fullscreenenter"",""1"",""1995""
","
","","","","","","null","<div style=""font-size:60px;"">+</div>","null","","fixation","","","","","","","","","","",""
"aa-learning-trial","115","561953","0.0-9.0-2.0-1.21","6289","1","11","Male","approach_avoid_spark_v1","""event"",""trial"",""time""
""fullscreenenter"",""1"",""1995""
","
","
","""event"",""trial"",""time""
""fullscreenenter"",""1"",""1995""
","
","","","","","","1116.2000000029802","images/bush4.png","","","learning","3","3","1","1","bush","plants","1","0","","good","[4]"
"html-keyboard-response","116","562457","0.0-9.0-2.0-0.22","6289","1","11","Male","approach_avoid_spark_v1","""event"",""trial"",""time""
""fullscreenenter"",""1"",""1995""
","
","
","""event"",""trial"",""time""
""fullscreenenter"",""1"",""1995""
","
","","","","","","null","<div style=""font-size:60px;"">+</div>","null","","fixation","","","","","","","","","","",""
"aa-learning-trial","117","565464","0.0-9.0-2.0-1.22","6289","1","11","Male","approach_avoid_spark_v1","""event"",""trial"",""time""
""fullscreenenter"",""1"",""1995""
","
","
","""event"",""trial"",""time""
""fullscreenenter"",""1"",""1995""
","
","","","","","","978.7999999970198","images/tree2.png","","","learning","[1]","1","1","1","tree","plants","1","0","","neutral","0"
"html-keyboard-response","118","565968","0.0-9.0-2.0-0.23","6289","1","11","Male","approach_avoid_spark_v1","""event"",""trial"",""time""
""fullscreenenter"",""1"",""1995""
","
","
","""event"",""trial"",""time""
""fullscreenenter"",""1"",""1995""
","
","","","","","","null","<div style=""font-size:60px;"">+</div>","null","","fixation","","","","","","","","","","",""
"aa-learning-trial","119","568976","0.0-9.0-2.0-1.23","6289","1","11","Male","approach_avoid_spark_v1","""event"",""trial"",""time""
""fullscreenenter"",""1"",""1995""
","
","
","""event"",""trial"",""time""
""fullscreenenter"",""1"",""1995""
","
","","","","","","876.3000000119209","images/tree2.png","","","learning","1","1","1","1","tree","plants","1","0","","neutral","0"
"html-keyboard-response","120","569480","0.0-9.0-2.0-0.24","6289","1","11","Male","approach_avoid_spark_v1","""event"",""trial"",""time""
""fullscreenenter"",""1"",""1995""
","
","
","""event"",""trial"",""time""
""fullscreenenter"",""1"",""1995""
","
","","","","","","null","<div style=""font-size:60px;"">+</div>","null","","fixation","","","","","","","","","","",""
"aa-learning-trial","121","572488","0.0-9.0-2.0-1.24","6289","1","11","Male","approach_avoid_spark_v1","""event"",""trial"",""time""
""fullscreenenter"",""1"",""1995""
","
","
","""event"",""trial"",""time""
""fullscreenenter"",""1"",""1995""
","
","","","","","","1154.699999988079","images/bush6.png","","","learning","3","3","1","1","bush","plants","1","0","","good","[4]"
"html-keyboard-response","122","572992","0.0-9.0-2.0-0.25","6289","1","11","Male","approach_avoid_spark_v1","""event"",""trial"",""time""
""fullscreenenter"",""1"",""1995""
","
","
","""event"",""trial"",""time""
""fullscreenenter"",""1"",""1995""
","
","","","","","","null","<div style=""font-size:60px;"">+</div>","null","","fixation","","","","","","","","","","",""
"aa-learning-trial","123","576000","0.0-9.0-2.0-1.25","6289","1","11","Male","approach_avoid_spark_v1","""event"",""trial"",""time""
""fullscreenenter"",""1"",""1995""
","
","
","""event"",""trial"",""time""
""fullscreenenter"",""1"",""1995""
","
","","","","","","1051.7999999970198","images/bush3.png","","","learning","4","4","1","1","bush","plants","1","0","","good","[4]"
"html-keyboard-response","124","576504","0.0-9.0-2.0-0.26","6289","1","11","Male","approach_avoid_spark_v1","""event"",""trial"",""time""
""fullscreenenter"",""1"",""1995""
","
","
","""event"",""trial"",""time""
""fullscreenenter"",""1"",""1995""
","
","","","","","","null","<div style=""font-size:60px;"">+</div>","null","","fixation","","","","","","","","","","",""
"aa-learning-trial","125","579510","0.0-9.0-2.0-1.26","6289","1","11","Male","approach_avoid_spark_v1","""event"",""trial"",""time""
""fullscreenenter"",""1"",""1995""
","
","
","""event"",""trial"",""time""
""fullscreenenter"",""1"",""1995""
","
","","","","","","644.6999999880791","images/flower2.png","","","learning","-4","0","0","0","flower","plants","1","0","","bad","[-4]"
"html-keyboard-response","126","580017","0.0-9.0-2.0-0.27","6289","1","11","Male","approach_avoid_spark_v1","""event"",""trial"",""time""
""fullscreenenter"",""1"",""1995""
","
","
","""event"",""trial"",""time""
""fullscreenenter"",""1"",""1995""
","
","","","","","","null","<div style=""font-size:60px;"">+</div>","null","","fixation","","","","","","","","","","",""
"aa-learning-trial","127","583024","0.0-9.0-2.0-1.27","6289","1","11","Male","approach_avoid_spark_v1","""event"",""trial"",""time""
""fullscreenenter"",""1"",""1995""
","
","
","""event"",""trial"",""time""
""fullscreenenter"",""1"",""1995""
","
","","","","","","826.3999999910593","images/bush3.png","","","learning","8","8","1","1","bush","plants","1","0","","good","[4]"
"html-keyboard-response","128","583526","0.0-9.0-2.0-0.28","6289","1","11","Male","approach_avoid_spark_v1","""event"",""trial"",""time""
""fullscreenenter"",""1"",""1995""
","
","
","""event"",""trial"",""time""
""fullscreenenter"",""1"",""1995""
","
","","","","","","null","<div style=""font-size:60px;"">+</div>","null","","fixation","","","","","","","","","","",""
"aa-learning-trial","129","586534","0.0-9.0-2.0-1.28","6289","1","11","Male","approach_avoid_spark_v1","""event"",""trial"",""time""
""fullscreenenter"",""1"",""1995""
","
","
","""event"",""trial"",""time""
""fullscreenenter"",""1"",""1995""
","
","","","","","","693.4000000059605","images/flower7.png","","","learning","-4","0","0","0","flower","plants","1","0","","bad","[-4]"
"html-keyboard-response","130","587039","0.0-9.0-2.0-0.29","6289","1","11","Male","approach_avoid_spark_v1","""event"",""trial"",""time""
""fullscreenenter"",""1"",""1995""
","
","
","""event"",""trial"",""time""
""fullscreenenter"",""1"",""1995""
","
","","","","","","null","<div style=""font-size:60px;"">+</div>","null","","fixation","","","","","","","","","","",""
"aa-learning-trial","131","590047","0.0-9.0-2.0-1.29","6289","1","11","Male","approach_avoid_spark_v1","""event"",""trial"",""time""
""fullscreenenter"",""1"",""1995""
","
","
","""event"",""trial"",""time""
""fullscreenenter"",""1"",""1995""
","
","","","","","","861.3000000119209","images/bush1.png","","","learning","5","5","1","1","bush","plants","1","0","","good","[4]"
"html-keyboard-response","132","590551","0.0-9.0-2.0-0.30","6289","1","11","Male","approach_avoid_spark_v1","""event"",""trial"",""time""
""fullscreenenter"",""1"",""1995""
","
","
","""event"",""trial"",""time""
""fullscreenenter"",""1"",""1995""
","
","","","","","","null","<div style=""font-size:60px;"">+</div>","null","","fixation","","","","","","","","","","",""
"aa-learning-trial","133","593560","0.0-9.0-2.0-1.30","6289","1","11","Male","approach_avoid_spark_v1","""event"",""trial"",""time""
""fullscreenenter"",""1"",""1995""
","
","
","""event"",""trial"",""time""
""fullscreenenter"",""1"",""1995""
","
","","","","","","659.7999999970198","images/flower6.png","","","learning","-3","0","0","0","flower","plants","1","0","","bad","[-4]"
"html-keyboard-response","134","594064","0.0-9.0-2.0-0.31","6289","1","11","Male","approach_avoid_spark_v1","""event"",""trial"",""time""
""fullscreenenter"",""1"",""1995""
","
","
","""event"",""trial"",""time""
""fullscreenenter"",""1"",""1995""
","
","","","","","","null","<div style=""font-size:60px;"">+</div>","null","","fixation","","","","","","","","","","",""
"aa-learning-trial","135","597072","0.0-9.0-2.0-1.31","6289","1","11","Male","approach_avoid_spark_v1","""event"",""trial"",""time""
""fullscreenenter"",""1"",""1995""
","
","
","""event"",""trial"",""time""
""fullscreenenter"",""1"",""1995""
","
","","","","","","1117.0999999940395","images/bush2.png","","","learning","4","4","1","1","bush","plants","1","0","","good","[4]"
"html-keyboard-response","136","597573","0.0-9.0-2.0-0.32","6289","1","11","Male","approach_avoid_spark_v1","""event"",""trial"",""time""
""fullscreenenter"",""1"",""1995""
","
","
","""event"",""trial"",""time""
""fullscreenenter"",""1"",""1995""
","
","","","","","","null","<div style=""font-size:60px;"">+</div>","null","","fixation","","","","","","","","","","",""
"aa-learning-trial","137","600584","0.0-9.0-2.0-1.32","6289","1","11","Male","approach_avoid_spark_v1","""event"",""trial"",""time""
""fullscreenenter"",""1"",""1995""
","
","
","""event"",""trial"",""time""
""fullscreenenter"",""1"",""1995""
","
","","","","","","1175.9000000059605","images/bush2.png","","","learning","4","4","1","1","bush","plants","1","0","","good","[4]"
"html-keyboard-response","138","601088","0.0-9.0-2.0-0.33","6289","1","11","Male","approach_avoid_spark_v1","""event"",""trial"",""time""
""fullscreenenter"",""1"",""1995""
","
","
","""event"",""trial"",""time""
""fullscreenenter"",""1"",""1995""
","
","","","","","","null","<div style=""font-size:60px;"">+</div>","null","","fixation","","","","","","","","","","",""
"aa-learning-trial","139","604096","0.0-9.0-2.0-1.33","6289","1","11","Male","approach_avoid_spark_v1","""event"",""trial"",""time""
""fullscreenenter"",""1"",""1995""
","
","
","""event"",""trial"",""time""
""fullscreenenter"",""1"",""1995""
","
","","","","","","1308.800000011921","images/bush1.png","","","learning","4","0","0","0","bush","plants","1","0","","good","[4]"
"html-keyboard-response","140","604598","0.0-9.0-2.0-0.34","6289","1","11","Male","approach_avoid_spark_v1","""event"",""trial"",""time""
""fullscreenenter"",""1"",""1995""
","
","
","""event"",""trial"",""time""
""fullscreenenter"",""1"",""1995""
","
","","","","","","null","<div style=""font-size:60px;"">+</div>","null","","fixation","","","","","","","","","","",""
"aa-learning-trial","141","607608","0.0-9.0-2.0-1.34","6289","1","11","Male","approach_avoid_spark_v1","""event"",""trial"",""time""
""fullscreenenter"",""1"",""1995""
","
","
","""event"",""trial"",""time""
""fullscreenenter"",""1"",""1995""
","
","","","","","","805.5999999940395","images/bush2.png","","","learning","6","6","1","1","bush","plants","1","0","","good","[4]"
"html-keyboard-response","142","608112","0.0-9.0-2.0-0.35","6289","1","11","Male","approach_avoid_spark_v1","""event"",""trial"",""time""
""fullscreenenter"",""1"",""1995""
","
","
","""event"",""trial"",""time""
""fullscreenenter"",""1"",""1995""
","
","","","","","","null","<div style=""font-size:60px;"">+</div>","null","","fixation","","","","","","","","","","",""
"aa-learning-trial","143","611118","0.0-9.0-2.0-1.35","6289","1","11","Male","approach_avoid_spark_v1","""event"",""trial"",""time""
""fullscreenenter"",""1"",""1995""
","
","
","""event"",""trial"",""time""
""fullscreenenter"",""1"",""1995""
","
","","","","","","1484","images/tree3.png","","","learning","-3","-3","1","1","tree","plants","1","0","","neutral","0"
"html-keyboard-response","144","611621","0.0-9.0-2.0-0.36","6289","1","11","Male","approach_avoid_spark_v1","""event"",""trial"",""time""
""fullscreenenter"",""1"",""1995""
","
","
","""event"",""trial"",""time""
""fullscreenenter"",""1"",""1995""
","
","","","","","","null","<div style=""font-size:60px;"">+</div>","null","","fixation","","","","","","","","","","",""
"aa-learning-trial","145","614629","0.0-9.0-2.0-1.36","6289","1","11","Male","approach_avoid_spark_v1","""event"",""trial"",""time""
""fullscreenenter"",""1"",""1995""
","
","
","""event"",""trial"",""time""
""fullscreenenter"",""1"",""1995""
","
","","","","","","933.7999999970198","images/bush3.png","","","learning","5","5","1","1","bush","plants","1","0","","good","[4]"
"html-keyboard-response","146","615134","0.0-9.0-2.0-0.37","6289","1","11","Male","approach_avoid_spark_v1","""event"",""trial"",""time""
""fullscreenenter"",""1"",""1995""
","
","
","""event"",""trial"",""time""
""fullscreenenter"",""1"",""1995""
","
","","","","","","null","<div style=""font-size:60px;"">+</div>","null","","fixation","","","","","","","","","","",""
"aa-learning-trial","147","618144","0.0-9.0-2.0-1.37","6289","1","11","Male","approach_avoid_spark_v1","""event"",""trial"",""time""
""fullscreenenter"",""1"",""1995""
","
","
","""event"",""trial"",""time""
""fullscreenenter"",""1"",""1995""
","
","","","","","","846","images/bush3.png","","","learning","2","2","1","1","bush","plants","1","0","","good","[4]"
"html-keyboard-response","148","618647","0.0-9.0-2.0-0.38","6289","1","11","Male","approach_avoid_spark_v1","""event"",""trial"",""time""
""fullscreenenter"",""1"",""1995""
","
","
","""event"",""trial"",""time""
""fullscreenenter"",""1"",""1995""
","
","","","","","","null","<div style=""font-size:60px;"">+</div>","null","","fixation","","","","","","","","","","",""
"aa-learning-trial","149","621656","0.0-9.0-2.0-1.38","6289","1","11","Male","approach_avoid_spark_v1","""event"",""trial"",""time""
""fullscreenenter"",""1"",""1995""
","
","
","""event"",""trial"",""time""
""fullscreenenter"",""1"",""1995""
","
","","","","","","660","images/flower2.png","","","learning","-4","0","0","0","flower","plants","1","0","","bad","[-4]"
"html-keyboard-response","150","622160","0.0-9.0-2.0-0.39","6289","1","11","Male","approach_avoid_spark_v1","""event"",""trial"",""time""
""fullscreenenter"",""1"",""1995""
","
","
","""event"",""trial"",""time""
""fullscreenenter"",""1"",""1995""
","
","","","","","","null","<div style=""font-size:60px;"">+</div>","null","","fixation","","","","","","","","","","",""
"aa-learning-trial","151","625168","0.0-9.0-2.0-1.39","6289","1","11","Male","approach_avoid_spark_v1","""event"",""trial"",""time""
""fullscreenenter"",""1"",""1995""
","
","
","""event"",""trial"",""time""
""fullscreenenter"",""1"",""1995""
","
","","","","","","524.2000000029802","images/flower2.png","","","learning","-2","0","0","0","flower","plants","1","0","","bad","[-4]"
"html-keyboard-response","152","625671","0.0-9.0-2.0-0.40","6289","1","11","Male","approach_avoid_spark_v1","""event"",""trial"",""time""
""fullscreenenter"",""1"",""1995""
","
","
","""event"",""trial"",""time""
""fullscreenenter"",""1"",""1995""
","
","","","","","","null","<div style=""font-size:60px;"">+</div>","null","","fixation","","","","","","","","","","",""
"aa-learning-trial","153","628680","0.0-9.0-2.0-1.40","6289","1","11","Male","approach_avoid_spark_v1","""event"",""trial"",""time""
""fullscreenenter"",""1"",""1995""
","
","
","""event"",""trial"",""time""
""fullscreenenter"",""1"",""1995""
","
","","","","","","883.9000000059605","images/flower3.png","","","learning","-4","0","0","0","flower","plants","1","0","","bad","[-4]"
"html-keyboard-response","154","629184","0.0-9.0-2.0-0.41","6289","1","11","Male","approach_avoid_spark_v1","""event"",""trial"",""time""
""fullscreenenter"",""1"",""1995""
","
","
","""event"",""trial"",""time""
""fullscreenenter"",""1"",""1995""
","
","","","","","","null","<div style=""font-size:60px;"">+</div>","null","","fixation","","","","","","","","","","",""
"aa-learning-trial","155","632192","0.0-9.0-2.0-1.41","6289","1","11","Male","approach_avoid_spark_v1","""event"",""trial"",""time""
""fullscreenenter"",""1"",""1995""
","
","
","""event"",""trial"",""time""
""fullscreenenter"",""1"",""1995""
","
","","","","","","651.8999999910593","images/flower7.png","","","learning","-4","0","0","0","flower","plants","1","0","","bad","[-4]"
"html-keyboard-response","156","632697","0.0-9.0-2.0-0.42","6289","1","11","Male","approach_avoid_spark_v1","""event"",""trial"",""time""
""fullscreenenter"",""1"",""1995""
","
","
","""event"",""trial"",""time""
""fullscreenenter"",""1"",""1995""
","
","","","","","","null","<div style=""font-size:60px;"">+</div>","null","","fixation","","","","","","","","","","",""
"aa-learning-trial","157","635704","0.0-9.0-2.0-1.42","6289","1","11","Male","approach_avoid_spark_v1","""event"",""trial"",""time""
""fullscreenenter"",""1"",""1995""
","
","
","""event"",""trial"",""time""
""fullscreenenter"",""1"",""1995""
","
","","","","","","724","images/tree8.png","","","learning","[-1]","-1","1","1","tree","plants","1","0","","neutral","0"
"html-keyboard-response","158","636208","0.0-9.0-2.0-0.43","6289","1","11","Male","approach_avoid_spark_v1","""event"",""trial"",""time""
""fullscreenenter"",""1"",""1995""
","
","
","""event"",""trial"",""time""
""fullscreenenter"",""1"",""1995""
","
","","","","","","null","<div style=""font-size:60px;"">+</div>","null","","fixation","","","","","","","","","","",""
"aa-learning-trial","159","639217","0.0-9.0-2.0-1.43","6289","1","11","Male","approach_avoid_spark_v1","""event"",""trial"",""time""
""fullscreenenter"",""1"",""1995""
","
","
","""event"",""trial"",""time""
""fullscreenenter"",""1"",""1995""
","
","","","","","","635.2999999970198","images/flower6.png","","","learning","-4","0","0","0","flower","plants","1","0","","bad","[-4]"
"html-keyboard-response","160","639720","0.0-9.0-2.0-0.44","6289","1","11","Male","approach_avoid_spark_v1","""event"",""trial"",""time""
""fullscreenenter"",""1"",""1995""
","
","
","""event"",""trial"",""time""
""fullscreenenter"",""1"",""1995""
","
","","","","","","null","<div style=""font-size:60px;"">+</div>","null","","fixation","","","","","","","","","","",""
"aa-learning-trial","161","642728","0.0-9.0-2.0-1.44","6289","1","11","Male","approach_avoid_spark_v1","""event"",""trial"",""time""
""fullscreenenter"",""1"",""1995""
","
","
","""event"",""trial"",""time""
""fullscreenenter"",""1"",""1995""
","
","","","","","","1107.1000000089407","images/tree8.png","","","learning","1","1","1","1","tree","plants","1","0","","neutral","0"
"html-keyboard-response","162","643232","0.0-9.0-2.0-0.45","6289","1","11","Male","approach_avoid_spark_v1","""event"",""trial"",""time""
""fullscreenenter"",""1"",""1995""
","
","
","""event"",""trial"",""time""
""fullscreenenter"",""1"",""1995""
","
","","","","","","null","<div style=""font-size:60px;"">+</div>","null","","fixation","","","","","","","","","","",""
"aa-learning-trial","163","646240","0.0-9.0-2.0-1.45","6289","1","11","Male","approach_avoid_spark_v1","""event"",""trial"",""time""
""fullscreenenter"",""1"",""1995""
","
","
","""event"",""trial"",""time""
""fullscreenenter"",""1"",""1995""
","
","","","","","","797.2000000029802","images/tree8.png","","","learning","-1","-1","1","1","tree","plants","1","0","","neutral","0"
"html-keyboard-response","164","646742","0.0-9.0-2.0-0.46","6289","1","11","Male","approach_avoid_spark_v1","""event"",""trial"",""time""
""fullscreenenter"",""1"",""1995""
","
","
","""event"",""trial"",""time""
""fullscreenenter"",""1"",""1995""
","
","","","","","","null","<div style=""font-size:60px;"">+</div>","null","","fixation","","","","","","","","","","",""
"aa-learning-trial","165","649751","0.0-9.0-2.0-1.46","6289","1","11","Male","approach_avoid_spark_v1","""event"",""trial"",""time""
""fullscreenenter"",""1"",""1995""
","
","
","""event"",""trial"",""time""
""fullscreenenter"",""1"",""1995""
","
","","","","","","917.5999999940395","images/tree3.png","","","learning","[-1]","-1","1","1","tree","plants","1","0","","neutral","0"
"html-keyboard-response","166","650256","0.0-9.0-2.0-0.47","6289","1","11","Male","approach_avoid_spark_v1","""event"",""trial"",""time""
""fullscreenenter"",""1"",""1995""
","
","
","""event"",""trial"",""time""
""fullscreenenter"",""1"",""1995""
","
","","","","","","null","<div style=""font-size:60px;"">+</div>","null","","fixation","","","","","","","","","","",""
"aa-learning-trial","167","653264","0.0-9.0-2.0-1.47","6289","1","11","Male","approach_avoid_spark_v1","""event"",""trial"",""time""
""fullscreenenter"",""1"",""1995""
","
","
","""event"",""trial"",""time""
""fullscreenenter"",""1"",""1995""
","
","","","","","","955","images/tree1.png","","","learning","1","1","1","1","tree","plants","1","0","","neutral","0"
"html-keyboard-response","168","653769","0.0-9.0-2.0-0.48","6289","1","11","Male","approach_avoid_spark_v1","""event"",""trial"",""time""
""fullscreenenter"",""1"",""1995""
","
","
","""event"",""trial"",""time""
""fullscreenenter"",""1"",""1995""
","
","","","","","","null","<div style=""font-size:60px;"">+</div>","null","","fixation","","","","","","","","","","",""
"aa-learning-trial","169","656776","0.0-9.0-2.0-1.48","6289","1","11","Male","approach_avoid_spark_v1","""event"",""trial"",""time""
""fullscreenenter"",""1"",""1995""
","
","
","""event"",""trial"",""time""
""fullscreenenter"",""1"",""1995""
","
","","","","","","740.2999999970198","images/flower4.png","","","learning","-4","0","0","0","flower","plants","1","0","","bad","[-4]"
"html-keyboard-response","170","657280","0.0-9.0-2.0-0.49","6289","1","11","Male","approach_avoid_spark_v1","""event"",""trial"",""time""
""fullscreenenter"",""1"",""1995""
","
","
","""event"",""trial"",""time""
""fullscreenenter"",""1"",""1995""
","
","","","","","","null","<div style=""font-size:60px;"">+</div>","null","","fixation","","","","","","","","","","",""
"aa-learning-trial","171","660288","0.0-9.0-2.0-1.49","6289","1","11","Male","approach_avoid_spark_v1","""event"",""trial"",""time""
""fullscreenenter"",""1"",""1995""
","
","
","""event"",""trial"",""time""
""fullscreenenter"",""1"",""1995""
","
","","","","","","876","images/flower7.png","","","learning","-4","0","0","0","flower","plants","1","0","","bad","[-4]"
"html-keyboard-response","172","660792","0.0-9.0-2.0-0.50","6289","1","11","Male","approach_avoid_spark_v1","""event"",""trial"",""time""
""fullscreenenter"",""1"",""1995""
","
","
","""event"",""trial"",""time""
""fullscreenenter"",""1"",""1995""
","
","","","","","","null","<div style=""font-size:60px;"">+</div>","null","","fixation","","","","","","","","","","",""
"aa-learning-trial","173","663799","0.0-9.0-2.0-1.50","6289","1","11","Male","approach_avoid_spark_v1","""event"",""trial"",""time""
""fullscreenenter"",""1"",""1995""
","
","
","""event"",""trial"",""time""
""fullscreenenter"",""1"",""1995""
","
","","","","","","708.2999999970198","images/flower7.png","","","learning","-3","0","0","0","flower","plants","1","0","","bad","[-4]"
"html-button-response","174","665813","0.0-9.0-3.0","6289","1","11","Male","approach_avoid_spark_v1","""event"",""trial"",""time""
""fullscreenenter"",""1"",""1995""
","
","
","""event"",""trial"",""time""
""fullscreenenter"",""1"",""1995""
","
","","","","","","2011.6000000089407","<p> You have completed the round! <p> In this round, you earned 48 points! </p>","0","","break","","","","","","","","","","",""
"html-button-response","175","667229","0.0-10.0","6289","1","11","Male","approach_avoid_spark_v1","""event"",""trial"",""time""
""fullscreenenter"",""1"",""1995""
","
","
","""event"",""trial"",""time""
""fullscreenenter"",""1"",""1995""
","
","","","","","","1415.2000000029802","<p> Now it's time to play another round. </p>","0","","transition_screen","","","","","","","","","","",""
"preload","176","667346","0.0-11.0-0.0","6289","1","11","Male","approach_avoid_spark_v1","""event"",""trial"",""time""
""fullscreenenter"",""1"",""1995""
","
","
","""event"",""trial"",""time""
""fullscreenenter"",""1"",""1995""
","
","true","false","[]","[]","[]","","","","","","","","","","","","","","","",""
"learning-instructions","177","674341","0.0-11.0-1.0-0.0","6289","1","11","Male","approach_avoid_spark_v1","""event"",""trial"",""time""
""fullscreenenter"",""1"",""1995""
","
","
","""event"",""trial"",""time""
""fullscreenenter"",""1"",""1995""
","
","","","","","","1688.7999999970198","<p> Your goal in this round is to decorate your friend's new house with furniture. </p></div>","","0","instructions","","","","","","","","","","",""
"learning-instructions","178","685189","0.0-11.0-1.0-0.1","6289","1","11","Male","approach_avoid_spark_v1","""event"",""trial"",""time""
""fullscreenenter"",""1"",""1995""
","
","
","""event"",""trial"",""time""
""fullscreenenter"",""1"",""1995""
","
","","","","","","636.0999999940395","<p> Your friend likes some pieces of furniture but not others.  </p><p> On each turn, you will see a piece of furniture.   </p><p> You need to decide whether to put it in your friend's house or not.  </p>","","0","instructions","","","","","","","","","","",""
"learning-instructions","179","692293","0.0-11.0-1.0-0.2","6289","1","11","Male","approach_avoid_spark_v1","""event"",""trial"",""time""
""fullscreenenter"",""1"",""1995""
","
","
","""event"",""trial"",""time""
""fullscreenenter"",""1"",""1995""
","
","","","","","","1220.1000000089407","<p> You can put the furniture in her house by pressing 1 and deliver it elsewhere by pressing 0. </p><br><div class=""choice-instructions-grid""> <div class=""choice-option""><img src=""images/approach.png"" class=""choice-option-img"" stage=""instructions"" position=""0"" ><div class=""choice-option-text""> Press ""1."" </div></div><div class=""choice-option""><img src=""images/avoid.png"" class=""choice-option-img"" stage=""instructions"" position=""1"" ><div class=""choice-option-text""> Press ""0."" </div></div>","","0","instructions","","","","","","","","","","",""
"learning-instructions","180","703461","0.0-11.0-1.0-0.3","6289","1","11","Male","approach_avoid_spark_v1","""event"",""trial"",""time""
""fullscreenenter"",""1"",""1995""
","
","
","""event"",""trial"",""time""
""fullscreenenter"",""1"",""1995""
","
","","","","","","1137.5999999940395","<p> If you decorate your friend's house with furniture she likes, she will be happy! </p><p> But if you give her furniture that she does not like, she will be annoyed. </p>","","0","instructions","","","","","","","","","","",""
"learning-instructions","181","717205","0.0-11.0-1.0-0.4","6289","1","11","Male","approach_avoid_spark_v1","""event"",""trial"",""time""
""fullscreenenter"",""1"",""1995""
","
","
","""event"",""trial"",""time""
""fullscreenenter"",""1"",""1995""
","
","","","","","","1031.7000000029802","<p> You will earn points based on how you made your friend feel. </p><p> If you made her happy, you will WIN anywhere from 1 - 9 points, </p><p> but if you made her annoyed you will LOSE anywhere from 1 - 9 points. </p>","","0","instructions","","","","","","","","","","",""
"learning-instructions","182","724374","0.0-11.0-1.0-0.5","6289","1","11","Male","approach_avoid_spark_v1","""event"",""trial"",""time""
""fullscreenenter"",""1"",""1995""
","
","
","""event"",""trial"",""time""
""fullscreenenter"",""1"",""1995""
","
","","","","","","510","<p> You will see how many points you won or lost in the center of the screen. </p><p> Here is what you would see if you won 5 points: </p><p style=""color:green;font-size:50px;font-weight:bolder"">5</p>","","0","instructions","","","","","","","","","","",""
"learning-instructions","183","727549","0.0-11.0-1.0-0.6","6289","1","11","Male","approach_avoid_spark_v1","""event"",""trial"",""time""
""fullscreenenter"",""1"",""1995""
","
","
","""event"",""trial"",""time""
""fullscreenenter"",""1"",""1995""
","
","","","","","","335.79999999701977","<p> And here is what you would see if you lost 3 points: </p><p style=""color:red;font-size:50px;font-weight:bolder"">-3</p>","","0","instructions","","","","","","","","","","",""
"learning-instructions","184","747029","0.0-11.0-1.0-0.7","6289","1","11","Male","approach_avoid_spark_v1","""event"",""trial"",""time""
""fullscreenenter"",""1"",""1995""
","
","
","""event"",""trial"",""time""
""fullscreenenter"",""1"",""1995""
","
","","","","","","1556.199999988079","<p> Some pieces of furniture will make her feel very happy or very annoyed. </p><p> These pieces of furniture will make you win or lose LOTS of points. </p><p> Other pieces of furniture will only make her feel a little happy or a little annoyed. </p><p> These pieces of furniture will make you win or lose small amounts of points. </p>","","0","instructions","","","","","","","","","","",""
"learning-instructions","185","761005","0.0-11.0-1.0-0.8","6289","1","11","Male","approach_avoid_spark_v1","""event"",""trial"",""time""
""fullscreenenter"",""1"",""1995""
","
","
","""event"",""trial"",""time""
""fullscreenenter"",""1"",""1995""
","
","","","","","","661.6999999880791","<p> If you choose to deliver a piece of furniture elsewhere, you will not win or lose any points. </p><p>  However, in the center of the screen, you will see the number of points you WOULD HAVE won or lost if you had given the furniture to your friend. </p>","","0","instructions","","","","","","","","","","",""
"learning-instructions","186","774621","0.0-11.0-1.0-0.9","6289","1","11","Male","approach_avoid_spark_v1","""event"",""trial"",""time""
""fullscreenenter"",""1"",""1995""
","
","
","""event"",""trial"",""time""
""fullscreenenter"",""1"",""1995""
","
","","","","","","1778.199999988079","<p> Here is what you might see if you did not give a piece of furniture to your friend that would have made her happy: </p><p style=""color:grey; font-size:50px; display: inline-block; border-spacing: 15px; border-width:3px; border-style:solid; border-color:red"">  &nbsp; 6 &nbsp; </p><p> Remember, in this case, you would not win or lose ANY points because you did not give her the furniture.  </p>","","0","instructions","","","","","","","","","","",""
"learning-instructions","187","783333","0.0-11.0-1.0-0.10","6289","1","11","Male","approach_avoid_spark_v1","""event"",""trial"",""time""
""fullscreenenter"",""1"",""1995""
","
","
","""event"",""trial"",""time""
""fullscreenenter"",""1"",""1995""
","
","","","","","","889.6000000089407","<p> Try to make the best choice for each piece of furniture because </p><p> at the end of the game, you will earn bonus money based on how many points you earned. </p>","","0","instructions","","","","","","","","","","",""
"learning-instructions","188","791901","0.0-11.0-1.0-0.11","6289","1","11","Male","approach_avoid_spark_v1","""event"",""trial"",""time""
""fullscreenenter"",""1"",""1995""
","
","
","""event"",""trial"",""time""
""fullscreenenter"",""1"",""1995""
","
","","","","","","357.40000000596046","<p> You will have 3 seconds to make each choice. Try to respond before time runs out! </p><p> You will lose 5 points each time you do not make a response. </p>","","0","instructions","","","","","","","","","","",""
"html-keyboard-response","189","792517","0.0-11.0-2.0-0.0","6289","1","11","Male","approach_avoid_spark_v1","""event"",""trial"",""time""
""fullscreenenter"",""1"",""1995""
","
","
","""event"",""trial"",""time""
""fullscreenenter"",""1"",""1995""
","
","","","","","","null","<div style=""font-size:60px;"">+</div>","null","","fixation","","","","","","","","","","",""
"aa-learning-trial","190","795533","0.0-11.0-2.0-1.0","6289","1","11","Male","approach_avoid_spark_v1","""event"",""trial"",""time""
""fullscreenenter"",""1"",""1995""
","
","
","""event"",""trial"",""time""
""fullscreenenter"",""1"",""1995""
","
","","","","","","1045.4000000059605","images/table2.png","","","learning","4","4","1","1","table","furniture","2","1","","neutral","0"
"html-keyboard-response","191","796046","0.0-11.0-2.0-0.1","6289","1","11","Male","approach_avoid_spark_v1","""event"",""trial"",""time""
""fullscreenenter"",""1"",""1995""
","
","
","""event"",""trial"",""time""
""fullscreenenter"",""1"",""1995""
","
","","","","","","null","<div style=""font-size:60px;"">+</div>","null","","fixation","","","","","","","","","","",""
"aa-learning-trial","192","799067","0.0-11.0-2.0-1.1","6289","1","11","Male","approach_avoid_spark_v1","""event"",""trial"",""time""
""fullscreenenter"",""1"",""1995""
","
","
","""event"",""trial"",""time""
""fullscreenenter"",""1"",""1995""
","
","","","","","","669.0999999940395","images/table2.png","","","learning","4","4","1","1","table","furniture","2","1","","neutral","0"
"html-keyboard-response","193","799583","0.0-11.0-2.0-0.2","6289","1","11","Male","approach_avoid_spark_v1","""event"",""trial"",""time""
""fullscreenenter"",""1"",""1995""
","
","
","""event"",""trial"",""time""
""fullscreenenter"",""1"",""1995""
","
","","","","","","null","<div style=""font-size:60px;"">+</div>","null","","fixation","","","","","","","","","","",""
"aa-learning-trial","194","802601","0.0-11.0-2.0-1.2","6289","1","11","Male","approach_avoid_spark_v1","""event"",""trial"",""time""
""fullscreenenter"",""1"",""1995""
","
","
","""event"",""trial"",""time""
""fullscreenenter"",""1"",""1995""
","
","","","","","","955.9000000059605","images/chair1.png","","","learning","3","3","1","1","chair","furniture","2","1","","bad","[-5]"
"html-keyboard-response","195","803115","0.0-11.0-2.0-0.3","6289","1","11","Male","approach_avoid_spark_v1","""event"",""trial"",""time""
""fullscreenenter"",""1"",""1995""
","
","
","""event"",""trial"",""time""
""fullscreenenter"",""1"",""1995""
","
","","","","","","null","<div style=""font-size:60px;"">+</div>","null","","fixation","","","","","","","","","","",""
"aa-learning-trial","196","806133","0.0-11.0-2.0-1.3","6289","1","11","Male","approach_avoid_spark_v1","""event"",""trial"",""time""
""fullscreenenter"",""1"",""1995""
","
","
","""event"",""trial"",""time""
""fullscreenenter"",""1"",""1995""
","
","","","","","","1185.4000000059605","images/chair2.png","","","learning","-5","-5","1","1","chair","furniture","2","1","","bad","[-5]"
"html-keyboard-response","197","806650","0.0-11.0-2.0-0.4","6289","1","11","Male","approach_avoid_spark_v1","""event"",""trial"",""time""
""fullscreenenter"",""1"",""1995""
","
","
","""event"",""trial"",""time""
""fullscreenenter"",""1"",""1995""
","
","","","","","","null","<div style=""font-size:60px;"">+</div>","null","","fixation","","","","","","","","","","",""
"aa-learning-trial","198","809665","0.0-11.0-2.0-1.4","6289","1","11","Male","approach_avoid_spark_v1","""event"",""trial"",""time""
""fullscreenenter"",""1"",""1995""
","
","
","""event"",""trial"",""time""
""fullscreenenter"",""1"",""1995""
","
","","","","","","992.8999999910593","images/sofa8.png","","","learning","7","7","1","1","sofa","furniture","2","1","","good","[4]"
"html-keyboard-response","199","810167","0.0-11.0-2.0-0.5","6289","1","11","Male","approach_avoid_spark_v1","""event"",""trial"",""time""
""fullscreenenter"",""1"",""1995""
","
","
","""event"",""trial"",""time""
""fullscreenenter"",""1"",""1995""
","
","","","","","","null","<div style=""font-size:60px;"">+</div>","null","","fixation","","","","","","","","","","",""
"aa-learning-trial","200","813180","0.0-11.0-2.0-1.5","6289","1","11","Male","approach_avoid_spark_v1","""event"",""trial"",""time""
""fullscreenenter"",""1"",""1995""
","
","
","""event"",""trial"",""time""
""fullscreenenter"",""1"",""1995""
","
","","","","","","1300.5","images/table7.png","","","learning","-4","-4","1","1","table","furniture","2","1","","neutral","0"
"html-keyboard-response","201","813700","0.0-11.0-2.0-0.6","6289","1","11","Male","approach_avoid_spark_v1","""event"",""trial"",""time""
""fullscreenenter"",""1"",""1995""
","
","
","""event"",""trial"",""time""
""fullscreenenter"",""1"",""1995""
","
","","","","","","null","<div style=""font-size:60px;"">+</div>","null","","fixation","","","","","","","","","","",""
"aa-learning-trial","202","816717","0.0-11.0-2.0-1.6","6289","1","11","Male","approach_avoid_spark_v1","""event"",""trial"",""time""
""fullscreenenter"",""1"",""1995""
","
","
","""event"",""trial"",""time""
""fullscreenenter"",""1"",""1995""
","
","","","","","","918.8999999910593","images/sofa7.png","","","learning","5","5","1","1","sofa","furniture","2","1","","good","[4]"
"html-keyboard-response","203","817233","0.0-11.0-2.0-0.7","6289","1","11","Male","approach_avoid_spark_v1","""event"",""trial"",""time""
""fullscreenenter"",""1"",""1995""
","
","
","""event"",""trial"",""time""
""fullscreenenter"",""1"",""1995""
","
","","","","","","null","<div style=""font-size:60px;"">+</div>","null","","fixation","","","","","","","","","","",""
"aa-learning-trial","204","820240","0.0-11.0-2.0-1.7","6289","1","11","Male","approach_avoid_spark_v1","""event"",""trial"",""time""
""fullscreenenter"",""1"",""1995""
","
","
","""event"",""trial"",""time""
""fullscreenenter"",""1"",""1995""
","
","","","","","","985.5999999940395","images/chair8.png","","","learning","2","0","0","0","chair","furniture","2","1","","bad","[-5]"
"html-keyboard-response","205","820748","0.0-11.0-2.0-0.8","6289","1","11","Male","approach_avoid_spark_v1","""event"",""trial"",""time""
""fullscreenenter"",""1"",""1995""
","
","
","""event"",""trial"",""time""
""fullscreenenter"",""1"",""1995""
","
","","","","","","null","<div style=""font-size:60px;"">+</div>","null","","fixation","","","","","","","","","","",""
"aa-learning-trial","206","823752","0.0-11.0-2.0-1.8","6289","1","11","Male","approach_avoid_spark_v1","""event"",""trial"",""time""
""fullscreenenter"",""1"",""1995""
","
","
","""event"",""trial"",""time""
""fullscreenenter"",""1"",""1995""
","
","","","","","","830.2999999970198","images/sofa3.png","","","learning","1","1","1","1","sofa","furniture","2","1","","good","[4]"
"html-keyboard-response","207","824255","0.0-11.0-2.0-0.9","6289","1","11","Male","approach_avoid_spark_v1","""event"",""trial"",""time""
""fullscreenenter"",""1"",""1995""
","
","
","""event"",""trial"",""time""
""fullscreenenter"",""1"",""1995""
","
","","","","","","null","<div style=""font-size:60px;"">+</div>","null","","fixation","","","","","","","","","","",""
"aa-learning-trial","208","827264","0.0-11.0-2.0-1.9","6289","1","11","Male","approach_avoid_spark_v1","""event"",""trial"",""time""
""fullscreenenter"",""1"",""1995""
","
","
","""event"",""trial"",""time""
""fullscreenenter"",""1"",""1995""
","
","","","","","","1325","images/sofa8.png","","","learning","7","7","1","1","sofa","furniture","2","1","","good","[4]"
"html-keyboard-response","209","827767","0.0-11.0-2.0-0.10","6289","1","11","Male","approach_avoid_spark_v1","""event"",""trial"",""time""
""fullscreenenter"",""1"",""1995""
","
","
","""event"",""trial"",""time""
""fullscreenenter"",""1"",""1995""
","
","","","","","","null","<div style=""font-size:60px;"">+</div>","null","","fixation","","","","","","","","","","",""
"aa-learning-trial","210","830775","0.0-11.0-2.0-1.10","6289","1","11","Male","approach_avoid_spark_v1","""event"",""trial"",""time""
""fullscreenenter"",""1"",""1995""
","
","
","""event"",""trial"",""time""
""fullscreenenter"",""1"",""1995""
","
","","","","","","1011.7000000029802","images/sofa3.png","","","learning","1","0","0","0","sofa","furniture","2","1","","good","[4]"
"html-keyboard-response","211","831280","0.0-11.0-2.0-0.11","6289","1","11","Male","approach_avoid_spark_v1","""event"",""trial"",""time""
""fullscreenenter"",""1"",""1995""
","
","
","""event"",""trial"",""time""
""fullscreenenter"",""1"",""1995""
","
","","","","","","null","<div style=""font-size:60px;"">+</div>","null","","fixation","","","","","","","","","","",""
"aa-learning-trial","212","834293","0.0-11.0-2.0-1.11","6289","1","11","Male","approach_avoid_spark_v1","""event"",""trial"",""time""
""fullscreenenter"",""1"",""1995""
","
","
","""event"",""trial"",""time""
""fullscreenenter"",""1"",""1995""
","
","","","","","","1130.7000000029802","images/table8.png","","","learning","-8","0","0","0","table","furniture","2","1","","neutral","0"
"html-keyboard-response","213","834799","0.0-11.0-2.0-0.12","6289","1","11","Male","approach_avoid_spark_v1","""event"",""trial"",""time""
""fullscreenenter"",""1"",""1995""
","
","
","""event"",""trial"",""time""
""fullscreenenter"",""1"",""1995""
","
","","","","","","null","<div style=""font-size:60px;"">+</div>","null","","fixation","","","","","","","","","","",""
"aa-learning-trial","214","837807","0.0-11.0-2.0-1.12","6289","1","11","Male","approach_avoid_spark_v1","""event"",""trial"",""time""
""fullscreenenter"",""1"",""1995""
","
","
","""event"",""trial"",""time""
""fullscreenenter"",""1"",""1995""
","
","","","","","","1820.0999999940395","images/chair1.png","","","learning","3","0","0","0","chair","furniture","2","1","","bad","[-5]"
"html-keyboard-response","215","838311","0.0-11.0-2.0-0.13","6289","1","11","Male","approach_avoid_spark_v1","""event"",""trial"",""time""
""fullscreenenter"",""1"",""1995""
","
","
","""event"",""trial"",""time""
""fullscreenenter"",""1"",""1995""
","
","","","","","","null","<div style=""font-size:60px;"">+</div>","null","","fixation","","","","","","","","","","",""
"aa-learning-trial","216","841319","0.0-11.0-2.0-1.13","6289","1","11","Male","approach_avoid_spark_v1","""event"",""trial"",""time""
""fullscreenenter"",""1"",""1995""
","
","
","""event"",""trial"",""time""
""fullscreenenter"",""1"",""1995""
","
","","","","","","1156.6000000089407","images/chair2.png","","","learning","-5","-5","1","1","chair","furniture","2","1","","bad","[-5]"
"html-keyboard-response","217","841824","0.0-11.0-2.0-0.14","6289","1","11","Male","approach_avoid_spark_v1","""event"",""trial"",""time""
""fullscreenenter"",""1"",""1995""
","
","
","""event"",""trial"",""time""
""fullscreenenter"",""1"",""1995""
","
","","","","","","null","<div style=""font-size:60px;"">+</div>","null","","fixation","","","","","","","","","","",""
"aa-learning-trial","218","844831","0.0-11.0-2.0-1.14","6289","1","11","Male","approach_avoid_spark_v1","""event"",""trial"",""time""
""fullscreenenter"",""1"",""1995""
","
","
","""event"",""trial"",""time""
""fullscreenenter"",""1"",""1995""
","
","","","","","","939.7999999970198","images/table8.png","","","learning","-8","0","0","0","table","furniture","2","1","","neutral","0"
"html-keyboard-response","219","845335","0.0-11.0-2.0-0.15","6289","1","11","Male","approach_avoid_spark_v1","""event"",""trial"",""time""
""fullscreenenter"",""1"",""1995""
","
","
","""event"",""trial"",""time""
""fullscreenenter"",""1"",""1995""
","
","","","","","","null","<div style=""font-size:60px;"">+</div>","null","","fixation","","","","","","","","","","",""
"aa-learning-trial","220","848343","0.0-11.0-2.0-1.15","6289","1","11","Male","approach_avoid_spark_v1","""event"",""trial"",""time""
""fullscreenenter"",""1"",""1995""
","
","
","""event"",""trial"",""time""
""fullscreenenter"",""1"",""1995""
","
","","","","","","1283.5","images/table2.png","","","learning","4","0","0","0","table","furniture","2","1","","neutral","0"
"html-keyboard-response","221","848847","0.0-11.0-2.0-0.16","6289","1","11","Male","approach_avoid_spark_v1","""event"",""trial"",""time""
""fullscreenenter"",""1"",""1995""
","
","
","""event"",""trial"",""time""
""fullscreenenter"",""1"",""1995""
","
","","","","","","null","<div style=""font-size:60px;"">+</div>","null","","fixation","","","","","","","","","","",""
"aa-learning-trial","222","851855","0.0-11.0-2.0-1.16","6289","1","11","Male","approach_avoid_spark_v1","""event"",""trial"",""time""
""fullscreenenter"",""1"",""1995""
","
","
","""event"",""trial"",""time""
""fullscreenenter"",""1"",""1995""
","
","","","","","","940.5","images/table5.png","","","learning","9","9","1","1","table","furniture","2","1","","neutral","0"
"html-keyboard-response","223","852359","0.0-11.0-2.0-0.17","6289","1","11","Male","approach_avoid_spark_v1","""event"",""trial"",""time""
""fullscreenenter"",""1"",""1995""
","
","
","""event"",""trial"",""time""
""fullscreenenter"",""1"",""1995""
","
","","","","","","null","<div style=""font-size:60px;"">+</div>","null","","fixation","","","","","","","","","","",""
"aa-learning-trial","224","855368","0.0-11.0-2.0-1.17","6289","1","11","Male","approach_avoid_spark_v1","""event"",""trial"",""time""
""fullscreenenter"",""1"",""1995""
","
","
","""event"",""trial"",""time""
""fullscreenenter"",""1"",""1995""
","
","","","","","","1892.5","images/sofa2.png","","","learning","-6","0","0","0","sofa","furniture","2","1","","good","[4]"
"html-keyboard-response","225","855871","0.0-11.0-2.0-0.18","6289","1","11","Male","approach_avoid_spark_v1","""event"",""trial"",""time""
""fullscreenenter"",""1"",""1995""
","
","
","""event"",""trial"",""time""
""fullscreenenter"",""1"",""1995""
","
","","","","","","null","<div style=""font-size:60px;"">+</div>","null","","fixation","","","","","","","","","","",""
"aa-learning-trial","226","858880","0.0-11.0-2.0-1.18","6289","1","11","Male","approach_avoid_spark_v1","""event"",""trial"",""time""
""fullscreenenter"",""1"",""1995""
","
","
","""event"",""trial"",""time""
""fullscreenenter"",""1"",""1995""
","
","","","","","","1259.1000000089407","images/chair8.png","","","learning","2","2","1","1","chair","furniture","2","1","","bad","[-5]"
"html-keyboard-response","227","859383","0.0-11.0-2.0-0.19","6289","1","11","Male","approach_avoid_spark_v1","""event"",""trial"",""time""
""fullscreenenter"",""1"",""1995""
","
","
","""event"",""trial"",""time""
""fullscreenenter"",""1"",""1995""
","
","","","","","","null","<div style=""font-size:60px;"">+</div>","null","","fixation","","","","","","","","","","",""
"aa-learning-trial","228","862391","0.0-11.0-2.0-1.19","6289","1","11","Male","approach_avoid_spark_v1","""event"",""trial"",""time""
""fullscreenenter"",""1"",""1995""
","
","
","""event"",""trial"",""time""
""fullscreenenter"",""1"",""1995""
","
","","","","","","915.3999999910593","images/chair2.png","","","learning","-5","-5","1","1","chair","furniture","2","1","","bad","[-5]"
"html-keyboard-response","229","862895","0.0-11.0-2.0-0.20","6289","1","11","Male","approach_avoid_spark_v1","""event"",""trial"",""time""
""fullscreenenter"",""1"",""1995""
","
","
","""event"",""trial"",""time""
""fullscreenenter"",""1"",""1995""
","
","","","","","","null","<div style=""font-size:60px;"">+</div>","null","","fixation","","","","","","","","","","",""
"aa-learning-trial","230","865901","0.0-11.0-2.0-1.20","6289","1","11","Male","approach_avoid_spark_v1","""event"",""trial"",""time""
""fullscreenenter"",""1"",""1995""
","
","
","""event"",""trial"",""time""
""fullscreenenter"",""1"",""1995""
","
","","","","","","1867","images/sofa7.png","","","learning","5","5","1","1","sofa","furniture","2","1","","good","[4]"
"html-keyboard-response","231","866407","0.0-11.0-2.0-0.21","6289","1","11","Male","approach_avoid_spark_v1","""event"",""trial"",""time""
""fullscreenenter"",""1"",""1995""
","
","
","""event"",""trial"",""time""
""fullscreenenter"",""1"",""1995""
","
","","","","","","null","<div style=""font-size:60px;"">+</div>","null","","fixation","","","","","","","","","","",""
"aa-learning-trial","232","869416","0.0-11.0-2.0-1.21","6289","1","11","Male","approach_avoid_spark_v1","""event"",""trial"",""time""
""fullscreenenter"",""1"",""1995""
","
","
","""event"",""trial"",""time""
""fullscreenenter"",""1"",""1995""
","
","","","","","","1220.2000000029802","images/chair2.png","","","learning","-5","0","0","0","chair","furniture","2","1","","bad","[-5]"
"html-keyboard-response","233","869919","0.0-11.0-2.0-0.22","6289","1","11","Male","approach_avoid_spark_v1","""event"",""trial"",""time""
""fullscreenenter"",""1"",""1995""
","
","
","""event"",""trial"",""time""
""fullscreenenter"",""1"",""1995""
","
","","","","","","null","<div style=""font-size:60px;"">+</div>","null","","fixation","","","","","","","","","","",""
"aa-learning-trial","234","872928","0.0-11.0-2.0-1.22","6289","1","11","Male","approach_avoid_spark_v1","""event"",""trial"",""time""
""fullscreenenter"",""1"",""1995""
","
","
","""event"",""trial"",""time""
""fullscreenenter"",""1"",""1995""
","
","","","","","","1308.7999999970198","images/sofa3.png","","","learning","1","1","1","1","sofa","furniture","2","1","","good","[4]"
"html-keyboard-response","235","873431","0.0-11.0-2.0-0.23","6289","1","11","Male","approach_avoid_spark_v1","""event"",""trial"",""time""
""fullscreenenter"",""1"",""1995""
","
","
","""event"",""trial"",""time""
""fullscreenenter"",""1"",""1995""
","
","","","","","","null","<div style=""font-size:60px;"">+</div>","null","","fixation","","","","","","","","","","",""
"aa-learning-trial","236","876439","0.0-11.0-2.0-1.23","6289","1","11","Male","approach_avoid_spark_v1","""event"",""trial"",""time""
""fullscreenenter"",""1"",""1995""
","
","
","""event"",""trial"",""time""
""fullscreenenter"",""1"",""1995""
","
","","","","","","724.2999999970198","images/sofa3.png","","","learning","1","1","1","1","sofa","furniture","2","1","","good","[4]"
