"trial_type","trial_index","time_elapsed","internal_node_id","subject_id","task_condition","age","gender","task_version","interactions","blur_events","focus_events","fullscreenenter_events","fullscreenexit_events","success","timeout","failed_images","failed_audio","failed_video","rt","stimulus","response","button_pressed","task_part","approach_reward","points","key_press","option_selected","stim_cat","task_block","block_condition","block_number","correct","cat_type","mean_cat_reward"
"pavlovia","0","3","0.0-0.0","5627","1","14","Male","approach_avoid_spark_v1","""event"",""trial"",""time""
""fullscreenenter"",""1"",""1806""
","
","
","""event"",""trial"",""time""
""fullscreenenter"",""1"",""1806""
","
","","","","","","","","","","","","","","","","","","","","",""
"fullscreen","1","2812","0.0-1.0","5627","1","14","Male","approach_avoid_spark_v1","""event"",""trial"",""time""
""fullscreenenter"",""1"",""1806""
","
","
","""event"",""trial"",""time""
""fullscreenenter"",""1"",""1806""
","
","true","","","","","","","","","","","","","","","","","","","",""
"preload","2","5121","0.0-2.0","5627","1","14","Male","approach_avoid_spark_v1","""event"",""trial"",""time""
""fullscreenenter"",""1"",""1806""
","
","
","""event"",""trial"",""time""
""fullscreenenter"",""1"",""1806""
","
","true","false","[]","[]","[]","","","","","","","","","","","","","","","",""
"audio-keyboard-response","3","7767","0.0-3.0","5627","1","14","Male","approach_avoid_spark_v1","""event"",""trial"",""time""
""fullscreenenter"",""1"",""1806""
","
","
","""event"",""trial"",""time""
""fullscreenenter"",""1"",""1806""
","
","","","","","","2640","audio/beep_loop.wav"," ","","","","","","","","","","","","",""
"audio-button-response","4","9889","0.0-4.0","5627","1","14","Male","approach_avoid_spark_v1","""event"",""trial"",""time""
""fullscreenenter"",""1"",""1806""
","
","
","""event"",""trial"",""time""
""fullscreenenter"",""1"",""1806""
","
","","","","","","2120","audio/shark.wav","4","","","","","","","","","","","","",""
"audio-button-response","5","12155","0.0-5.0","5627","1","14","Male","approach_avoid_spark_v1","""event"",""trial"",""time""
""fullscreenenter"",""1"",""1806""
","
","
","""event"",""trial"",""time""
""fullscreenenter"",""1"",""1806""
","
","","","","","","1259","audio/turtle.wav","1","","","","","","","","","","","","",""
"preload","6","14508","0.0-6.0","5627","1","14","Male","approach_avoid_spark_v1","""event"",""trial"",""time""
""fullscreenenter"",""1"",""1806""
","
","
","""event"",""trial"",""time""
""fullscreenenter"",""1"",""1806""
","
","true","false","[]","[]","[]","","","","","","","","","","","","","","","",""
"html-keyboard-response","7","37790","0.0-7.0","5627","1","14","Male","approach_avoid_spark_v1","""event"",""trial"",""time""
""fullscreenenter"",""1"",""1806""
","
","
","""event"",""trial"",""time""
""fullscreenenter"",""1"",""1806""
","
","","","","","","23280.700000001118","Welcome to the experiment. Press any key to begin and to advance the instructions."," ","","","","","","","","","","","","",""
"learning-instructions","8","47421","0.0-8.0-0.0-0.0","5627","1","14","Male","approach_avoid_spark_v1","""event"",""trial"",""time""
""fullscreenenter"",""1"",""1806""
","
","
","""event"",""trial"",""time""
""fullscreenenter"",""1"",""1806""
","
","","","","","","2671.699999999255","<p> Welcome! Today you are going to play 6 different rounds of a decision-making game. </p><p> Use the mouse to click next to continue. </p>","","0","instructions","","","","","","","","","","",""
"learning-instructions","9","50732","0.0-8.0-0.0-0.1","5627","1","14","Male","approach_avoid_spark_v1","""event"",""trial"",""time""
""fullscreenenter"",""1"",""1806""
","
","
","""event"",""trial"",""time""
""fullscreenenter"",""1"",""1806""
","
","","","","","","582.6999999992549","<p> You will start with a practice round to learn the rules. </p>","","0","instructions","","","","","","","","","","",""
"learning-instructions","10","54567","0.0-8.0-0.0-0.2","5627","1","14","Male","approach_avoid_spark_v1","""event"",""trial"",""time""
""fullscreenenter"",""1"",""1806""
","
","
","""event"",""trial"",""time""
""fullscreenenter"",""1"",""1806""
","
","","","","","","388.1000000014901","<p> Your goal in this round is to give out sports equipment to kids. </p></div>","","0","instructions","","","","","","","","","","",""
"learning-instructions","11","64943","0.0-8.0-0.0-0.3","5627","1","14","Male","approach_avoid_spark_v1","""event"",""trial"",""time""
""fullscreenenter"",""1"",""1806""
""blur"",""12"",""99848""
""focus"",""12"",""99850""
""fullscreenexit"",""12"",""99872""
""blur"",""12"",""100874""
""focus"",""12"",""101000""
""blur"",""12"",""104418""
""focus"",""12"",""107047""
","""event"",""trial"",""time""
""blur"",""12"",""99848""
""blur"",""12"",""100874""
""blur"",""12"",""104418""
","""event"",""trial"",""time""
""focus"",""12"",""99850""
""focus"",""12"",""101000""
""focus"",""12"",""107047""
","""event"",""trial"",""time""
""fullscreenenter"",""1"",""1806""
","""event"",""trial"",""time""
""fullscreenexit"",""12"",""99872""
","","","","","","2823.4000000003725","<p> The kids only like some of the equipment.  </p><p> On each turn, you will see a piece of sports equipment.   </p><p> You need to decide whether to give it to the kids or not.  </p>","","0","instructions","","","","","","","","","","",""
"learning-instructions","12","110121","0.0-8.0-0.0-0.4","5627","1","14","Male","approach_avoid_spark_v1","""event"",""trial"",""time""
""fullscreenenter"",""1"",""1806""
""blur"",""12"",""99848""
""focus"",""12"",""99850""
""fullscreenexit"",""12"",""99872""
""blur"",""12"",""100874""
""focus"",""12"",""101000""
""blur"",""12"",""104418""
""focus"",""12"",""107047""
","""event"",""trial"",""time""
""blur"",""12"",""99848""
""blur"",""12"",""100874""
""blur"",""12"",""104418""
","""event"",""trial"",""time""
""focus"",""12"",""99850""
""focus"",""12"",""101000""
""focus"",""12"",""107047""
","""event"",""trial"",""time""
""fullscreenenter"",""1"",""1806""
","""event"",""trial"",""time""
""fullscreenexit"",""12"",""99872""
","","","","","","40432","<p> You can give them the equipment by pressing 1 and choose not to give it to them by pressing 0. </p><br><div class=""choice-instructions-grid""> <div class=""choice-option""><img src=""images/approach.png"" class=""choice-option-img"" stage=""instructions"" position=""0"" ><div class=""choice-option-text""> Press ""1."" </div></div><div class=""choice-option""><img src=""images/avoid.png"" class=""choice-option-img"" stage=""instructions"" position=""1"" ><div class=""choice-option-text""> Press ""0."" </div></div>","","0","instructions","","","","","","","","","","",""
"learning-instructions","13","119638","0.0-8.0-0.0-0.5","5627","1","14","Male","approach_avoid_spark_v1","""event"",""trial"",""time""
""fullscreenenter"",""1"",""1806""
""blur"",""12"",""99848""
""focus"",""12"",""99850""
""fullscreenexit"",""12"",""99872""
""blur"",""12"",""100874""
""focus"",""12"",""101000""
""blur"",""12"",""104418""
""focus"",""12"",""107047""
","""event"",""trial"",""time""
""blur"",""12"",""99848""
""blur"",""12"",""100874""
""blur"",""12"",""104418""
","""event"",""trial"",""time""
""focus"",""12"",""99850""
""focus"",""12"",""101000""
""focus"",""12"",""107047""
","""event"",""trial"",""time""
""fullscreenenter"",""1"",""1806""
","""event"",""trial"",""time""
""fullscreenexit"",""12"",""99872""
","","","","","","2128.9000000003725","<p> If you give them a piece of equipment they like, they will be happy! </p><p> But if you give them a piece of equipment they do not like, they will be sad. </p>","","0","instructions","","","","","","","","","","",""
"learning-instructions","14","132298","0.0-8.0-0.0-0.6","5627","1","14","Male","approach_avoid_spark_v1","""event"",""trial"",""time""
""fullscreenenter"",""1"",""1806""
""blur"",""12"",""99848""
""focus"",""12"",""99850""
""fullscreenexit"",""12"",""99872""
""blur"",""12"",""100874""
""focus"",""12"",""101000""
""blur"",""12"",""104418""
""focus"",""12"",""107047""
","""event"",""trial"",""time""
""blur"",""12"",""99848""
""blur"",""12"",""100874""
""blur"",""12"",""104418""
","""event"",""trial"",""time""
""focus"",""12"",""99850""
""focus"",""12"",""101000""
""focus"",""12"",""107047""
","""event"",""trial"",""time""
""fullscreenenter"",""1"",""1806""
","""event"",""trial"",""time""
""fullscreenexit"",""12"",""99872""
","","","","","","2149.7000000011176","<p> You will earn points based on how you make kids feel. </p><p> If you make them happy, you will WIN anywhere from 1 - 9 points, </p><p> but if you make them sad, you will LOSE anywhere from 1 - 9 points. </p>","","0","instructions","","","","","","","","","","",""
"learning-instructions","15","205008","0.0-8.0-0.0-0.7","5627","1","14","Male","approach_avoid_spark_v1","""event"",""trial"",""time""
""fullscreenenter"",""1"",""1806""
""blur"",""12"",""99848""
""focus"",""12"",""99850""
""fullscreenexit"",""12"",""99872""
""blur"",""12"",""100874""
""focus"",""12"",""101000""
""blur"",""12"",""104418""
""focus"",""12"",""107047""
","""event"",""trial"",""time""
""blur"",""12"",""99848""
""blur"",""12"",""100874""
""blur"",""12"",""104418""
","""event"",""trial"",""time""
""focus"",""12"",""99850""
""focus"",""12"",""101000""
""focus"",""12"",""107047""
","""event"",""trial"",""time""
""fullscreenenter"",""1"",""1806""
","""event"",""trial"",""time""
""fullscreenexit"",""12"",""99872""
","","","","","","63159.89999999851","<p> You will see how many points you won or lost in the center of the screen. </p><p> Here is what you would see if you won 6 points: </p><p style=""color:green;font-size:50px;font-weight:bolder"">6</p><p style=""color:green"">The text is GREEN because you WON points.</p>","","0","instructions","","","","","","","","","","",""
"learning-instructions","16","211487","0.0-8.0-0.0-0.8","5627","1","14","Male","approach_avoid_spark_v1","""event"",""trial"",""time""
""fullscreenenter"",""1"",""1806""
""blur"",""12"",""99848""
""focus"",""12"",""99850""
""fullscreenexit"",""12"",""99872""
""blur"",""12"",""100874""
""focus"",""12"",""101000""
""blur"",""12"",""104418""
""focus"",""12"",""107047""
""blur"",""17"",""220442""
""focus"",""17"",""221058""
","""event"",""trial"",""time""
""blur"",""12"",""99848""
""blur"",""12"",""100874""
""blur"",""12"",""104418""
""blur"",""17"",""220442""
","""event"",""trial"",""time""
""focus"",""12"",""99850""
""focus"",""12"",""101000""
""focus"",""12"",""107047""
""focus"",""17"",""221058""
","""event"",""trial"",""time""
""fullscreenenter"",""1"",""1806""
","""event"",""trial"",""time""
""fullscreenexit"",""12"",""99872""
","","","","","","978.7999999988824","<p> And here is what you would see if you lost 4 points: </p><p style=""color:red;font-size:50px;font-weight:bolder"">-4</p><p style=""color:red"">The text is RED because you LOST points. </p>","","0","instructions","","","","","","","","","","",""
"learning-instructions","17","227382","0.0-8.0-0.0-0.9","5627","1","14","Male","approach_avoid_spark_v1","""event"",""trial"",""time""
""fullscreenenter"",""1"",""1806""
""blur"",""12"",""99848""
""focus"",""12"",""99850""
""fullscreenexit"",""12"",""99872""
""blur"",""12"",""100874""
""focus"",""12"",""101000""
""blur"",""12"",""104418""
""focus"",""12"",""107047""
""blur"",""17"",""220442""
""focus"",""17"",""221058""
","""event"",""trial"",""time""
""blur"",""12"",""99848""
""blur"",""12"",""100874""
""blur"",""12"",""104418""
""blur"",""17"",""220442""
","""event"",""trial"",""time""
""focus"",""12"",""99850""
""focus"",""12"",""101000""
""focus"",""12"",""107047""
""focus"",""17"",""221058""
","""event"",""trial"",""time""
""fullscreenenter"",""1"",""1806""
","""event"",""trial"",""time""
""fullscreenexit"",""12"",""99872""
","","","","","","1183.699999999255","<p> Some of the equipment will make the kids VERY happy or sad. </p><p> These pieces of equipment will make you win or lose LOTS of points. </p><p> Other pieces of equipment will only make the kids a little happy or sad. </p><p> These pieces of equipment will make you win or lose small amounts of points. </p>","","0","instructions","","","","","","","","","","",""
"learning-instructions","18","239105","0.0-8.0-0.0-0.10","5627","1","14","Male","approach_avoid_spark_v1","""event"",""trial"",""time""
""fullscreenenter"",""1"",""1806""
""blur"",""12"",""99848""
""focus"",""12"",""99850""
""fullscreenexit"",""12"",""99872""
""blur"",""12"",""100874""
""focus"",""12"",""101000""
""blur"",""12"",""104418""
""focus"",""12"",""107047""
""blur"",""17"",""220442""
""focus"",""17"",""221058""
","""event"",""trial"",""time""
""blur"",""12"",""99848""
""blur"",""12"",""100874""
""blur"",""12"",""104418""
""blur"",""17"",""220442""
","""event"",""trial"",""time""
""focus"",""12"",""99850""
""focus"",""12"",""101000""
""focus"",""12"",""107047""
""focus"",""17"",""221058""
","""event"",""trial"",""time""
""fullscreenenter"",""1"",""1806""
","""event"",""trial"",""time""
""fullscreenexit"",""12"",""99872""
","","","","","","1095.7999999988824","<p> If you choose not to give them the equipment, you will not win or lose any points. </p><p>  However, in the center of the screen, you will see the number of points you WOULD HAVE won or lost if you had given them the equipment. </p>","","0","instructions","","","","","","","","","","",""
"learning-instructions","19","261750","0.0-8.0-0.0-0.11","5627","1","14","Male","approach_avoid_spark_v1","""event"",""trial"",""time""
""fullscreenenter"",""1"",""1806""
""blur"",""12"",""99848""
""focus"",""12"",""99850""
""fullscreenexit"",""12"",""99872""
""blur"",""12"",""100874""
""focus"",""12"",""101000""
""blur"",""12"",""104418""
""focus"",""12"",""107047""
""blur"",""17"",""220442""
""focus"",""17"",""221058""
","""event"",""trial"",""time""
""blur"",""12"",""99848""
""blur"",""12"",""100874""
""blur"",""12"",""104418""
""blur"",""17"",""220442""
","""event"",""trial"",""time""
""focus"",""12"",""99850""
""focus"",""12"",""101000""
""focus"",""12"",""107047""
""focus"",""17"",""221058""
","""event"",""trial"",""time""
""fullscreenenter"",""1"",""1806""
","""event"",""trial"",""time""
""fullscreenexit"",""12"",""99872""
","","","","","","1111.4000000003725","<p> Here is what you might see if you did not give the equipment to the kids but it would have made them happy: </p><p style=""color:grey; font-size:50px; display: inline-block; border-spacing: 15px; border-width:3px; border-style:solid; border-color:red"">  &nbsp; 7 &nbsp; </p><p> Remember, in this case, you would not win or lose ANY points because you did not give them the equipment.  </p><p style=""color:grey"">The text is GREY because you earned ZERO points. </p><p style=""color:red"">However, choosing to give the kids the equipment would have made you win points. The box around the text is RED because you chose the worse option. </p>","","0","instructions","","","","","","","","","","",""
"learning-instructions","20","285283","0.0-8.0-0.0-0.12","5627","1","14","Male","approach_avoid_spark_v1","""event"",""trial"",""time""
""fullscreenenter"",""1"",""1806""
""blur"",""12"",""99848""
""focus"",""12"",""99850""
""fullscreenexit"",""12"",""99872""
""blur"",""12"",""100874""
""focus"",""12"",""101000""
""blur"",""12"",""104418""
""focus"",""12"",""107047""
""blur"",""17"",""220442""
""focus"",""17"",""221058""
","""event"",""trial"",""time""
""blur"",""12"",""99848""
""blur"",""12"",""100874""
""blur"",""12"",""104418""
""blur"",""17"",""220442""
","""event"",""trial"",""time""
""focus"",""12"",""99850""
""focus"",""12"",""101000""
""focus"",""12"",""107047""
""focus"",""17"",""221058""
","""event"",""trial"",""time""
""fullscreenenter"",""1"",""1806""
","""event"",""trial"",""time""
""fullscreenexit"",""12"",""99872""
","","","","","","2464.699999999255","<p> Here is what you might see if you did not give the equipment to the kids but it would have made them sad: </p><p style=""color:grey;font-size:50px; display: inline-block; border-spacing: 15px; border-width:3px; border-style:solid; border-color:green"">  &nbsp; -8 &nbsp; </p><p> Remember, in this case, you would not win or lose ANY points because you did not give them the equipment.  </p><p style=""color:grey"">The text is GREY because you earned ZERO points. </p><p  style=""color:green""> Choosing to give the kids the equipment would have made you lose points. The box around the text is GREEN because you chose the better option.</p>","","0","instructions","","","","","","","","","","",""
"learning-instructions","21","296480","0.0-8.0-0.0-0.13","5627","1","14","Male","approach_avoid_spark_v1","""event"",""trial"",""time""
""fullscreenenter"",""1"",""1806""
""blur"",""12"",""99848""
""focus"",""12"",""99850""
""fullscreenexit"",""12"",""99872""
""blur"",""12"",""100874""
""focus"",""12"",""101000""
""blur"",""12"",""104418""
""focus"",""12"",""107047""
""blur"",""17"",""220442""
""focus"",""17"",""221058""
","""event"",""trial"",""time""
""blur"",""12"",""99848""
""blur"",""12"",""100874""
""blur"",""12"",""104418""
""blur"",""17"",""220442""
","""event"",""trial"",""time""
""focus"",""12"",""99850""
""focus"",""12"",""101000""
""focus"",""12"",""107047""
""focus"",""17"",""221058""
","""event"",""trial"",""time""
""fullscreenenter"",""1"",""1806""
","""event"",""trial"",""time""
""fullscreenexit"",""12"",""99872""
","","","","","","1590.9000000003725","<p> You will have 3 seconds to make each choice. Try to respond before time runs out! </p><p> You will lose 5 points each time you do not make a response. </p>","","0","instructions","","","","","","","","","","",""
"learning-instructions","22","303569","0.0-8.0-0.0-0.14","5627","1","14","Male","approach_avoid_spark_v1","""event"",""trial"",""time""
""fullscreenenter"",""1"",""1806""
""blur"",""12"",""99848""
""focus"",""12"",""99850""
""fullscreenexit"",""12"",""99872""
""blur"",""12"",""100874""
""focus"",""12"",""101000""
""blur"",""12"",""104418""
""focus"",""12"",""107047""
""blur"",""17"",""220442""
""focus"",""17"",""221058""
","""event"",""trial"",""time""
""blur"",""12"",""99848""
""blur"",""12"",""100874""
""blur"",""12"",""104418""
""blur"",""17"",""220442""
","""event"",""trial"",""time""
""focus"",""12"",""99850""
""focus"",""12"",""101000""
""focus"",""12"",""107047""
""focus"",""17"",""221058""
","""event"",""trial"",""time""
""fullscreenenter"",""1"",""1806""
","""event"",""trial"",""time""
""fullscreenexit"",""12"",""99872""
","","","","","","1680","<p> This is just a practice round, but in the real game, your bonus payment will depend on your total number of points.","","0","instructions","","","","","","","","","","",""
"learning-instructions","23","309962","0.0-8.0-0.0-0.15","5627","1","14","Male","approach_avoid_spark_v1","""event"",""trial"",""time""
""fullscreenenter"",""1"",""1806""
""blur"",""12"",""99848""
""focus"",""12"",""99850""
""fullscreenexit"",""12"",""99872""
""blur"",""12"",""100874""
""focus"",""12"",""101000""
""blur"",""12"",""104418""
""focus"",""12"",""107047""
""blur"",""17"",""220442""
""focus"",""17"",""221058""
","""event"",""trial"",""time""
""blur"",""12"",""99848""
""blur"",""12"",""100874""
""blur"",""12"",""104418""
""blur"",""17"",""220442""
","""event"",""trial"",""time""
""focus"",""12"",""99850""
""focus"",""12"",""101000""
""focus"",""12"",""107047""
""focus"",""17"",""221058""
","""event"",""trial"",""time""
""fullscreenenter"",""1"",""1806""
","""event"",""trial"",""time""
""fullscreenexit"",""12"",""99872""
","","","","","","632.9000000003725","<p> Remember, you can give them the equipment by pressing 1 and choose not to give it to them by pressing 0. </p><br><div class=""choice-instructions-grid""> <div class=""choice-option""><img src=""images/approach.png"" class=""choice-option-img"" stage=""instructions"" position=""0"" ><div class=""choice-option-text""> Press ""1."" </div></div><div class=""choice-option""><img src=""images/avoid.png"" class=""choice-option-img"" stage=""instructions"" position=""1"" ><div class=""choice-option-text""> Press ""0."" </div></div>","","0","instructions","","","","","","","","","","",""
"html-button-response","24","311463","0.0-8.0-1.0","5627","1","14","Male","approach_avoid_spark_v1","""event"",""trial"",""time""
""fullscreenenter"",""1"",""1806""
""blur"",""12"",""99848""
""focus"",""12"",""99850""
""fullscreenexit"",""12"",""99872""
""blur"",""12"",""100874""
""focus"",""12"",""101000""
""blur"",""12"",""104418""
""focus"",""12"",""107047""
""blur"",""17"",""220442""
""focus"",""17"",""221058""
","""event"",""trial"",""time""
""blur"",""12"",""99848""
""blur"",""12"",""100874""
""blur"",""12"",""104418""
""blur"",""17"",""220442""
","""event"",""trial"",""time""
""focus"",""12"",""99850""
""focus"",""12"",""101000""
""focus"",""12"",""107047""
""focus"",""17"",""221058""
","""event"",""trial"",""time""
""fullscreenenter"",""1"",""1806""
","""event"",""trial"",""time""
""fullscreenexit"",""12"",""99872""
","","","","","","1379","<p> Ready to practice? </p>","0","","","","","","","","","","","","",""
"html-keyboard-response","25","312069","0.0-8.0-2.0-0.0","5627","1","14","Male","approach_avoid_spark_v1","""event"",""trial"",""time""
""fullscreenenter"",""1"",""1806""
""blur"",""12"",""99848""
""focus"",""12"",""99850""
""fullscreenexit"",""12"",""99872""
""blur"",""12"",""100874""
""focus"",""12"",""101000""
""blur"",""12"",""104418""
""focus"",""12"",""107047""
""blur"",""17"",""220442""
""focus"",""17"",""221058""
","""event"",""trial"",""time""
""blur"",""12"",""99848""
""blur"",""12"",""100874""
""blur"",""12"",""104418""
""blur"",""17"",""220442""
","""event"",""trial"",""time""
""focus"",""12"",""99850""
""focus"",""12"",""101000""
""focus"",""12"",""107047""
""focus"",""17"",""221058""
","""event"",""trial"",""time""
""fullscreenenter"",""1"",""1806""
","""event"",""trial"",""time""
""fullscreenexit"",""12"",""99872""
","","","","","","null","<div style=""font-size:60px;"">+</div>","null","","fixation","","","","","","","","","","",""
"aa-learning-trial","26","315088","0.0-8.0-2.0-1.0","5627","1","14","Male","approach_avoid_spark_v1","""event"",""trial"",""time""
""fullscreenenter"",""1"",""1806""
""blur"",""12"",""99848""
""focus"",""12"",""99850""
""fullscreenexit"",""12"",""99872""
""blur"",""12"",""100874""
""focus"",""12"",""101000""
""blur"",""12"",""104418""
""focus"",""12"",""107047""
""blur"",""17"",""220442""
""focus"",""17"",""221058""
","""event"",""trial"",""time""
""blur"",""12"",""99848""
""blur"",""12"",""100874""
""blur"",""12"",""104418""
""blur"",""17"",""220442""
","""event"",""trial"",""time""
""focus"",""12"",""99850""
""focus"",""12"",""101000""
""focus"",""12"",""107047""
""focus"",""17"",""221058""
","""event"",""trial"",""time""
""fullscreenenter"",""1"",""1806""
","""event"",""trial"",""time""
""fullscreenexit"",""12"",""99872""
","","","","","","776.7999999988824","images/ball1.png","","","learning","7","-5","end","","practice","practice","practice","-1","","",""
"html-keyboard-response","27","315605","0.0-8.0-2.0-0.1","5627","1","14","Male","approach_avoid_spark_v1","""event"",""trial"",""time""
""fullscreenenter"",""1"",""1806""
""blur"",""12"",""99848""
""focus"",""12"",""99850""
""fullscreenexit"",""12"",""99872""
""blur"",""12"",""100874""
""focus"",""12"",""101000""
""blur"",""12"",""104418""
""focus"",""12"",""107047""
""blur"",""17"",""220442""
""focus"",""17"",""221058""
","""event"",""trial"",""time""
""blur"",""12"",""99848""
""blur"",""12"",""100874""
""blur"",""12"",""104418""
""blur"",""17"",""220442""
","""event"",""trial"",""time""
""focus"",""12"",""99850""
""focus"",""12"",""101000""
""focus"",""12"",""107047""
""focus"",""17"",""221058""
","""event"",""trial"",""time""
""fullscreenenter"",""1"",""1806""
","""event"",""trial"",""time""
""fullscreenexit"",""12"",""99872""
","","","","","","null","<div style=""font-size:60px;"">+</div>","null","","fixation","","","","","","","","","","",""
"aa-learning-trial","28","318622","0.0-8.0-2.0-1.1","5627","1","14","Male","approach_avoid_spark_v1","""event"",""trial"",""time""
""fullscreenenter"",""1"",""1806""
""blur"",""12"",""99848""
""focus"",""12"",""99850""
""fullscreenexit"",""12"",""99872""
""blur"",""12"",""100874""
""focus"",""12"",""101000""
""blur"",""12"",""104418""
""focus"",""12"",""107047""
""blur"",""17"",""220442""
""focus"",""17"",""221058""
","""event"",""trial"",""time""
""blur"",""12"",""99848""
""blur"",""12"",""100874""
""blur"",""12"",""104418""
""blur"",""17"",""220442""
","""event"",""trial"",""time""
""focus"",""12"",""99850""
""focus"",""12"",""101000""
""focus"",""12"",""107047""
""focus"",""17"",""221058""
","""event"",""trial"",""time""
""fullscreenenter"",""1"",""1806""
","""event"",""trial"",""time""
""fullscreenexit"",""12"",""99872""
","","","","","","1137.5","images/ball4.png","","","learning","-1","-5","end","","practice","practice","practice","-1","","",""
"html-keyboard-response","29","319125","0.0-8.0-2.0-0.2","5627","1","14","Male","approach_avoid_spark_v1","""event"",""trial"",""time""
""fullscreenenter"",""1"",""1806""
""blur"",""12"",""99848""
""focus"",""12"",""99850""
""fullscreenexit"",""12"",""99872""
""blur"",""12"",""100874""
""focus"",""12"",""101000""
""blur"",""12"",""104418""
""focus"",""12"",""107047""
""blur"",""17"",""220442""
""focus"",""17"",""221058""
","""event"",""trial"",""time""
""blur"",""12"",""99848""
""blur"",""12"",""100874""
""blur"",""12"",""104418""
""blur"",""17"",""220442""
","""event"",""trial"",""time""
""focus"",""12"",""99850""
""focus"",""12"",""101000""
""focus"",""12"",""107047""
""focus"",""17"",""221058""
","""event"",""trial"",""time""
""fullscreenenter"",""1"",""1806""
","""event"",""trial"",""time""
""fullscreenexit"",""12"",""99872""
","","","","","","null","<div style=""font-size:60px;"">+</div>","null","","fixation","","","","","","","","","","",""
"aa-learning-trial","30","322133","0.0-8.0-2.0-1.2","5627","1","14","Male","approach_avoid_spark_v1","""event"",""trial"",""time""
""fullscreenenter"",""1"",""1806""
""blur"",""12"",""99848""
""focus"",""12"",""99850""
""fullscreenexit"",""12"",""99872""
""blur"",""12"",""100874""
""focus"",""12"",""101000""
""blur"",""12"",""104418""
""focus"",""12"",""107047""
""blur"",""17"",""220442""
""focus"",""17"",""221058""
","""event"",""trial"",""time""
""blur"",""12"",""99848""
""blur"",""12"",""100874""
""blur"",""12"",""104418""
""blur"",""17"",""220442""
","""event"",""trial"",""time""
""focus"",""12"",""99850""
""focus"",""12"",""101000""
""focus"",""12"",""107047""
""focus"",""17"",""221058""
","""event"",""trial"",""time""
""fullscreenenter"",""1"",""1806""
","""event"",""trial"",""time""
""fullscreenexit"",""12"",""99872""
","","","","","","1057.0999999996275","images/ball4.png","","","learning","-1","-5","end","","practice","practice","practice","-1","","",""
"html-keyboard-response","31","322638","0.0-8.0-2.0-0.3","5627","1","14","Male","approach_avoid_spark_v1","""event"",""trial"",""time""
""fullscreenenter"",""1"",""1806""
""blur"",""12"",""99848""
""focus"",""12"",""99850""
""fullscreenexit"",""12"",""99872""
""blur"",""12"",""100874""
""focus"",""12"",""101000""
""blur"",""12"",""104418""
""focus"",""12"",""107047""
""blur"",""17"",""220442""
""focus"",""17"",""221058""
","""event"",""trial"",""time""
""blur"",""12"",""99848""
""blur"",""12"",""100874""
""blur"",""12"",""104418""
""blur"",""17"",""220442""
","""event"",""trial"",""time""
""focus"",""12"",""99850""
""focus"",""12"",""101000""
""focus"",""12"",""107047""
""focus"",""17"",""221058""
","""event"",""trial"",""time""
""fullscreenenter"",""1"",""1806""
","""event"",""trial"",""time""
""fullscreenexit"",""12"",""99872""
","","","","","","null","<div style=""font-size:60px;"">+</div>","null","","fixation","","","","","","","","","","",""
"aa-learning-trial","32","325646","0.0-8.0-2.0-1.3","5627","1","14","Male","approach_avoid_spark_v1","""event"",""trial"",""time""
""fullscreenenter"",""1"",""1806""
""blur"",""12"",""99848""
""focus"",""12"",""99850""
""fullscreenexit"",""12"",""99872""
""blur"",""12"",""100874""
""focus"",""12"",""101000""
""blur"",""12"",""104418""
""focus"",""12"",""107047""
""blur"",""17"",""220442""
""focus"",""17"",""221058""
","""event"",""trial"",""time""
""blur"",""12"",""99848""
""blur"",""12"",""100874""
""blur"",""12"",""104418""
""blur"",""17"",""220442""
","""event"",""trial"",""time""
""focus"",""12"",""99850""
""focus"",""12"",""101000""
""focus"",""12"",""107047""
""focus"",""17"",""221058""
","""event"",""trial"",""time""
""fullscreenenter"",""1"",""1806""
","""event"",""trial"",""time""
""fullscreenexit"",""12"",""99872""
","","","","","","980.6000000014901","images/ball2.png","","","learning","6","-5","insert","","practice","practice","practice","-1","","",""
"html-keyboard-response","33","326161","0.0-8.0-2.0-0.4","5627","1","14","Male","approach_avoid_spark_v1","""event"",""trial"",""time""
""fullscreenenter"",""1"",""1806""
""blur"",""12"",""99848""
""focus"",""12"",""99850""
""fullscreenexit"",""12"",""99872""
""blur"",""12"",""100874""
""focus"",""12"",""101000""
""blur"",""12"",""104418""
""focus"",""12"",""107047""
""blur"",""17"",""220442""
""focus"",""17"",""221058""
","""event"",""trial"",""time""
""blur"",""12"",""99848""
""blur"",""12"",""100874""
""blur"",""12"",""104418""
""blur"",""17"",""220442""
","""event"",""trial"",""time""
""focus"",""12"",""99850""
""focus"",""12"",""101000""
""focus"",""12"",""107047""
""focus"",""17"",""221058""
","""event"",""trial"",""time""
""fullscreenenter"",""1"",""1806""
","""event"",""trial"",""time""
""fullscreenexit"",""12"",""99872""
","","","","","","null","<div style=""font-size:60px;"">+</div>","null","","fixation","","","","","","","","","","",""
"aa-learning-trial","34","329174","0.0-8.0-2.0-1.4","5627","1","14","Male","approach_avoid_spark_v1","""event"",""trial"",""time""
""fullscreenenter"",""1"",""1806""
""blur"",""12"",""99848""
""focus"",""12"",""99850""
""fullscreenexit"",""12"",""99872""
""blur"",""12"",""100874""
""focus"",""12"",""101000""
""blur"",""12"",""104418""
""focus"",""12"",""107047""
""blur"",""17"",""220442""
""focus"",""17"",""221058""
","""event"",""trial"",""time""
""blur"",""12"",""99848""
""blur"",""12"",""100874""
""blur"",""12"",""104418""
""blur"",""17"",""220442""
","""event"",""trial"",""time""
""focus"",""12"",""99850""
""focus"",""12"",""101000""
""focus"",""12"",""107047""
""focus"",""17"",""221058""
","""event"",""trial"",""time""
""fullscreenenter"",""1"",""1806""
","""event"",""trial"",""time""
""fullscreenexit"",""12"",""99872""
","","","","","","268.90000000037253","images/ball2.png","","","learning","-1","-5","end","","practice","practice","practice","-1","","",""
"html-keyboard-response","35","329692","0.0-8.0-2.0-0.5","5627","1","14","Male","approach_avoid_spark_v1","""event"",""trial"",""time""
""fullscreenenter"",""1"",""1806""
""blur"",""12"",""99848""
""focus"",""12"",""99850""
""fullscreenexit"",""12"",""99872""
""blur"",""12"",""100874""
""focus"",""12"",""101000""
""blur"",""12"",""104418""
""focus"",""12"",""107047""
""blur"",""17"",""220442""
""focus"",""17"",""221058""
","""event"",""trial"",""time""
""blur"",""12"",""99848""
""blur"",""12"",""100874""
""blur"",""12"",""104418""
""blur"",""17"",""220442""
","""event"",""trial"",""time""
""focus"",""12"",""99850""
""focus"",""12"",""101000""
""focus"",""12"",""107047""
""focus"",""17"",""221058""
","""event"",""trial"",""time""
""fullscreenenter"",""1"",""1806""
","""event"",""trial"",""time""
""fullscreenexit"",""12"",""99872""
","","","","","","null","<div style=""font-size:60px;"">+</div>","null","","fixation","","","","","","","","","","",""
"aa-learning-trial","36","332709","0.0-8.0-2.0-1.5","5627","1","14","Male","approach_avoid_spark_v1","""event"",""trial"",""time""
""fullscreenenter"",""1"",""1806""
""blur"",""12"",""99848""
""focus"",""12"",""99850""
""fullscreenexit"",""12"",""99872""
""blur"",""12"",""100874""
""focus"",""12"",""101000""
""blur"",""12"",""104418""
""focus"",""12"",""107047""
""blur"",""17"",""220442""
""focus"",""17"",""221058""
","""event"",""trial"",""time""
""blur"",""12"",""99848""
""blur"",""12"",""100874""
""blur"",""12"",""104418""
""blur"",""17"",""220442""
","""event"",""trial"",""time""
""focus"",""12"",""99850""
""focus"",""12"",""101000""
""focus"",""12"",""107047""
""focus"",""17"",""221058""
","""event"",""trial"",""time""
""fullscreenenter"",""1"",""1806""
","""event"",""trial"",""time""
""fullscreenexit"",""12"",""99872""
","","","","","","802.5999999996275","images/racket4.png","","","learning","7","-5","end","","practice","practice","practice","-1","","",""
"html-keyboard-response","37","333214","0.0-8.0-2.0-0.6","5627","1","14","Male","approach_avoid_spark_v1","""event"",""trial"",""time""
""fullscreenenter"",""1"",""1806""
""blur"",""12"",""99848""
""focus"",""12"",""99850""
""fullscreenexit"",""12"",""99872""
""blur"",""12"",""100874""
""focus"",""12"",""101000""
""blur"",""12"",""104418""
""focus"",""12"",""107047""
""blur"",""17"",""220442""
""focus"",""17"",""221058""
","""event"",""trial"",""time""
""blur"",""12"",""99848""
""blur"",""12"",""100874""
""blur"",""12"",""104418""
""blur"",""17"",""220442""
","""event"",""trial"",""time""
""focus"",""12"",""99850""
""focus"",""12"",""101000""
""focus"",""12"",""107047""
""focus"",""17"",""221058""
","""event"",""trial"",""time""
""fullscreenenter"",""1"",""1806""
","""event"",""trial"",""time""
""fullscreenexit"",""12"",""99872""
","","","","","","null","<div style=""font-size:60px;"">+</div>","null","","fixation","","","","","","","","","","",""
"aa-learning-trial","38","336221","0.0-8.0-2.0-1.6","5627","1","14","Male","approach_avoid_spark_v1","""event"",""trial"",""time""
""fullscreenenter"",""1"",""1806""
""blur"",""12"",""99848""
""focus"",""12"",""99850""
""fullscreenexit"",""12"",""99872""
""blur"",""12"",""100874""
""focus"",""12"",""101000""
""blur"",""12"",""104418""
""focus"",""12"",""107047""
""blur"",""17"",""220442""
""focus"",""17"",""221058""
","""event"",""trial"",""time""
""blur"",""12"",""99848""
""blur"",""12"",""100874""
""blur"",""12"",""104418""
""blur"",""17"",""220442""
","""event"",""trial"",""time""
""focus"",""12"",""99850""
""focus"",""12"",""101000""
""focus"",""12"",""107047""
""focus"",""17"",""221058""
","""event"",""trial"",""time""
""fullscreenenter"",""1"",""1806""
","""event"",""trial"",""time""
""fullscreenexit"",""12"",""99872""
","","","","","","497.19999999925494","images/racket1.png","","","learning","3","-5","insert","","practice","practice","practice","-1","","",""
"html-keyboard-response","39","336726","0.0-8.0-2.0-0.7","5627","1","14","Male","approach_avoid_spark_v1","""event"",""trial"",""time""
""fullscreenenter"",""1"",""1806""
""blur"",""12"",""99848""
""focus"",""12"",""99850""
""fullscreenexit"",""12"",""99872""
""blur"",""12"",""100874""
""focus"",""12"",""101000""
""blur"",""12"",""104418""
""focus"",""12"",""107047""
""blur"",""17"",""220442""
""focus"",""17"",""221058""
","""event"",""trial"",""time""
""blur"",""12"",""99848""
""blur"",""12"",""100874""
""blur"",""12"",""104418""
""blur"",""17"",""220442""
","""event"",""trial"",""time""
""focus"",""12"",""99850""
""focus"",""12"",""101000""
""focus"",""12"",""107047""
""focus"",""17"",""221058""
","""event"",""trial"",""time""
""fullscreenenter"",""1"",""1806""
","""event"",""trial"",""time""
""fullscreenexit"",""12"",""99872""
","","","","","","null","<div style=""font-size:60px;"">+</div>","null","","fixation","","","","","","","","","","",""
"aa-learning-trial","40","339733","0.0-8.0-2.0-1.7","5627","1","14","Male","approach_avoid_spark_v1","""event"",""trial"",""time""
""fullscreenenter"",""1"",""1806""
""blur"",""12"",""99848""
""focus"",""12"",""99850""
""fullscreenexit"",""12"",""99872""
""blur"",""12"",""100874""
""focus"",""12"",""101000""
""blur"",""12"",""104418""
""focus"",""12"",""107047""
""blur"",""17"",""220442""
""focus"",""17"",""221058""
","""event"",""trial"",""time""
""blur"",""12"",""99848""
""blur"",""12"",""100874""
""blur"",""12"",""104418""
""blur"",""17"",""220442""
","""event"",""trial"",""time""
""focus"",""12"",""99850""
""focus"",""12"",""101000""
""focus"",""12"",""107047""
""focus"",""17"",""221058""
","""event"",""trial"",""time""
""fullscreenenter"",""1"",""1806""
","""event"",""trial"",""time""
""fullscreenexit"",""12"",""99872""
","","","","","","721","images/racket4.png","","","learning","-7","-5","insert","","practice","practice","practice","-1","","",""
"html-keyboard-response","41","340237","0.0-8.0-2.0-0.8","5627","1","14","Male","approach_avoid_spark_v1","""event"",""trial"",""time""
""fullscreenenter"",""1"",""1806""
""blur"",""12"",""99848""
""focus"",""12"",""99850""
""fullscreenexit"",""12"",""99872""
""blur"",""12"",""100874""
""focus"",""12"",""101000""
""blur"",""12"",""104418""
""focus"",""12"",""107047""
""blur"",""17"",""220442""
""focus"",""17"",""221058""
","""event"",""trial"",""time""
""blur"",""12"",""99848""
""blur"",""12"",""100874""
""blur"",""12"",""104418""
""blur"",""17"",""220442""
","""event"",""trial"",""time""
""focus"",""12"",""99850""
""focus"",""12"",""101000""
""focus"",""12"",""107047""
""focus"",""17"",""221058""
","""event"",""trial"",""time""
""fullscreenenter"",""1"",""1806""
","""event"",""trial"",""time""
""fullscreenexit"",""12"",""99872""
","","","","","","null","<div style=""font-size:60px;"">+</div>","null","","fixation","","","","","","","","","","",""
"aa-learning-trial","42","343245","0.0-8.0-2.0-1.8","5627","1","14","Male","approach_avoid_spark_v1","""event"",""trial"",""time""
""fullscreenenter"",""1"",""1806""
""blur"",""12"",""99848""
""focus"",""12"",""99850""
""fullscreenexit"",""12"",""99872""
""blur"",""12"",""100874""
""focus"",""12"",""101000""
""blur"",""12"",""104418""
""focus"",""12"",""107047""
""blur"",""17"",""220442""
""focus"",""17"",""221058""
","""event"",""trial"",""time""
""blur"",""12"",""99848""
""blur"",""12"",""100874""
""blur"",""12"",""104418""
""blur"",""17"",""220442""
","""event"",""trial"",""time""
""focus"",""12"",""99850""
""focus"",""12"",""101000""
""focus"",""12"",""107047""
""focus"",""17"",""221058""
","""event"",""trial"",""time""
""fullscreenenter"",""1"",""1806""
","""event"",""trial"",""time""
""fullscreenexit"",""12"",""99872""
","","","","","","601.9000000003725","images/racket4.png","","","learning","6","-5","insert","","practice","practice","practice","-1","","",""
"html-keyboard-response","43","343750","0.0-8.0-2.0-0.9","5627","1","14","Male","approach_avoid_spark_v1","""event"",""trial"",""time""
""fullscreenenter"",""1"",""1806""
""blur"",""12"",""99848""
""focus"",""12"",""99850""
""fullscreenexit"",""12"",""99872""
""blur"",""12"",""100874""
""focus"",""12"",""101000""
""blur"",""12"",""104418""
""focus"",""12"",""107047""
""blur"",""17"",""220442""
""focus"",""17"",""221058""
","""event"",""trial"",""time""
""blur"",""12"",""99848""
""blur"",""12"",""100874""
""blur"",""12"",""104418""
""blur"",""17"",""220442""
","""event"",""trial"",""time""
""focus"",""12"",""99850""
""focus"",""12"",""101000""
""focus"",""12"",""107047""
""focus"",""17"",""221058""
","""event"",""trial"",""time""
""fullscreenenter"",""1"",""1806""
","""event"",""trial"",""time""
""fullscreenexit"",""12"",""99872""
","","","","","","null","<div style=""font-size:60px;"">+</div>","null","","fixation","","","","","","","","","","",""
"aa-learning-trial","44","346762","0.0-8.0-2.0-1.9","5627","1","14","Male","approach_avoid_spark_v1","""event"",""trial"",""time""
""fullscreenenter"",""1"",""1806""
""blur"",""12"",""99848""
""focus"",""12"",""99850""
""fullscreenexit"",""12"",""99872""
""blur"",""12"",""100874""
""focus"",""12"",""101000""
""blur"",""12"",""104418""
""focus"",""12"",""107047""
""blur"",""17"",""220442""
""focus"",""17"",""221058""
","""event"",""trial"",""time""
""blur"",""12"",""99848""
""blur"",""12"",""100874""
""blur"",""12"",""104418""
""blur"",""17"",""220442""
","""event"",""trial"",""time""
""focus"",""12"",""99850""
""focus"",""12"",""101000""
""focus"",""12"",""107047""
""focus"",""17"",""221058""
","""event"",""trial"",""time""
""fullscreenenter"",""1"",""1806""
","""event"",""trial"",""time""
""fullscreenexit"",""12"",""99872""
","","","","","","945.0999999996275","images/ball1.png","","","learning","-2","-5","end","","practice","practice","practice","-1","","",""
"html-keyboard-response","45","347270","0.0-8.0-2.0-0.10","5627","1","14","Male","approach_avoid_spark_v1","""event"",""trial"",""time""
""fullscreenenter"",""1"",""1806""
""blur"",""12"",""99848""
""focus"",""12"",""99850""
""fullscreenexit"",""12"",""99872""
""blur"",""12"",""100874""
""focus"",""12"",""101000""
""blur"",""12"",""104418""
""focus"",""12"",""107047""
""blur"",""17"",""220442""
""focus"",""17"",""221058""
","""event"",""trial"",""time""
""blur"",""12"",""99848""
""blur"",""12"",""100874""
""blur"",""12"",""104418""
""blur"",""17"",""220442""
","""event"",""trial"",""time""
""focus"",""12"",""99850""
""focus"",""12"",""101000""
""focus"",""12"",""107047""
""focus"",""17"",""221058""
","""event"",""trial"",""time""
""fullscreenenter"",""1"",""1806""
","""event"",""trial"",""time""
""fullscreenexit"",""12"",""99872""
","","","","","","null","<div style=""font-size:60px;"">+</div>","null","","fixation","","","","","","","","","","",""
"aa-learning-trial","46","350278","0.0-8.0-2.0-1.10","5627","1","14","Male","approach_avoid_spark_v1","""event"",""trial"",""time""
""fullscreenenter"",""1"",""1806""
""blur"",""12"",""99848""
""focus"",""12"",""99850""
""fullscreenexit"",""12"",""99872""
""blur"",""12"",""100874""
""focus"",""12"",""101000""
""blur"",""12"",""104418""
""focus"",""12"",""107047""
""blur"",""17"",""220442""
""focus"",""17"",""221058""
","""event"",""trial"",""time""
""blur"",""12"",""99848""
""blur"",""12"",""100874""
""blur"",""12"",""104418""
""blur"",""17"",""220442""
","""event"",""trial"",""time""
""focus"",""12"",""99850""
""focus"",""12"",""101000""
""focus"",""12"",""107047""
""focus"",""17"",""221058""
","""event"",""trial"",""time""
""fullscreenenter"",""1"",""1806""
","""event"",""trial"",""time""
""fullscreenexit"",""12"",""99872""
","","","","","","1497.2000000011176","images/ball4.png","","","learning","-6","-5","insert","","practice","practice","practice","-1","","",""
"html-keyboard-response","47","350781","0.0-8.0-2.0-0.11","5627","1","14","Male","approach_avoid_spark_v1","""event"",""trial"",""time""
""fullscreenenter"",""1"",""1806""
""blur"",""12"",""99848""
""focus"",""12"",""99850""
""fullscreenexit"",""12"",""99872""
""blur"",""12"",""100874""
""focus"",""12"",""101000""
""blur"",""12"",""104418""
""focus"",""12"",""107047""
""blur"",""17"",""220442""
""focus"",""17"",""221058""
","""event"",""trial"",""time""
""blur"",""12"",""99848""
""blur"",""12"",""100874""
""blur"",""12"",""104418""
""blur"",""17"",""220442""
","""event"",""trial"",""time""
""focus"",""12"",""99850""
""focus"",""12"",""101000""
""focus"",""12"",""107047""
""focus"",""17"",""221058""
","""event"",""trial"",""time""
""fullscreenenter"",""1"",""1806""
","""event"",""trial"",""time""
""fullscreenexit"",""12"",""99872""
","","","","","","null","<div style=""font-size:60px;"">+</div>","null","","fixation","","","","","","","","","","",""
"aa-learning-trial","48","353791","0.0-8.0-2.0-1.11","5627","1","14","Male","approach_avoid_spark_v1","""event"",""trial"",""time""
""fullscreenenter"",""1"",""1806""
""blur"",""12"",""99848""
""focus"",""12"",""99850""
""fullscreenexit"",""12"",""99872""
""blur"",""12"",""100874""
""focus"",""12"",""101000""
""blur"",""12"",""104418""
""focus"",""12"",""107047""
""blur"",""17"",""220442""
""focus"",""17"",""221058""
","""event"",""trial"",""time""
""blur"",""12"",""99848""
""blur"",""12"",""100874""
""blur"",""12"",""104418""
""blur"",""17"",""220442""
","""event"",""trial"",""time""
""focus"",""12"",""99850""
""focus"",""12"",""101000""
""focus"",""12"",""107047""
""focus"",""17"",""221058""
","""event"",""trial"",""time""
""fullscreenenter"",""1"",""1806""
","""event"",""trial"",""time""
""fullscreenexit"",""12"",""99872""
","","","","","","337.8999999985099","images/ball4.png","","","learning","7","-5","end","","practice","practice","practice","-1","","",""
"html-button-response","49","356236","0.0-8.0-3.0","5627","1","14","Male","approach_avoid_spark_v1","""event"",""trial"",""time""
""fullscreenenter"",""1"",""1806""
""blur"",""12"",""99848""
""focus"",""12"",""99850""
""fullscreenexit"",""12"",""99872""
""blur"",""12"",""100874""
""focus"",""12"",""101000""
""blur"",""12"",""104418""
""focus"",""12"",""107047""
""blur"",""17"",""220442""
""focus"",""17"",""221058""
","""event"",""trial"",""time""
""blur"",""12"",""99848""
""blur"",""12"",""100874""
""blur"",""12"",""104418""
""blur"",""17"",""220442""
","""event"",""trial"",""time""
""focus"",""12"",""99850""
""focus"",""12"",""101000""
""focus"",""12"",""107047""
""focus"",""17"",""221058""
","""event"",""trial"",""time""
""fullscreenenter"",""1"",""1806""
","""event"",""trial"",""time""
""fullscreenexit"",""12"",""99872""
","","","","","","2442.800000000745","<p> You earned -60 points in the practice round! </p>","0","","break","","","","","","","","","","",""
"learning-instructions","50","365060","0.0-8.0-4.0-0.0","5627","1","14","Male","approach_avoid_spark_v1","""event"",""trial"",""time""
""fullscreenenter"",""1"",""1806""
""blur"",""12"",""99848""
""focus"",""12"",""99850""
""fullscreenexit"",""12"",""99872""
""blur"",""12"",""100874""
""focus"",""12"",""101000""
""blur"",""12"",""104418""
""focus"",""12"",""107047""
""blur"",""17"",""220442""
""focus"",""17"",""221058""
","""event"",""trial"",""time""
""blur"",""12"",""99848""
""blur"",""12"",""100874""
""blur"",""12"",""104418""
""blur"",""17"",""220442""
","""event"",""trial"",""time""
""focus"",""12"",""99850""
""focus"",""12"",""101000""
""focus"",""12"",""107047""
""focus"",""17"",""221058""
","""event"",""trial"",""time""
""fullscreenenter"",""1"",""1806""
","""event"",""trial"",""time""
""fullscreenexit"",""12"",""99872""
","","","","","","2860.5","<p> It's almost time to start the real game. </p><p> Before you start, we're going to ask you a few questions about how the game works. </p>","","0","instructions","","","","","","","","","","",""
"preload","51","366170","0.0-8.0-5.0","5627","1","14","Male","approach_avoid_spark_v1","""event"",""trial"",""time""
""fullscreenenter"",""1"",""1806""
""blur"",""12"",""99848""
""focus"",""12"",""99850""
""fullscreenexit"",""12"",""99872""
""blur"",""12"",""100874""
""focus"",""12"",""101000""
""blur"",""12"",""104418""
""focus"",""12"",""107047""
""blur"",""17"",""220442""
""focus"",""17"",""221058""
","""event"",""trial"",""time""
""blur"",""12"",""99848""
""blur"",""12"",""100874""
""blur"",""12"",""104418""
""blur"",""17"",""220442""
","""event"",""trial"",""time""
""focus"",""12"",""99850""
""focus"",""12"",""101000""
""focus"",""12"",""107047""
""focus"",""17"",""221058""
","""event"",""trial"",""time""
""fullscreenenter"",""1"",""1806""
","""event"",""trial"",""time""
""fullscreenexit"",""12"",""99872""
","true","false","[]","[]","[]","","","","","","","","","","","","","","","",""
"comp-q","52","372117","0.0-8.0-6.0-0.0","5627","1","14","Male","approach_avoid_spark_v1","""event"",""trial"",""time""
""fullscreenenter"",""1"",""1806""
""blur"",""12"",""99848""
""focus"",""12"",""99850""
""fullscreenexit"",""12"",""99872""
""blur"",""12"",""100874""
""focus"",""12"",""101000""
""blur"",""12"",""104418""
""focus"",""12"",""107047""
""blur"",""17"",""220442""
""focus"",""17"",""221058""
","""event"",""trial"",""time""
""blur"",""12"",""99848""
""blur"",""12"",""100874""
""blur"",""12"",""104418""
""blur"",""17"",""220442""
","""event"",""trial"",""time""
""focus"",""12"",""99850""
""focus"",""12"",""101000""
""focus"",""12"",""107047""
""focus"",""17"",""221058""
","""event"",""trial"",""time""
""fullscreenenter"",""1"",""1806""
","""event"",""trial"",""time""
""fullscreenexit"",""12"",""99872""
","","","","","","947.2999999988824","<p> <b> True or False? </b> </p><p> If you see a number in GREY, that means you earned that many points. </p>","","0","comp_question","","","","","","","","","false","",""
"comp-q","53","388145","0.0-8.0-6.0-1.0","5627","1","14","Male","approach_avoid_spark_v1","""event"",""trial"",""time""
""fullscreenenter"",""1"",""1806""
""blur"",""12"",""99848""
""focus"",""12"",""99850""
""fullscreenexit"",""12"",""99872""
""blur"",""12"",""100874""
""focus"",""12"",""101000""
""blur"",""12"",""104418""
""focus"",""12"",""107047""
""blur"",""17"",""220442""
""focus"",""17"",""221058""
","""event"",""trial"",""time""
""blur"",""12"",""99848""
""blur"",""12"",""100874""
""blur"",""12"",""104418""
""blur"",""17"",""220442""
","""event"",""trial"",""time""
""focus"",""12"",""99850""
""focus"",""12"",""101000""
""focus"",""12"",""107047""
""focus"",""17"",""221058""
","""event"",""trial"",""time""
""fullscreenenter"",""1"",""1806""
","""event"",""trial"",""time""
""fullscreenexit"",""12"",""99872""
","","","","","","7215.89999999851","<p><b> Incorrect. </b> If you see a grey number, it means you earned ZERO points. <br> The grey numbers show the points you WOULD HAVE earned if you had made the other choice. </p>","","0","comp_answer","","","","","","","","","","",""
"comp-q","54","395592","0.0-8.0-6.1-0.1","5627","1","14","Male","approach_avoid_spark_v1","""event"",""trial"",""time""
""fullscreenenter"",""1"",""1806""
""blur"",""12"",""99848""
""focus"",""12"",""99850""
""fullscreenexit"",""12"",""99872""
""blur"",""12"",""100874""
""focus"",""12"",""101000""
""blur"",""12"",""104418""
""focus"",""12"",""107047""
""blur"",""17"",""220442""
""focus"",""17"",""221058""
","""event"",""trial"",""time""
""blur"",""12"",""99848""
""blur"",""12"",""100874""
""blur"",""12"",""104418""
""blur"",""17"",""220442""
","""event"",""trial"",""time""
""focus"",""12"",""99850""
""focus"",""12"",""101000""
""focus"",""12"",""107047""
""focus"",""17"",""221058""
","""event"",""trial"",""time""
""fullscreenenter"",""1"",""1806""
","""event"",""trial"",""time""
""fullscreenexit"",""12"",""99872""
","","","","","","2342.699999999255","<p> <b> True or False? </b> </p><p> If you see a number in GREY, that means you earned that many points. </p>","","1","comp_question","","","","","","","","","true","",""
"comp-q","55","404662","0.0-8.0-6.1-1.1","5627","1","14","Male","approach_avoid_spark_v1","""event"",""trial"",""time""
""fullscreenenter"",""1"",""1806""
""blur"",""12"",""99848""
""focus"",""12"",""99850""
""fullscreenexit"",""12"",""99872""
""blur"",""12"",""100874""
""focus"",""12"",""101000""
""blur"",""12"",""104418""
""focus"",""12"",""107047""
""blur"",""17"",""220442""
""focus"",""17"",""221058""
","""event"",""trial"",""time""
""blur"",""12"",""99848""
""blur"",""12"",""100874""
""blur"",""12"",""104418""
""blur"",""17"",""220442""
","""event"",""trial"",""time""
""focus"",""12"",""99850""
""focus"",""12"",""101000""
""focus"",""12"",""107047""
""focus"",""17"",""221058""
","""event"",""trial"",""time""
""fullscreenenter"",""1"",""1806""
","""event"",""trial"",""time""
""fullscreenexit"",""12"",""99872""
","","","","","","712.2999999988824","<p><b> That's right! </b> If you see a grey number, it means you earned ZERO points. <br> The grey numbers show the points you WOULD HAVE earned if you had made the other choice. </p>","","0","comp_answer","","","","","","","","","","",""
"comp-q","56","409908","0.0-8.0-7.0-0.0","5627","1","14","Male","approach_avoid_spark_v1","""event"",""trial"",""time""
""fullscreenenter"",""1"",""1806""
""blur"",""12"",""99848""
""focus"",""12"",""99850""
""fullscreenexit"",""12"",""99872""
""blur"",""12"",""100874""
""focus"",""12"",""101000""
""blur"",""12"",""104418""
""focus"",""12"",""107047""
""blur"",""17"",""220442""
""focus"",""17"",""221058""
","""event"",""trial"",""time""
""blur"",""12"",""99848""
""blur"",""12"",""100874""
""blur"",""12"",""104418""
""blur"",""17"",""220442""
","""event"",""trial"",""time""
""focus"",""12"",""99850""
""focus"",""12"",""101000""
""focus"",""12"",""107047""
""focus"",""17"",""221058""
","""event"",""trial"",""time""
""fullscreenenter"",""1"",""1806""
","""event"",""trial"",""time""
""fullscreenexit"",""12"",""99872""
","","","","","","558.0999999996275","<p> <b> True or False? </b> </p><p> You will have as much time as you want to make each choice. </p>","","1","comp_question","","","","","","","","","true","",""
"comp-q","57","414520","0.0-8.0-7.0-1.0","5627","1","14","Male","approach_avoid_spark_v1","""event"",""trial"",""time""
""fullscreenenter"",""1"",""1806""
""blur"",""12"",""99848""
""focus"",""12"",""99850""
""fullscreenexit"",""12"",""99872""
""blur"",""12"",""100874""
""focus"",""12"",""101000""
""blur"",""12"",""104418""
""focus"",""12"",""107047""
""blur"",""17"",""220442""
""focus"",""17"",""221058""
","""event"",""trial"",""time""
""blur"",""12"",""99848""
""blur"",""12"",""100874""
""blur"",""12"",""104418""
""blur"",""17"",""220442""
","""event"",""trial"",""time""
""focus"",""12"",""99850""
""focus"",""12"",""101000""
""focus"",""12"",""107047""
""focus"",""17"",""221058""
","""event"",""trial"",""time""
""fullscreenenter"",""1"",""1806""
","""event"",""trial"",""time""
""fullscreenexit"",""12"",""99872""
","","","","","","559.7000000011176","<p> <b> That's right! </b> You will only have 3 seconds to make each choice. </p>","","0","comp_answer","","","","","","","","","","",""
"comp-q","58","419765","0.0-8.0-8.0-0.0","5627","1","14","Male","approach_avoid_spark_v1","""event"",""trial"",""time""
""fullscreenenter"",""1"",""1806""
""blur"",""12"",""99848""
""focus"",""12"",""99850""
""fullscreenexit"",""12"",""99872""
""blur"",""12"",""100874""
""focus"",""12"",""101000""
""blur"",""12"",""104418""
""focus"",""12"",""107047""
""blur"",""17"",""220442""
""focus"",""17"",""221058""
","""event"",""trial"",""time""
""blur"",""12"",""99848""
""blur"",""12"",""100874""
""blur"",""12"",""104418""
""blur"",""17"",""220442""
","""event"",""trial"",""time""
""focus"",""12"",""99850""
""focus"",""12"",""101000""
""focus"",""12"",""107047""
""focus"",""17"",""221058""
","""event"",""trial"",""time""
""fullscreenenter"",""1"",""1806""
","""event"",""trial"",""time""
""fullscreenexit"",""12"",""99872""
","","","","","","596","<p> <b> True or False? </b> </p><p> You should use the '1' and '0' keys to make your choices. </p>","","0","comp_question","","","","","","","","","true","",""
"comp-q","59","427760","0.0-8.0-8.0-1.0","5627","1","14","Male","approach_avoid_spark_v1","""event"",""trial"",""time""
""fullscreenenter"",""1"",""1806""
""blur"",""12"",""99848""
""focus"",""12"",""99850""
""fullscreenexit"",""12"",""99872""
""blur"",""12"",""100874""
""focus"",""12"",""101000""
""blur"",""12"",""104418""
""focus"",""12"",""107047""
""blur"",""17"",""220442""
""focus"",""17"",""221058""
","""event"",""trial"",""time""
""blur"",""12"",""99848""
""blur"",""12"",""100874""
""blur"",""12"",""104418""
""blur"",""17"",""220442""
","""event"",""trial"",""time""
""focus"",""12"",""99850""
""focus"",""12"",""101000""
""focus"",""12"",""107047""
""focus"",""17"",""221058""
","""event"",""trial"",""time""
""fullscreenenter"",""1"",""1806""
","""event"",""trial"",""time""
""fullscreenexit"",""12"",""99872""
","","","","","","3380.300000000745","<p> <b> That's right! </b> You should use the '1' and '0' keys to make each choice. </p>","","0","comp_answer","","","","","","","","","","",""
"learning-instructions","60","438811","0.0-8.0-9.0-0.0","5627","1","14","Male","approach_avoid_spark_v1","""event"",""trial"",""time""
""fullscreenenter"",""1"",""1806""
""blur"",""12"",""99848""
""focus"",""12"",""99850""
""fullscreenexit"",""12"",""99872""
""blur"",""12"",""100874""
""focus"",""12"",""101000""
""blur"",""12"",""104418""
""focus"",""12"",""107047""
""blur"",""17"",""220442""
""focus"",""17"",""221058""
","""event"",""trial"",""time""
""blur"",""12"",""99848""
""blur"",""12"",""100874""
""blur"",""12"",""104418""
""blur"",""17"",""220442""
","""event"",""trial"",""time""
""focus"",""12"",""99850""
""focus"",""12"",""101000""
""focus"",""12"",""107047""
""focus"",""17"",""221058""
","""event"",""trial"",""time""
""fullscreenenter"",""1"",""1806""
","""event"",""trial"",""time""
""fullscreenexit"",""12"",""99872""
","","","","","","4771.4000000003725","<p> It's now time to start the real game. </p>Do your best, because the points you earn in the next rounds will influence your bonus payment. </p>","","0","instructions","","","","","","","","","","",""
"preload","61","438930","0.0-9.0-0.0","5627","1","14","Male","approach_avoid_spark_v1","""event"",""trial"",""time""
""fullscreenenter"",""1"",""1806""
""blur"",""12"",""99848""
""focus"",""12"",""99850""
""fullscreenexit"",""12"",""99872""
""blur"",""12"",""100874""
""focus"",""12"",""101000""
""blur"",""12"",""104418""
""focus"",""12"",""107047""
""blur"",""17"",""220442""
""focus"",""17"",""221058""
","""event"",""trial"",""time""
""blur"",""12"",""99848""
""blur"",""12"",""100874""
""blur"",""12"",""104418""
""blur"",""17"",""220442""
","""event"",""trial"",""time""
""focus"",""12"",""99850""
""focus"",""12"",""101000""
""focus"",""12"",""107047""
""focus"",""17"",""221058""
","""event"",""trial"",""time""
""fullscreenenter"",""1"",""1806""
","""event"",""trial"",""time""
""fullscreenexit"",""12"",""99872""
","true","false","[]","[]","[]","","","","","","","","","","","","","","","",""
"learning-instructions","62","446145","0.0-9.0-1.0-0.0","5627","1","14","Male","approach_avoid_spark_v1","""event"",""trial"",""time""
""fullscreenenter"",""1"",""1806""
""blur"",""12"",""99848""
""focus"",""12"",""99850""
""fullscreenexit"",""12"",""99872""
""blur"",""12"",""100874""
""focus"",""12"",""101000""
""blur"",""12"",""104418""
""focus"",""12"",""107047""
""blur"",""17"",""220442""
""focus"",""17"",""221058""
""blur"",""63"",""456389""
""focus"",""63"",""457348""
","""event"",""trial"",""time""
""blur"",""12"",""99848""
""blur"",""12"",""100874""
""blur"",""12"",""104418""
""blur"",""17"",""220442""
""blur"",""63"",""456389""
","""event"",""trial"",""time""
""focus"",""12"",""99850""
""focus"",""12"",""101000""
""focus"",""12"",""107047""
""focus"",""17"",""221058""
""focus"",""63"",""457348""
","""event"",""trial"",""time""
""fullscreenenter"",""1"",""1806""
","""event"",""trial"",""time""
""fullscreenexit"",""12"",""99872""
","","","","","","1846.4000000003725","<p> Your goal in this round is to decorate your friend's new house with furniture. </p></div>","","0","instructions","","","","","","","","","","",""
"learning-instructions","63","458675","0.0-9.0-1.0-0.1","5627","1","14","Male","approach_avoid_spark_v1","""event"",""trial"",""time""
""fullscreenenter"",""1"",""1806""
""blur"",""12"",""99848""
""focus"",""12"",""99850""
""fullscreenexit"",""12"",""99872""
""blur"",""12"",""100874""
""focus"",""12"",""101000""
""blur"",""12"",""104418""
""focus"",""12"",""107047""
""blur"",""17"",""220442""
""focus"",""17"",""221058""
""blur"",""63"",""456389""
""focus"",""63"",""457348""
","""event"",""trial"",""time""
""blur"",""12"",""99848""
""blur"",""12"",""100874""
""blur"",""12"",""104418""
""blur"",""17"",""220442""
""blur"",""63"",""456389""
","""event"",""trial"",""time""
""focus"",""12"",""99850""
""focus"",""12"",""101000""
""focus"",""12"",""107047""
""focus"",""17"",""221058""
""focus"",""63"",""457348""
","""event"",""trial"",""time""
""fullscreenenter"",""1"",""1806""
","""event"",""trial"",""time""
""fullscreenexit"",""12"",""99872""
","","","","","","1367","<p> Your friend likes some pieces of furniture but not others.  </p><p> On each turn, you will see a piece of furniture.   </p><p> You need to decide whether to put it in your friend's house or not.  </p>","","0","instructions","","","","","","","","","","",""
"learning-instructions","64","466199","0.0-9.0-1.0-0.2","5627","1","14","Male","approach_avoid_spark_v1","""event"",""trial"",""time""
""fullscreenenter"",""1"",""1806""
""blur"",""12"",""99848""
""focus"",""12"",""99850""
""fullscreenexit"",""12"",""99872""
""blur"",""12"",""100874""
""focus"",""12"",""101000""
""blur"",""12"",""104418""
""focus"",""12"",""107047""
""blur"",""17"",""220442""
""focus"",""17"",""221058""
""blur"",""63"",""456389""
""focus"",""63"",""457348""
","""event"",""trial"",""time""
""blur"",""12"",""99848""
""blur"",""12"",""100874""
""blur"",""12"",""104418""
""blur"",""17"",""220442""
""blur"",""63"",""456389""
","""event"",""trial"",""time""
""focus"",""12"",""99850""
""focus"",""12"",""101000""
""focus"",""12"",""107047""
""focus"",""17"",""221058""
""focus"",""63"",""457348""
","""event"",""trial"",""time""
""fullscreenenter"",""1"",""1806""
","""event"",""trial"",""time""
""fullscreenexit"",""12"",""99872""
","","","","","","1460.4000000003725","<p> You can put the furniture in her house by pressing 1 and deliver it elsewhere by pressing 0. </p><br><div class=""choice-instructions-grid""> <div class=""choice-option""><img src=""images/approach.png"" class=""choice-option-img"" stage=""instructions"" position=""0"" ><div class=""choice-option-text""> Press ""1."" </div></div><div class=""choice-option""><img src=""images/avoid.png"" class=""choice-option-img"" stage=""instructions"" position=""1"" ><div class=""choice-option-text""> Press ""0."" </div></div>","","0","instructions","","","","","","","","","","",""
"learning-instructions","65","476982","0.0-9.0-1.0-0.3","5627","1","14","Male","approach_avoid_spark_v1","""event"",""trial"",""time""
""fullscreenenter"",""1"",""1806""
""blur"",""12"",""99848""
""focus"",""12"",""99850""
""fullscreenexit"",""12"",""99872""
""blur"",""12"",""100874""
""focus"",""12"",""101000""
""blur"",""12"",""104418""
""focus"",""12"",""107047""
""blur"",""17"",""220442""
""focus"",""17"",""221058""
""blur"",""63"",""456389""
""focus"",""63"",""457348""
","""event"",""trial"",""time""
""blur"",""12"",""99848""
""blur"",""12"",""100874""
""blur"",""12"",""104418""
""blur"",""17"",""220442""
""blur"",""63"",""456389""
","""event"",""trial"",""time""
""focus"",""12"",""99850""
""focus"",""12"",""101000""
""focus"",""12"",""107047""
""focus"",""17"",""221058""
""focus"",""63"",""457348""
","""event"",""trial"",""time""
""fullscreenenter"",""1"",""1806""
","""event"",""trial"",""time""
""fullscreenexit"",""12"",""99872""
","","","","","","1413.7999999988824","<p> If you decorate your friend's house with furniture she likes, she will be happy! </p><p> But if you give her furniture that she does not like, she will be annoyed. </p>","","0","instructions","","","","","","","","","","",""
"learning-instructions","66","490940","0.0-9.0-1.0-0.4","5627","1","14","Male","approach_avoid_spark_v1","""event"",""trial"",""time""
""fullscreenenter"",""1"",""1806""
""blur"",""12"",""99848""
""focus"",""12"",""99850""
""fullscreenexit"",""12"",""99872""
""blur"",""12"",""100874""
""focus"",""12"",""101000""
""blur"",""12"",""104418""
""focus"",""12"",""107047""
""blur"",""17"",""220442""
""focus"",""17"",""221058""
""blur"",""63"",""456389""
""focus"",""63"",""457348""
","""event"",""trial"",""time""
""blur"",""12"",""99848""
""blur"",""12"",""100874""
""blur"",""12"",""104418""
""blur"",""17"",""220442""
""blur"",""63"",""456389""
","""event"",""trial"",""time""
""focus"",""12"",""99850""
""focus"",""12"",""101000""
""focus"",""12"",""107047""
""focus"",""17"",""221058""
""focus"",""63"",""457348""
","""event"",""trial"",""time""
""fullscreenenter"",""1"",""1806""
","""event"",""trial"",""time""
""fullscreenexit"",""12"",""99872""
","","","","","","951.9000000003725","<p> You will earn points based on how you made your friend feel. </p><p> If you made her happy, you will WIN anywhere from 1 - 9 points, </p><p> but if you made her annoyed you will LOSE anywhere from 1 - 9 points. </p>","","0","instructions","","","","","","","","","","",""
"learning-instructions","67","499951","0.0-9.0-1.0-0.5","5627","1","14","Male","approach_avoid_spark_v1","""event"",""trial"",""time""
""fullscreenenter"",""1"",""1806""
""blur"",""12"",""99848""
""focus"",""12"",""99850""
""fullscreenexit"",""12"",""99872""
""blur"",""12"",""100874""
""focus"",""12"",""101000""
""blur"",""12"",""104418""
""focus"",""12"",""107047""
""blur"",""17"",""220442""
""focus"",""17"",""221058""
""blur"",""63"",""456389""
""focus"",""63"",""457348""
","""event"",""trial"",""time""
""blur"",""12"",""99848""
""blur"",""12"",""100874""
""blur"",""12"",""104418""
""blur"",""17"",""220442""
""blur"",""63"",""456389""
","""event"",""trial"",""time""
""focus"",""12"",""99850""
""focus"",""12"",""101000""
""focus"",""12"",""107047""
""focus"",""17"",""221058""
""focus"",""63"",""457348""
","""event"",""trial"",""time""
""fullscreenenter"",""1"",""1806""
","""event"",""trial"",""time""
""fullscreenexit"",""12"",""99872""
","","","","","","1312.699999999255","<p> You will see how many points you won or lost in the center of the screen. </p><p> Here is what you would see if you won 5 points: </p><p style=""color:green;font-size:50px;font-weight:bolder"">5</p>","","0","instructions","","","","","","","","","","",""
"learning-instructions","68","504853","0.0-9.0-1.0-0.6","5627","1","14","Male","approach_avoid_spark_v1","""event"",""trial"",""time""
""fullscreenenter"",""1"",""1806""
""blur"",""12"",""99848""
""focus"",""12"",""99850""
""fullscreenexit"",""12"",""99872""
""blur"",""12"",""100874""
""focus"",""12"",""101000""
""blur"",""12"",""104418""
""focus"",""12"",""107047""
""blur"",""17"",""220442""
""focus"",""17"",""221058""
""blur"",""63"",""456389""
""focus"",""63"",""457348""
","""event"",""trial"",""time""
""blur"",""12"",""99848""
""blur"",""12"",""100874""
""blur"",""12"",""104418""
""blur"",""17"",""220442""
""blur"",""63"",""456389""
","""event"",""trial"",""time""
""focus"",""12"",""99850""
""focus"",""12"",""101000""
""focus"",""12"",""107047""
""focus"",""17"",""221058""
""focus"",""63"",""457348""
","""event"",""trial"",""time""
""fullscreenenter"",""1"",""1806""
","""event"",""trial"",""time""
""fullscreenexit"",""12"",""99872""
","","","","","","1494.300000000745","<p> And here is what you would see if you lost 3 points: </p><p style=""color:red;font-size:50px;font-weight:bolder"">-3</p>","","0","instructions","","","","","","","","","","",""
"learning-instructions","69","526828","0.0-9.0-1.0-0.7","5627","1","14","Male","approach_avoid_spark_v1","""event"",""trial"",""time""
""fullscreenenter"",""1"",""1806""
""blur"",""12"",""99848""
""focus"",""12"",""99850""
""fullscreenexit"",""12"",""99872""
""blur"",""12"",""100874""
""focus"",""12"",""101000""
""blur"",""12"",""104418""
""focus"",""12"",""107047""
""blur"",""17"",""220442""
""focus"",""17"",""221058""
""blur"",""63"",""456389""
""focus"",""63"",""457348""
","""event"",""trial"",""time""
""blur"",""12"",""99848""
""blur"",""12"",""100874""
""blur"",""12"",""104418""
""blur"",""17"",""220442""
""blur"",""63"",""456389""
","""event"",""trial"",""time""
""focus"",""12"",""99850""
""focus"",""12"",""101000""
""focus"",""12"",""107047""
""focus"",""17"",""221058""
""focus"",""63"",""457348""
","""event"",""trial"",""time""
""fullscreenenter"",""1"",""1806""
","""event"",""trial"",""time""
""fullscreenexit"",""12"",""99872""
","","","","","","3977.89999999851","<p> Some pieces of furniture will make her feel very happy or very annoyed. </p><p> These pieces of furniture will make you win or lose LOTS of points. </p><p> Other pieces of furniture will only make her feel a little happy or a little annoyed. </p><p> These pieces of furniture will make you win or lose small amounts of points. </p>","","0","instructions","","","","","","","","","","",""
"learning-instructions","70","561843","0.0-9.0-1.0-0.8","5627","1","14","Male","approach_avoid_spark_v1","""event"",""trial"",""time""
""fullscreenenter"",""1"",""1806""
""blur"",""12"",""99848""
""focus"",""12"",""99850""
""fullscreenexit"",""12"",""99872""
""blur"",""12"",""100874""
""focus"",""12"",""101000""
""blur"",""12"",""104418""
""focus"",""12"",""107047""
""blur"",""17"",""220442""
""focus"",""17"",""221058""
""blur"",""63"",""456389""
""focus"",""63"",""457348""
","""event"",""trial"",""time""
""blur"",""12"",""99848""
""blur"",""12"",""100874""
""blur"",""12"",""104418""
""blur"",""17"",""220442""
""blur"",""63"",""456389""
","""event"",""trial"",""time""
""focus"",""12"",""99850""
""focus"",""12"",""101000""
""focus"",""12"",""107047""
""focus"",""17"",""221058""
""focus"",""63"",""457348""
","""event"",""trial"",""time""
""fullscreenenter"",""1"",""1806""
","""event"",""trial"",""time""
""fullscreenexit"",""12"",""99872""
","","","","","","21883.200000001118","<p> If you choose to deliver a piece of furniture elsewhere, you will not win or lose any points. </p><p>  However, in the center of the screen, you will see the number of points you WOULD HAVE won or lost if you had given the furniture to your friend. </p>","","0","instructions","","","","","","","","","","",""
"learning-instructions","71","575993","0.0-9.0-1.0-0.9","5627","1","14","Male","approach_avoid_spark_v1","""event"",""trial"",""time""
""fullscreenenter"",""1"",""1806""
""blur"",""12"",""99848""
""focus"",""12"",""99850""
""fullscreenexit"",""12"",""99872""
""blur"",""12"",""100874""
""focus"",""12"",""101000""
""blur"",""12"",""104418""
""focus"",""12"",""107047""
""blur"",""17"",""220442""
""focus"",""17"",""221058""
""blur"",""63"",""456389""
""focus"",""63"",""457348""
","""event"",""trial"",""time""
""blur"",""12"",""99848""
""blur"",""12"",""100874""
""blur"",""12"",""104418""
""blur"",""17"",""220442""
""blur"",""63"",""456389""
","""event"",""trial"",""time""
""focus"",""12"",""99850""
""focus"",""12"",""101000""
""focus"",""12"",""107047""
""focus"",""17"",""221058""
""focus"",""63"",""457348""
","""event"",""trial"",""time""
""fullscreenenter"",""1"",""1806""
","""event"",""trial"",""time""
""fullscreenexit"",""12"",""99872""
","","","","","","2384.300000000745","<p> Here is what you might see if you did not give a piece of furniture to your friend that would have made her happy: </p><p style=""color:grey; font-size:50px; display: inline-block; border-spacing: 15px; border-width:3px; border-style:solid; border-color:red"">  &nbsp; 6 &nbsp; </p><p> Remember, in this case, you would not win or lose ANY points because you did not give her the furniture.  </p>","","0","instructions","","","","","","","","","","",""
"learning-instructions","72","607043","0.0-9.0-1.0-0.10","5627","1","14","Male","approach_avoid_spark_v1","""event"",""trial"",""time""
""fullscreenenter"",""1"",""1806""
""blur"",""12"",""99848""
""focus"",""12"",""99850""
""fullscreenexit"",""12"",""99872""
""blur"",""12"",""100874""
""focus"",""12"",""101000""
""blur"",""12"",""104418""
""focus"",""12"",""107047""
""blur"",""17"",""220442""
""focus"",""17"",""221058""
""blur"",""63"",""456389""
""focus"",""63"",""457348""
","""event"",""trial"",""time""
""blur"",""12"",""99848""
""blur"",""12"",""100874""
""blur"",""12"",""104418""
""blur"",""17"",""220442""
""blur"",""63"",""456389""
","""event"",""trial"",""time""
""focus"",""12"",""99850""
""focus"",""12"",""101000""
""focus"",""12"",""107047""
""focus"",""17"",""221058""
""focus"",""63"",""457348""
","""event"",""trial"",""time""
""fullscreenenter"",""1"",""1806""
","""event"",""trial"",""time""
""fullscreenexit"",""12"",""99872""
","","","","","","23464.400000000373","<p> Try to make the best choice for each piece of furniture because </p><p> at the end of the game, you will earn bonus money based on how many points you earned. </p>","","0","instructions","","","","","","","","","","",""
"learning-instructions","73","626861","0.0-9.0-1.0-0.11","5627","1","14","Male","approach_avoid_spark_v1","""event"",""trial"",""time""
""fullscreenenter"",""1"",""1806""
""blur"",""12"",""99848""
""focus"",""12"",""99850""
""fullscreenexit"",""12"",""99872""
""blur"",""12"",""100874""
""focus"",""12"",""101000""
""blur"",""12"",""104418""
""focus"",""12"",""107047""
""blur"",""17"",""220442""
""focus"",""17"",""221058""
""blur"",""63"",""456389""
""focus"",""63"",""457348""
","""event"",""trial"",""time""
""blur"",""12"",""99848""
""blur"",""12"",""100874""
""blur"",""12"",""104418""
""blur"",""17"",""220442""
""blur"",""63"",""456389""
","""event"",""trial"",""time""
""focus"",""12"",""99850""
""focus"",""12"",""101000""
""focus"",""12"",""107047""
""focus"",""17"",""221058""
""focus"",""63"",""457348""
","""event"",""trial"",""time""
""fullscreenenter"",""1"",""1806""
","""event"",""trial"",""time""
""fullscreenexit"",""12"",""99872""
","","","","","","11622.599999999627","<p> You will have 3 seconds to make each choice. Try to respond before time runs out! </p><p> You will lose 5 points each time you do not make a response. </p>","","0","instructions","","","","","","","","","","",""
"html-keyboard-response","74","627469","0.0-9.0-2.0-0.0","5627","1","14","Male","approach_avoid_spark_v1","""event"",""trial"",""time""
""fullscreenenter"",""1"",""1806""
""blur"",""12"",""99848""
""focus"",""12"",""99850""
""fullscreenexit"",""12"",""99872""
""blur"",""12"",""100874""
""focus"",""12"",""101000""
""blur"",""12"",""104418""
""focus"",""12"",""107047""
""blur"",""17"",""220442""
""focus"",""17"",""221058""
""blur"",""63"",""456389""
""focus"",""63"",""457348""
","""event"",""trial"",""time""
""blur"",""12"",""99848""
""blur"",""12"",""100874""
""blur"",""12"",""104418""
""blur"",""17"",""220442""
""blur"",""63"",""456389""
","""event"",""trial"",""time""
""focus"",""12"",""99850""
""focus"",""12"",""101000""
""focus"",""12"",""107047""
""focus"",""17"",""221058""
""focus"",""63"",""457348""
","""event"",""trial"",""time""
""fullscreenenter"",""1"",""1806""
","""event"",""trial"",""time""
""fullscreenexit"",""12"",""99872""
","","","","","","null","<div style=""font-size:60px;"">+</div>","null","","fixation","","","","","","","","","","",""
"aa-learning-trial","75","630492","0.0-9.0-2.0-1.0","5627","1","14","Male","approach_avoid_spark_v1","""event"",""trial"",""time""
""fullscreenenter"",""1"",""1806""
""blur"",""12"",""99848""
""focus"",""12"",""99850""
""fullscreenexit"",""12"",""99872""
""blur"",""12"",""100874""
""focus"",""12"",""101000""
""blur"",""12"",""104418""
""focus"",""12"",""107047""
""blur"",""17"",""220442""
""focus"",""17"",""221058""
""blur"",""63"",""456389""
""focus"",""63"",""457348""
","""event"",""trial"",""time""
""blur"",""12"",""99848""
""blur"",""12"",""100874""
""blur"",""12"",""104418""
""blur"",""17"",""220442""
""blur"",""63"",""456389""
","""event"",""trial"",""time""
""focus"",""12"",""99850""
""focus"",""12"",""101000""
""focus"",""12"",""107047""
""focus"",""17"",""221058""
""focus"",""63"",""457348""
","""event"",""trial"",""time""
""fullscreenenter"",""1"",""1806""
","""event"",""trial"",""time""
""fullscreenexit"",""12"",""99872""
","","","","","","1721.199999999255","images/chair5.png","","","learning","-1","-5","insert","","chair","furniture","1","0","","neutral","0"
"html-keyboard-response","76","630999","0.0-9.0-2.0-0.1","5627","1","14","Male","approach_avoid_spark_v1","""event"",""trial"",""time""
""fullscreenenter"",""1"",""1806""
""blur"",""12"",""99848""
""focus"",""12"",""99850""
""fullscreenexit"",""12"",""99872""
""blur"",""12"",""100874""
""focus"",""12"",""101000""
""blur"",""12"",""104418""
""focus"",""12"",""107047""
""blur"",""17"",""220442""
""focus"",""17"",""221058""
""blur"",""63"",""456389""
""focus"",""63"",""457348""
","""event"",""trial"",""time""
""blur"",""12"",""99848""
""blur"",""12"",""100874""
""blur"",""12"",""104418""
""blur"",""17"",""220442""
""blur"",""63"",""456389""
","""event"",""trial"",""time""
""focus"",""12"",""99850""
""focus"",""12"",""101000""
""focus"",""12"",""107047""
""focus"",""17"",""221058""
""focus"",""63"",""457348""
","""event"",""trial"",""time""
""fullscreenenter"",""1"",""1806""
","""event"",""trial"",""time""
""fullscreenexit"",""12"",""99872""
","","","","","","null","<div style=""font-size:60px;"">+</div>","null","","fixation","","","","","","","","","","",""
"aa-learning-trial","77","634004","0.0-9.0-2.0-1.1","5627","1","14","Male","approach_avoid_spark_v1","""event"",""trial"",""time""
""fullscreenenter"",""1"",""1806""
""blur"",""12"",""99848""
""focus"",""12"",""99850""
""fullscreenexit"",""12"",""99872""
""blur"",""12"",""100874""
""focus"",""12"",""101000""
""blur"",""12"",""104418""
""focus"",""12"",""107047""
""blur"",""17"",""220442""
""focus"",""17"",""221058""
""blur"",""63"",""456389""
""focus"",""63"",""457348""
","""event"",""trial"",""time""
""blur"",""12"",""99848""
""blur"",""12"",""100874""
""blur"",""12"",""104418""
""blur"",""17"",""220442""
""blur"",""63"",""456389""
","""event"",""trial"",""time""
""focus"",""12"",""99850""
""focus"",""12"",""101000""
""focus"",""12"",""107047""
""focus"",""17"",""221058""
""focus"",""63"",""457348""
","""event"",""trial"",""time""
""fullscreenenter"",""1"",""1806""
","""event"",""trial"",""time""
""fullscreenexit"",""12"",""99872""
","","","","","","1264.2000000011176","images/chair8.png","","","learning","4","-5","end","","chair","furniture","1","0","","neutral","0"
"html-keyboard-response","78","634522","0.0-9.0-2.0-0.2","5627","1","14","Male","approach_avoid_spark_v1","""event"",""trial"",""time""
""fullscreenenter"",""1"",""1806""
""blur"",""12"",""99848""
""focus"",""12"",""99850""
""fullscreenexit"",""12"",""99872""
""blur"",""12"",""100874""
""focus"",""12"",""101000""
""blur"",""12"",""104418""
""focus"",""12"",""107047""
""blur"",""17"",""220442""
""focus"",""17"",""221058""
""blur"",""63"",""456389""
""focus"",""63"",""457348""
","""event"",""trial"",""time""
""blur"",""12"",""99848""
""blur"",""12"",""100874""
""blur"",""12"",""104418""
""blur"",""17"",""220442""
""blur"",""63"",""456389""
","""event"",""trial"",""time""
""focus"",""12"",""99850""
""focus"",""12"",""101000""
""focus"",""12"",""107047""
""focus"",""17"",""221058""
""focus"",""63"",""457348""
","""event"",""trial"",""time""
""fullscreenenter"",""1"",""1806""
","""event"",""trial"",""time""
""fullscreenexit"",""12"",""99872""
","","","","","","null","<div style=""font-size:60px;"">+</div>","null","","fixation","","","","","","","","","","",""
"aa-learning-trial","79","637529","0.0-9.0-2.0-1.2","5627","1","14","Male","approach_avoid_spark_v1","""event"",""trial"",""time""
""fullscreenenter"",""1"",""1806""
""blur"",""12"",""99848""
""focus"",""12"",""99850""
""fullscreenexit"",""12"",""99872""
""blur"",""12"",""100874""
""focus"",""12"",""101000""
""blur"",""12"",""104418""
""focus"",""12"",""107047""
""blur"",""17"",""220442""
""focus"",""17"",""221058""
""blur"",""63"",""456389""
""focus"",""63"",""457348""
","""event"",""trial"",""time""
""blur"",""12"",""99848""
""blur"",""12"",""100874""
""blur"",""12"",""104418""
""blur"",""17"",""220442""
""blur"",""63"",""456389""
","""event"",""trial"",""time""
""focus"",""12"",""99850""
""focus"",""12"",""101000""
""focus"",""12"",""107047""
""focus"",""17"",""221058""
""focus"",""63"",""457348""
","""event"",""trial"",""time""
""fullscreenenter"",""1"",""1806""
","""event"",""trial"",""time""
""fullscreenexit"",""12"",""99872""
","","","","","","661.0999999996275","images/bed1.png","","","learning","5","-5","end","","bed","furniture","1","0","","good","[3]"
"html-keyboard-response","80","638049","0.0-9.0-2.0-0.3","5627","1","14","Male","approach_avoid_spark_v1","""event"",""trial"",""time""
""fullscreenenter"",""1"",""1806""
""blur"",""12"",""99848""
""focus"",""12"",""99850""
""fullscreenexit"",""12"",""99872""
""blur"",""12"",""100874""
""focus"",""12"",""101000""
""blur"",""12"",""104418""
""focus"",""12"",""107047""
""blur"",""17"",""220442""
""focus"",""17"",""221058""
""blur"",""63"",""456389""
""focus"",""63"",""457348""
","""event"",""trial"",""time""
""blur"",""12"",""99848""
""blur"",""12"",""100874""
""blur"",""12"",""104418""
""blur"",""17"",""220442""
""blur"",""63"",""456389""
","""event"",""trial"",""time""
""focus"",""12"",""99850""
""focus"",""12"",""101000""
""focus"",""12"",""107047""
""focus"",""17"",""221058""
""focus"",""63"",""457348""
","""event"",""trial"",""time""
""fullscreenenter"",""1"",""1806""
","""event"",""trial"",""time""
""fullscreenexit"",""12"",""99872""
","","","","","","null","<div style=""font-size:60px;"">+</div>","null","","fixation","","","","","","","","","","",""
"aa-learning-trial","81","641054","0.0-9.0-2.0-1.3","5627","1","14","Male","approach_avoid_spark_v1","""event"",""trial"",""time""
""fullscreenenter"",""1"",""1806""
""blur"",""12"",""99848""
""focus"",""12"",""99850""
""fullscreenexit"",""12"",""99872""
""blur"",""12"",""100874""
""focus"",""12"",""101000""
""blur"",""12"",""104418""
""focus"",""12"",""107047""
""blur"",""17"",""220442""
""focus"",""17"",""221058""
""blur"",""63"",""456389""
""focus"",""63"",""457348""
","""event"",""trial"",""time""
""blur"",""12"",""99848""
""blur"",""12"",""100874""
""blur"",""12"",""104418""
""blur"",""17"",""220442""
""blur"",""63"",""456389""
","""event"",""trial"",""time""
""focus"",""12"",""99850""
""focus"",""12"",""101000""
""focus"",""12"",""107047""
""focus"",""17"",""221058""
""focus"",""63"",""457348""
","""event"",""trial"",""time""
""fullscreenenter"",""1"",""1806""
","""event"",""trial"",""time""
""fullscreenexit"",""12"",""99872""
","","","","","","781.8000000007451","images/bed3.png","","","learning","4","-5","end","","bed","furniture","1","0","","good","[3]"
"html-keyboard-response","82","641557","0.0-9.0-2.0-0.4","5627","1","14","Male","approach_avoid_spark_v1","""event"",""trial"",""time""
""fullscreenenter"",""1"",""1806""
""blur"",""12"",""99848""
""focus"",""12"",""99850""
""fullscreenexit"",""12"",""99872""
""blur"",""12"",""100874""
""focus"",""12"",""101000""
""blur"",""12"",""104418""
""focus"",""12"",""107047""
""blur"",""17"",""220442""
""focus"",""17"",""221058""
""blur"",""63"",""456389""
""focus"",""63"",""457348""
","""event"",""trial"",""time""
""blur"",""12"",""99848""
""blur"",""12"",""100874""
""blur"",""12"",""104418""
""blur"",""17"",""220442""
""blur"",""63"",""456389""
","""event"",""trial"",""time""
""focus"",""12"",""99850""
""focus"",""12"",""101000""
""focus"",""12"",""107047""
""focus"",""17"",""221058""
""focus"",""63"",""457348""
","""event"",""trial"",""time""
""fullscreenenter"",""1"",""1806""
","""event"",""trial"",""time""
""fullscreenexit"",""12"",""99872""
","","","","","","null","<div style=""font-size:60px;"">+</div>","null","","fixation","","","","","","","","","","",""
"aa-learning-trial","83","644570","0.0-9.0-2.0-1.4","5627","1","14","Male","approach_avoid_spark_v1","""event"",""trial"",""time""
""fullscreenenter"",""1"",""1806""
""blur"",""12"",""99848""
""focus"",""12"",""99850""
""fullscreenexit"",""12"",""99872""
""blur"",""12"",""100874""
""focus"",""12"",""101000""
""blur"",""12"",""104418""
""focus"",""12"",""107047""
""blur"",""17"",""220442""
""focus"",""17"",""221058""
""blur"",""63"",""456389""
""focus"",""63"",""457348""
","""event"",""trial"",""time""
""blur"",""12"",""99848""
""blur"",""12"",""100874""
""blur"",""12"",""104418""
""blur"",""17"",""220442""
""blur"",""63"",""456389""
","""event"",""trial"",""time""
""focus"",""12"",""99850""
""focus"",""12"",""101000""
""focus"",""12"",""107047""
""focus"",""17"",""221058""
""focus"",""63"",""457348""
","""event"",""trial"",""time""
""fullscreenenter"",""1"",""1806""
","""event"",""trial"",""time""
""fullscreenexit"",""12"",""99872""
","","","","","","152.80000000074506","images/chair7.png","","","learning","[-1]","-5","end","","chair","furniture","1","0","","neutral","0"
"html-keyboard-response","84","645091","0.0-9.0-2.0-0.5","5627","1","14","Male","approach_avoid_spark_v1","""event"",""trial"",""time""
""fullscreenenter"",""1"",""1806""
""blur"",""12"",""99848""
""focus"",""12"",""99850""
""fullscreenexit"",""12"",""99872""
""blur"",""12"",""100874""
""focus"",""12"",""101000""
""blur"",""12"",""104418""
""focus"",""12"",""107047""
""blur"",""17"",""220442""
""focus"",""17"",""221058""
""blur"",""63"",""456389""
""focus"",""63"",""457348""
","""event"",""trial"",""time""
""blur"",""12"",""99848""
""blur"",""12"",""100874""
""blur"",""12"",""104418""
""blur"",""17"",""220442""
""blur"",""63"",""456389""
","""event"",""trial"",""time""
""focus"",""12"",""99850""
""focus"",""12"",""101000""
""focus"",""12"",""107047""
""focus"",""17"",""221058""
""focus"",""63"",""457348""
","""event"",""trial"",""time""
""fullscreenenter"",""1"",""1806""
","""event"",""trial"",""time""
""fullscreenexit"",""12"",""99872""
","","","","","","null","<div style=""font-size:60px;"">+</div>","null","","fixation","","","","","","","","","","",""
"aa-learning-trial","85","648094","0.0-9.0-2.0-1.5","5627","1","14","Male","approach_avoid_spark_v1","""event"",""trial"",""time""
""fullscreenenter"",""1"",""1806""
""blur"",""12"",""99848""
""focus"",""12"",""99850""
""fullscreenexit"",""12"",""99872""
""blur"",""12"",""100874""
""focus"",""12"",""101000""
""blur"",""12"",""104418""
""focus"",""12"",""107047""
""blur"",""17"",""220442""
""focus"",""17"",""221058""
""blur"",""63"",""456389""
""focus"",""63"",""457348""
","""event"",""trial"",""time""
""blur"",""12"",""99848""
""blur"",""12"",""100874""
""blur"",""12"",""104418""
""blur"",""17"",""220442""
""blur"",""63"",""456389""
","""event"",""trial"",""time""
""focus"",""12"",""99850""
""focus"",""12"",""101000""
""focus"",""12"",""107047""
""focus"",""17"",""221058""
""focus"",""63"",""457348""
","""event"",""trial"",""time""
""fullscreenenter"",""1"",""1806""
","""event"",""trial"",""time""
""fullscreenexit"",""12"",""99872""
","","","","","","547.4000000003725","images/bed1.png","","","learning","4","-5","insert","","bed","furniture","1","0","","good","[3]"
"html-keyboard-response","86","648598","0.0-9.0-2.0-0.6","5627","1","14","Male","approach_avoid_spark_v1","""event"",""trial"",""time""
""fullscreenenter"",""1"",""1806""
""blur"",""12"",""99848""
""focus"",""12"",""99850""
""fullscreenexit"",""12"",""99872""
""blur"",""12"",""100874""
""focus"",""12"",""101000""
""blur"",""12"",""104418""
""focus"",""12"",""107047""
""blur"",""17"",""220442""
""focus"",""17"",""221058""
""blur"",""63"",""456389""
""focus"",""63"",""457348""
","""event"",""trial"",""time""
""blur"",""12"",""99848""
""blur"",""12"",""100874""
""blur"",""12"",""104418""
""blur"",""17"",""220442""
""blur"",""63"",""456389""
","""event"",""trial"",""time""
""focus"",""12"",""99850""
""focus"",""12"",""101000""
""focus"",""12"",""107047""
""focus"",""17"",""221058""
""focus"",""63"",""457348""
","""event"",""trial"",""time""
""fullscreenenter"",""1"",""1806""
","""event"",""trial"",""time""
""fullscreenexit"",""12"",""99872""
","","","","","","null","<div style=""font-size:60px;"">+</div>","null","","fixation","","","","","","","","","","",""
"aa-learning-trial","87","651605","0.0-9.0-2.0-1.6","5627","1","14","Male","approach_avoid_spark_v1","""event"",""trial"",""time""
""fullscreenenter"",""1"",""1806""
""blur"",""12"",""99848""
""focus"",""12"",""99850""
""fullscreenexit"",""12"",""99872""
""blur"",""12"",""100874""
""focus"",""12"",""101000""
""blur"",""12"",""104418""
""focus"",""12"",""107047""
""blur"",""17"",""220442""
""focus"",""17"",""221058""
""blur"",""63"",""456389""
""focus"",""63"",""457348""
","""event"",""trial"",""time""
""blur"",""12"",""99848""
""blur"",""12"",""100874""
""blur"",""12"",""104418""
""blur"",""17"",""220442""
""blur"",""63"",""456389""
","""event"",""trial"",""time""
""focus"",""12"",""99850""
""focus"",""12"",""101000""
""focus"",""12"",""107047""
""focus"",""17"",""221058""
""focus"",""63"",""457348""
","""event"",""trial"",""time""
""fullscreenenter"",""1"",""1806""
","""event"",""trial"",""time""
""fullscreenexit"",""12"",""99872""
","","","","","","352.5","images/sofa1.png","","","learning","-9","-5","end","","sofa","furniture","1","0","","bad","[-6]"
"html-keyboard-response","88","652109","0.0-9.0-2.0-0.7","5627","1","14","Male","approach_avoid_spark_v1","""event"",""trial"",""time""
""fullscreenenter"",""1"",""1806""
""blur"",""12"",""99848""
""focus"",""12"",""99850""
""fullscreenexit"",""12"",""99872""
""blur"",""12"",""100874""
""focus"",""12"",""101000""
""blur"",""12"",""104418""
""focus"",""12"",""107047""
""blur"",""17"",""220442""
""focus"",""17"",""221058""
""blur"",""63"",""456389""
""focus"",""63"",""457348""
","""event"",""trial"",""time""
""blur"",""12"",""99848""
""blur"",""12"",""100874""
""blur"",""12"",""104418""
""blur"",""17"",""220442""
""blur"",""63"",""456389""
","""event"",""trial"",""time""
""focus"",""12"",""99850""
""focus"",""12"",""101000""
""focus"",""12"",""107047""
""focus"",""17"",""221058""
""focus"",""63"",""457348""
","""event"",""trial"",""time""
""fullscreenenter"",""1"",""1806""
","""event"",""trial"",""time""
""fullscreenexit"",""12"",""99872""
","","","","","","null","<div style=""font-size:60px;"">+</div>","null","","fixation","","","","","","","","","","",""
"aa-learning-trial","89","655119","0.0-9.0-2.0-1.7","5627","1","14","Male","approach_avoid_spark_v1","""event"",""trial"",""time""
""fullscreenenter"",""1"",""1806""
""blur"",""12"",""99848""
""focus"",""12"",""99850""
""fullscreenexit"",""12"",""99872""
""blur"",""12"",""100874""
""focus"",""12"",""101000""
""blur"",""12"",""104418""
""focus"",""12"",""107047""
""blur"",""17"",""220442""
""focus"",""17"",""221058""
""blur"",""63"",""456389""
""focus"",""63"",""457348""
","""event"",""trial"",""time""
""blur"",""12"",""99848""
""blur"",""12"",""100874""
""blur"",""12"",""104418""
""blur"",""17"",""220442""
""blur"",""63"",""456389""
","""event"",""trial"",""time""
""focus"",""12"",""99850""
""focus"",""12"",""101000""
""focus"",""12"",""107047""
""focus"",""17"",""221058""
""focus"",""63"",""457348""
","""event"",""trial"",""time""
""fullscreenenter"",""1"",""1806""
","""event"",""trial"",""time""
""fullscreenexit"",""12"",""99872""
","","","","","","505.2999999988824","images/sofa8.png","","","learning","-7","-5","end","","sofa","furniture","1","0","","bad","[-6]"
"html-keyboard-response","90","655622","0.0-9.0-2.0-0.8","5627","1","14","Male","approach_avoid_spark_v1","""event"",""trial"",""time""
""fullscreenenter"",""1"",""1806""
""blur"",""12"",""99848""
""focus"",""12"",""99850""
""fullscreenexit"",""12"",""99872""
""blur"",""12"",""100874""
""focus"",""12"",""101000""
""blur"",""12"",""104418""
""focus"",""12"",""107047""
""blur"",""17"",""220442""
""focus"",""17"",""221058""
""blur"",""63"",""456389""
""focus"",""63"",""457348""
","""event"",""trial"",""time""
""blur"",""12"",""99848""
""blur"",""12"",""100874""
""blur"",""12"",""104418""
""blur"",""17"",""220442""
""blur"",""63"",""456389""
","""event"",""trial"",""time""
""focus"",""12"",""99850""
""focus"",""12"",""101000""
""focus"",""12"",""107047""
""focus"",""17"",""221058""
""focus"",""63"",""457348""
","""event"",""trial"",""time""
""fullscreenenter"",""1"",""1806""
","""event"",""trial"",""time""
""fullscreenexit"",""12"",""99872""
","","","","","","null","<div style=""font-size:60px;"">+</div>","null","","fixation","","","","","","","","","","",""
"aa-learning-trial","91","658629","0.0-9.0-2.0-1.8","5627","1","14","Male","approach_avoid_spark_v1","""event"",""trial"",""time""
""fullscreenenter"",""1"",""1806""
""blur"",""12"",""99848""
""focus"",""12"",""99850""
""fullscreenexit"",""12"",""99872""
""blur"",""12"",""100874""
""focus"",""12"",""101000""
""blur"",""12"",""104418""
""focus"",""12"",""107047""
""blur"",""17"",""220442""
""focus"",""17"",""221058""
""blur"",""63"",""456389""
""focus"",""63"",""457348""
","""event"",""trial"",""time""
""blur"",""12"",""99848""
""blur"",""12"",""100874""
""blur"",""12"",""104418""
""blur"",""17"",""220442""
""blur"",""63"",""456389""
","""event"",""trial"",""time""
""focus"",""12"",""99850""
""focus"",""12"",""101000""
""focus"",""12"",""107047""
""focus"",""17"",""221058""
""focus"",""63"",""457348""
","""event"",""trial"",""time""
""fullscreenenter"",""1"",""1806""
","""event"",""trial"",""time""
""fullscreenexit"",""12"",""99872""
","","","","","","729","images/chair7.png","","","learning","[-1]","-5","insert","","chair","furniture","1","0","","neutral","0"
"html-keyboard-response","92","659133","0.0-9.0-2.0-0.9","5627","1","14","Male","approach_avoid_spark_v1","""event"",""trial"",""time""
""fullscreenenter"",""1"",""1806""
""blur"",""12"",""99848""
""focus"",""12"",""99850""
""fullscreenexit"",""12"",""99872""
""blur"",""12"",""100874""
""focus"",""12"",""101000""
""blur"",""12"",""104418""
""focus"",""12"",""107047""
""blur"",""17"",""220442""
""focus"",""17"",""221058""
""blur"",""63"",""456389""
""focus"",""63"",""457348""
","""event"",""trial"",""time""
""blur"",""12"",""99848""
""blur"",""12"",""100874""
""blur"",""12"",""104418""
""blur"",""17"",""220442""
""blur"",""63"",""456389""
","""event"",""trial"",""time""
""focus"",""12"",""99850""
""focus"",""12"",""101000""
""focus"",""12"",""107047""
""focus"",""17"",""221058""
""focus"",""63"",""457348""
","""event"",""trial"",""time""
""fullscreenenter"",""1"",""1806""
","""event"",""trial"",""time""
""fullscreenexit"",""12"",""99872""
","","","","","","null","<div style=""font-size:60px;"">+</div>","null","","fixation","","","","","","","","","","",""
"aa-learning-trial","93","662141","0.0-9.0-2.0-1.9","5627","1","14","Male","approach_avoid_spark_v1","""event"",""trial"",""time""
""fullscreenenter"",""1"",""1806""
""blur"",""12"",""99848""
""focus"",""12"",""99850""
""fullscreenexit"",""12"",""99872""
""blur"",""12"",""100874""
""focus"",""12"",""101000""
""blur"",""12"",""104418""
""focus"",""12"",""107047""
""blur"",""17"",""220442""
""focus"",""17"",""221058""
""blur"",""63"",""456389""
""focus"",""63"",""457348""
","""event"",""trial"",""time""
""blur"",""12"",""99848""
""blur"",""12"",""100874""
""blur"",""12"",""104418""
""blur"",""17"",""220442""
""blur"",""63"",""456389""
","""event"",""trial"",""time""
""focus"",""12"",""99850""
""focus"",""12"",""101000""
""focus"",""12"",""107047""
""focus"",""17"",""221058""
""focus"",""63"",""457348""
","""event"",""trial"",""time""
""fullscreenenter"",""1"",""1806""
","""event"",""trial"",""time""
""fullscreenexit"",""12"",""99872""
","","","","","","506.09999999962747","images/bed3.png","","","learning","6","-5","end","","bed","furniture","1","0","","good","[3]"
"html-keyboard-response","94","662645","0.0-9.0-2.0-0.10","5627","1","14","Male","approach_avoid_spark_v1","""event"",""trial"",""time""
""fullscreenenter"",""1"",""1806""
""blur"",""12"",""99848""
""focus"",""12"",""99850""
""fullscreenexit"",""12"",""99872""
""blur"",""12"",""100874""
""focus"",""12"",""101000""
""blur"",""12"",""104418""
""focus"",""12"",""107047""
""blur"",""17"",""220442""
""focus"",""17"",""221058""
""blur"",""63"",""456389""
""focus"",""63"",""457348""
","""event"",""trial"",""time""
""blur"",""12"",""99848""
""blur"",""12"",""100874""
""blur"",""12"",""104418""
""blur"",""17"",""220442""
""blur"",""63"",""456389""
","""event"",""trial"",""time""
""focus"",""12"",""99850""
""focus"",""12"",""101000""
""focus"",""12"",""107047""
""focus"",""17"",""221058""
""focus"",""63"",""457348""
","""event"",""trial"",""time""
""fullscreenenter"",""1"",""1806""
","""event"",""trial"",""time""
""fullscreenexit"",""12"",""99872""
","","","","","","null","<div style=""font-size:60px;"">+</div>","null","","fixation","","","","","","","","","","",""
"aa-learning-trial","95","665654","0.0-9.0-2.0-1.10","5627","1","14","Male","approach_avoid_spark_v1","""event"",""trial"",""time""
""fullscreenenter"",""1"",""1806""
""blur"",""12"",""99848""
""focus"",""12"",""99850""
""fullscreenexit"",""12"",""99872""
""blur"",""12"",""100874""
""focus"",""12"",""101000""
""blur"",""12"",""104418""
""focus"",""12"",""107047""
""blur"",""17"",""220442""
""focus"",""17"",""221058""
""blur"",""63"",""456389""
""focus"",""63"",""457348""
","""event"",""trial"",""time""
""blur"",""12"",""99848""
""blur"",""12"",""100874""
""blur"",""12"",""104418""
""blur"",""17"",""220442""
""blur"",""63"",""456389""
","""event"",""trial"",""time""
""focus"",""12"",""99850""
""focus"",""12"",""101000""
""focus"",""12"",""107047""
""focus"",""17"",""221058""
""focus"",""63"",""457348""
","""event"",""trial"",""time""
""fullscreenenter"",""1"",""1806""
","""event"",""trial"",""time""
""fullscreenexit"",""12"",""99872""
","","","","","","721.8000000007451","images/sofa5.png","","","learning","-4","-5","end","","sofa","furniture","1","0","","bad","[-6]"
"html-keyboard-response","96","666158","0.0-9.0-2.0-0.11","5627","1","14","Male","approach_avoid_spark_v1","""event"",""trial"",""time""
""fullscreenenter"",""1"",""1806""
""blur"",""12"",""99848""
""focus"",""12"",""99850""
""fullscreenexit"",""12"",""99872""
""blur"",""12"",""100874""
""focus"",""12"",""101000""
""blur"",""12"",""104418""
""focus"",""12"",""107047""
""blur"",""17"",""220442""
""focus"",""17"",""221058""
""blur"",""63"",""456389""
""focus"",""63"",""457348""
","""event"",""trial"",""time""
""blur"",""12"",""99848""
""blur"",""12"",""100874""
""blur"",""12"",""104418""
""blur"",""17"",""220442""
""blur"",""63"",""456389""
","""event"",""trial"",""time""
""focus"",""12"",""99850""
""focus"",""12"",""101000""
""focus"",""12"",""107047""
""focus"",""17"",""221058""
""focus"",""63"",""457348""
","""event"",""trial"",""time""
""fullscreenenter"",""1"",""1806""
