"trial_type","trial_index","time_elapsed","internal_node_id","subject_id","task_condition","age","gender","task_version","interactions","blur_events","focus_events","fullscreenenter_events","fullscreenexit_events","success","timeout","failed_images","failed_audio","failed_video","rt","stimulus","response","button_pressed","task_part","approach_reward","points","key_press","option_selected","stim_cat","task_block","block_condition","block_number","correct","cat_type","mean_cat_reward"
"pavlovia","0","25","0.0-0.0","3998","1","11","Male","approach_avoid_spark_v1","""event"",""trial"",""time""
""fullscreenenter"",""1"",""22954""
","
","
","""event"",""trial"",""time""
""fullscreenenter"",""1"",""22954""
","
","","","","","","","","","","","","","","","","","","","","",""
"fullscreen","1","23937","0.0-1.0","3998","1","11","Male","approach_avoid_spark_v1","""event"",""trial"",""time""
""fullscreenenter"",""1"",""22954""
","
","
","""event"",""trial"",""time""
""fullscreenenter"",""1"",""22954""
","
","true","","","","","","","","","","","","","","","","","","","",""
"preload","2","30276","0.0-2.0","3998","1","11","Male","approach_avoid_spark_v1","""event"",""trial"",""time""
""fullscreenenter"",""1"",""22954""
","
","
","""event"",""trial"",""time""
""fullscreenenter"",""1"",""22954""
","
","true","false","[]","[]","[]","","","","","","","","","","","","","","","",""
"audio-keyboard-response","3","33559","0.0-3.0","3998","1","11","Male","approach_avoid_spark_v1","""event"",""trial"",""time""
""fullscreenenter"",""1"",""22954""
","
","
","""event"",""trial"",""time""
""fullscreenenter"",""1"",""22954""
","
","","","","","","3285.333333333334","audio/beep_loop.wav"," ","","","","","","","","","","","","",""
"audio-button-response","4","35527","0.0-4.0","3998","1","11","Male","approach_avoid_spark_v1","""event"",""trial"",""time""
""fullscreenenter"",""1"",""22954""
","
","
","""event"",""trial"",""time""
""fullscreenenter"",""1"",""22954""
","
","","","","","","1952","audio/shark.wav","4","","","","","","","","","","","","",""
"audio-button-response","5","38163","0.0-5.0","3998","1","11","Male","approach_avoid_spark_v1","""event"",""trial"",""time""
""fullscreenenter"",""1"",""22954""
","
","
","""event"",""trial"",""time""
""fullscreenenter"",""1"",""22954""
","
","","","","","","1632","audio/turtle.wav","1","","","","","","","","","","","","",""
"preload","6","41418","0.0-6.0","3998","1","11","Male","approach_avoid_spark_v1","""event"",""trial"",""time""
""fullscreenenter"",""1"",""22954""
","
","
","""event"",""trial"",""time""
""fullscreenenter"",""1"",""22954""
","
","true","false","[]","[]","[]","","","","","","","","","","","","","","","",""
"html-keyboard-response","7","69936","0.0-7.0","3998","1","11","Male","approach_avoid_spark_v1","""event"",""trial"",""time""
""fullscreenenter"",""1"",""22954""
","
","
","""event"",""trial"",""time""
""fullscreenenter"",""1"",""22954""
","
","","","","","","28514.700000000186","Welcome to the experiment. Press any key to begin and to advance the instructions.","n","","","","","","","","","","","","",""
"learning-instructions","8","78664","0.0-8.0-0.0-0.0","3998","1","11","Male","approach_avoid_spark_v1","""event"",""trial"",""time""
""fullscreenenter"",""1"",""22954""
","
","
","""event"",""trial"",""time""
""fullscreenenter"",""1"",""22954""
","
","","","","","","1760.9000000003725","<p> Welcome! Today you are going to play 6 different rounds of a decision-making game. </p><p> Use the mouse to click next to continue. </p>","","0","instructions","","","","","","","","","","",""
"learning-instructions","9","82138","0.0-8.0-0.0-0.1","3998","1","11","Male","approach_avoid_spark_v1","""event"",""trial"",""time""
""fullscreenenter"",""1"",""22954""
","
","
","""event"",""trial"",""time""
""fullscreenenter"",""1"",""22954""
","
","","","","","","742","<p> You will start with a practice round to learn the rules. </p>","","0","instructions","","","","","","","","","","",""
"learning-instructions","10","86182","0.0-8.0-0.0-0.2","3998","1","11","Male","approach_avoid_spark_v1","""event"",""trial"",""time""
""fullscreenenter"",""1"",""22954""
","
","
","""event"",""trial"",""time""
""fullscreenenter"",""1"",""22954""
","
","","","","","","593","<p> Your goal in this round is to give out sports equipment to kids. </p></div>","","0","instructions","","","","","","","","","","",""
"learning-instructions","11","94332","0.0-8.0-0.0-0.3","3998","1","11","Male","approach_avoid_spark_v1","""event"",""trial"",""time""
""fullscreenenter"",""1"",""22954""
","
","
","""event"",""trial"",""time""
""fullscreenenter"",""1"",""22954""
","
","","","","","","599.4000000003725","<p> The kids only like some of the equipment.  </p><p> On each turn, you will see a piece of sports equipment.   </p><p> You need to decide whether to give it to the kids or not.  </p>","","0","instructions","","","","","","","","","","",""
"learning-instructions","12","100034","0.0-8.0-0.0-0.4","3998","1","11","Male","approach_avoid_spark_v1","""event"",""trial"",""time""
""fullscreenenter"",""1"",""22954""
","
","
","""event"",""trial"",""time""
""fullscreenenter"",""1"",""22954""
","
","","","","","","943.2999999998137","<p> You can give them the equipment by pressing 1 and choose not to give it to them by pressing 0. </p><br><div class=""choice-instructions-grid""> <div class=""choice-option""><img src=""images/approach.png"" class=""choice-option-img"" stage=""instructions"" position=""0"" ><div class=""choice-option-text""> Press ""1."" </div></div><div class=""choice-option""><img src=""images/avoid.png"" class=""choice-option-img"" stage=""instructions"" position=""1"" ><div class=""choice-option-text""> Press ""0."" </div></div>","","0","instructions","","","","","","","","","","",""
"learning-instructions","13","108534","0.0-8.0-0.0-0.5","3998","1","11","Male","approach_avoid_spark_v1","""event"",""trial"",""time""
""fullscreenenter"",""1"",""22954""
","
","
","""event"",""trial"",""time""
""fullscreenenter"",""1"",""22954""
","
","","","","","","1109.7000000001863","<p> If you give them a piece of equipment they like, they will be happy! </p><p> But if you give them a piece of equipment they do not like, they will be sad. </p>","","0","instructions","","","","","","","","","","",""
"learning-instructions","14","122949","0.0-8.0-0.0-0.6","3998","1","11","Male","approach_avoid_spark_v1","""event"",""trial"",""time""
""fullscreenenter"",""1"",""22954""
","
","
","""event"",""trial"",""time""
""fullscreenenter"",""1"",""22954""
","
","","","","","","3902.7999999998137","<p> You will earn points based on how you make kids feel. </p><p> If you make them happy, you will WIN anywhere from 1 - 9 points, </p><p> but if you make them sad, you will LOSE anywhere from 1 - 9 points. </p>","","0","instructions","","","","","","","","","","",""
"learning-instructions","15","133157","0.0-8.0-0.0-0.7","3998","1","11","Male","approach_avoid_spark_v1","""event"",""trial"",""time""
""fullscreenenter"",""1"",""22954""
","
","
","""event"",""trial"",""time""
""fullscreenenter"",""1"",""22954""
","
","","","","","","652.7999999998137","<p> You will see how many points you won or lost in the center of the screen. </p><p> Here is what you would see if you won 6 points: </p><p style=""color:green;font-size:50px;font-weight:bolder"">6</p><p style=""color:green"">The text is GREEN because you WON points.</p>","","0","instructions","","","","","","","","","","",""
"learning-instructions","16","139871","0.0-8.0-0.0-0.8","3998","1","11","Male","approach_avoid_spark_v1","""event"",""trial"",""time""
""fullscreenenter"",""1"",""22954""
","
","
","""event"",""trial"",""time""
""fullscreenenter"",""1"",""22954""
","
","","","","","","1197.1000000005588","<p> And here is what you would see if you lost 4 points: </p><p style=""color:red;font-size:50px;font-weight:bolder"">-4</p><p style=""color:red"">The text is RED because you LOST points. </p>","","0","instructions","","","","","","","","","","",""
"learning-instructions","17","156043","0.0-8.0-0.0-0.9","3998","1","11","Male","approach_avoid_spark_v1","""event"",""trial"",""time""
""fullscreenenter"",""1"",""22954""
","
","
","""event"",""trial"",""time""
""fullscreenenter"",""1"",""22954""
","
","","","","","","1447.8999999994412","<p> Some of the equipment will make the kids VERY happy or sad. </p><p> These pieces of equipment will make you win or lose LOTS of points. </p><p> Other pieces of equipment will only make the kids a little happy or sad. </p><p> These pieces of equipment will make you win or lose small amounts of points. </p>","","0","instructions","","","","","","","","","","",""
"learning-instructions","18","168451","0.0-8.0-0.0-0.10","3998","1","11","Male","approach_avoid_spark_v1","""event"",""trial"",""time""
""fullscreenenter"",""1"",""22954""
","
","
","""event"",""trial"",""time""
""fullscreenenter"",""1"",""22954""
","
","","","","","","1773.300000000745","<p> If you choose not to give them the equipment, you will not win or lose any points. </p><p>  However, in the center of the screen, you will see the number of points you WOULD HAVE won or lost if you had given them the equipment. </p>","","0","instructions","","","","","","","","","","",""
"learning-instructions","19","191434","0.0-8.0-0.0-0.11","3998","1","11","Male","approach_avoid_spark_v1","""event"",""trial"",""time""
""fullscreenenter"",""1"",""22954""
","
","
","""event"",""trial"",""time""
""fullscreenenter"",""1"",""22954""
","
","","","","","","1437.7999999998137","<p> Here is what you might see if you did not give the equipment to the kids but it would have made them happy: </p><p style=""color:grey; font-size:50px; display: inline-block; border-spacing: 15px; border-width:3px; border-style:solid; border-color:red"">  &nbsp; 7 &nbsp; </p><p> Remember, in this case, you would not win or lose ANY points because you did not give them the equipment.  </p><p style=""color:grey"">The text is GREY because you earned ZERO points. </p><p style=""color:red"">However, choosing to give the kids the equipment would have made you win points. The box around the text is RED because you chose the worse option. </p>","","0","instructions","","","","","","","","","","",""
"learning-instructions","20","213655","0.0-8.0-0.0-0.12","3998","1","11","Male","approach_avoid_spark_v1","""event"",""trial"",""time""
""fullscreenenter"",""1"",""22954""
","
","
","""event"",""trial"",""time""
""fullscreenenter"",""1"",""22954""
","
","","","","","","1137.7000000011176","<p> Here is what you might see if you did not give the equipment to the kids but it would have made them sad: </p><p style=""color:grey;font-size:50px; display: inline-block; border-spacing: 15px; border-width:3px; border-style:solid; border-color:green"">  &nbsp; -8 &nbsp; </p><p> Remember, in this case, you would not win or lose ANY points because you did not give them the equipment.  </p><p style=""color:grey"">The text is GREY because you earned ZERO points. </p><p  style=""color:green""> Choosing to give the kids the equipment would have made you lose points. The box around the text is GREEN because you chose the better option.</p>","","0","instructions","","","","","","","","","","",""
"learning-instructions","21","223237","0.0-8.0-0.0-0.13","3998","1","11","Male","approach_avoid_spark_v1","""event"",""trial"",""time""
""fullscreenenter"",""1"",""22954""
","
","
","""event"",""trial"",""time""
""fullscreenenter"",""1"",""22954""
","
","","","","","","713.4000000003725","<p> You will have 3 seconds to make each choice. Try to respond before time runs out! </p><p> You will lose 5 points each time you do not make a response. </p>","","0","instructions","","","","","","","","","","",""
"learning-instructions","22","230169","0.0-8.0-0.0-0.14","3998","1","11","Male","approach_avoid_spark_v1","""event"",""trial"",""time""
""fullscreenenter"",""1"",""22954""
","
","
","""event"",""trial"",""time""
""fullscreenenter"",""1"",""22954""
","
","","","","","","1508.5999999996275","<p> This is just a practice round, but in the real game, your bonus payment will depend on your total number of points.","","0","instructions","","","","","","","","","","",""
"learning-instructions","23","237008","0.0-8.0-0.0-0.15","3998","1","11","Male","approach_avoid_spark_v1","""event"",""trial"",""time""
""fullscreenenter"",""1"",""22954""
","
","
","""event"",""trial"",""time""
""fullscreenenter"",""1"",""22954""
","
","","","","","","1052.699999999255","<p> Remember, you can give them the equipment by pressing 1 and choose not to give it to them by pressing 0. </p><br><div class=""choice-instructions-grid""> <div class=""choice-option""><img src=""images/approach.png"" class=""choice-option-img"" stage=""instructions"" position=""0"" ><div class=""choice-option-text""> Press ""1."" </div></div><div class=""choice-option""><img src=""images/avoid.png"" class=""choice-option-img"" stage=""instructions"" position=""1"" ><div class=""choice-option-text""> Press ""0."" </div></div>","","0","instructions","","","","","","","","","","",""
"html-button-response","24","238716","0.0-8.0-1.0","3998","1","11","Male","approach_avoid_spark_v1","""event"",""trial"",""time""
""fullscreenenter"",""1"",""22954""
","
","
","""event"",""trial"",""time""
""fullscreenenter"",""1"",""22954""
","
","","","","","","1601.199999999255","<p> Ready to practice? </p>","0","","","","","","","","","","","","",""
"html-keyboard-response","25","239323","0.0-8.0-2.0-0.0","3998","1","11","Male","approach_avoid_spark_v1","""event"",""trial"",""time""
""fullscreenenter"",""1"",""22954""
","
","
","""event"",""trial"",""time""
""fullscreenenter"",""1"",""22954""
","
","","","","","","null","<div style=""font-size:60px;"">+</div>","null","","fixation","","","","","","","","","","",""
"aa-learning-trial","26","242339","0.0-8.0-2.0-1.0","3998","1","11","Male","approach_avoid_spark_v1","""event"",""trial"",""time""
""fullscreenenter"",""1"",""22954""
","
","
","""event"",""trial"",""time""
""fullscreenenter"",""1"",""22954""
","
","","","","","","2007","images/racket4.png","","","learning","-6","-6","1","1","practice","practice","practice","-1","","",""
"html-keyboard-response","27","242843","0.0-8.0-2.0-0.1","3998","1","11","Male","approach_avoid_spark_v1","""event"",""trial"",""time""
""fullscreenenter"",""1"",""22954""
","
","
","""event"",""trial"",""time""
""fullscreenenter"",""1"",""22954""
","
","","","","","","null","<div style=""font-size:60px;"">+</div>","null","","fixation","","","","","","","","","","",""
"aa-learning-trial","28","245856","0.0-8.0-2.0-1.1","3998","1","11","Male","approach_avoid_spark_v1","""event"",""trial"",""time""
""fullscreenenter"",""1"",""22954""
","
","
","""event"",""trial"",""time""
""fullscreenenter"",""1"",""22954""
","
","","","","","","1351.199999999255","images/racket2.png","","","learning","6","6","1","1","practice","practice","practice","-1","","",""
"html-keyboard-response","29","246364","0.0-8.0-2.0-0.2","3998","1","11","Male","approach_avoid_spark_v1","""event"",""trial"",""time""
""fullscreenenter"",""1"",""22954""
","
","
","""event"",""trial"",""time""
""fullscreenenter"",""1"",""22954""
","
","","","","","","null","<div style=""font-size:60px;"">+</div>","null","","fixation","","","","","","","","","","",""
"aa-learning-trial","30","249376","0.0-8.0-2.0-1.2","3998","1","11","Male","approach_avoid_spark_v1","""event"",""trial"",""time""
""fullscreenenter"",""1"",""22954""
","
","
","""event"",""trial"",""time""
""fullscreenenter"",""1"",""22954""
","
","","","","","","1434","images/racket3.png","","","learning","-8","-8","1","1","practice","practice","practice","-1","","",""
"html-keyboard-response","31","249880","0.0-8.0-2.0-0.3","3998","1","11","Male","approach_avoid_spark_v1","""event"",""trial"",""time""
""fullscreenenter"",""1"",""22954""
","
","
","""event"",""trial"",""time""
""fullscreenenter"",""1"",""22954""
","
","","","","","","null","<div style=""font-size:60px;"">+</div>","null","","fixation","","","","","","","","","","",""
"aa-learning-trial","32","252896","0.0-8.0-2.0-1.3","3998","1","11","Male","approach_avoid_spark_v1","""event"",""trial"",""time""
""fullscreenenter"",""1"",""22954""
","
","
","""event"",""trial"",""time""
""fullscreenenter"",""1"",""22954""
","
","","","","","","863.8000000007451","images/racket2.png","","","learning","2","2","1","1","practice","practice","practice","-1","","",""
"html-keyboard-response","33","253401","0.0-8.0-2.0-0.4","3998","1","11","Male","approach_avoid_spark_v1","""event"",""trial"",""time""
""fullscreenenter"",""1"",""22954""
","
","
","""event"",""trial"",""time""
""fullscreenenter"",""1"",""22954""
","
","","","","","","null","<div style=""font-size:60px;"">+</div>","null","","fixation","","","","","","","","","","",""
"aa-learning-trial","34","256415","0.0-8.0-2.0-1.4","3998","1","11","Male","approach_avoid_spark_v1","""event"",""trial"",""time""
""fullscreenenter"",""1"",""22954""
","
","
","""event"",""trial"",""time""
""fullscreenenter"",""1"",""22954""
","
","","","","","","953.5","images/ball3.png","","","learning","5","5","1","1","practice","practice","practice","-1","","",""
"html-keyboard-response","35","256920","0.0-8.0-2.0-0.5","3998","1","11","Male","approach_avoid_spark_v1","""event"",""trial"",""time""
""fullscreenenter"",""1"",""22954""
","
","
","""event"",""trial"",""time""
""fullscreenenter"",""1"",""22954""
","
","","","","","","null","<div style=""font-size:60px;"">+</div>","null","","fixation","","","","","","","","","","",""
"aa-learning-trial","36","259934","0.0-8.0-2.0-1.5","3998","1","11","Male","approach_avoid_spark_v1","""event"",""trial"",""time""
""fullscreenenter"",""1"",""22954""
","
","
","""event"",""trial"",""time""
""fullscreenenter"",""1"",""22954""
","
","","","","","","881.8999999985099","images/racket3.png","","","learning","-9","0","0","0","practice","practice","practice","-1","","",""
"html-keyboard-response","37","260439","0.0-8.0-2.0-0.6","3998","1","11","Male","approach_avoid_spark_v1","""event"",""trial"",""time""
""fullscreenenter"",""1"",""22954""
","
","
","""event"",""trial"",""time""
""fullscreenenter"",""1"",""22954""
","
","","","","","","null","<div style=""font-size:60px;"">+</div>","null","","fixation","","","","","","","","","","",""
"aa-learning-trial","38","263456","0.0-8.0-2.0-1.6","3998","1","11","Male","approach_avoid_spark_v1","""event"",""trial"",""time""
""fullscreenenter"",""1"",""22954""
","
","
","""event"",""trial"",""time""
""fullscreenenter"",""1"",""22954""
","
","","","","","","919.7999999988824","images/racket3.png","","","learning","1","0","0","0","practice","practice","practice","-1","","",""
"html-keyboard-response","39","263964","0.0-8.0-2.0-0.7","3998","1","11","Male","approach_avoid_spark_v1","""event"",""trial"",""time""
""fullscreenenter"",""1"",""22954""
","
","
","""event"",""trial"",""time""
""fullscreenenter"",""1"",""22954""
","
","","","","","","null","<div style=""font-size:60px;"">+</div>","null","","fixation","","","","","","","","","","",""
"aa-learning-trial","40","266980","0.0-8.0-2.0-1.7","3998","1","11","Male","approach_avoid_spark_v1","""event"",""trial"",""time""
""fullscreenenter"",""1"",""22954""
","
","
","""event"",""trial"",""time""
""fullscreenenter"",""1"",""22954""
","
","","","","","","809.2999999988824","images/ball2.png","","","learning","9","9","1","1","practice","practice","practice","-1","","",""
"html-keyboard-response","41","267485","0.0-8.0-2.0-0.8","3998","1","11","Male","approach_avoid_spark_v1","""event"",""trial"",""time""
""fullscreenenter"",""1"",""22954""
","
","
","""event"",""trial"",""time""
""fullscreenenter"",""1"",""22954""
","
","","","","","","null","<div style=""font-size:60px;"">+</div>","null","","fixation","","","","","","","","","","",""
"aa-learning-trial","42","270497","0.0-8.0-2.0-1.8","3998","1","11","Male","approach_avoid_spark_v1","""event"",""trial"",""time""
""fullscreenenter"",""1"",""22954""
","
","
","""event"",""trial"",""time""
""fullscreenenter"",""1"",""22954""
","
","","","","","","1125.5999999996275","images/racket2.png","","","learning","-5","-5","1","1","practice","practice","practice","-1","","",""
"html-keyboard-response","43","271003","0.0-8.0-2.0-0.9","3998","1","11","Male","approach_avoid_spark_v1","""event"",""trial"",""time""
""fullscreenenter"",""1"",""22954""
","
","
","""event"",""trial"",""time""
""fullscreenenter"",""1"",""22954""
","
","","","","","","null","<div style=""font-size:60px;"">+</div>","null","","fixation","","","","","","","","","","",""
"aa-learning-trial","44","274018","0.0-8.0-2.0-1.9","3998","1","11","Male","approach_avoid_spark_v1","""event"",""trial"",""time""
""fullscreenenter"",""1"",""22954""
","
","
","""event"",""trial"",""time""
""fullscreenenter"",""1"",""22954""
","
","","","","","","1036.5999999996275","images/racket3.png","","","learning","-6","0","0","0","practice","practice","practice","-1","","",""
"html-keyboard-response","45","274526","0.0-8.0-2.0-0.10","3998","1","11","Male","approach_avoid_spark_v1","""event"",""trial"",""time""
""fullscreenenter"",""1"",""22954""
","
","
","""event"",""trial"",""time""
""fullscreenenter"",""1"",""22954""
","
","","","","","","null","<div style=""font-size:60px;"">+</div>","null","","fixation","","","","","","","","","","",""
"aa-learning-trial","46","277541","0.0-8.0-2.0-1.10","3998","1","11","Male","approach_avoid_spark_v1","""event"",""trial"",""time""
""fullscreenenter"",""1"",""22954""
","
","
","""event"",""trial"",""time""
""fullscreenenter"",""1"",""22954""
","
","","","","","","499.40000000037253","images/ball2.png","","","learning","-4","-4","1","1","practice","practice","practice","-1","","",""
"html-keyboard-response","47","278045","0.0-8.0-2.0-0.11","3998","1","11","Male","approach_avoid_spark_v1","""event"",""trial"",""time""
""fullscreenenter"",""1"",""22954""
","
","
","""event"",""trial"",""time""
""fullscreenenter"",""1"",""22954""
","
","","","","","","null","<div style=""font-size:60px;"">+</div>","null","","fixation","","","","","","","","","","",""
"aa-learning-trial","48","281060","0.0-8.0-2.0-1.11","3998","1","11","Male","approach_avoid_spark_v1","""event"",""trial"",""time""
""fullscreenenter"",""1"",""22954""
","
","
","""event"",""trial"",""time""
""fullscreenenter"",""1"",""22954""
","
","","","","","","1439.800000000745","images/racket4.png","","","learning","-9","-9","1","1","practice","practice","practice","-1","","",""
"html-button-response","49","283549","0.0-8.0-3.0","3998","1","11","Male","approach_avoid_spark_v1","""event"",""trial"",""time""
""fullscreenenter"",""1"",""22954""
","
","
","""event"",""trial"",""time""
""fullscreenenter"",""1"",""22954""
","
","","","","","","2482.199999999255","<p> You earned -10 points in the practice round! </p>","0","","break","","","","","","","","","","",""
"learning-instructions","50","290652","0.0-8.0-4.0-0.0","3998","1","11","Male","approach_avoid_spark_v1","""event"",""trial"",""time""
""fullscreenenter"",""1"",""22954""
","
","
","""event"",""trial"",""time""
""fullscreenenter"",""1"",""22954""
","
","","","","","","1038","<p> It's almost time to start the real game. </p><p> Before you start, we're going to ask you a few questions about how the game works. </p>","","0","instructions","","","","","","","","","","",""
"preload","51","291876","0.0-8.0-5.0","3998","1","11","Male","approach_avoid_spark_v1","""event"",""trial"",""time""
""fullscreenenter"",""1"",""22954""
","
","
","""event"",""trial"",""time""
""fullscreenenter"",""1"",""22954""
","
","true","false","[]","[]","[]","","","","","","","","","","","","","","","",""
"comp-q","52","299658","0.0-8.0-6.0-0.0","3998","1","11","Male","approach_avoid_spark_v1","""event"",""trial"",""time""
""fullscreenenter"",""1"",""22954""
","
","
","""event"",""trial"",""time""
""fullscreenenter"",""1"",""22954""
","
","","","","","","2766.9000000003725","<p> <b> True or False? </b> </p><p> If you see a number in GREY, that means you earned that many points. </p>","","1","comp_question","","","","","","","","","true","",""
"comp-q","53","309091","0.0-8.0-6.0-1.0","3998","1","11","Male","approach_avoid_spark_v1","""event"",""trial"",""time""
""fullscreenenter"",""1"",""22954""
","
","
","""event"",""trial"",""time""
""fullscreenenter"",""1"",""22954""
","
","","","","","","1069.7000000011176","<p><b> That's right! </b> If you see a grey number, it means you earned ZERO points. <br> The grey numbers show the points you WOULD HAVE earned if you had made the other choice. </p>","","0","comp_answer","","","","","","","","","","",""
"comp-q","54","314335","0.0-8.0-7.0-0.0","3998","1","11","Male","approach_avoid_spark_v1","""event"",""trial"",""time""
""fullscreenenter"",""1"",""22954""
","
","
","""event"",""trial"",""time""
""fullscreenenter"",""1"",""22954""
","
","","","","","","542.2999999988824","<p> <b> True or False? </b> </p><p> You will have as much time as you want to make each choice. </p>","","1","comp_question","","","","","","","","","true","",""
"comp-q","55","319649","0.0-8.0-7.0-1.0","3998","1","11","Male","approach_avoid_spark_v1","""event"",""trial"",""time""
""fullscreenenter"",""1"",""22954""
","
","
","""event"",""trial"",""time""
""fullscreenenter"",""1"",""22954""
","
","","","","","","1264.5","<p> <b> That's right! </b> You will only have 3 seconds to make each choice. </p>","","0","comp_answer","","","","","","","","","","",""
"comp-q","56","324830","0.0-8.0-8.0-0.0","3998","1","11","Male","approach_avoid_spark_v1","""event"",""trial"",""time""
""fullscreenenter"",""1"",""22954""
","
","
","""event"",""trial"",""time""
""fullscreenenter"",""1"",""22954""
","
","","","","","","510.90000000037253","<p> <b> True or False? </b> </p><p> You should use the '1' and '0' keys to make your choices. </p>","","0","comp_question","","","","","","","","","true","",""
"comp-q","57","330350","0.0-8.0-8.0-1.0","3998","1","11","Male","approach_avoid_spark_v1","""event"",""trial"",""time""
""fullscreenenter"",""1"",""22954""
","
","
","""event"",""trial"",""time""
""fullscreenenter"",""1"",""22954""
","
","","","","","","899.4000000003725","<p> <b> That's right! </b> You should use the '1' and '0' keys to make each choice. </p>","","0","comp_answer","","","","","","","","","","",""
"learning-instructions","58","338011","0.0-8.0-9.0-0.0","3998","1","11","Male","approach_avoid_spark_v1","""event"",""trial"",""time""
""fullscreenenter"",""1"",""22954""
","
","
","""event"",""trial"",""time""
""fullscreenenter"",""1"",""22954""
","
","","","","","","1390.1000000014901","<p> It's now time to start the real game. </p>Do your best, because the points you earn in the next rounds will influence your bonus payment. </p>","","0","instructions","","","","","","","","","","",""
"preload","59","338191","0.0-9.0-0.0","3998","1","11","Male","approach_avoid_spark_v1","""event"",""trial"",""time""
""fullscreenenter"",""1"",""22954""
","
","
","""event"",""trial"",""time""
""fullscreenenter"",""1"",""22954""
","
","true","false","[]","[]","[]","","","","","","","","","","","","","","","",""
"learning-instructions","60","344803","0.0-9.0-1.0-0.0","3998","1","11","Male","approach_avoid_spark_v1","""event"",""trial"",""time""
""fullscreenenter"",""1"",""22954""
","
","
","""event"",""trial"",""time""
""fullscreenenter"",""1"",""22954""
","
","","","","","","1613.800000000745","<p> Your goal in this round is to sell different plants to a picky customer. </p></div>","","0","instructions","","","","","","","","","","",""
"learning-instructions","61","355295","0.0-9.0-1.0-0.1","3998","1","11","Male","approach_avoid_spark_v1","""event"",""trial"",""time""
""fullscreenenter"",""1"",""22954""
","
","
","""event"",""trial"",""time""
""fullscreenenter"",""1"",""22954""
","
","","","","","","1369.2999999988824","<p> The customer likes some plants and dislikes others.  </p><p> On each turn, you will see a plant.   </p><p> You need to decide whether to offer it to the customer or not.  </p>","","0","instructions","","","","","","","","","","",""
"learning-instructions","62","361783","0.0-9.0-1.0-0.2","3998","1","11","Male","approach_avoid_spark_v1","""event"",""trial"",""time""
""fullscreenenter"",""1"",""22954""
","
","
","""event"",""trial"",""time""
""fullscreenenter"",""1"",""22954""
","
","","","","","","1034","<p> You can offer the plant by pressing 1 and decide to not offer it by pressing 0. </p><br><div class=""choice-instructions-grid""> <div class=""choice-option""><img src=""images/approach.png"" class=""choice-option-img"" stage=""instructions"" position=""0"" ><div class=""choice-option-text""> Press ""1."" </div></div><div class=""choice-option""><img src=""images/avoid.png"" class=""choice-option-img"" stage=""instructions"" position=""1"" ><div class=""choice-option-text""> Press ""0."" </div></div>","","0","instructions","","","","","","","","","","",""
"learning-instructions","63","371945","0.0-9.0-1.0-0.3","3998","1","11","Male","approach_avoid_spark_v1","""event"",""trial"",""time""
""fullscreenenter"",""1"",""22954""
","
","
","""event"",""trial"",""time""
""fullscreenenter"",""1"",""22954""
","
","","","","","","1446","<p> If you offer a plant to the customer that she likes, she will be very pleased! </p><p> But if you offer a plant that she does NOT like, she will be annoyed. </p>","","0","instructions","","","","","","","","","","",""
"learning-instructions","64","385204","0.0-9.0-1.0-0.4","3998","1","11","Male","approach_avoid_spark_v1","""event"",""trial"",""time""
""fullscreenenter"",""1"",""22954""
","
","
","""event"",""trial"",""time""
""fullscreenenter"",""1"",""22954""
","
","","","","","","1049.6000000014901","<p> You will earn points based on how you made the customer feel. </p><p> If you made her pleased, you will WIN anywhere from 1 - 9 points, </p><p> but if you made her annoyed, you will LOSE anywhere from 1 - 9 points. </p>","","0","instructions","","","","","","","","","","",""
"learning-instructions","65","394745","0.0-9.0-1.0-0.5","3998","1","11","Male","approach_avoid_spark_v1","""event"",""trial"",""time""
""fullscreenenter"",""1"",""22954""
","
","
","""event"",""trial"",""time""
""fullscreenenter"",""1"",""22954""
","
","","","","","","2228.199999999255","<p> You will see how many points you won or lost in the center of the screen. </p><p> Here is what you would see if you won 5 points: </p><p style=""color:green;font-size:50px;font-weight:bolder"">5</p>","","0","instructions","","","","","","","","","","",""
"learning-instructions","66","399058","0.0-9.0-1.0-0.6","3998","1","11","Male","approach_avoid_spark_v1","""event"",""trial"",""time""
""fullscreenenter"",""1"",""22954""
","
","
","""event"",""trial"",""time""
""fullscreenenter"",""1"",""22954""
","
","","","","","","1030.2000000011176","<p> And here is what you would see if you lost 3 points: </p><p style=""color:red;font-size:50px;font-weight:bolder"">-3</p>","","0","instructions","","","","","","","","","","",""
"learning-instructions","67","415017","0.0-9.0-1.0-0.7","3998","1","11","Male","approach_avoid_spark_v1","""event"",""trial"",""time""
""fullscreenenter"",""1"",""22954""
","
","
","""event"",""trial"",""time""
""fullscreenenter"",""1"",""22954""
","
","","","","","","1489.6000000014901","<p> Some plants will make the customer VERY pleased or annoyed. </p><p> These plants will make you win or lose LOTS of points. </p><p> The customer will have less strong feelings about other plants. </p><p> These plants will make you win or lose small amounts of points. </p>","","0","instructions","","","","","","","","","","",""
"learning-instructions","68","428120","0.0-9.0-1.0-0.8","3998","1","11","Male","approach_avoid_spark_v1","""event"",""trial"",""time""
""fullscreenenter"",""1"",""22954""
","
","
","""event"",""trial"",""time""
""fullscreenenter"",""1"",""22954""
","
","","","","","","776.4000000003725","<p> If you choose to not offer the plant to the customer, you will not win or lose any points. </p><p>  However, in the center of the screen, you will see the number of points you WOULD HAVE won or lost if you had offered the plant. </p>","","0","instructions","","","","","","","","","","",""
"learning-instructions","69","441628","0.0-9.0-1.0-0.9","3998","1","11","Male","approach_avoid_spark_v1","""event"",""trial"",""time""
""fullscreenenter"",""1"",""22954""
","
","
","""event"",""trial"",""time""
""fullscreenenter"",""1"",""22954""
","
","","","","","","2273.9000000003725","<p> Here is what you might see if you did not offer the plant but the customer would have liked it: </p><p style=""color:grey; font-size:50px; display: inline-block; border-spacing: 15px; border-width:3px; border-style:solid; border-color:red"">  &nbsp; 6 &nbsp; </p><p> Remember, in this case, you would not win or lose ANY points because you did not offer the plant.  </p>","","0","instructions","","","","","","","","","","",""
"learning-instructions","70","449796","0.0-9.0-1.0-0.10","3998","1","11","Male","approach_avoid_spark_v1","""event"",""trial"",""time""
""fullscreenenter"",""1"",""22954""
","
","
","""event"",""trial"",""time""
""fullscreenenter"",""1"",""22954""
","
","","","","","","719.6999999992549","<p> Try to make the best choice for each plant because </p><p> at the end of the game, you will earn bonus money based on how many points you earned. </p>","","0","instructions","","","","","","","","","","",""
"learning-instructions","71","460458","0.0-9.0-1.0-0.11","3998","1","11","Male","approach_avoid_spark_v1","""event"",""trial"",""time""
""fullscreenenter"",""1"",""22954""
","
","
","""event"",""trial"",""time""
""fullscreenenter"",""1"",""22954""
","
","","","","","","2462.5999999996275","<p> You will have 3 seconds to make each choice. Try to respond before time runs out! </p><p> You will lose 5 points each time you do not make a response. </p>","","0","instructions","","","","","","","","","","",""
"html-keyboard-response","72","461063","0.0-9.0-2.0-0.0","3998","1","11","Male","approach_avoid_spark_v1","""event"",""trial"",""time""
""fullscreenenter"",""1"",""22954""
","
","
","""event"",""trial"",""time""
""fullscreenenter"",""1"",""22954""
","
","","","","","","null","<div style=""font-size:60px;"">+</div>","null","","fixation","","","","","","","","","","",""
"aa-learning-trial","73","464076","0.0-9.0-2.0-1.0","3998","1","11","Male","approach_avoid_spark_v1","""event"",""trial"",""time""
""fullscreenenter"",""1"",""22954""
","
","
","""event"",""trial"",""time""
""fullscreenenter"",""1"",""22954""
","
","","","","","","2018.7000000011176","images/cactus6.png","","","learning","-5","-5","1","1","cactus","plants","1","0","","bad","[-6]"
"html-keyboard-response","74","464581","0.0-9.0-2.0-0.1","3998","1","11","Male","approach_avoid_spark_v1","""event"",""trial"",""time""
""fullscreenenter"",""1"",""22954""
","
","
","""event"",""trial"",""time""
""fullscreenenter"",""1"",""22954""
","
","","","","","","null","<div style=""font-size:60px;"">+</div>","null","","fixation","","","","","","","","","","",""
"aa-learning-trial","75","467590","0.0-9.0-2.0-1.1","3998","1","11","Male","approach_avoid_spark_v1","""event"",""trial"",""time""
""fullscreenenter"",""1"",""22954""
","
","
","""event"",""trial"",""time""
""fullscreenenter"",""1"",""22954""
","
","","","","","","1445.1000000014901","images/cactus4.png","","","learning","-4","-4","1","1","cactus","plants","1","0","","bad","[-6]"
"html-keyboard-response","76","468093","0.0-9.0-2.0-0.2","3998","1","11","Male","approach_avoid_spark_v1","""event"",""trial"",""time""
""fullscreenenter"",""1"",""22954""
","
","
","""event"",""trial"",""time""
""fullscreenenter"",""1"",""22954""
","
","","","","","","null","<div style=""font-size:60px;"">+</div>","null","","fixation","","","","","","","","","","",""
"aa-learning-trial","77","471106","0.0-9.0-2.0-1.2","3998","1","11","Male","approach_avoid_spark_v1","""event"",""trial"",""time""
""fullscreenenter"",""1"",""22954""
","
","
","""event"",""trial"",""time""
""fullscreenenter"",""1"",""22954""
","
","","","","","","678.3000000007451","images/flower8.png","","","learning","3","3","1","1","flower","plants","1","0","","neutral","0"
"html-keyboard-response","78","471610","0.0-9.0-2.0-0.3","3998","1","11","Male","approach_avoid_spark_v1","""event"",""trial"",""time""
""fullscreenenter"",""1"",""22954""
","
","
","""event"",""trial"",""time""
""fullscreenenter"",""1"",""22954""
","
","","","","","","null","<div style=""font-size:60px;"">+</div>","null","","fixation","","","","","","","","","","",""
"aa-learning-trial","79","474625","0.0-9.0-2.0-1.3","3998","1","11","Male","approach_avoid_spark_v1","""event"",""trial"",""time""
""fullscreenenter"",""1"",""22954""
","
","
","""event"",""trial"",""time""
""fullscreenenter"",""1"",""22954""
","
","","","","","","807.4000000003725","images/flower2.png","","","learning","[1]","1","1","1","flower","plants","1","0","","neutral","0"
"html-keyboard-response","80","475129","0.0-9.0-2.0-0.4","3998","1","11","Male","approach_avoid_spark_v1","""event"",""trial"",""time""
""fullscreenenter"",""1"",""22954""
","
","
","""event"",""trial"",""time""
""fullscreenenter"",""1"",""22954""
","
","","","","","","null","<div style=""font-size:60px;"">+</div>","null","","fixation","","","","","","","","","","",""
"aa-learning-trial","81","478137","0.0-9.0-2.0-1.4","3998","1","11","Male","approach_avoid_spark_v1","""event"",""trial"",""time""
""fullscreenenter"",""1"",""22954""
","
","
","""event"",""trial"",""time""
""fullscreenenter"",""1"",""22954""
","
","","","","","","653.6999999992549","images/flower6.png","","","learning","[-1]","-1","1","1","flower","plants","1","0","","neutral","0"
"html-keyboard-response","82","478642","0.0-9.0-2.0-0.5","3998","1","11","Male","approach_avoid_spark_v1","""event"",""trial"",""time""
""fullscreenenter"",""1"",""22954""
","
","
","""event"",""trial"",""time""
""fullscreenenter"",""1"",""22954""
","
","","","","","","null","<div style=""font-size:60px;"">+</div>","null","","fixation","","","","","","","","","","",""
"aa-learning-trial","83","481655","0.0-9.0-2.0-1.5","3998","1","11","Male","approach_avoid_spark_v1","""event"",""trial"",""time""
""fullscreenenter"",""1"",""22954""
","
","
","""event"",""trial"",""time""
""fullscreenenter"",""1"",""22954""
","
","","","","","","903.2000000011176","images/tree1.png","","","learning","4","4","1","1","tree","plants","1","0","","good","[4]"
"html-keyboard-response","84","482158","0.0-9.0-2.0-0.6","3998","1","11","Male","approach_avoid_spark_v1","""event"",""trial"",""time""
""fullscreenenter"",""1"",""22954""
","
","
","""event"",""trial"",""time""
""fullscreenenter"",""1"",""22954""
","
","","","","","","null","<div style=""font-size:60px;"">+</div>","null","","fixation","","","","","","","","","","",""
"aa-learning-trial","85","485169","0.0-9.0-2.0-1.6","3998","1","11","Male","approach_avoid_spark_v1","""event"",""trial"",""time""
""fullscreenenter"",""1"",""22954""
","
","
","""event"",""trial"",""time""
""fullscreenenter"",""1"",""22954""
","
","","","","","","885.4000000003725","images/cactus8.png","","","learning","-8","-8","1","1","cactus","plants","1","0","","bad","[-6]"
"html-keyboard-response","86","485673","0.0-9.0-2.0-0.7","3998","1","11","Male","approach_avoid_spark_v1","""event"",""trial"",""time""
""fullscreenenter"",""1"",""22954""
","
","
","""event"",""trial"",""time""
""fullscreenenter"",""1"",""22954""
","
","","","","","","null","<div style=""font-size:60px;"">+</div>","null","","fixation","","","","","","","","","","",""
"aa-learning-trial","87","488684","0.0-9.0-2.0-1.7","3998","1","11","Male","approach_avoid_spark_v1","""event"",""trial"",""time""
""fullscreenenter"",""1"",""22954""
","
","
","""event"",""trial"",""time""
""fullscreenenter"",""1"",""22954""
","
","","","","","","755.3000000007451","images/flower8.png","","","learning","1","1","1","1","flower","plants","1","0","","neutral","0"
"html-keyboard-response","88","489191","0.0-9.0-2.0-0.8","3998","1","11","Male","approach_avoid_spark_v1","""event"",""trial"",""time""
""fullscreenenter"",""1"",""22954""
","
","
","""event"",""trial"",""time""
""fullscreenenter"",""1"",""22954""
","
","","","","","","null","<div style=""font-size:60px;"">+</div>","null","","fixation","","","","","","","","","","",""
"aa-learning-trial","89","492201","0.0-9.0-2.0-1.8","3998","1","11","Male","approach_avoid_spark_v1","""event"",""trial"",""time""
""fullscreenenter"",""1"",""22954""
","
","
","""event"",""trial"",""time""
""fullscreenenter"",""1"",""22954""
","
","","","","","","909.3000000007451","images/tree7.png","","","learning","3","3","1","1","tree","plants","1","0","","good","[4]"
"html-keyboard-response","90","492704","0.0-9.0-2.0-0.9","3998","1","11","Male","approach_avoid_spark_v1","""event"",""trial"",""time""
""fullscreenenter"",""1"",""22954""
","
","
","""event"",""trial"",""time""
""fullscreenenter"",""1"",""22954""
","
","","","","","","null","<div style=""font-size:60px;"">+</div>","null","","fixation","","","","","","","","","","",""
"aa-learning-trial","91","495727","0.0-9.0-2.0-1.9","3998","1","11","Male","approach_avoid_spark_v1","""event"",""trial"",""time""
""fullscreenenter"",""1"",""22954""
","
","
","""event"",""trial"",""time""
""fullscreenenter"",""1"",""22954""
","
","","","","","","612.1000000014901","images/cactus4.png","","","learning","-8","0","0","0","cactus","plants","1","0","","bad","[-6]"
"html-keyboard-response","92","496231","0.0-9.0-2.0-0.10","3998","1","11","Male","approach_avoid_spark_v1","""event"",""trial"",""time""
""fullscreenenter"",""1"",""22954""
","
","
","""event"",""trial"",""time""
""fullscreenenter"",""1"",""22954""
","
","","","","","","null","<div style=""font-size:60px;"">+</div>","null","","fixation","","","","","","","","","","",""
"aa-learning-trial","93","499244","0.0-9.0-2.0-1.10","3998","1","11","Male","approach_avoid_spark_v1","""event"",""trial"",""time""
""fullscreenenter"",""1"",""22954""
","
","
","""event"",""trial"",""time""
""fullscreenenter"",""1"",""22954""
","
","","","","","","901.5","images/flower6.png","","","learning","-1","0","0","0","flower","plants","1","0","","neutral","0"
"html-keyboard-response","94","499750","0.0-9.0-2.0-0.11","3998","1","11","Male","approach_avoid_spark_v1","""event"",""trial"",""time""
""fullscreenenter"",""1"",""22954""
","
","
","""event"",""trial"",""time""
""fullscreenenter"",""1"",""22954""
","
","","","","","","null","<div style=""font-size:60px;"">+</div>","null","","fixation","","","","","","","","","","",""
"aa-learning-trial","95","502766","0.0-9.0-2.0-1.11","3998","1","11","Male","approach_avoid_spark_v1","""event"",""trial"",""time""
""fullscreenenter"",""1"",""22954""
","
","
","""event"",""trial"",""time""
""fullscreenenter"",""1"",""22954""
","
","","","","","","719.5","images/cactus6.png","","","learning","-8","0","0","0","cactus","plants","1","0","","bad","[-6]"
"html-keyboard-response","96","503272","0.0-9.0-2.0-0.12","3998","1","11","Male","approach_avoid_spark_v1","""event"",""trial"",""time""
""fullscreenenter"",""1"",""22954""
","
","
","""event"",""trial"",""time""
""fullscreenenter"",""1"",""22954""
","
","","","","","","null","<div style=""font-size:60px;"">+</div>","null","","fixation","","","","","","","","","","",""
"aa-learning-trial","97","506286","0.0-9.0-2.0-1.12","3998","1","11","Male","approach_avoid_spark_v1","""event"",""trial"",""time""
""fullscreenenter"",""1"",""22954""
","
","
","""event"",""trial"",""time""
""fullscreenenter"",""1"",""22954""
","
","","","","","","1034.0999999996275","images/tree2.png","","","learning","5","5","1","1","tree","plants","1","0","","good","[4]"
"html-keyboard-response","98","506792","0.0-9.0-2.0-0.13","3998","1","11","Male","approach_avoid_spark_v1","""event"",""trial"",""time""
""fullscreenenter"",""1"",""22954""
","
","
","""event"",""trial"",""time""
""fullscreenenter"",""1"",""22954""
","
","","","","","","null","<div style=""font-size:60px;"">+</div>","null","","fixation","","","","","","","","","","",""
"aa-learning-trial","99","509806","0.0-9.0-2.0-1.13","3998","1","11","Male","approach_avoid_spark_v1","""event"",""trial"",""time""
""fullscreenenter"",""1"",""22954""
","
","
","""event"",""trial"",""time""
""fullscreenenter"",""1"",""22954""
","
","","","","","","709","images/tree2.png","","","learning","2","2","1","1","tree","plants","1","0","","good","[4]"
"html-keyboard-response","100","510312","0.0-9.0-2.0-0.14","3998","1","11","Male","approach_avoid_spark_v1","""event"",""trial"",""time""
""fullscreenenter"",""1"",""22954""
","
","
","""event"",""trial"",""time""
""fullscreenenter"",""1"",""22954""
","
","","","","","","null","<div style=""font-size:60px;"">+</div>","null","","fixation","","","","","","","","","","",""
"aa-learning-trial","101","513331","0.0-9.0-2.0-1.14","3998","1","11","Male","approach_avoid_spark_v1","""event"",""trial"",""time""
""fullscreenenter"",""1"",""22954""
","
","
","""event"",""trial"",""time""
""fullscreenenter"",""1"",""22954""
","
","","","","","","767.9000000003725","images/tree7.png","","","learning","3","3","1","1","tree","plants","1","0","","good","[4]"
"html-keyboard-response","102","513838","0.0-9.0-2.0-0.15","3998","1","11","Male","approach_avoid_spark_v1","""event"",""trial"",""time""
""fullscreenenter"",""1"",""22954""
","
","
","""event"",""trial"",""time""
""fullscreenenter"",""1"",""22954""
","
","","","","","","null","<div style=""font-size:60px;"">+</div>","null","","fixation","","","","","","","","","","",""
"aa-learning-trial","103","516854","0.0-9.0-2.0-1.15","3998","1","11","Male","approach_avoid_spark_v1","""event"",""trial"",""time""
""fullscreenenter"",""1"",""22954""
","
","
","""event"",""trial"",""time""
""fullscreenenter"",""1"",""22954""
","
","","","","","","650.8000000007451","images/flower2.png","","","learning","-2","-2","1","1","flower","plants","1","0","","neutral","0"
"html-keyboard-response","104","517361","0.0-9.0-2.0-0.16","3998","1","11","Male","approach_avoid_spark_v1","""event"",""trial"",""time""
""fullscreenenter"",""1"",""22954""
","
","
","""event"",""trial"",""time""
""fullscreenenter"",""1"",""22954""
","
","","","","","","null","<div style=""font-size:60px;"">+</div>","null","","fixation","","","","","","","","","","",""
"aa-learning-trial","105","520378","0.0-9.0-2.0-1.16","3998","1","11","Male","approach_avoid_spark_v1","""event"",""trial"",""time""
""fullscreenenter"",""1"",""22954""
","
","
","""event"",""trial"",""time""
""fullscreenenter"",""1"",""22954""
","
","","","","","","708.9000000003725","images/tree7.png","","","learning","2","2","1","1","tree","plants","1","0","","good","[4]"
"html-keyboard-response","106","520885","0.0-9.0-2.0-0.17","3998","1","11","Male","approach_avoid_spark_v1","""event"",""trial"",""time""
""fullscreenenter"",""1"",""22954""
","
","
","""event"",""trial"",""time""
""fullscreenenter"",""1"",""22954""
","
","","","","","","null","<div style=""font-size:60px;"">+</div>","null","","fixation","","","","","","","","","","",""
"aa-learning-trial","107","523895","0.0-9.0-2.0-1.17","3998","1","11","Male","approach_avoid_spark_v1","""event"",""trial"",""time""
""fullscreenenter"",""1"",""22954""
","
","
","""event"",""trial"",""time""
""fullscreenenter"",""1"",""22954""
","
","","","","","","921.7000000011176","images/flower6.png","","","learning","-1","0","0","0","flower","plants","1","0","","neutral","0"
"html-keyboard-response","108","524399","0.0-9.0-2.0-0.18","3998","1","11","Male","approach_avoid_spark_v1","""event"",""trial"",""time""
""fullscreenenter"",""1"",""22954""
","
","
","""event"",""trial"",""time""
""fullscreenenter"",""1"",""22954""
","
","","","","","","null","<div style=""font-size:60px;"">+</div>","null","","fixation","","","","","","","","","","",""
"aa-learning-trial","109","527415","0.0-9.0-2.0-1.18","3998","1","11","Male","approach_avoid_spark_v1","""event"",""trial"",""time""
""fullscreenenter"",""1"",""22954""
","
","
","""event"",""trial"",""time""
""fullscreenenter"",""1"",""22954""
","
","","","","","","623.5","images/flower6.png","","","learning","[-1]","0","0","0","flower","plants","1","0","","neutral","0"
"html-keyboard-response","110","527919","0.0-9.0-2.0-0.19","3998","1","11","Male","approach_avoid_spark_v1","""event"",""trial"",""time""
""fullscreenenter"",""1"",""22954""
","
","
","""event"",""trial"",""time""
""fullscreenenter"",""1"",""22954""
","
","","","","","","null","<div style=""font-size:60px;"">+</div>","null","","fixation","","","","","","","","","","",""
"aa-learning-trial","111","530931","0.0-9.0-2.0-1.19","3998","1","11","Male","approach_avoid_spark_v1","""event"",""trial"",""time""
""fullscreenenter"",""1"",""22954""
","
","
","""event"",""trial"",""time""
""fullscreenenter"",""1"",""22954""
","
","","","","","","687.1999999992549","images/tree7.png","","","learning","4","4","1","1","tree","plants","1","0","","good","[4]"
"html-keyboard-response","112","531434","0.0-9.0-2.0-0.20","3998","1","11","Male","approach_avoid_spark_v1","""event"",""trial"",""time""
""fullscreenenter"",""1"",""22954""
","
","
","""event"",""trial"",""time""
""fullscreenenter"",""1"",""22954""
","
","","","","","","null","<div style=""font-size:60px;"">+</div>","null","","fixation","","","","","","","","","","",""
"aa-learning-trial","113","534453","0.0-9.0-2.0-1.20","3998","1","11","Male","approach_avoid_spark_v1","""event"",""trial"",""time""
""fullscreenenter"",""1"",""22954""
","
","
","""event"",""trial"",""time""
""fullscreenenter"",""1"",""22954""
","
","","","","","","911.8000000007451","images/cactus5.png","","","learning","-4","0","0","0","cactus","plants","1","0","","bad","[-6]"
"html-keyboard-response","114","534961","0.0-9.0-2.0-0.21","3998","1","11","Male","approach_avoid_spark_v1","""event"",""trial"",""time""
""fullscreenenter"",""1"",""22954""
","
","
","""event"",""trial"",""time""
""fullscreenenter"",""1"",""22954""
","
","","","","","","null","<div style=""font-size:60px;"">+</div>","null","","fixation","","","","","","","","","","",""
"aa-learning-trial","115","537974","0.0-9.0-2.0-1.21","3998","1","11","Male","approach_avoid_spark_v1","""event"",""trial"",""time""
""fullscreenenter"",""1"",""22954""
","
","
","""event"",""trial"",""time""
""fullscreenenter"",""1"",""22954""
","
","","","","","","826.6999999992549","images/flower6.png","","","learning","2","0","0","0","flower","plants","1","0","","neutral","0"
"html-keyboard-response","116","538478","0.0-9.0-2.0-0.22","3998","1","11","Male","approach_avoid_spark_v1","""event"",""trial"",""time""
""fullscreenenter"",""1"",""22954""
","
","
","""event"",""trial"",""time""
""fullscreenenter"",""1"",""22954""
","
","","","","","","null","<div style=""font-size:60px;"">+</div>","null","","fixation","","","","","","","","","","",""
"aa-learning-trial","117","541490","0.0-9.0-2.0-1.22","3998","1","11","Male","approach_avoid_spark_v1","""event"",""trial"",""time""
""fullscreenenter"",""1"",""22954""
","
","
","""event"",""trial"",""time""
""fullscreenenter"",""1"",""22954""
","
","","","","","","799.4000000003725","images/cactus6.png","","","learning","-7","0","0","0","cactus","plants","1","0","","bad","[-6]"
"html-keyboard-response","118","541997","0.0-9.0-2.0-0.23","3998","1","11","Male","approach_avoid_spark_v1","""event"",""trial"",""time""
""fullscreenenter"",""1"",""22954""
","
","
","""event"",""trial"",""time""
""fullscreenenter"",""1"",""22954""
","
","","","","","","null","<div style=""font-size:60px;"">+</div>","null","","fixation","","","","","","","","","","",""
"aa-learning-trial","119","545021","0.0-9.0-2.0-1.23","3998","1","11","Male","approach_avoid_spark_v1","""event"",""trial"",""time""
""fullscreenenter"",""1"",""22954""
","
","
","""event"",""trial"",""time""
""fullscreenenter"",""1"",""22954""
","
","","","","","","653.1999999992549","images/cactus6.png","","","learning","-7","0","0","0","cactus","plants","1","0","","bad","[-6]"
"html-keyboard-response","120","545528","0.0-9.0-2.0-0.24","3998","1","11","Male","approach_avoid_spark_v1","""event"",""trial"",""time""
""fullscreenenter"",""1"",""22954""
","
","
","""event"",""trial"",""time""
""fullscreenenter"",""1"",""22954""
","
","","","","","","null","<div style=""font-size:60px;"">+</div>","null","","fixation","","","","","","","","","","",""
"aa-learning-trial","121","548545","0.0-9.0-2.0-1.24","3998","1","11","Male","approach_avoid_spark_v1","""event"",""trial"",""time""
""fullscreenenter"",""1"",""22954""
","
","
","""event"",""trial"",""time""
""fullscreenenter"",""1"",""22954""
","
","","","","","","921.5","images/tree2.png","","","learning","2","2","1","1","tree","plants","1","0","","good","[4]"
"html-keyboard-response","122","549050","0.0-9.0-2.0-0.25","3998","1","11","Male","approach_avoid_spark_v1","""event"",""trial"",""time""
""fullscreenenter"",""1"",""22954""
","
","
","""event"",""trial"",""time""
""fullscreenenter"",""1"",""22954""
","
","","","","","","null","<div style=""font-size:60px;"">+</div>","null","","fixation","","","","","","","","","","",""
"aa-learning-trial","123","552066","0.0-9.0-2.0-1.25","3998","1","11","Male","approach_avoid_spark_v1","""event"",""trial"",""time""
""fullscreenenter"",""1"",""22954""
","
","
","""event"",""trial"",""time""
""fullscreenenter"",""1"",""22954""
","
","","","","","","1040.8999999985099","images/flower3.png","","","learning","-1","-1","1","1","flower","plants","1","0","","neutral","0"
"html-keyboard-response","124","552570","0.0-9.0-2.0-0.26","3998","1","11","Male","approach_avoid_spark_v1","""event"",""trial"",""time""
""fullscreenenter"",""1"",""22954""
","
","
","""event"",""trial"",""time""
""fullscreenenter"",""1"",""22954""
","
","","","","","","null","<div style=""font-size:60px;"">+</div>","null","","fixation","","","","","","","","","","",""
"aa-learning-trial","125","555582","0.0-9.0-2.0-1.26","3998","1","11","Male","approach_avoid_spark_v1","""event"",""trial"",""time""
""fullscreenenter"",""1"",""22954""
","
","
","""event"",""trial"",""time""
""fullscreenenter"",""1"",""22954""
","
","","","","","","1268.0999999996275","images/cactus8.png","","","learning","-4","-4","1","1","cactus","plants","1","0","","bad","[-6]"
"html-keyboard-response","126","556086","0.0-9.0-2.0-0.27","3998","1","11","Male","approach_avoid_spark_v1","""event"",""trial"",""time""
""fullscreenenter"",""1"",""22954""
","
","
","""event"",""trial"",""time""
""fullscreenenter"",""1"",""22954""
","
","","","","","","null","<div style=""font-size:60px;"">+</div>","null","","fixation","","","","","","","","","","",""
"aa-learning-trial","127","559103","0.0-9.0-2.0-1.27","3998","1","11","Male","approach_avoid_spark_v1","""event"",""trial"",""time""
""fullscreenenter"",""1"",""22954""
","
","
","""event"",""trial"",""time""
""fullscreenenter"",""1"",""22954""
","
","","","","","","717.9000000003725","images/cactus4.png","","","learning","-4","0","0","0","cactus","plants","1","0","","bad","[-6]"
"html-keyboard-response","128","559611","0.0-9.0-2.0-0.28","3998","1","11","Male","approach_avoid_spark_v1","""event"",""trial"",""time""
""fullscreenenter"",""1"",""22954""
","
","
","""event"",""trial"",""time""
""fullscreenenter"",""1"",""22954""
","
","","","","","","null","<div style=""font-size:60px;"">+</div>","null","","fixation","","","","","","","","","","",""
"aa-learning-trial","129","562626","0.0-9.0-2.0-1.28","3998","1","11","Male","approach_avoid_spark_v1","""event"",""trial"",""time""
""fullscreenenter"",""1"",""22954""
","
","
","""event"",""trial"",""time""
""fullscreenenter"",""1"",""22954""
","
","","","","","","551.6999999992549","images/cactus3.png","","","learning","-6","0","0","0","cactus","plants","1","0","","bad","[-6]"
"html-keyboard-response","130","563131","0.0-9.0-2.0-0.29","3998","1","11","Male","approach_avoid_spark_v1","""event"",""trial"",""time""
""fullscreenenter"",""1"",""22954""
","
","
","""event"",""trial"",""time""
""fullscreenenter"",""1"",""22954""
","
","","","","","","null","<div style=""font-size:60px;"">+</div>","null","","fixation","","","","","","","","","","",""
"aa-learning-trial","131","566147","0.0-9.0-2.0-1.29","3998","1","11","Male","approach_avoid_spark_v1","""event"",""trial"",""time""
""fullscreenenter"",""1"",""22954""
","
","
","""event"",""trial"",""time""
""fullscreenenter"",""1"",""22954""
","
","","","","","","636.8000000007451","images/tree1.png","","","learning","4","4","1","1","tree","plants","1","0","","good","[4]"
"html-keyboard-response","132","566654","0.0-9.0-2.0-0.30","3998","1","11","Male","approach_avoid_spark_v1","""event"",""trial"",""time""
""fullscreenenter"",""1"",""22954""
","
","
","""event"",""trial"",""time""
""fullscreenenter"",""1"",""22954""
","
","","","","","","null","<div style=""font-size:60px;"">+</div>","null","","fixation","","","","","","","","","","",""
"aa-learning-trial","133","569667","0.0-9.0-2.0-1.30","3998","1","11","Male","approach_avoid_spark_v1","""event"",""trial"",""time""
""fullscreenenter"",""1"",""22954""
","
","
","""event"",""trial"",""time""
""fullscreenenter"",""1"",""22954""
","
","","","","","","695.3000000007451","images/cactus8.png","","","learning","-7","-7","1","1","cactus","plants","1","0","","bad","[-6]"
"html-keyboard-response","134","570172","0.0-9.0-2.0-0.31","3998","1","11","Male","approach_avoid_spark_v1","""event"",""trial"",""time""
""fullscreenenter"",""1"",""22954""
","
","
","""event"",""trial"",""time""
""fullscreenenter"",""1"",""22954""
","
","","","","","","null","<div style=""font-size:60px;"">+</div>","null","","fixation","","","","","","","","","","",""
"aa-learning-trial","135","573182","0.0-9.0-2.0-1.31","3998","1","11","Male","approach_avoid_spark_v1","""event"",""trial"",""time""
""fullscreenenter"",""1"",""22954""
","
","
","""event"",""trial"",""time""
""fullscreenenter"",""1"",""22954""
","
","","","","","","992.3999999985099","images/flower2.png","","","learning","-1","-1","1","1","flower","plants","1","0","","neutral","0"
"html-keyboard-response","136","573689","0.0-9.0-2.0-0.32","3998","1","11","Male","approach_avoid_spark_v1","""event"",""trial"",""time""
""fullscreenenter"",""1"",""22954""
","
","
","""event"",""trial"",""time""
""fullscreenenter"",""1"",""22954""
","
","","","","","","null","<div style=""font-size:60px;"">+</div>","null","","fixation","","","","","","","","","","",""
"aa-learning-trial","137","576703","0.0-9.0-2.0-1.32","3998","1","11","Male","approach_avoid_spark_v1","""event"",""trial"",""time""
""fullscreenenter"",""1"",""22954""
","
","
","""event"",""trial"",""time""
""fullscreenenter"",""1"",""22954""
","
","","","","","","951.6999999992549","images/tree3.png","","","learning","2","2","1","1","tree","plants","1","0","","good","[4]"
"html-keyboard-response","138","577208","0.0-9.0-2.0-0.33","3998","1","11","Male","approach_avoid_spark_v1","""event"",""trial"",""time""
""fullscreenenter"",""1"",""22954""
","
","
","""event"",""trial"",""time""
""fullscreenenter"",""1"",""22954""
","
","","","","","","null","<div style=""font-size:60px;"">+</div>","null","","fixation","","","","","","","","","","",""
"aa-learning-trial","139","580220","0.0-9.0-2.0-1.33","3998","1","11","Male","approach_avoid_spark_v1","""event"",""trial"",""time""
""fullscreenenter"",""1"",""22954""
","
","
","""event"",""trial"",""time""
""fullscreenenter"",""1"",""22954""
","
","","","","","","1020.5","images/tree5.png","","","learning","3","3","1","1","tree","plants","1","0","","good","[4]"
"html-keyboard-response","140","580723","0.0-9.0-2.0-0.34","3998","1","11","Male","approach_avoid_spark_v1","""event"",""trial"",""time""
""fullscreenenter"",""1"",""22954""
","
","
","""event"",""trial"",""time""
""fullscreenenter"",""1"",""22954""
","
","","","","","","null","<div style=""font-size:60px;"">+</div>","null","","fixation","","","","","","","","","","",""
"aa-learning-trial","141","583733","0.0-9.0-2.0-1.34","3998","1","11","Male","approach_avoid_spark_v1","""event"",""trial"",""time""
""fullscreenenter"",""1"",""22954""
","
","
","""event"",""trial"",""time""
""fullscreenenter"",""1"",""22954""
","
","","","","","","611.3999999985099","images/tree7.png","","","learning","3","3","1","1","tree","plants","1","0","","good","[4]"
"html-keyboard-response","142","584238","0.0-9.0-2.0-0.35","3998","1","11","Male","approach_avoid_spark_v1","""event"",""trial"",""time""
""fullscreenenter"",""1"",""22954""
","
","
","""event"",""trial"",""time""
""fullscreenenter"",""1"",""22954""
","
","","","","","","null","<div style=""font-size:60px;"">+</div>","null","","fixation","","","","","","","","","","",""
"aa-learning-trial","143","587252","0.0-9.0-2.0-1.35","3998","1","11","Male","approach_avoid_spark_v1","""event"",""trial"",""time""
""fullscreenenter"",""1"",""22954""
","
","
","""event"",""trial"",""time""
""fullscreenenter"",""1"",""22954""
","
","","","","","","686.0999999996275","images/flower6.png","","","learning","2","0","0","0","flower","plants","1","0","","neutral","0"
"html-keyboard-response","144","587758","0.0-9.0-2.0-0.36","3998","1","11","Male","approach_avoid_spark_v1","""event"",""trial"",""time""
""fullscreenenter"",""1"",""22954""
","
","
","""event"",""trial"",""time""
""fullscreenenter"",""1"",""22954""
","
","","","","","","null","<div style=""font-size:60px;"">+</div>","null","","fixation","","","","","","","","","","",""
"aa-learning-trial","145","590771","0.0-9.0-2.0-1.36","3998","1","11","Male","approach_avoid_spark_v1","""event"",""trial"",""time""
""fullscreenenter"",""1"",""22954""
","
","
","""event"",""trial"",""time""
""fullscreenenter"",""1"",""22954""
","
","","","","","","682.5","images/tree2.png","","","learning","2","2","1","1","tree","plants","1","0","","good","[4]"
"html-keyboard-response","146","591275","0.0-9.0-2.0-0.37","3998","1","11","Male","approach_avoid_spark_v1","""event"",""trial"",""time""
""fullscreenenter"",""1"",""22954""
","
","
","""event"",""trial"",""time""
""fullscreenenter"",""1"",""22954""
","
","","","","","","null","<div style=""font-size:60px;"">+</div>","null","","fixation","","","","","","","","","","",""
"aa-learning-trial","147","594287","0.0-9.0-2.0-1.37","3998","1","11","Male","approach_avoid_spark_v1","""event"",""trial"",""time""
""fullscreenenter"",""1"",""22954""
","
","
","""event"",""trial"",""time""
""fullscreenenter"",""1"",""22954""
","
","","","","","","741.4000000003725","images/cactus6.png","","","learning","-6","0","0","0","cactus","plants","1","0","","bad","[-6]"
"html-keyboard-response","148","594792","0.0-9.0-2.0-0.38","3998","1","11","Male","approach_avoid_spark_v1","""event"",""trial"",""time""
""fullscreenenter"",""1"",""22954""
","
","
","""event"",""trial"",""time""
""fullscreenenter"",""1"",""22954""
","
","","","","","","null","<div style=""font-size:60px;"">+</div>","null","","fixation","","","","","","","","","","",""
"aa-learning-trial","149","597804","0.0-9.0-2.0-1.38","3998","1","11","Male","approach_avoid_spark_v1","""event"",""trial"",""time""
""fullscreenenter"",""1"",""22954""
","
","
","""event"",""trial"",""time""
""fullscreenenter"",""1"",""22954""
","
","","","","","","627.8000000007451","images/tree1.png","","","learning","4","4","1","1","tree","plants","1","0","","good","[4]"
"html-keyboard-response","150","598309","0.0-9.0-2.0-0.39","3998","1","11","Male","approach_avoid_spark_v1","""event"",""trial"",""time""
""fullscreenenter"",""1"",""22954""
","
","
","""event"",""trial"",""time""
""fullscreenenter"",""1"",""22954""
","
","","","","","","null","<div style=""font-size:60px;"">+</div>","null","","fixation","","","","","","","","","","",""
"aa-learning-trial","151","601320","0.0-9.0-2.0-1.39","3998","1","11","Male","approach_avoid_spark_v1","""event"",""trial"",""time""
""fullscreenenter"",""1"",""22954""
","
","
","""event"",""trial"",""time""
""fullscreenenter"",""1"",""22954""
","
","","","","","","1096.699999999255","images/flower8.png","","","learning","1","1","1","1","flower","plants","1","0","","neutral","0"
"html-keyboard-response","152","601826","0.0-9.0-2.0-0.40","3998","1","11","Male","approach_avoid_spark_v1","""event"",""trial"",""time""
""fullscreenenter"",""1"",""22954""
","
","
","""event"",""trial"",""time""
""fullscreenenter"",""1"",""22954""
","
","","","","","","null","<div style=""font-size:60px;"">+</div>","null","","fixation","","","","","","","","","","",""
"aa-learning-trial","153","604841","0.0-9.0-2.0-1.40","3998","1","11","Male","approach_avoid_spark_v1","""event"",""trial"",""time""
""fullscreenenter"",""1"",""22954""
","
","
","""event"",""trial"",""time""
""fullscreenenter"",""1"",""22954""
","
","","","","","","645.5","images/cactus4.png","","","learning","-8","0","0","0","cactus","plants","1","0","","bad","[-6]"
"html-keyboard-response","154","605347","0.0-9.0-2.0-0.41","3998","1","11","Male","approach_avoid_spark_v1","""event"",""trial"",""time""
""fullscreenenter"",""1"",""22954""
","
","
","""event"",""trial"",""time""
""fullscreenenter"",""1"",""22954""
","
","","","","","","null","<div style=""font-size:60px;"">+</div>","null","","fixation","","","","","","","","","","",""
"aa-learning-trial","155","608365","0.0-9.0-2.0-1.41","3998","1","11","Male","approach_avoid_spark_v1","""event"",""trial"",""time""
""fullscreenenter"",""1"",""22954""
","
","
","""event"",""trial"",""time""
""fullscreenenter"",""1"",""22954""
","
","","","","","","669.7000000011176","images/flower8.png","","","learning","[-1]","-1","1","1","flower","plants","1","0","","neutral","0"
"html-keyboard-response","156","608868","0.0-9.0-2.0-0.42","3998","1","11","Male","approach_avoid_spark_v1","""event"",""trial"",""time""
""fullscreenenter"",""1"",""22954""
","
","
","""event"",""trial"",""time""
""fullscreenenter"",""1"",""22954""
","
","","","","","","null","<div style=""font-size:60px;"">+</div>","null","","fixation","","","","","","","","","","",""
"aa-learning-trial","157","611880","0.0-9.0-2.0-1.42","3998","1","11","Male","approach_avoid_spark_v1","""event"",""trial"",""time""
""fullscreenenter"",""1"",""22954""
","
","
","""event"",""trial"",""time""
""fullscreenenter"",""1"",""22954""
","
","","","","","","597.3000000007451","images/cactus6.png","","","learning","-4","0","0","0","cactus","plants","1","0","","bad","[-6]"
"html-keyboard-response","158","612384","0.0-9.0-2.0-0.43","3998","1","11","Male","approach_avoid_spark_v1","""event"",""trial"",""time""
""fullscreenenter"",""1"",""22954""
","
","
","""event"",""trial"",""time""
""fullscreenenter"",""1"",""22954""
","
","","","","","","null","<div style=""font-size:60px;"">+</div>","null","","fixation","","","","","","","","","","",""
"aa-learning-trial","159","615398","0.0-9.0-2.0-1.43","3998","1","11","Male","approach_avoid_spark_v1","""event"",""trial"",""time""
""fullscreenenter"",""1"",""22954""
","
","
","""event"",""trial"",""time""
""fullscreenenter"",""1"",""22954""
","
","","","","","","645.0999999996275","images/tree7.png","","","learning","6","6","1","1","tree","plants","1","0","","good","[4]"
"html-keyboard-response","160","615904","0.0-9.0-2.0-0.44","3998","1","11","Male","approach_avoid_spark_v1","""event"",""trial"",""time""
""fullscreenenter"",""1"",""22954""
","
","
","""event"",""trial"",""time""
""fullscreenenter"",""1"",""22954""
","
","","","","","","null","<div style=""font-size:60px;"">+</div>","null","","fixation","","","","","","","","","","",""
"aa-learning-trial","161","618916","0.0-9.0-2.0-1.44","3998","1","11","Male","approach_avoid_spark_v1","""event"",""trial"",""time""
""fullscreenenter"",""1"",""22954""
","
","
","""event"",""trial"",""time""
""fullscreenenter"",""1"",""22954""
","
","","","","","","649.5999999996275","images/tree2.png","","","learning","5","5","1","1","tree","plants","1","0","","good","[4]"
"html-keyboard-response","162","619423","0.0-9.0-2.0-0.45","3998","1","11","Male","approach_avoid_spark_v1","""event"",""trial"",""time""
""fullscreenenter"",""1"",""22954""
","
","
","""event"",""trial"",""time""
""fullscreenenter"",""1"",""22954""
","
","","","","","","null","<div style=""font-size:60px;"">+</div>","null","","fixation","","","","","","","","","","",""
"aa-learning-trial","163","622435","0.0-9.0-2.0-1.45","3998","1","11","Male","approach_avoid_spark_v1","""event"",""trial"",""time""
""fullscreenenter"",""1"",""22954""
","
","
","""event"",""trial"",""time""
""fullscreenenter"",""1"",""22954""
","
","","","","","","563.7999999988824","images/tree2.png","","","learning","8","8","1","1","tree","plants","1","0","","good","[4]"
"html-keyboard-response","164","622941","0.0-9.0-2.0-0.46","3998","1","11","Male","approach_avoid_spark_v1","""event"",""trial"",""time""
""fullscreenenter"",""1"",""22954""
","
","
","""event"",""trial"",""time""
""fullscreenenter"",""1"",""22954""
","
","","","","","","null","<div style=""font-size:60px;"">+</div>","null","","fixation","","","","","","","","","","",""
"aa-learning-trial","165","625960","0.0-9.0-2.0-1.46","3998","1","11","Male","approach_avoid_spark_v1","""event"",""trial"",""time""
""fullscreenenter"",""1"",""22954""
","
","
","""event"",""trial"",""time""
""fullscreenenter"",""1"",""22954""
","
","","","","","","828.5999999996275","images/flower4.png","","","learning","2","2","1","1","flower","plants","1","0","","neutral","0"
"html-keyboard-response","166","626467","0.0-9.0-2.0-0.47","3998","1","11","Male","approach_avoid_spark_v1","""event"",""trial"",""time""
""fullscreenenter"",""1"",""22954""
","
","
","""event"",""trial"",""time""
""fullscreenenter"",""1"",""22954""
","
","","","","","","null","<div style=""font-size:60px;"">+</div>","null","","fixation","","","","","","","","","","",""
"aa-learning-trial","167","629480","0.0-9.0-2.0-1.47","3998","1","11","Male","approach_avoid_spark_v1","""event"",""trial"",""time""
""fullscreenenter"",""1"",""22954""
","
","
","""event"",""trial"",""time""
""fullscreenenter"",""1"",""22954""
","
","","","","","","617.0999999996275","images/cactus4.png","","","learning","-6","0","0","0","cactus","plants","1","0","","bad","[-6]"
"html-keyboard-response","168","629987","0.0-9.0-2.0-0.48","3998","1","11","Male","approach_avoid_spark_v1","""event"",""trial"",""time""
""fullscreenenter"",""1"",""22954""
","
","
","""event"",""trial"",""time""
""fullscreenenter"",""1"",""22954""
","
","","","","","","null","<div style=""font-size:60px;"">+</div>","null","","fixation","","","","","","","","","","",""
"aa-learning-trial","169","633002","0.0-9.0-2.0-1.48","3998","1","11","Male","approach_avoid_spark_v1","""event"",""trial"",""time""
""fullscreenenter"",""1"",""22954""
","
","
","""event"",""trial"",""time""
""fullscreenenter"",""1"",""22954""
","
","","","","","","646","images/cactus4.png","","","learning","-10","0","0","0","cactus","plants","1","0","","bad","[-6]"
"html-keyboard-response","170","633509","0.0-9.0-2.0-0.49","3998","1","11","Male","approach_avoid_spark_v1","""event"",""trial"",""time""
""fullscreenenter"",""1"",""22954""
","
","
","""event"",""trial"",""time""
""fullscreenenter"",""1"",""22954""
","
","","","","","","null","<div style=""font-size:60px;"">+</div>","null","","fixation","","","","","","","","","","",""
"aa-learning-trial","171","636521","0.0-9.0-2.0-1.49","3998","1","11","Male","approach_avoid_spark_v1","""event"",""trial"",""time""
""fullscreenenter"",""1"",""22954""
","
","
","""event"",""trial"",""time""
""fullscreenenter"",""1"",""22954""
","
","","","","","","1015.5","images/flower8.png","","","learning","-1","-1","1","1","flower","plants","1","0","","neutral","0"
"html-keyboard-response","172","637027","0.0-9.0-2.0-0.50","3998","1","11","Male","approach_avoid_spark_v1","""event"",""trial"",""time""
""fullscreenenter"",""1"",""22954""
","
","
","""event"",""trial"",""time""
""fullscreenenter"",""1"",""22954""
","
","","","","","","null","<div style=""font-size:60px;"">+</div>","null","","fixation","","","","","","","","","","",""
"aa-learning-trial","173","640040","0.0-9.0-2.0-1.50","3998","1","11","Male","approach_avoid_spark_v1","""event"",""trial"",""time""
""fullscreenenter"",""1"",""22954""
","
","
","""event"",""trial"",""time""
""fullscreenenter"",""1"",""22954""
","
","","","","","","591.5","images/flower8.png","","","learning","3","0","0","0","flower","plants","1","0","","neutral","0"
"html-button-response","174","642375","0.0-9.0-3.0","3998","1","11","Male","approach_avoid_spark_v1","""event"",""trial"",""time""
""fullscreenenter"",""1"",""22954""
","
","
","""event"",""trial"",""time""
""fullscreenenter"",""1"",""22954""
","
","","","","","","2329.800000000745","<p> You have completed the round! <p> In this round, you earned 35 points! </p>","0","","break","","","","","","","","","","",""
"html-button-response","175","643399","0.0-10.0","3998","1","11","Male","approach_avoid_spark_v1","""event"",""trial"",""time""
""fullscreenenter"",""1"",""22954""
","
","
","""event"",""trial"",""time""
""fullscreenenter"",""1"",""22954""
","
","","","","","","1020.5","<p> Now it's time to play another round. </p>","0","","transition_screen","","","","","","","","","","",""
"preload","176","643582","0.0-11.0-0.0","3998","1","11","Male","approach_avoid_spark_v1","""event"",""trial"",""time""
""fullscreenenter"",""1"",""22954""
","
","
","""event"",""trial"",""time""
""fullscreenenter"",""1"",""22954""
","
","true","false","[]","[]","[]","","","","","","","","","","","","","","","",""
"learning-instructions","177","649529","0.0-11.0-1.0-0.0","3998","1","11","Male","approach_avoid_spark_v1","""event"",""trial"",""time""
""fullscreenenter"",""1"",""22954""
","
","
","""event"",""trial"",""time""
""fullscreenenter"",""1"",""22954""
","
","","","","","","2287.2999999988824","<p> Your goal in this round is to eat tasty fruit. </p></div>","","0","instructions","","","","","","","","","","",""
"learning-instructions","178","660692","0.0-11.0-1.0-0.1","3998","1","11","Male","approach_avoid_spark_v1","""event"",""trial"",""time""
""fullscreenenter"",""1"",""22954""
","
","
","""event"",""trial"",""time""
""fullscreenenter"",""1"",""22954""
","
","","","","","","1422.9000000003725","<p> Some of the fruits you will see are tasty. Others are rotten on the inside.  </p><p> On each turn, you will see a fruit.   </p><p> You need to decide whether to eat it or not.  </p>","","0","instructions","","","","","","","","","","",""
"learning-instructions","179","666847","0.0-11.0-1.0-0.2","3998","1","11","Male","approach_avoid_spark_v1","""event"",""trial"",""time""
""fullscreenenter"",""1"",""22954""
","
","
","""event"",""trial"",""time""
""fullscreenenter"",""1"",""22954""
","
","","","","","","1427.9000000003725","<p> You can eat the fruit by pressing 1 and choose not to eat it by pressing 0. </p><br><div class=""choice-instructions-grid""> <div class=""choice-option""><img src=""images/approach.png"" class=""choice-option-img"" stage=""instructions"" position=""0"" ><div class=""choice-option-text""> Press ""1."" </div></div><div class=""choice-option""><img src=""images/avoid.png"" class=""choice-option-img"" stage=""instructions"" position=""1"" ><div class=""choice-option-text""> Press ""0."" </div></div>","","0","instructions","","","","","","","","","","",""
"learning-instructions","180","675651","0.0-11.0-1.0-0.3","3998","1","11","Male","approach_avoid_spark_v1","""event"",""trial"",""time""
""fullscreenenter"",""1"",""22954""
","
","
","""event"",""trial"",""time""
""fullscreenenter"",""1"",""22954""
","
","","","","","","1451.5","<p> If you eat the fruit and it was tasty, you will win points! </p><p> But if you eat the fruit and it was rotten, you will lose points. </p>","","0","instructions","","","","","","","","","","",""
"learning-instructions","181","688198","0.0-11.0-1.0-0.4","3998","1","11","Male","approach_avoid_spark_v1","""event"",""trial"",""time""
""fullscreenenter"",""1"",""22954""
","
","
","""event"",""trial"",""time""
""fullscreenenter"",""1"",""22954""
","
","","","","","","1288.199999999255","<p> You will earn points based on how tasty or rotten the fruit was. </p><p> If it was tasty, you will WIN anywhere from 1 - 9 points, </p><p> but if it was rotten, you will LOSE anywhere from 1 - 9 points. </p>","","0","instructions","","","","","","","","","","",""
"learning-instructions","182","701454","0.0-11.0-1.0-0.5","3998","1","11","Male","approach_avoid_spark_v1","""event"",""trial"",""time""
""fullscreenenter"",""1"",""22954""
","
","
","""event"",""trial"",""time""
""fullscreenenter"",""1"",""22954""
","
","","","","","","6594.200000001118","<p> You will see how many points you won or lost in the center of the screen. </p><p> Here is what you would see if you earned 5 points: </p><p style=""color:green;font-size:50px;font-weight:bolder"">5</p>","","0","instructions","","","","","","","","","","",""
"learning-instructions","183","716944","0.0-11.0-1.0-0.6","3998","1","11","Male","approach_avoid_spark_v1","""event"",""trial"",""time""
""fullscreenenter"",""1"",""22954""
","
","
","""event"",""trial"",""time""
""fullscreenenter"",""1"",""22954""
","
","","","","","","12646.900000000373","<p> And here is what you would see if you lost 3 points: </p><p style=""color:red;font-size:50px;font-weight:bolder"">-3</p>","","0","instructions","","","","","","","","","","",""
"learning-instructions","184","733037","0.0-11.0-1.0-0.7","3998","1","11","Male","approach_avoid_spark_v1","""event"",""trial"",""time""
""fullscreenenter"",""1"",""22954""
","
","
","""event"",""trial"",""time""
""fullscreenenter"",""1"",""22954""
","
","","","","","","2426.7000000011176","<p> Some fruit is very tasty or very rotten. </p><p> These fruits will make you win or lose LOTS of points. </p><p> Other fruits are only kind of tasty or kind of rotten. </p><p> These fruits will make you win or lose small amounts of points. </p>","","0","instructions","","","","","","","","","","",""
"learning-instructions","185","745481","0.0-11.0-1.0-0.8","3998","1","11","Male","approach_avoid_spark_v1","""event"",""trial"",""time""
""fullscreenenter"",""1"",""22954""
","
","
","""event"",""trial"",""time""
""fullscreenenter"",""1"",""22954""
","
","","","","","","1926.5","<p> If you choose to not eat the fruit, you will not win or lose any points. </p><p>  However, in the center of the screen, you will see the number of points you WOULD HAVE earned if you had eaten the fruit. </p>","","0","instructions","","","","","","","","","","",""
"learning-instructions","186","757049","0.0-11.0-1.0-0.9","3998","1","11","Male","approach_avoid_spark_v1","""event"",""trial"",""time""
""fullscreenenter"",""1"",""22954""
","
","
","""event"",""trial"",""time""
""fullscreenenter"",""1"",""22954""
","
","","","","","","1753.2999999988824","<p> Here is what you might see if you did not eat the fruit but the fruit was tasty: </p><p style=""color:grey; font-size:50px; display: inline-block; border-spacing: 15px; border-width:3px; border-style:solid; border-color:red"">  &nbsp; 6 &nbsp; </p><p> Remember, in this case, you would not win or lose ANY points because you did not eat the fruit.  </p>","","0","instructions","","","","","","","","","","",""
"learning-instructions","187","769288","0.0-11.0-1.0-0.10","3998","1","11","Male","approach_avoid_spark_v1","""event"",""trial"",""time""
""fullscreenenter"",""1"",""22954""
","
","
","""event"",""trial"",""time""
""fullscreenenter"",""1"",""22954""
","
","","","","","","4344","<p> Try to make the best choice for each fruit because </p><p> at the end of the game, you will earn bonus money based on how many points you earned. </p>","","0","instructions","","","","","","","","","","",""
"learning-instructions","188","778602","0.0-11.0-1.0-0.11","3998","1","11","Male","approach_avoid_spark_v1","""event"",""trial"",""time""
""fullscreenenter"",""1"",""22954""
","
","
","""event"",""trial"",""time""
""fullscreenenter"",""1"",""22954""
","
","","","","","","1118.9000000003725","<p> You will have 3 seconds to make each choice. Try to respond before time runs out! </p><p> You will lose 5 points each time you do not make a response. </p>","","0","instructions","","","","","","","","","","",""
"html-keyboard-response","189","779208","0.0-11.0-2.0-0.0","3998","1","11","Male","approach_avoid_spark_v1","""event"",""trial"",""time""
""fullscreenenter"",""1"",""22954""
","
","
","""event"",""trial"",""time""
""fullscreenenter"",""1"",""22954""
","
","","","","","","null","<div style=""font-size:60px;"">+</div>","null","","fixation","","","","","","","","","","",""
"aa-learning-trial","190","782220","0.0-11.0-2.0-1.0","3998","1","11","Male","approach_avoid_spark_v1","""event"",""trial"",""time""
""fullscreenenter"",""1"",""22954""
","
","
","""event"",""trial"",""time""
""fullscreenenter"",""1"",""22954""
","
","","","","","","1743.199999999255","images/banana7.png","","","learning","5","5","1","1","banana","fruit","2","1","","bad","[-4]"
"html-keyboard-response","191","782724","0.0-11.0-2.0-0.1","3998","1","11","Male","approach_avoid_spark_v1","""event"",""trial"",""time""
""fullscreenenter"",""1"",""22954""
","
","
","""event"",""trial"",""time""
""fullscreenenter"",""1"",""22954""
","
","","","","","","null","<div style=""font-size:60px;"">+</div>","null","","fixation","","","","","","","","","","",""
"aa-learning-trial","192","785732","0.0-11.0-2.0-1.1","3998","1","11","Male","approach_avoid_spark_v1","""event"",""trial"",""time""
""fullscreenenter"",""1"",""22954""
","
","
","""event"",""trial"",""time""
""fullscreenenter"",""1"",""22954""
","
","","","","","","728.4000000003725","images/banana7.png","","","learning","5","5","1","1","banana","fruit","2","1","","bad","[-4]"
"html-keyboard-response","193","786234","0.0-11.0-2.0-0.2","3998","1","11","Male","approach_avoid_spark_v1","""event"",""trial"",""time""
""fullscreenenter"",""1"",""22954""
","
","
","""event"",""trial"",""time""
""fullscreenenter"",""1"",""22954""
","
","","","","","","null","<div style=""font-size:60px;"">+</div>","null","","fixation","","","","","","","","","","",""
"aa-learning-trial","194","789250","0.0-11.0-2.0-1.2","3998","1","11","Male","approach_avoid_spark_v1","""event"",""trial"",""time""
""fullscreenenter"",""1"",""22954""
","
","
","""event"",""trial"",""time""
""fullscreenenter"",""1"",""22954""
","
","","","","","","954.9000000003725","images/apple3.png","","","learning","8","8","1","1","apple","fruit","2","1","","good","[4]"
"html-keyboard-response","195","789755","0.0-11.0-2.0-0.3","3998","1","11","Male","approach_avoid_spark_v1","""event"",""trial"",""time""
""fullscreenenter"",""1"",""22954""
","
","
","""event"",""trial"",""time""
""fullscreenenter"",""1"",""22954""
","
","","","","","","null","<div style=""font-size:60px;"">+</div>","null","","fixation","","","","","","","","","","",""
"aa-learning-trial","196","792767","0.0-11.0-2.0-1.3","3998","1","11","Male","approach_avoid_spark_v1","""event"",""trial"",""time""
""fullscreenenter"",""1"",""22954""
","
","
","""event"",""trial"",""time""
""fullscreenenter"",""1"",""22954""
","
","","","","","","676.5","images/apple7.png","","","learning","1","1","1","1","apple","fruit","2","1","","good","[4]"
"html-keyboard-response","197","793272","0.0-11.0-2.0-0.4","3998","1","11","Male","approach_avoid_spark_v1","""event"",""trial"",""time""
""fullscreenenter"",""1"",""22954""
","
","
","""event"",""trial"",""time""
""fullscreenenter"",""1"",""22954""
","
","","","","","","null","<div style=""font-size:60px;"">+</div>","null","","fixation","","","","","","","","","","",""
"aa-learning-trial","198","796286","0.0-11.0-2.0-1.4","3998","1","11","Male","approach_avoid_spark_v1","""event"",""trial"",""time""
""fullscreenenter"",""1"",""22954""
","
","
","""event"",""trial"",""time""
""fullscreenenter"",""1"",""22954""
","
","","","","","","667.5","images/apple2.png","","","learning","-9","-9","1","1","apple","fruit","2","1","","good","[4]"
"html-keyboard-response","199","796790","0.0-11.0-2.0-0.5","3998","1","11","Male","approach_avoid_spark_v1","""event"",""trial"",""time""
""fullscreenenter"",""1"",""22954""
","
","
","""event"",""trial"",""time""
""fullscreenenter"",""1"",""22954""
","
","","","","","","null","<div style=""font-size:60px;"">+</div>","null","","fixation","","","","","","","","","","",""
"aa-learning-trial","200","799801","0.0-11.0-2.0-1.5","3998","1","11","Male","approach_avoid_spark_v1","""event"",""trial"",""time""
""fullscreenenter"",""1"",""22954""
","
","
","""event"",""trial"",""time""
""fullscreenenter"",""1"",""22954""
","
","","","","","","1125.199999999255","images/straw6.png","","","learning","-7","0","0","0","straw","fruit","2","1","","neutral","0"
"html-keyboard-response","201","800308","0.0-11.0-2.0-0.6","3998","1","11","Male","approach_avoid_spark_v1","""event"",""trial"",""time""
""fullscreenenter"",""1"",""22954""
","
","
","""event"",""trial"",""time""
""fullscreenenter"",""1"",""22954""
","
","","","","","","null","<div style=""font-size:60px;"">+</div>","null","","fixation","","","","","","","","","","",""
"aa-learning-trial","202","803320","0.0-11.0-2.0-1.6","3998","1","11","Male","approach_avoid_spark_v1","""event"",""trial"",""time""
""fullscreenenter"",""1"",""22954""
","
","
","""event"",""trial"",""time""
""fullscreenenter"",""1"",""22954""
","
","","","","","","842.4000000003725","images/straw4.png","","","learning","3","0","0","0","straw","fruit","2","1","","neutral","0"
"html-keyboard-response","203","803825","0.0-11.0-2.0-0.7","3998","1","11","Male","approach_avoid_spark_v1","""event"",""trial"",""time""
""fullscreenenter"",""1"",""22954""
","
","
","""event"",""trial"",""time""
""fullscreenenter"",""1"",""22954""
","
","","","","","","null","<div style=""font-size:60px;"">+</div>","null","","fixation","","","","","","","","","","",""
"aa-learning-trial","204","806846","0.0-11.0-2.0-1.7","3998","1","11","Male","approach_avoid_spark_v1","""event"",""trial"",""time""
""fullscreenenter"",""1"",""22954""
","
","
","""event"",""trial"",""time""
""fullscreenenter"",""1"",""22954""
","
","","","","","","668.8999999985099","images/banana6.png","","","learning","7","7","1","1","banana","fruit","2","1","","bad","[-4]"
"html-keyboard-response","205","807351","0.0-11.0-2.0-0.8","3998","1","11","Male","approach_avoid_spark_v1","""event"",""trial"",""time""
""fullscreenenter"",""1"",""22954""
","
","
","""event"",""trial"",""time""
""fullscreenenter"",""1"",""22954""
","
","","","","","","null","<div style=""font-size:60px;"">+</div>","null","","fixation","","","","","","","","","","",""
"aa-learning-trial","206","810364","0.0-11.0-2.0-1.8","3998","1","11","Male","approach_avoid_spark_v1","""event"",""trial"",""time""
""fullscreenenter"",""1"",""22954""
","
","
","""event"",""trial"",""time""
""fullscreenenter"",""1"",""22954""
","
","","","","","","501.30000000074506","images/straw6.png","","","learning","-7","0","0","0","straw","fruit","2","1","","neutral","0"
"html-keyboard-response","207","810869","0.0-11.0-2.0-0.9","3998","1","11","Male","approach_avoid_spark_v1","""event"",""trial"",""time""
""fullscreenenter"",""1"",""22954""
","
","
","""event"",""trial"",""time""
""fullscreenenter"",""1"",""22954""
","
","","","","","","null","<div style=""font-size:60px;"">+</div>","null","","fixation","","","","","","","","","","",""
"aa-learning-trial","208","813878","0.0-11.0-2.0-1.9","3998","1","11","Male","approach_avoid_spark_v1","""event"",""trial"",""time""
""fullscreenenter"",""1"",""22954""
","
","
","""event"",""trial"",""time""
""fullscreenenter"",""1"",""22954""
","
","","","","","","1270","images/banana3.png","","","learning","-3","-3","1","1","banana","fruit","2","1","","bad","[-4]"
"html-keyboard-response","209","814382","0.0-11.0-2.0-0.10","3998","1","11","Male","approach_avoid_spark_v1","""event"",""trial"",""time""
""fullscreenenter"",""1"",""22954""
","
","
","""event"",""trial"",""time""
""fullscreenenter"",""1"",""22954""
","
","","","","","","null","<div style=""font-size:60px;"">+</div>","null","","fixation","","","","","","","","","","",""
"aa-learning-trial","210","817396","0.0-11.0-2.0-1.10","3998","1","11","Male","approach_avoid_spark_v1","""event"",""trial"",""time""
""fullscreenenter"",""1"",""22954""
","
","
","""event"",""trial"",""time""
""fullscreenenter"",""1"",""22954""
","
","","","","","","728.3000000007451","images/banana6.png","","","learning","7","7","1","1","banana","fruit","2","1","","bad","[-4]"
"html-keyboard-response","211","817903","0.0-11.0-2.0-0.11","3998","1","11","Male","approach_avoid_spark_v1","""event"",""trial"",""time""
""fullscreenenter"",""1"",""22954""
","
","
","""event"",""trial"",""time""
""fullscreenenter"",""1"",""22954""
","
","","","","","","null","<div style=""font-size:60px;"">+</div>","null","","fixation","","","","","","","","","","",""
"aa-learning-trial","212","820918","0.0-11.0-2.0-1.11","3998","1","11","Male","approach_avoid_spark_v1","""event"",""trial"",""time""
""fullscreenenter"",""1"",""22954""
","
","
","""event"",""trial"",""time""
""fullscreenenter"",""1"",""22954""
","
","","","","","","740.8000000007451","images/apple2.png","","","learning","-9","0","0","0","apple","fruit","2","1","","good","[4]"
"html-keyboard-response","213","821423","0.0-11.0-2.0-0.12","3998","1","11","Male","approach_avoid_spark_v1","""event"",""trial"",""time""
""fullscreenenter"",""1"",""22954""
","
","
","""event"",""trial"",""time""
""fullscreenenter"",""1"",""22954""
","
","","","","","","null","<div style=""font-size:60px;"">+</div>","null","","fixation","","","","","","","","","","",""
"aa-learning-trial","214","824438","0.0-11.0-2.0-1.12","3998","1","11","Male","approach_avoid_spark_v1","""event"",""trial"",""time""
""fullscreenenter"",""1"",""22954""
","
","
","""event"",""trial"",""time""
""fullscreenenter"",""1"",""22954""
","
","","","","","","996.6999999992549","images/straw4.png","","","learning","3","3","1","1","straw","fruit","2","1","","neutral","0"
"html-keyboard-response","215","824942","0.0-11.0-2.0-0.13","3998","1","11","Male","approach_avoid_spark_v1","""event"",""trial"",""time""
""fullscreenenter"",""1"",""22954""
","
","
","""event"",""trial"",""time""
""fullscreenenter"",""1"",""22954""
","
","","","","","","null","<div style=""font-size:60px;"">+</div>","null","","fixation","","","","","","","","","","",""
"aa-learning-trial","216","827955","0.0-11.0-2.0-1.13","3998","1","11","Male","approach_avoid_spark_v1","""event"",""trial"",""time""
""fullscreenenter"",""1"",""22954""
","
","
","""event"",""trial"",""time""
""fullscreenenter"",""1"",""22954""
","
","","","","","","989.6999999992549","images/apple3.png","","","learning","8","8","1","1","apple","fruit","2","1","","good","[4]"
"html-keyboard-response","217","828460","0.0-11.0-2.0-0.14","3998","1","11","Male","approach_avoid_spark_v1","""event"",""trial"",""time""
""fullscreenenter"",""1"",""22954""
","
","
","""event"",""trial"",""time""
""fullscreenenter"",""1"",""22954""
","
","","","","","","null","<div style=""font-size:60px;"">+</div>","null","","fixation","","","","","","","","","","",""
"aa-learning-trial","218","831475","0.0-11.0-2.0-1.14","3998","1","11","Male","approach_avoid_spark_v1","""event"",""trial"",""time""
""fullscreenenter"",""1"",""22954""
","
","
","""event"",""trial"",""time""
""fullscreenenter"",""1"",""22954""
","
","","","","","","1224","images/straw8.png","","","learning","9","9","1","1","straw","fruit","2","1","","neutral","0"
"html-keyboard-response","219","831981","0.0-11.0-2.0-0.15","3998","1","11","Male","approach_avoid_spark_v1","""event"",""trial"",""time""
""fullscreenenter"",""1"",""22954""
","
","
","""event"",""trial"",""time""
""fullscreenenter"",""1"",""22954""
","
","","","","","","null","<div style=""font-size:60px;"">+</div>","null","","fixation","","","","","","","","","","",""
"aa-learning-trial","220","834993","0.0-11.0-2.0-1.15","3998","1","11","Male","approach_avoid_spark_v1","""event"",""trial"",""time""
""fullscreenenter"",""1"",""22954""
","
","
","""event"",""trial"",""time""
""fullscreenenter"",""1"",""22954""
","
","","","","","","1183.199999999255","images/straw4.png","","","learning","3","3","1","1","straw","fruit","2","1","","neutral","0"
"html-keyboard-response","221","835501","0.0-11.0-2.0-0.16","3998","1","11","Male","approach_avoid_spark_v1","""event"",""trial"",""time""
""fullscreenenter"",""1"",""22954""
","
","
","""event"",""trial"",""time""
""fullscreenenter"",""1"",""22954""
","
","","","","","","null","<div style=""font-size:60px;"">+</div>","null","","fixation","","","","","","","","","","",""
"aa-learning-trial","222","838516","0.0-11.0-2.0-1.16","3998","1","11","Male","approach_avoid_spark_v1","""event"",""trial"",""time""
""fullscreenenter"",""1"",""22954""
","
","
","""event"",""trial"",""time""
""fullscreenenter"",""1"",""22954""
","
","","","","","","716.0999999996275","images/apple2.png","","","learning","-9","0","0","0","apple","fruit","2","1","","good","[4]"
"html-keyboard-response","223","839025","0.0-11.0-2.0-0.17","3998","1","11","Male","approach_avoid_spark_v1","""event"",""trial"",""time""
""fullscreenenter"",""1"",""22954""
","
","
","""event"",""trial"",""time""
""fullscreenenter"",""1"",""22954""
","
","","","","","","null","<div style=""font-size:60px;"">+</div>","null","","fixation","","","","","","","","","","",""
"aa-learning-trial","224","842040","0.0-11.0-2.0-1.17","3998","1","11","Male","approach_avoid_spark_v1","""event"",""trial"",""time""
""fullscreenenter"",""1"",""22954""
","
","
","""event"",""trial"",""time""
""fullscreenenter"",""1"",""22954""
","
","","","","","","649.5","images/straw8.png","","","learning","9","9","1","1","straw","fruit","2","1","","neutral","0"
"html-keyboard-response","225","842547","0.0-11.0-2.0-0.18","3998","1","11","Male","approach_avoid_spark_v1","""event"",""trial"",""time""
""fullscreenenter"",""1"",""22954""
","
","
","""event"",""trial"",""time""
""fullscreenenter"",""1"",""22954""
","
","","","","","","null","<div style=""font-size:60px;"">+</div>","null","","fixation","","","","","","","","","","",""
"aa-learning-trial","226","845559","0.0-11.0-2.0-1.18","3998","1","11","Male","approach_avoid_spark_v1","""event"",""trial"",""time""
""fullscreenenter"",""1"",""22954""
","
","
","""event"",""trial"",""time""
""fullscreenenter"",""1"",""22954""
","
","","","","","","463.90000000037253","images/apple2.png","","","learning","-9","0","0","0","apple","fruit","2","1","","good","[4]"
"html-keyboard-response","227","846063","0.0-11.0-2.0-0.19","3998","1","11","Male","approach_avoid_spark_v1","""event"",""trial"",""time""
""fullscreenenter"",""1"",""22954""
","
","
","""event"",""trial"",""time""
""fullscreenenter"",""1"",""22954""
","
","","","","","","null","<div style=""font-size:60px;"">+</div>","null","","fixation","","","","","","","","","","",""
"aa-learning-trial","228","849078","0.0-11.0-2.0-1.19","3998","1","11","Male","approach_avoid_spark_v1","""event"",""trial"",""time""
""fullscreenenter"",""1"",""22954""
","
","
","""event"",""trial"",""time""
""fullscreenenter"",""1"",""22954""
","
","","","","","","1167","images/straw6.png","","","learning","-7","-7","1","1","straw","fruit","2","1","","neutral","0"
"html-keyboard-response","229","849582","0.0-11.0-2.0-0.20","3998","1","11","Male","approach_avoid_spark_v1","""event"",""trial"",""time""
""fullscreenenter"",""1"",""22954""
","
","
","""event"",""trial"",""time""
""fullscreenenter"",""1"",""22954""
","
","","","","","","null","<div style=""font-size:60px;"">+</div>","null","","fixation","","","","","","","","","","",""
"aa-learning-trial","230","852595","0.0-11.0-2.0-1.20","3998","1","11","Male","approach_avoid_spark_v1","""event"",""trial"",""time""
""fullscreenenter"",""1"",""22954""
","
","
","""event"",""trial"",""time""
""fullscreenenter"",""1"",""22954""
","
","","","","","","1019.9000000003725","images/apple3.png","","","learning","8","8","1","1","apple","fruit","2","1","","good","[4]"
"html-keyboard-response","231","853103","0.0-11.0-2.0-0.21","3998","1","11","Male","approach_avoid_spark_v1","""event"",""trial"",""time""
""fullscreenenter"",""1"",""22954""
","
","
","""event"",""trial"",""time""
""fullscreenenter"",""1"",""22954""
","
","","","","","","null","<div style=""font-size:60px;"">+</div>","null","","fixation","","","","","","","","","","",""
"aa-learning-trial","232","856119","0.0-11.0-2.0-1.21","3998","1","11","Male","approach_avoid_spark_v1","""event"",""trial"",""time""
""fullscreenenter"",""1"",""22954""
","
","
","""event"",""trial"",""time""
""fullscreenenter"",""1"",""22954""
","
","","","","","","739.6999999992549","images/straw4.png","","","learning","3","3","1","1","straw","fruit","2","1","","neutral","0"
"html-keyboard-response","233","856635","0.0-11.0-2.0-0.22","3998","1","11","Male","approach_avoid_spark_v1","""event"",""trial"",""time""
""fullscreenenter"",""1"",""22954""
","
","
","""event"",""trial"",""time""
""fullscreenenter"",""1"",""22954""
","
","","","","","","null","<div style=""font-size:60px;"">+</div>","null","","fixation","","","","","","","","","","",""
"aa-learning-trial","234","859653","0.0-11.0-2.0-1.22","3998","1","11","Male","approach_avoid_spark_v1","""event"",""trial"",""time""
""fullscreenenter"",""1"",""22954""
","
","
","""event"",""trial"",""time""
""fullscreenenter"",""1"",""22954""
","
","","","","","","1009.0999999996275","images/banana7.png","","","learning","5","5","1","1","banana","fruit","2","1","","bad","[-4]"
"html-keyboard-response","235","860160","0.0-11.0-2.0-0.23","3998","1","11","Male","approach_avoid_spark_v1","""event"",""trial"",""time""
""fullscreenenter"",""1"",""22954""
","
","
","""event"",""trial"",""time""
""fullscreenenter"",""1"",""22954""
","
","","","","","","null","<div style=""font-size:60px;"">+</div>","null","","fixation","","","","","","","","","","",""
"aa-learning-trial","236","863172","0.0-11.0-2.0-1.23","3998","1","11","Male","approach_avoid_spark_v1","""event"",""trial"",""time""
""fullscreenenter"",""1"",""22954""
","
","
","""event"",""trial"",""time""
""fullscreenenter"",""1"",""22954""
","
