"trial_type","trial_index","time_elapsed","internal_node_id","subject_id","task_condition","age","gender","task_version","interactions","blur_events","focus_events","fullscreenenter_events","fullscreenexit_events","success","timeout","failed_images","failed_audio","failed_video","rt","stimulus","response","button_pressed","task_part","approach_reward","points","key_press","option_selected","stim_cat","task_block","block_condition","block_number","correct","cat_type","mean_cat_reward"
"pavlovia","0","5","0.0-0.0","5565","1","19","Female","approach_avoid_spark_v1","""event"",""trial"",""time""
""fullscreenenter"",""1"",""2282""
","
","
","""event"",""trial"",""time""
""fullscreenenter"",""1"",""2282""
","
","","","","","","","","","","","","","","","","","","","","",""
"fullscreen","1","3260","0.0-1.0","5565","1","19","Female","approach_avoid_spark_v1","""event"",""trial"",""time""
""fullscreenenter"",""1"",""2282""
","
","
","""event"",""trial"",""time""
""fullscreenenter"",""1"",""2282""
","
","true","","","","","","","","","","","","","","","","","","","",""
"preload","2","9268","0.0-2.0","5565","1","19","Female","approach_avoid_spark_v1","""event"",""trial"",""time""
""fullscreenenter"",""1"",""2282""
","
","
","""event"",""trial"",""time""
""fullscreenenter"",""1"",""2282""
","
","true","false","[]","[]","[]","","","","","","","","","","","","","","","",""
"audio-keyboard-response","3","17106","0.0-3.0","5565","1","19","Female","approach_avoid_spark_v1","""event"",""trial"",""time""
""fullscreenenter"",""1"",""2282""
","
","
","""event"",""trial"",""time""
""fullscreenenter"",""1"",""2282""
","
","","","","","","7840","audio/beep_loop.wav"," ","","","","","","","","","","","","",""
"audio-button-response","4","21391","0.0-4.0","5565","1","19","Female","approach_avoid_spark_v1","""event"",""trial"",""time""
""fullscreenenter"",""1"",""2282""
","
","
","""event"",""trial"",""time""
""fullscreenenter"",""1"",""2282""
","
","","","","","","4291","audio/shark.wav","0","","","","","","","","","","","","",""
"audio-button-response","5","24543","0.0-5.0","5565","1","19","Female","approach_avoid_spark_v1","""event"",""trial"",""time""
""fullscreenenter"",""1"",""2282""
","
","
","""event"",""trial"",""time""
""fullscreenenter"",""1"",""2282""
","
","","","","","","2139","audio/turtle.wav","1","","","","","","","","","","","","",""
"preload","6","28121","0.0-6.0","5565","1","19","Female","approach_avoid_spark_v1","""event"",""trial"",""time""
""fullscreenenter"",""1"",""2282""
","
","
","""event"",""trial"",""time""
""fullscreenenter"",""1"",""2282""
","
","true","false","[]","[]","[]","","","","","","","","","","","","","","","",""
"html-keyboard-response","7","31225","0.0-7.0","5565","1","19","Female","approach_avoid_spark_v1","""event"",""trial"",""time""
""fullscreenenter"",""1"",""2282""
","
","
","""event"",""trial"",""time""
""fullscreenenter"",""1"",""2282""
","
","","","","","","3103.399999976158","Welcome to the experiment. Press any key to begin and to advance the instructions.","j","","","","","","","","","","","","",""
"learning-instructions","8","39200","0.0-8.0-0.0-0.0","5565","1","19","Female","approach_avoid_spark_v1","""event"",""trial"",""time""
""fullscreenenter"",""1"",""2282""
","
","
","""event"",""trial"",""time""
""fullscreenenter"",""1"",""2282""
","
","","","","","","1019.1000000238419","<p> Welcome! Today you are going to play 6 different rounds of a decision-making game. </p><p> Use the mouse to click next to continue. </p>","","0","instructions","","","","","","","","","","",""
"learning-instructions","9","43287","0.0-8.0-0.0-0.1","5565","1","19","Female","approach_avoid_spark_v1","""event"",""trial"",""time""
""fullscreenenter"",""1"",""2282""
","
","
","""event"",""trial"",""time""
""fullscreenenter"",""1"",""2282""
","
","","","","","","1346.7999999523163","<p> You will start with a practice round to learn the rules. </p>","","0","instructions","","","","","","","","","","",""
"learning-instructions","10","47295","0.0-8.0-0.0-0.2","5565","1","19","Female","approach_avoid_spark_v1","""event"",""trial"",""time""
""fullscreenenter"",""1"",""2282""
","
","
","""event"",""trial"",""time""
""fullscreenenter"",""1"",""2282""
","
","","","","","","554.7999999523163","<p> Your goal in this round is to give out sports equipment to kids. </p></div>","","0","instructions","","","","","","","","","","",""
"learning-instructions","11","55273","0.0-8.0-0.0-0.3","5565","1","19","Female","approach_avoid_spark_v1","""event"",""trial"",""time""
""fullscreenenter"",""1"",""2282""
","
","
","""event"",""trial"",""time""
""fullscreenenter"",""1"",""2282""
","
","","","","","","412.9000000357628","<p> The kids only like some of the equipment.  </p><p> On each turn, you will see a piece of sports equipment.   </p><p> You need to decide whether to give it to the kids or not.  </p>","","0","instructions","","","","","","","","","","",""
"learning-instructions","12","61896","0.0-8.0-0.0-0.4","5565","1","19","Female","approach_avoid_spark_v1","""event"",""trial"",""time""
""fullscreenenter"",""1"",""2282""
","
","
","""event"",""trial"",""time""
""fullscreenenter"",""1"",""2282""
","
","","","","","","1866.2000000476837","<p> You can give them the equipment by pressing 1 and choose not to give it to them by pressing 0. </p><br><div class=""choice-instructions-grid""> <div class=""choice-option""><img src=""images/approach.png"" class=""choice-option-img"" stage=""instructions"" position=""0"" ><div class=""choice-option-text""> Press ""1."" </div></div><div class=""choice-option""><img src=""images/avoid.png"" class=""choice-option-img"" stage=""instructions"" position=""1"" ><div class=""choice-option-text""> Press ""0."" </div></div>","","0","instructions","","","","","","","","","","",""
"learning-instructions","13","69914","0.0-8.0-0.0-0.5","5565","1","19","Female","approach_avoid_spark_v1","""event"",""trial"",""time""
""fullscreenenter"",""1"",""2282""
","
","
","""event"",""trial"",""time""
""fullscreenenter"",""1"",""2282""
","
","","","","","","633.6999999880791","<p> If you give them a piece of equipment they like, they will be happy! </p><p> But if you give them a piece of equipment they do not like, they will be sad. </p>","","0","instructions","","","","","","","","","","",""
"learning-instructions","14","80839","0.0-8.0-0.0-0.6","5565","1","19","Female","approach_avoid_spark_v1","""event"",""trial"",""time""
""fullscreenenter"",""1"",""2282""
","
","
","""event"",""trial"",""time""
""fullscreenenter"",""1"",""2282""
","
","","","","","","399","<p> You will earn points based on how you make kids feel. </p><p> If you make them happy, you will WIN anywhere from 1 - 9 points, </p><p> but if you make them sad, you will LOSE anywhere from 1 - 9 points. </p>","","0","instructions","","","","","","","","","","",""
"learning-instructions","15","90808","0.0-8.0-0.0-0.7","5565","1","19","Female","approach_avoid_spark_v1","""event"",""trial"",""time""
""fullscreenenter"",""1"",""2282""
","
","
","""event"",""trial"",""time""
""fullscreenenter"",""1"",""2282""
","
","","","","","","407.5","<p> You will see how many points you won or lost in the center of the screen. </p><p> Here is what you would see if you won 6 points: </p><p style=""color:green;font-size:50px;font-weight:bolder"">6</p><p style=""color:green"">The text is GREEN because you WON points.</p>","","0","instructions","","","","","","","","","","",""
"learning-instructions","16","96768","0.0-8.0-0.0-0.8","5565","1","19","Female","approach_avoid_spark_v1","""event"",""trial"",""time""
""fullscreenenter"",""1"",""2282""
","
","
","""event"",""trial"",""time""
""fullscreenenter"",""1"",""2282""
","
","","","","","","457.5999999642372","<p> And here is what you would see if you lost 4 points: </p><p style=""color:red;font-size:50px;font-weight:bolder"">-4</p><p style=""color:red"">The text is RED because you LOST points. </p>","","0","instructions","","","","","","","","","","",""
"learning-instructions","17","111900","0.0-8.0-0.0-0.9","5565","1","19","Female","approach_avoid_spark_v1","""event"",""trial"",""time""
""fullscreenenter"",""1"",""2282""
","
","
","""event"",""trial"",""time""
""fullscreenenter"",""1"",""2282""
","
","","","","","","409.80000001192093","<p> Some of the equipment will make the kids VERY happy or sad. </p><p> These pieces of equipment will make you win or lose LOTS of points. </p><p> Other pieces of equipment will only make the kids a little happy or sad. </p><p> These pieces of equipment will make you win or lose small amounts of points. </p>","","0","instructions","","","","","","","","","","",""
"learning-instructions","18","123132","0.0-8.0-0.0-0.10","5565","1","19","Female","approach_avoid_spark_v1","""event"",""trial"",""time""
""fullscreenenter"",""1"",""2282""
","
","
","""event"",""trial"",""time""
""fullscreenenter"",""1"",""2282""
","
","","","","","","601.7000000476837","<p> If you choose not to give them the equipment, you will not win or lose any points. </p><p>  However, in the center of the screen, you will see the number of points you WOULD HAVE won or lost if you had given them the equipment. </p>","","0","instructions","","","","","","","","","","",""
"learning-instructions","19","146200","0.0-8.0-0.0-0.11","5565","1","19","Female","approach_avoid_spark_v1","""event"",""trial"",""time""
""fullscreenenter"",""1"",""2282""
","
","
","""event"",""trial"",""time""
""fullscreenenter"",""1"",""2282""
","
","","","","","","1530","<p> Here is what you might see if you did not give the equipment to the kids but it would have made them happy: </p><p style=""color:grey; font-size:50px; display: inline-block; border-spacing: 15px; border-width:3px; border-style:solid; border-color:red"">  &nbsp; 7 &nbsp; </p><p> Remember, in this case, you would not win or lose ANY points because you did not give them the equipment.  </p><p style=""color:grey"">The text is GREY because you earned ZERO points. </p><p style=""color:red"">However, choosing to give the kids the equipment would have made you win points. The box around the text is RED because you chose the worse option. </p>","","0","instructions","","","","","","","","","","",""
"learning-instructions","20","167929","0.0-8.0-0.0-0.12","5565","1","19","Female","approach_avoid_spark_v1","""event"",""trial"",""time""
""fullscreenenter"",""1"",""2282""
","
","
","""event"",""trial"",""time""
""fullscreenenter"",""1"",""2282""
","
","","","","","","638.5","<p> Here is what you might see if you did not give the equipment to the kids but it would have made them sad: </p><p style=""color:grey;font-size:50px; display: inline-block; border-spacing: 15px; border-width:3px; border-style:solid; border-color:green"">  &nbsp; -8 &nbsp; </p><p> Remember, in this case, you would not win or lose ANY points because you did not give them the equipment.  </p><p style=""color:grey"">The text is GREY because you earned ZERO points. </p><p  style=""color:green""> Choosing to give the kids the equipment would have made you lose points. The box around the text is GREEN because you chose the better option.</p>","","0","instructions","","","","","","","","","","",""
"learning-instructions","21","178628","0.0-8.0-0.0-0.13","5565","1","19","Female","approach_avoid_spark_v1","""event"",""trial"",""time""
""fullscreenenter"",""1"",""2282""
","
","
","""event"",""trial"",""time""
""fullscreenenter"",""1"",""2282""
","
","","","","","","1297.5","<p> You will have 3 seconds to make each choice. Try to respond before time runs out! </p><p> You will lose 5 points each time you do not make a response. </p>","","0","instructions","","","","","","","","","","",""
"learning-instructions","22","196788","0.0-8.0-0.0-0.14","5565","1","19","Female","approach_avoid_spark_v1","""event"",""trial"",""time""
""fullscreenenter"",""1"",""2282""
","
","
","""event"",""trial"",""time""
""fullscreenenter"",""1"",""2282""
","
","","","","","","12747.199999988079","<p> This is just a practice round, but in the real game, your bonus payment will depend on your total number of points.","","0","instructions","","","","","","","","","","",""
"learning-instructions","23","203411","0.0-8.0-0.0-0.15","5565","1","19","Female","approach_avoid_spark_v1","""event"",""trial"",""time""
""fullscreenenter"",""1"",""2282""
","
","
","""event"",""trial"",""time""
""fullscreenenter"",""1"",""2282""
","
","","","","","","850","<p> Remember, you can give them the equipment by pressing 1 and choose not to give it to them by pressing 0. </p><br><div class=""choice-instructions-grid""> <div class=""choice-option""><img src=""images/approach.png"" class=""choice-option-img"" stage=""instructions"" position=""0"" ><div class=""choice-option-text""> Press ""1."" </div></div><div class=""choice-option""><img src=""images/avoid.png"" class=""choice-option-img"" stage=""instructions"" position=""1"" ><div class=""choice-option-text""> Press ""0."" </div></div>","","0","instructions","","","","","","","","","","",""
"html-button-response","24","204725","0.0-8.0-1.0","5565","1","19","Female","approach_avoid_spark_v1","""event"",""trial"",""time""
""fullscreenenter"",""1"",""2282""
","
","
","""event"",""trial"",""time""
""fullscreenenter"",""1"",""2282""
","
","","","","","","1193","<p> Ready to practice? </p>","0","","","","","","","","","","","","",""
"html-keyboard-response","25","205363","0.0-8.0-2.0-0.0","5565","1","19","Female","approach_avoid_spark_v1","""event"",""trial"",""time""
""fullscreenenter"",""1"",""2282""
","
","
","""event"",""trial"",""time""
""fullscreenenter"",""1"",""2282""
","
","","","","","","null","<div style=""font-size:60px;"">+</div>","null","","fixation","","","","","","","","","","",""
"aa-learning-trial","26","208380","0.0-8.0-2.0-1.0","5565","1","19","Female","approach_avoid_spark_v1","""event"",""trial"",""time""
""fullscreenenter"",""1"",""2282""
","
","
","""event"",""trial"",""time""
""fullscreenenter"",""1"",""2282""
","
","","","","","","1136.0999999642372","images/racket2.png","","","learning","-5","-5","1","1","practice","practice","practice","-1","","",""
"html-keyboard-response","27","208893","0.0-8.0-2.0-0.1","5565","1","19","Female","approach_avoid_spark_v1","""event"",""trial"",""time""
""fullscreenenter"",""1"",""2282""
","
","
","""event"",""trial"",""time""
""fullscreenenter"",""1"",""2282""
","
","","","","","","null","<div style=""font-size:60px;"">+</div>","null","","fixation","","","","","","","","","","",""
"aa-learning-trial","28","211908","0.0-8.0-2.0-1.1","5565","1","19","Female","approach_avoid_spark_v1","""event"",""trial"",""time""
""fullscreenenter"",""1"",""2282""
","
","
","""event"",""trial"",""time""
""fullscreenenter"",""1"",""2282""
","
","","","","","","742.1000000238419","images/ball4.png","","","learning","-5","-5","1","1","practice","practice","practice","-1","","",""
"html-keyboard-response","29","212411","0.0-8.0-2.0-0.2","5565","1","19","Female","approach_avoid_spark_v1","""event"",""trial"",""time""
""fullscreenenter"",""1"",""2282""
","
","
","""event"",""trial"",""time""
""fullscreenenter"",""1"",""2282""
","
","","","","","","null","<div style=""font-size:60px;"">+</div>","null","","fixation","","","","","","","","","","",""
"aa-learning-trial","30","215433","0.0-8.0-2.0-1.2","5565","1","19","Female","approach_avoid_spark_v1","""event"",""trial"",""time""
""fullscreenenter"",""1"",""2282""
","
","
","""event"",""trial"",""time""
""fullscreenenter"",""1"",""2282""
","
","","","","","","1103.0999999642372","images/racket1.png","","","learning","5","0","0","0","practice","practice","practice","-1","","",""
"html-keyboard-response","31","215935","0.0-8.0-2.0-0.3","5565","1","19","Female","approach_avoid_spark_v1","""event"",""trial"",""time""
""fullscreenenter"",""1"",""2282""
","
","
","""event"",""trial"",""time""
""fullscreenenter"",""1"",""2282""
","
","","","","","","null","<div style=""font-size:60px;"">+</div>","null","","fixation","","","","","","","","","","",""
"aa-learning-trial","32","218950","0.0-8.0-2.0-1.3","5565","1","19","Female","approach_avoid_spark_v1","""event"",""trial"",""time""
""fullscreenenter"",""1"",""2282""
","
","
","""event"",""trial"",""time""
""fullscreenenter"",""1"",""2282""
","
","","","","","","760","images/racket4.png","","","learning","-7","-7","1","1","practice","practice","practice","-1","","",""
"html-keyboard-response","33","219456","0.0-8.0-2.0-0.4","5565","1","19","Female","approach_avoid_spark_v1","""event"",""trial"",""time""
""fullscreenenter"",""1"",""2282""
","
","
","""event"",""trial"",""time""
""fullscreenenter"",""1"",""2282""
","
","","","","","","null","<div style=""font-size:60px;"">+</div>","null","","fixation","","","","","","","","","","",""
"aa-learning-trial","34","222470","0.0-8.0-2.0-1.4","5565","1","19","Female","approach_avoid_spark_v1","""event"",""trial"",""time""
""fullscreenenter"",""1"",""2282""
","
","
","""event"",""trial"",""time""
""fullscreenenter"",""1"",""2282""
","
","","","","","","851.6000000238419","images/racket1.png","","","learning","-7","0","0","0","practice","practice","practice","-1","","",""
"html-keyboard-response","35","222983","0.0-8.0-2.0-0.5","5565","1","19","Female","approach_avoid_spark_v1","""event"",""trial"",""time""
""fullscreenenter"",""1"",""2282""
","
","
","""event"",""trial"",""time""
""fullscreenenter"",""1"",""2282""
","
","","","","","","null","<div style=""font-size:60px;"">+</div>","null","","fixation","","","","","","","","","","",""
"aa-learning-trial","36","226002","0.0-8.0-2.0-1.5","5565","1","19","Female","approach_avoid_spark_v1","""event"",""trial"",""time""
""fullscreenenter"",""1"",""2282""
","
","
","""event"",""trial"",""time""
""fullscreenenter"",""1"",""2282""
","
","","","","","","756.8000000119209","images/racket4.png","","","learning","2","0","0","0","practice","practice","practice","-1","","",""
"html-keyboard-response","37","226521","0.0-8.0-2.0-0.6","5565","1","19","Female","approach_avoid_spark_v1","""event"",""trial"",""time""
""fullscreenenter"",""1"",""2282""
","
","
","""event"",""trial"",""time""
""fullscreenenter"",""1"",""2282""
","
","","","","","","null","<div style=""font-size:60px;"">+</div>","null","","fixation","","","","","","","","","","",""
"aa-learning-trial","38","229536","0.0-8.0-2.0-1.6","5565","1","19","Female","approach_avoid_spark_v1","""event"",""trial"",""time""
""fullscreenenter"",""1"",""2282""
","
","
","""event"",""trial"",""time""
""fullscreenenter"",""1"",""2282""
","
","","","","","","991.4000000357628","images/racket4.png","","","learning","4","0","0","0","practice","practice","practice","-1","","",""
"html-keyboard-response","39","230037","0.0-8.0-2.0-0.7","5565","1","19","Female","approach_avoid_spark_v1","""event"",""trial"",""time""
""fullscreenenter"",""1"",""2282""
","
","
","""event"",""trial"",""time""
""fullscreenenter"",""1"",""2282""
","
","","","","","","null","<div style=""font-size:60px;"">+</div>","null","","fixation","","","","","","","","","","",""
"aa-learning-trial","40","233043","0.0-8.0-2.0-1.7","5565","1","19","Female","approach_avoid_spark_v1","""event"",""trial"",""time""
""fullscreenenter"",""1"",""2282""
","
","
","""event"",""trial"",""time""
""fullscreenenter"",""1"",""2282""
","
","","","","","","990.9000000357628","images/ball2.png","","","learning","-1","0","0","0","practice","practice","practice","-1","","",""
"html-keyboard-response","41","233548","0.0-8.0-2.0-0.8","5565","1","19","Female","approach_avoid_spark_v1","""event"",""trial"",""time""
""fullscreenenter"",""1"",""2282""
","
","
","""event"",""trial"",""time""
""fullscreenenter"",""1"",""2282""
","
","","","","","","null","<div style=""font-size:60px;"">+</div>","null","","fixation","","","","","","","","","","",""
"aa-learning-trial","42","236555","0.0-8.0-2.0-1.8","5565","1","19","Female","approach_avoid_spark_v1","""event"",""trial"",""time""
""fullscreenenter"",""1"",""2282""
","
","
","""event"",""trial"",""time""
""fullscreenenter"",""1"",""2282""
","
","","","","","","1016.6999999880791","images/racket2.png","","","learning","-4","0","0","0","practice","practice","practice","-1","","",""
"html-keyboard-response","43","237060","0.0-8.0-2.0-0.9","5565","1","19","Female","approach_avoid_spark_v1","""event"",""trial"",""time""
""fullscreenenter"",""1"",""2282""
","
","
","""event"",""trial"",""time""
""fullscreenenter"",""1"",""2282""
","
","","","","","","null","<div style=""font-size:60px;"">+</div>","null","","fixation","","","","","","","","","","",""
"aa-learning-trial","44","240068","0.0-8.0-2.0-1.9","5565","1","19","Female","approach_avoid_spark_v1","""event"",""trial"",""time""
""fullscreenenter"",""1"",""2282""
","
","
","""event"",""trial"",""time""
""fullscreenenter"",""1"",""2282""
","
","","","","","","757.5","images/ball2.png","","","learning","1","0","0","0","practice","practice","practice","-1","","",""
"html-keyboard-response","45","240572","0.0-8.0-2.0-0.10","5565","1","19","Female","approach_avoid_spark_v1","""event"",""trial"",""time""
""fullscreenenter"",""1"",""2282""
","
","
","""event"",""trial"",""time""
""fullscreenenter"",""1"",""2282""
","
","","","","","","null","<div style=""font-size:60px;"">+</div>","null","","fixation","","","","","","","","","","",""
"aa-learning-trial","46","243579","0.0-8.0-2.0-1.10","5565","1","19","Female","approach_avoid_spark_v1","""event"",""trial"",""time""
""fullscreenenter"",""1"",""2282""
","
","
","""event"",""trial"",""time""
""fullscreenenter"",""1"",""2282""
","
","","","","","","942.6000000238419","images/ball3.png","","","learning","8","8","1","1","practice","practice","practice","-1","","",""
"html-keyboard-response","47","244084","0.0-8.0-2.0-0.11","5565","1","19","Female","approach_avoid_spark_v1","""event"",""trial"",""time""
""fullscreenenter"",""1"",""2282""
","
","
","""event"",""trial"",""time""
""fullscreenenter"",""1"",""2282""
","
","","","","","","null","<div style=""font-size:60px;"">+</div>","null","","fixation","","","","","","","","","","",""
"aa-learning-trial","48","247091","0.0-8.0-2.0-1.11","5565","1","19","Female","approach_avoid_spark_v1","""event"",""trial"",""time""
""fullscreenenter"",""1"",""2282""
","
","
","""event"",""trial"",""time""
""fullscreenenter"",""1"",""2282""
","
","","","","","","1188.2999999523163","images/racket1.png","","","learning","5","5","1","1","practice","practice","practice","-1","","",""
"html-button-response","49","249329","0.0-8.0-3.0","5565","1","19","Female","approach_avoid_spark_v1","""event"",""trial"",""time""
""fullscreenenter"",""1"",""2282""
","
","
","""event"",""trial"",""time""
""fullscreenenter"",""1"",""2282""
","
","","","","","","2235.100000023842","<p> You earned -4 points in the practice round! </p>","0","","break","","","","","","","","","","",""
"learning-instructions","50","266107","0.0-8.0-4.0-0.0","5565","1","19","Female","approach_avoid_spark_v1","""event"",""trial"",""time""
""fullscreenenter"",""1"",""2282""
","
","
","""event"",""trial"",""time""
""fullscreenenter"",""1"",""2282""
","
","","","","","","10527.100000023842","<p> It's almost time to start the real game. </p><p> Before you start, we're going to ask you a few questions about how the game works. </p>","","0","instructions","","","","","","","","","","",""
"preload","51","267779","0.0-8.0-5.0","5565","1","19","Female","approach_avoid_spark_v1","""event"",""trial"",""time""
""fullscreenenter"",""1"",""2282""
","
","
","""event"",""trial"",""time""
""fullscreenenter"",""1"",""2282""
","
","true","false","[]","[]","[]","","","","","","","","","","","","","","","",""
"comp-q","52","273674","0.0-8.0-6.0-0.0","5565","1","19","Female","approach_avoid_spark_v1","""event"",""trial"",""time""
""fullscreenenter"",""1"",""2282""
","
","
","""event"",""trial"",""time""
""fullscreenenter"",""1"",""2282""
","
","","","","","","893.7000000476837","<p> <b> True or False? </b> </p><p> If you see a number in GREY, that means you earned that many points. </p>","","1","comp_question","","","","","","","","","true","",""
"comp-q","53","282884","0.0-8.0-6.0-1.0","5565","1","19","Female","approach_avoid_spark_v1","""event"",""trial"",""time""
""fullscreenenter"",""1"",""2282""
","
","
","""event"",""trial"",""time""
""fullscreenenter"",""1"",""2282""
","
","","","","","","834.8999999761581","<p><b> That's right! </b> If you see a grey number, it means you earned ZERO points. <br> The grey numbers show the points you WOULD HAVE earned if you had made the other choice. </p>","","0","comp_answer","","","","","","","","","","",""
"comp-q","54","288087","0.0-8.0-7.0-0.0","5565","1","19","Female","approach_avoid_spark_v1","""event"",""trial"",""time""
""fullscreenenter"",""1"",""2282""
","
","
","""event"",""trial"",""time""
""fullscreenenter"",""1"",""2282""
","
","","","","","","498.30000001192093","<p> <b> True or False? </b> </p><p> You will have as much time as you want to make each choice. </p>","","1","comp_question","","","","","","","","","true","",""
"comp-q","55","292549","0.0-8.0-7.0-1.0","5565","1","19","Female","approach_avoid_spark_v1","""event"",""trial"",""time""
""fullscreenenter"",""1"",""2282""
","
","
","""event"",""trial"",""time""
""fullscreenenter"",""1"",""2282""
","
","","","","","","420.10000002384186","<p> <b> That's right! </b> You will only have 3 seconds to make each choice. </p>","","0","comp_answer","","","","","","","","","","",""
"comp-q","56","297751","0.0-8.0-8.0-0.0","5565","1","19","Female","approach_avoid_spark_v1","""event"",""trial"",""time""
""fullscreenenter"",""1"",""2282""
","
","
","""event"",""trial"",""time""
""fullscreenenter"",""1"",""2282""
","
","","","","","","532","<p> <b> True or False? </b> </p><p> You should use the '1' and '0' keys to make your choices. </p>","","0","comp_question","","","","","","","","","true","",""
"comp-q","57","302835","0.0-8.0-8.0-1.0","5565","1","19","Female","approach_avoid_spark_v1","""event"",""trial"",""time""
""fullscreenenter"",""1"",""2282""
","
","
","""event"",""trial"",""time""
""fullscreenenter"",""1"",""2282""
","
","","","","","","466.10000002384186","<p> <b> That's right! </b> You should use the '1' and '0' keys to make each choice. </p>","","0","comp_answer","","","","","","","","","","",""
"learning-instructions","58","310547","0.0-8.0-9.0-0.0","5565","1","19","Female","approach_avoid_spark_v1","""event"",""trial"",""time""
""fullscreenenter"",""1"",""2282""
","
","
","""event"",""trial"",""time""
""fullscreenenter"",""1"",""2282""
","
","","","","","","1428.300000011921","<p> It's now time to start the real game. </p>Do your best, because the points you earn in the next rounds will influence your bonus payment. </p>","","0","instructions","","","","","","","","","","",""
"preload","59","310666","0.0-9.0-0.0","5565","1","19","Female","approach_avoid_spark_v1","""event"",""trial"",""time""
""fullscreenenter"",""1"",""2282""
","
","
","""event"",""trial"",""time""
""fullscreenenter"",""1"",""2282""
","
","true","false","[]","[]","[]","","","","","","","","","","","","","","","",""
"learning-instructions","60","317091","0.0-9.0-1.0-0.0","5565","1","19","Female","approach_avoid_spark_v1","""event"",""trial"",""time""
""fullscreenenter"",""1"",""2282""
","
","
","""event"",""trial"",""time""
""fullscreenenter"",""1"",""2282""
","
","","","","","","1122.0999999642372","<p> Your goal in this round is to take your friend for rides in different vehicles. </p></div>","","0","instructions","","","","","","","","","","",""
"learning-instructions","61","327829","0.0-9.0-1.0-0.1","5565","1","19","Female","approach_avoid_spark_v1","""event"",""trial"",""time""
""fullscreenenter"",""1"",""2282""
","
","
","""event"",""trial"",""time""
""fullscreenenter"",""1"",""2282""
","
","","","","","","549.9000000357628","<p> Your friend enjoys riding in some vehicles but not in others.  </p><p> On each turn, you will see a vehicle.   </p><p> You need to decide whether to take your friend for a ride or not.  </p>","","0","instructions","","","","","","","","","","",""
"learning-instructions","62","336670","0.0-9.0-1.0-0.2","5565","1","19","Female","approach_avoid_spark_v1","""event"",""trial"",""time""
""fullscreenenter"",""1"",""2282""
","
","
","""event"",""trial"",""time""
""fullscreenenter"",""1"",""2282""
","
","","","","","","2140.100000023842","<p> You can take your friend for a ride in the vehicle by pressing 1 and skip the ride by pressing 0. </p><br><div class=""choice-instructions-grid""> <div class=""choice-option""><img src=""images/approach.png"" class=""choice-option-img"" stage=""instructions"" position=""0"" ><div class=""choice-option-text""> Press ""1."" </div></div><div class=""choice-option""><img src=""images/avoid.png"" class=""choice-option-img"" stage=""instructions"" position=""1"" ><div class=""choice-option-text""> Press ""0."" </div></div>","","0","instructions","","","","","","","","","","",""
"learning-instructions","63","346347","0.0-9.0-1.0-0.3","5565","1","19","Female","approach_avoid_spark_v1","""event"",""trial"",""time""
""fullscreenenter"",""1"",""2282""
","
","
","""event"",""trial"",""time""
""fullscreenenter"",""1"",""2282""
","
","","","","","","537.5","<p> If you take them for a ride in a vehicle they like, they will be thrilled! </p><p> But if you take them for a ride in a vehicle they do not like, they will be upset. </p>","","0","instructions","","","","","","","","","","",""
"learning-instructions","64","358890","0.0-9.0-1.0-0.4","5565","1","19","Female","approach_avoid_spark_v1","""event"",""trial"",""time""
""fullscreenenter"",""1"",""2282""
","
","
","""event"",""trial"",""time""
""fullscreenenter"",""1"",""2282""
","
","","","","","","541","<p> You will earn points based on how you made your friend feel. </p><p> If you made him thrilled, you will WIN anywhere from 1 - 9 points, </p><p> but if you made him upset, you will LOSE anywhere from 1 - 9 points. </p>","","0","instructions","","","","","","","","","","",""
"learning-instructions","65","367068","0.0-9.0-1.0-0.5","5565","1","19","Female","approach_avoid_spark_v1","""event"",""trial"",""time""
""fullscreenenter"",""1"",""2282""
","
","
","""event"",""trial"",""time""
""fullscreenenter"",""1"",""2282""
","
","","","","","","508.19999998807907","<p> You will see how many points you won or lost in the center of the screen. </p><p> Here is what you would see if you won 5 points: </p><p style=""color:green;font-size:50px;font-weight:bolder"">5</p>","","0","instructions","","","","","","","","","","",""
"learning-instructions","66","371035","0.0-9.0-1.0-0.6","5565","1","19","Female","approach_avoid_spark_v1","""event"",""trial"",""time""
""fullscreenenter"",""1"",""2282""
","
","
","""event"",""trial"",""time""
""fullscreenenter"",""1"",""2282""
","
","","","","","","436","<p> And here is what you would see if you lost 3 points: </p><p style=""color:red;font-size:50px;font-weight:bolder"">-3</p>","","0","instructions","","","","","","","","","","",""
"learning-instructions","67","387814","0.0-9.0-1.0-0.7","5565","1","19","Female","approach_avoid_spark_v1","""event"",""trial"",""time""
""fullscreenenter"",""1"",""2282""
","
","
","""event"",""trial"",""time""
""fullscreenenter"",""1"",""2282""
","
","","","","","","1235.199999988079","<p> Some vehicles will make your friend REALLY thrilled or upset. </p><p> These vehicles will make you win or lose LOTS of points. </p><p> Other vehicles will only make him feel a little thrilled or upset. </p><p> These vehicles will make you win or lose small amounts of points. </p>","","0","instructions","","","","","","","","","","",""
"learning-instructions","68","401048","0.0-9.0-1.0-0.8","5565","1","19","Female","approach_avoid_spark_v1","""event"",""trial"",""time""
""fullscreenenter"",""1"",""2282""
","
","
","""event"",""trial"",""time""
""fullscreenenter"",""1"",""2282""
","
","","","","","","1148.800000011921","<p> If you choose to skip the ride, you will not win or lose any points. </p><p>  However, in the center of the screen, you will see the number of points you WOULD HAVE won or lost if you had taken your friend for a ride. </p>","","0","instructions","","","","","","","","","","",""
"learning-instructions","69","413115","0.0-9.0-1.0-0.9","5565","1","19","Female","approach_avoid_spark_v1","""event"",""trial"",""time""
""fullscreenenter"",""1"",""2282""
","
","
","""event"",""trial"",""time""
""fullscreenenter"",""1"",""2282""
","
","","","","","","1035.199999988079","<p> Here is what you might see if you did not take your friend for a ride but he would have enjoyed it: </p><p style=""color:grey; font-size:50px; display: inline-block; border-spacing: 15px; border-width:3px; border-style:solid; border-color:red"">  &nbsp; 6 &nbsp; </p><p> Remember, in this case, you would not win or lose ANY points because you skipped the ride.  </p>","","0","instructions","","","","","","","","","","",""
"learning-instructions","70","422009","0.0-9.0-1.0-0.10","5565","1","19","Female","approach_avoid_spark_v1","""event"",""trial"",""time""
""fullscreenenter"",""1"",""2282""
","
","
","""event"",""trial"",""time""
""fullscreenenter"",""1"",""2282""
","
","","","","","","1049.3999999761581","<p> Try to make the best choice for each vehicle because </p><p> at the end of the game, you will earn bonus money based on how many points you earned. </p>","","0","instructions","","","","","","","","","","",""
"learning-instructions","71","431141","0.0-9.0-1.0-0.11","5565","1","19","Female","approach_avoid_spark_v1","""event"",""trial"",""time""
""fullscreenenter"",""1"",""2282""
","
","
","""event"",""trial"",""time""
""fullscreenenter"",""1"",""2282""
","
","","","","","","941.8999999761581","<p> You will have 3 seconds to make each choice. Try to respond before time runs out! </p><p> You will lose 5 points each time you do not make a response. </p>","","0","instructions","","","","","","","","","","",""
"html-keyboard-response","72","431759","0.0-9.0-2.0-0.0","5565","1","19","Female","approach_avoid_spark_v1","""event"",""trial"",""time""
""fullscreenenter"",""1"",""2282""
","
","
","""event"",""trial"",""time""
""fullscreenenter"",""1"",""2282""
","
","","","","","","null","<div style=""font-size:60px;"">+</div>","null","","fixation","","","","","","","","","","",""
"aa-learning-trial","73","434779","0.0-9.0-2.0-1.0","5565","1","19","Female","approach_avoid_spark_v1","""event"",""trial"",""time""
""fullscreenenter"",""1"",""2282""
","
","
","""event"",""trial"",""time""
""fullscreenenter"",""1"",""2282""
","
","","","","","","1053.5","images/boat2.png","","","learning","3","3","1","1","boat","vehicles","1","0","","good","[3]"
"html-keyboard-response","74","435292","0.0-9.0-2.0-0.1","5565","1","19","Female","approach_avoid_spark_v1","""event"",""trial"",""time""
""fullscreenenter"",""1"",""2282""
","
","
","""event"",""trial"",""time""
""fullscreenenter"",""1"",""2282""
","
","","","","","","null","<div style=""font-size:60px;"">+</div>","null","","fixation","","","","","","","","","","",""
"aa-learning-trial","75","438309","0.0-9.0-2.0-1.1","5565","1","19","Female","approach_avoid_spark_v1","""event"",""trial"",""time""
""fullscreenenter"",""1"",""2282""
","
","
","""event"",""trial"",""time""
""fullscreenenter"",""1"",""2282""
","
","","","","","","523.0999999642372","images/boat4.png","","","learning","2","2","1","1","boat","vehicles","1","0","","good","[3]"
"html-keyboard-response","76","438822","0.0-9.0-2.0-0.2","5565","1","19","Female","approach_avoid_spark_v1","""event"",""trial"",""time""
""fullscreenenter"",""1"",""2282""
","
","
","""event"",""trial"",""time""
""fullscreenenter"",""1"",""2282""
","
","","","","","","null","<div style=""font-size:60px;"">+</div>","null","","fixation","","","","","","","","","","",""
"aa-learning-trial","77","441838","0.0-9.0-2.0-1.2","5565","1","19","Female","approach_avoid_spark_v1","""event"",""trial"",""time""
""fullscreenenter"",""1"",""2282""
","
","
","""event"",""trial"",""time""
""fullscreenenter"",""1"",""2282""
","
","","","","","","596.1000000238419","images/boat6.png","","","learning","3","3","1","1","boat","vehicles","1","0","","good","[3]"
"html-keyboard-response","78","442353","0.0-9.0-2.0-0.3","5565","1","19","Female","approach_avoid_spark_v1","""event"",""trial"",""time""
""fullscreenenter"",""1"",""2282""
","
","
","""event"",""trial"",""time""
""fullscreenenter"",""1"",""2282""
","
","","","","","","null","<div style=""font-size:60px;"">+</div>","null","","fixation","","","","","","","","","","",""
"aa-learning-trial","79","445357","0.0-9.0-2.0-1.3","5565","1","19","Female","approach_avoid_spark_v1","""event"",""trial"",""time""
""fullscreenenter"",""1"",""2282""
","
","
","""event"",""trial"",""time""
""fullscreenenter"",""1"",""2282""
","
","","","","","","952.3999999761581","images/plane2.png","","","learning","-2","-2","1","1","plane","vehicles","1","0","","neutral","0"
"html-keyboard-response","80","445870","0.0-9.0-2.0-0.4","5565","1","19","Female","approach_avoid_spark_v1","""event"",""trial"",""time""
""fullscreenenter"",""1"",""2282""
","
","
","""event"",""trial"",""time""
""fullscreenenter"",""1"",""2282""
","
","","","","","","null","<div style=""font-size:60px;"">+</div>","null","","fixation","","","","","","","","","","",""
"aa-learning-trial","81","448890","0.0-9.0-2.0-1.4","5565","1","19","Female","approach_avoid_spark_v1","""event"",""trial"",""time""
""fullscreenenter"",""1"",""2282""
","
","
","""event"",""trial"",""time""
""fullscreenenter"",""1"",""2282""
","
","","","","","","767.7000000476837","images/train3.png","","","learning","-3","-3","1","1","train","vehicles","1","0","","bad","[-6]"
"html-keyboard-response","82","449403","0.0-9.0-2.0-0.5","5565","1","19","Female","approach_avoid_spark_v1","""event"",""trial"",""time""
""fullscreenenter"",""1"",""2282""
","
","
","""event"",""trial"",""time""
""fullscreenenter"",""1"",""2282""
","
","","","","","","null","<div style=""font-size:60px;"">+</div>","null","","fixation","","","","","","","","","","",""
"aa-learning-trial","83","452412","0.0-9.0-2.0-1.5","5565","1","19","Female","approach_avoid_spark_v1","""event"",""trial"",""time""
""fullscreenenter"",""1"",""2282""
","
","
","""event"",""trial"",""time""
""fullscreenenter"",""1"",""2282""
","
","","","","","","1410.0999999642372","images/plane7.png","","","learning","1","1","1","1","plane","vehicles","1","0","","neutral","0"
"html-keyboard-response","84","452918","0.0-9.0-2.0-0.6","5565","1","19","Female","approach_avoid_spark_v1","""event"",""trial"",""time""
""fullscreenenter"",""1"",""2282""
","
","
","""event"",""trial"",""time""
""fullscreenenter"",""1"",""2282""
","
","","","","","","null","<div style=""font-size:60px;"">+</div>","null","","fixation","","","","","","","","","","",""
"aa-learning-trial","85","455925","0.0-9.0-2.0-1.6","5565","1","19","Female","approach_avoid_spark_v1","""event"",""trial"",""time""
""fullscreenenter"",""1"",""2282""
","
","
","""event"",""trial"",""time""
""fullscreenenter"",""1"",""2282""
","
","","","","","","778.4000000357628","images/plane5.png","","","learning","1","1","1","1","plane","vehicles","1","0","","neutral","0"
"html-keyboard-response","86","456442","0.0-9.0-2.0-0.7","5565","1","19","Female","approach_avoid_spark_v1","""event"",""trial"",""time""
""fullscreenenter"",""1"",""2282""
","
","
","""event"",""trial"",""time""
""fullscreenenter"",""1"",""2282""
","
","","","","","","null","<div style=""font-size:60px;"">+</div>","null","","fixation","","","","","","","","","","",""
"aa-learning-trial","87","459447","0.0-9.0-2.0-1.7","5565","1","19","Female","approach_avoid_spark_v1","""event"",""trial"",""time""
""fullscreenenter"",""1"",""2282""
","
","
","""event"",""trial"",""time""
""fullscreenenter"",""1"",""2282""
","
","","","","","","1502.800000011921","images/boat2.png","","","learning","2","2","1","1","boat","vehicles","1","0","","good","[3]"
"html-keyboard-response","88","459961","0.0-9.0-2.0-0.8","5565","1","19","Female","approach_avoid_spark_v1","""event"",""trial"",""time""
""fullscreenenter"",""1"",""2282""
","
","
","""event"",""trial"",""time""
""fullscreenenter"",""1"",""2282""
","
","","","","","","null","<div style=""font-size:60px;"">+</div>","null","","fixation","","","","","","","","","","",""
"aa-learning-trial","89","462964","0.0-9.0-2.0-1.8","5565","1","19","Female","approach_avoid_spark_v1","""event"",""trial"",""time""
""fullscreenenter"",""1"",""2282""
","
","
","""event"",""trial"",""time""
""fullscreenenter"",""1"",""2282""
","
","","","","","","698.6000000238419","images/train6.png","","","learning","-5","0","0","0","train","vehicles","1","0","","bad","[-6]"
"html-keyboard-response","90","463468","0.0-9.0-2.0-0.9","5565","1","19","Female","approach_avoid_spark_v1","""event"",""trial"",""time""
""fullscreenenter"",""1"",""2282""
","
","
","""event"",""trial"",""time""
""fullscreenenter"",""1"",""2282""
","
","","","","","","null","<div style=""font-size:60px;"">+</div>","null","","fixation","","","","","","","","","","",""
"aa-learning-trial","91","466476","0.0-9.0-2.0-1.9","5565","1","19","Female","approach_avoid_spark_v1","""event"",""trial"",""time""
""fullscreenenter"",""1"",""2282""
","
","
","""event"",""trial"",""time""
""fullscreenenter"",""1"",""2282""
","
","","","","","","1740.6000000238419","images/train5.png","","","learning","-7","-7","1","1","train","vehicles","1","0","","bad","[-6]"
"html-keyboard-response","92","466979","0.0-9.0-2.0-0.10","5565","1","19","Female","approach_avoid_spark_v1","""event"",""trial"",""time""
""fullscreenenter"",""1"",""2282""
","
","
","""event"",""trial"",""time""
""fullscreenenter"",""1"",""2282""
","
","","","","","","null","<div style=""font-size:60px;"">+</div>","null","","fixation","","","","","","","","","","",""
"aa-learning-trial","93","469987","0.0-9.0-2.0-1.10","5565","1","19","Female","approach_avoid_spark_v1","""event"",""trial"",""time""
""fullscreenenter"",""1"",""2282""
","
","
","""event"",""trial"",""time""
""fullscreenenter"",""1"",""2282""
","
","","","","","","1022.3000000119209","images/train6.png","","","learning","-9","0","0","0","train","vehicles","1","0","","bad","[-6]"
"html-keyboard-response","94","470492","0.0-9.0-2.0-0.11","5565","1","19","Female","approach_avoid_spark_v1","""event"",""trial"",""time""
""fullscreenenter"",""1"",""2282""
","
","
","""event"",""trial"",""time""
""fullscreenenter"",""1"",""2282""
","
","","","","","","null","<div style=""font-size:60px;"">+</div>","null","","fixation","","","","","","","","","","",""
"aa-learning-trial","95","473500","0.0-9.0-2.0-1.11","5565","1","19","Female","approach_avoid_spark_v1","""event"",""trial"",""time""
""fullscreenenter"",""1"",""2282""
","
","
","""event"",""trial"",""time""
""fullscreenenter"",""1"",""2282""
","
","","","","","","1047.6000000238419","images/boat6.png","","","learning","4","4","1","1","boat","vehicles","1","0","","good","[3]"
"html-keyboard-response","96","474003","0.0-9.0-2.0-0.12","5565","1","19","Female","approach_avoid_spark_v1","""event"",""trial"",""time""
""fullscreenenter"",""1"",""2282""
","
","
","""event"",""trial"",""time""
""fullscreenenter"",""1"",""2282""
","
","","","","","","null","<div style=""font-size:60px;"">+</div>","null","","fixation","","","","","","","","","","",""
"aa-learning-trial","97","477012","0.0-9.0-2.0-1.12","5565","1","19","Female","approach_avoid_spark_v1","""event"",""trial"",""time""
""fullscreenenter"",""1"",""2282""
","
","
","""event"",""trial"",""time""
""fullscreenenter"",""1"",""2282""
","
","","","","","","858.6000000238419","images/train3.png","","","learning","-3","0","0","0","train","vehicles","1","0","","bad","[-6]"
"html-keyboard-response","98","477516","0.0-9.0-2.0-0.13","5565","1","19","Female","approach_avoid_spark_v1","""event"",""trial"",""time""
""fullscreenenter"",""1"",""2282""
","
","
","""event"",""trial"",""time""
""fullscreenenter"",""1"",""2282""
","
","","","","","","null","<div style=""font-size:60px;"">+</div>","null","","fixation","","","","","","","","","","",""
"aa-learning-trial","99","480524","0.0-9.0-2.0-1.13","5565","1","19","Female","approach_avoid_spark_v1","""event"",""trial"",""time""
""fullscreenenter"",""1"",""2282""
","
","
","""event"",""trial"",""time""
""fullscreenenter"",""1"",""2282""
","
","","","","","","1474.199999988079","images/plane5.png","","","learning","-1","-1","1","1","plane","vehicles","1","0","","neutral","0"
"html-keyboard-response","100","481027","0.0-9.0-2.0-0.14","5565","1","19","Female","approach_avoid_spark_v1","""event"",""trial"",""time""
""fullscreenenter"",""1"",""2282""
","
","
","""event"",""trial"",""time""
""fullscreenenter"",""1"",""2282""
","
","","","","","","null","<div style=""font-size:60px;"">+</div>","null","","fixation","","","","","","","","","","",""
"aa-learning-trial","101","484036","0.0-9.0-2.0-1.14","5565","1","19","Female","approach_avoid_spark_v1","""event"",""trial"",""time""
""fullscreenenter"",""1"",""2282""
","
","
","""event"",""trial"",""time""
""fullscreenenter"",""1"",""2282""
","
","","","","","","740.1999999880791","images/plane2.png","","","learning","1","0","0","0","plane","vehicles","1","0","","neutral","0"
"html-keyboard-response","102","484539","0.0-9.0-2.0-0.15","5565","1","19","Female","approach_avoid_spark_v1","""event"",""trial"",""time""
""fullscreenenter"",""1"",""2282""
","
","
","""event"",""trial"",""time""
""fullscreenenter"",""1"",""2282""
","
","","","","","","null","<div style=""font-size:60px;"">+</div>","null","","fixation","","","","","","","","","","",""
"aa-learning-trial","103","487548","0.0-9.0-2.0-1.15","5565","1","19","Female","approach_avoid_spark_v1","""event"",""trial"",""time""
""fullscreenenter"",""1"",""2282""
","
","
","""event"",""trial"",""time""
""fullscreenenter"",""1"",""2282""
","
","","","","","","984.6000000238419","images/plane6.png","","","learning","1","1","1","1","plane","vehicles","1","0","","neutral","0"
"html-keyboard-response","104","488052","0.0-9.0-2.0-0.16","5565","1","19","Female","approach_avoid_spark_v1","""event"",""trial"",""time""
""fullscreenenter"",""1"",""2282""
","
","
","""event"",""trial"",""time""
""fullscreenenter"",""1"",""2282""
","
","","","","","","null","<div style=""font-size:60px;"">+</div>","null","","fixation","","","","","","","","","","",""
"aa-learning-trial","105","491060","0.0-9.0-2.0-1.16","5565","1","19","Female","approach_avoid_spark_v1","""event"",""trial"",""time""
""fullscreenenter"",""1"",""2282""
","
","
","""event"",""trial"",""time""
""fullscreenenter"",""1"",""2282""
","
","","","","","","669.8000000119209","images/boat6.png","","","learning","2","2","1","1","boat","vehicles","1","0","","good","[3]"
"html-keyboard-response","106","491563","0.0-9.0-2.0-0.17","5565","1","19","Female","approach_avoid_spark_v1","""event"",""trial"",""time""
""fullscreenenter"",""1"",""2282""
","
","
","""event"",""trial"",""time""
""fullscreenenter"",""1"",""2282""
","
","","","","","","null","<div style=""font-size:60px;"">+</div>","null","","fixation","","","","","","","","","","",""
"aa-learning-trial","107","494571","0.0-9.0-2.0-1.17","5565","1","19","Female","approach_avoid_spark_v1","""event"",""trial"",""time""
""fullscreenenter"",""1"",""2282""
","
","
","""event"",""trial"",""time""
""fullscreenenter"",""1"",""2282""
","
","","","","","","1713.800000011921","images/plane5.png","","","learning","[-1]","-1","1","1","plane","vehicles","1","0","","neutral","0"
"html-keyboard-response","108","495075","0.0-9.0-2.0-0.18","5565","1","19","Female","approach_avoid_spark_v1","""event"",""trial"",""time""
""fullscreenenter"",""1"",""2282""
","
","
","""event"",""trial"",""time""
""fullscreenenter"",""1"",""2282""
","
","","","","","","null","<div style=""font-size:60px;"">+</div>","null","","fixation","","","","","","","","","","",""
"aa-learning-trial","109","498084","0.0-9.0-2.0-1.18","5565","1","19","Female","approach_avoid_spark_v1","""event"",""trial"",""time""
""fullscreenenter"",""1"",""2282""
","
","
","""event"",""trial"",""time""
""fullscreenenter"",""1"",""2282""
","
","","","","","","1072","images/plane7.png","","","learning","-2","-2","1","1","plane","vehicles","1","0","","neutral","0"
"html-keyboard-response","110","498589","0.0-9.0-2.0-0.19","5565","1","19","Female","approach_avoid_spark_v1","""event"",""trial"",""time""
""fullscreenenter"",""1"",""2282""
","
","
","""event"",""trial"",""time""
""fullscreenenter"",""1"",""2282""
","
","","","","","","null","<div style=""font-size:60px;"">+</div>","null","","fixation","","","","","","","","","","",""
"aa-learning-trial","111","501597","0.0-9.0-2.0-1.19","5565","1","19","Female","approach_avoid_spark_v1","""event"",""trial"",""time""
""fullscreenenter"",""1"",""2282""
","
","
","""event"",""trial"",""time""
""fullscreenenter"",""1"",""2282""
","
","","","","","","1145.699999988079","images/plane5.png","","","learning","1","0","0","0","plane","vehicles","1","0","","neutral","0"
"html-keyboard-response","112","502100","0.0-9.0-2.0-0.20","5565","1","19","Female","approach_avoid_spark_v1","""event"",""trial"",""time""
""fullscreenenter"",""1"",""2282""
","
","
","""event"",""trial"",""time""
""fullscreenenter"",""1"",""2282""
","
","","","","","","null","<div style=""font-size:60px;"">+</div>","null","","fixation","","","","","","","","","","",""
"aa-learning-trial","113","505109","0.0-9.0-2.0-1.20","5565","1","19","Female","approach_avoid_spark_v1","""event"",""trial"",""time""
""fullscreenenter"",""1"",""2282""
","
","
","""event"",""trial"",""time""
""fullscreenenter"",""1"",""2282""
","
","","","","","","521.0999999642372","images/train3.png","","","learning","-6","0","0","0","train","vehicles","1","0","","bad","[-6]"
"html-keyboard-response","114","505611","0.0-9.0-2.0-0.21","5565","1","19","Female","approach_avoid_spark_v1","""event"",""trial"",""time""
""fullscreenenter"",""1"",""2282""
","
","
","""event"",""trial"",""time""
""fullscreenenter"",""1"",""2282""
","
","","","","","","null","<div style=""font-size:60px;"">+</div>","null","","fixation","","","","","","","","","","",""
"aa-learning-trial","115","508620","0.0-9.0-2.0-1.21","5565","1","19","Female","approach_avoid_spark_v1","""event"",""trial"",""time""
""fullscreenenter"",""1"",""2282""
","
","
","""event"",""trial"",""time""
""fullscreenenter"",""1"",""2282""
","
","","","","","","598","images/train3.png","","","learning","-8","0","0","0","train","vehicles","1","0","","bad","[-6]"
"html-keyboard-response","116","509123","0.0-9.0-2.0-0.22","5565","1","19","Female","approach_avoid_spark_v1","""event"",""trial"",""time""
""fullscreenenter"",""1"",""2282""
","
","
","""event"",""trial"",""time""
""fullscreenenter"",""1"",""2282""
","
","","","","","","null","<div style=""font-size:60px;"">+</div>","null","","fixation","","","","","","","","","","",""
"aa-learning-trial","117","512132","0.0-9.0-2.0-1.22","5565","1","19","Female","approach_avoid_spark_v1","""event"",""trial"",""time""
""fullscreenenter"",""1"",""2282""
","
","
","""event"",""trial"",""time""
""fullscreenenter"",""1"",""2282""
","
","","","","","","610.6000000238419","images/plane2.png","","","learning","1","0","0","0","plane","vehicles","1","0","","neutral","0"
"html-keyboard-response","118","512635","0.0-9.0-2.0-0.23","5565","1","19","Female","approach_avoid_spark_v1","""event"",""trial"",""time""
""fullscreenenter"",""1"",""2282""
","
","
","""event"",""trial"",""time""
""fullscreenenter"",""1"",""2282""
","
","","","","","","null","<div style=""font-size:60px;"">+</div>","null","","fixation","","","","","","","","","","",""
"aa-learning-trial","119","515644","0.0-9.0-2.0-1.23","5565","1","19","Female","approach_avoid_spark_v1","""event"",""trial"",""time""
""fullscreenenter"",""1"",""2282""
","
","
","""event"",""trial"",""time""
""fullscreenenter"",""1"",""2282""
","
","","","","","","817.8000000119209","images/boat2.png","","","learning","2","2","1","1","boat","vehicles","1","0","","good","[3]"
"html-keyboard-response","120","516159","0.0-9.0-2.0-0.24","5565","1","19","Female","approach_avoid_spark_v1","""event"",""trial"",""time""
""fullscreenenter"",""1"",""2282""
","
","
","""event"",""trial"",""time""
""fullscreenenter"",""1"",""2282""
","
","","","","","","null","<div style=""font-size:60px;"">+</div>","null","","fixation","","","","","","","","","","",""
"aa-learning-trial","121","519164","0.0-9.0-2.0-1.24","5565","1","19","Female","approach_avoid_spark_v1","""event"",""trial"",""time""
""fullscreenenter"",""1"",""2282""
","
","
","""event"",""trial"",""time""
""fullscreenenter"",""1"",""2282""
","
","","","","","","1927.4000000357628","images/train2.png","","","learning","-8","-8","1","1","train","vehicles","1","0","","bad","[-6]"
"html-keyboard-response","122","519668","0.0-9.0-2.0-0.25","5565","1","19","Female","approach_avoid_spark_v1","""event"",""trial"",""time""
""fullscreenenter"",""1"",""2282""
","
","
","""event"",""trial"",""time""
""fullscreenenter"",""1"",""2282""
","
","","","","","","null","<div style=""font-size:60px;"">+</div>","null","","fixation","","","","","","","","","","",""
"aa-learning-trial","123","522676","0.0-9.0-2.0-1.25","5565","1","19","Female","approach_avoid_spark_v1","""event"",""trial"",""time""
""fullscreenenter"",""1"",""2282""
","
","
","""event"",""trial"",""time""
""fullscreenenter"",""1"",""2282""
","
","","","","","","672.0999999642372","images/train5.png","","","learning","-6","0","0","0","train","vehicles","1","0","","bad","[-6]"
"html-keyboard-response","124","523180","0.0-9.0-2.0-0.26","5565","1","19","Female","approach_avoid_spark_v1","""event"",""trial"",""time""
""fullscreenenter"",""1"",""2282""
","
","
","""event"",""trial"",""time""
""fullscreenenter"",""1"",""2282""
","
","","","","","","null","<div style=""font-size:60px;"">+</div>","null","","fixation","","","","","","","","","","",""
"aa-learning-trial","125","526188","0.0-9.0-2.0-1.26","5565","1","19","Female","approach_avoid_spark_v1","""event"",""trial"",""time""
""fullscreenenter"",""1"",""2282""
","
","
","""event"",""trial"",""time""
""fullscreenenter"",""1"",""2282""
","
","","","","","","829.8999999761581","images/boat4.png","","","learning","3","0","0","0","boat","vehicles","1","0","","good","[3]"
"html-keyboard-response","126","526692","0.0-9.0-2.0-0.27","5565","1","19","Female","approach_avoid_spark_v1","""event"",""trial"",""time""
""fullscreenenter"",""1"",""2282""
","
","
","""event"",""trial"",""time""
""fullscreenenter"",""1"",""2282""
","
","","","","","","null","<div style=""font-size:60px;"">+</div>","null","","fixation","","","","","","","","","","",""
"aa-learning-trial","127","529700","0.0-9.0-2.0-1.27","5565","1","19","Female","approach_avoid_spark_v1","""event"",""trial"",""time""
""fullscreenenter"",""1"",""2282""
","
","
","""event"",""trial"",""time""
""fullscreenenter"",""1"",""2282""
","
","","","","","","700.4000000357628","images/train6.png","","","learning","-6","0","0","0","train","vehicles","1","0","","bad","[-6]"
"html-keyboard-response","128","530204","0.0-9.0-2.0-0.28","5565","1","19","Female","approach_avoid_spark_v1","""event"",""trial"",""time""
""fullscreenenter"",""1"",""2282""
","
","
","""event"",""trial"",""time""
""fullscreenenter"",""1"",""2282""
","
","","","","","","null","<div style=""font-size:60px;"">+</div>","null","","fixation","","","","","","","","","","",""
"aa-learning-trial","129","533211","0.0-9.0-2.0-1.28","5565","1","19","Female","approach_avoid_spark_v1","""event"",""trial"",""time""
""fullscreenenter"",""1"",""2282""
","
","
","""event"",""trial"",""time""
""fullscreenenter"",""1"",""2282""
","
","","","","","","1465.199999988079","images/boat3.png","","","learning","1","1","1","1","boat","vehicles","1","0","","good","[3]"
"html-keyboard-response","130","533716","0.0-9.0-2.0-0.29","5565","1","19","Female","approach_avoid_spark_v1","""event"",""trial"",""time""
""fullscreenenter"",""1"",""2282""
","
","
","""event"",""trial"",""time""
""fullscreenenter"",""1"",""2282""
","
","","","","","","null","<div style=""font-size:60px;"">+</div>","null","","fixation","","","","","","","","","","",""
"aa-learning-trial","131","536723","0.0-9.0-2.0-1.29","5565","1","19","Female","approach_avoid_spark_v1","""event"",""trial"",""time""
""fullscreenenter"",""1"",""2282""
","
","
","""event"",""trial"",""time""
""fullscreenenter"",""1"",""2282""
","
","","","","","","699.8000000119209","images/train6.png","","","learning","-6","0","0","0","train","vehicles","1","0","","bad","[-6]"
"html-keyboard-response","132","537228","0.0-9.0-2.0-0.30","5565","1","19","Female","approach_avoid_spark_v1","""event"",""trial"",""time""
""fullscreenenter"",""1"",""2282""
","
","
","""event"",""trial"",""time""
""fullscreenenter"",""1"",""2282""
","
","","","","","","null","<div style=""font-size:60px;"">+</div>","null","","fixation","","","","","","","","","","",""
"aa-learning-trial","133","540236","0.0-9.0-2.0-1.30","5565","1","19","Female","approach_avoid_spark_v1","""event"",""trial"",""time""
""fullscreenenter"",""1"",""2282""
","
","
","""event"",""trial"",""time""
""fullscreenenter"",""1"",""2282""
","
","","","","","","1056.699999988079","images/plane5.png","","","learning","[1]","0","0","0","plane","vehicles","1","0","","neutral","0"
"html-keyboard-response","134","540739","0.0-9.0-2.0-0.31","5565","1","19","Female","approach_avoid_spark_v1","""event"",""trial"",""time""
""fullscreenenter"",""1"",""2282""
","
","
","""event"",""trial"",""time""
""fullscreenenter"",""1"",""2282""
","
","","","","","","null","<div style=""font-size:60px;"">+</div>","null","","fixation","","","","","","","","","","",""
"aa-learning-trial","135","543748","0.0-9.0-2.0-1.31","5565","1","19","Female","approach_avoid_spark_v1","""event"",""trial"",""time""
""fullscreenenter"",""1"",""2282""
","
","
","""event"",""trial"",""time""
""fullscreenenter"",""1"",""2282""
","
","","","","","","612.5999999642372","images/train3.png","","","learning","-9","0","0","0","train","vehicles","1","0","","bad","[-6]"
"html-keyboard-response","136","544252","0.0-9.0-2.0-0.32","5565","1","19","Female","approach_avoid_spark_v1","""event"",""trial"",""time""
""fullscreenenter"",""1"",""2282""
","
","
","""event"",""trial"",""time""
""fullscreenenter"",""1"",""2282""
","
","","","","","","null","<div style=""font-size:60px;"">+</div>","null","","fixation","","","","","","","","","","",""
"aa-learning-trial","137","547260","0.0-9.0-2.0-1.32","5565","1","19","Female","approach_avoid_spark_v1","""event"",""trial"",""time""
""fullscreenenter"",""1"",""2282""
","
","
","""event"",""trial"",""time""
""fullscreenenter"",""1"",""2282""
","
","","","","","","2372.100000023842","images/plane2.png","","","learning","1","1","1","1","plane","vehicles","1","0","","neutral","0"
"html-keyboard-response","138","547764","0.0-9.0-2.0-0.33","5565","1","19","Female","approach_avoid_spark_v1","""event"",""trial"",""time""
""fullscreenenter"",""1"",""2282""
","
","
","""event"",""trial"",""time""
""fullscreenenter"",""1"",""2282""
","
","","","","","","null","<div style=""font-size:60px;"">+</div>","null","","fixation","","","","","","","","","","",""
"aa-learning-trial","139","550772","0.0-9.0-2.0-1.33","5565","1","19","Female","approach_avoid_spark_v1","""event"",""trial"",""time""
""fullscreenenter"",""1"",""2282""
","
","
","""event"",""trial"",""time""
""fullscreenenter"",""1"",""2282""
","
","","","","","","1038.199999988079","images/boat2.png","","","learning","3","3","1","1","boat","vehicles","1","0","","good","[3]"
"html-keyboard-response","140","551276","0.0-9.0-2.0-0.34","5565","1","19","Female","approach_avoid_spark_v1","""event"",""trial"",""time""
""fullscreenenter"",""1"",""2282""
","
","
","""event"",""trial"",""time""
""fullscreenenter"",""1"",""2282""
","
","","","","","","null","<div style=""font-size:60px;"">+</div>","null","","fixation","","","","","","","","","","",""
"aa-learning-trial","141","554285","0.0-9.0-2.0-1.34","5565","1","19","Female","approach_avoid_spark_v1","""event"",""trial"",""time""
""fullscreenenter"",""1"",""2282""
","
","
","""event"",""trial"",""time""
""fullscreenenter"",""1"",""2282""
","
","","","","","","878.5","images/plane3.png","","","learning","1","1","1","1","plane","vehicles","1","0","","neutral","0"
"html-keyboard-response","142","554788","0.0-9.0-2.0-0.35","5565","1","19","Female","approach_avoid_spark_v1","""event"",""trial"",""time""
""fullscreenenter"",""1"",""2282""
","
","
","""event"",""trial"",""time""
""fullscreenenter"",""1"",""2282""
","
","","","","","","null","<div style=""font-size:60px;"">+</div>","null","","fixation","","","","","","","","","","",""
"aa-learning-trial","143","557796","0.0-9.0-2.0-1.35","5565","1","19","Female","approach_avoid_spark_v1","""event"",""trial"",""time""
""fullscreenenter"",""1"",""2282""
","
","
","""event"",""trial"",""time""
""fullscreenenter"",""1"",""2282""
","
","","","","","","708.8000000119209","images/train3.png","","","learning","-7","0","0","0","train","vehicles","1","0","","bad","[-6]"
"html-keyboard-response","144","558300","0.0-9.0-2.0-0.36","5565","1","19","Female","approach_avoid_spark_v1","""event"",""trial"",""time""
""fullscreenenter"",""1"",""2282""
","
","
","""event"",""trial"",""time""
""fullscreenenter"",""1"",""2282""
","
","","","","","","null","<div style=""font-size:60px;"">+</div>","null","","fixation","","","","","","","","","","",""
"aa-learning-trial","145","561308","0.0-9.0-2.0-1.36","5565","1","19","Female","approach_avoid_spark_v1","""event"",""trial"",""time""
""fullscreenenter"",""1"",""2282""
","
","
","""event"",""trial"",""time""
""fullscreenenter"",""1"",""2282""
","
","","","","","","646.3999999761581","images/train6.png","","","learning","-6","0","0","0","train","vehicles","1","0","","bad","[-6]"
"html-keyboard-response","146","561812","0.0-9.0-2.0-0.37","5565","1","19","Female","approach_avoid_spark_v1","""event"",""trial"",""time""
""fullscreenenter"",""1"",""2282""
","
","
","""event"",""trial"",""time""
""fullscreenenter"",""1"",""2282""
","
","","","","","","null","<div style=""font-size:60px;"">+</div>","null","","fixation","","","","","","","","","","",""
"aa-learning-trial","147","564820","0.0-9.0-2.0-1.37","5565","1","19","Female","approach_avoid_spark_v1","""event"",""trial"",""time""
""fullscreenenter"",""1"",""2282""
","
","
","""event"",""trial"",""time""
""fullscreenenter"",""1"",""2282""
","
","","","","","","897","images/boat6.png","","","learning","3","3","1","1","boat","vehicles","1","0","","good","[3]"
"html-keyboard-response","148","565323","0.0-9.0-2.0-0.38","5565","1","19","Female","approach_avoid_spark_v1","""event"",""trial"",""time""
""fullscreenenter"",""1"",""2282""
","
","
","""event"",""trial"",""time""
""fullscreenenter"",""1"",""2282""
","
","","","","","","null","<div style=""font-size:60px;"">+</div>","null","","fixation","","","","","","","","","","",""
"aa-learning-trial","149","568332","0.0-9.0-2.0-1.38","5565","1","19","Female","approach_avoid_spark_v1","""event"",""trial"",""time""
""fullscreenenter"",""1"",""2282""
","
","
","""event"",""trial"",""time""
""fullscreenenter"",""1"",""2282""
","
","","","","","","968.8000000119209","images/boat7.png","","","learning","4","4","1","1","boat","vehicles","1","0","","good","[3]"
"html-keyboard-response","150","568835","0.0-9.0-2.0-0.39","5565","1","19","Female","approach_avoid_spark_v1","""event"",""trial"",""time""
""fullscreenenter"",""1"",""2282""
","
","
","""event"",""trial"",""time""
""fullscreenenter"",""1"",""2282""
","
","","","","","","null","<div style=""font-size:60px;"">+</div>","null","","fixation","","","","","","","","","","",""
"aa-learning-trial","151","571845","0.0-9.0-2.0-1.39","5565","1","19","Female","approach_avoid_spark_v1","""event"",""trial"",""time""
""fullscreenenter"",""1"",""2282""
","
","
","""event"",""trial"",""time""
""fullscreenenter"",""1"",""2282""
","
","","","","","","1080.300000011921","images/plane7.png","","","learning","[1]","0","0","0","plane","vehicles","1","0","","neutral","0"
"html-keyboard-response","152","572348","0.0-9.0-2.0-0.40","5565","1","19","Female","approach_avoid_spark_v1","""event"",""trial"",""time""
""fullscreenenter"",""1"",""2282""
","
","
","""event"",""trial"",""time""
""fullscreenenter"",""1"",""2282""
","
","","","","","","null","<div style=""font-size:60px;"">+</div>","null","","fixation","","","","","","","","","","",""
"aa-learning-trial","153","575355","0.0-9.0-2.0-1.40","5565","1","19","Female","approach_avoid_spark_v1","""event"",""trial"",""time""
""fullscreenenter"",""1"",""2282""
","
","
","""event"",""trial"",""time""
""fullscreenenter"",""1"",""2282""
","
","","","","","","616.2999999523163","images/boat2.png","","","learning","3","3","1","1","boat","vehicles","1","0","","good","[3]"
"html-keyboard-response","154","575859","0.0-9.0-2.0-0.41","5565","1","19","Female","approach_avoid_spark_v1","""event"",""trial"",""time""
""fullscreenenter"",""1"",""2282""
","
","
","""event"",""trial"",""time""
""fullscreenenter"",""1"",""2282""
","
","","","","","","null","<div style=""font-size:60px;"">+</div>","null","","fixation","","","","","","","","","","",""
"aa-learning-trial","155","578868","0.0-9.0-2.0-1.41","5565","1","19","Female","approach_avoid_spark_v1","""event"",""trial"",""time""
""fullscreenenter"",""1"",""2282""
","
","
","""event"",""trial"",""time""
""fullscreenenter"",""1"",""2282""
","
","","","","","","933","images/plane2.png","","","learning","-1","-1","1","1","plane","vehicles","1","0","","neutral","0"
"html-keyboard-response","156","579372","0.0-9.0-2.0-0.42","5565","1","19","Female","approach_avoid_spark_v1","""event"",""trial"",""time""
""fullscreenenter"",""1"",""2282""
","
","
","""event"",""trial"",""time""
""fullscreenenter"",""1"",""2282""
","
","","","","","","null","<div style=""font-size:60px;"">+</div>","null","","fixation","","","","","","","","","","",""
"aa-learning-trial","157","582379","0.0-9.0-2.0-1.42","5565","1","19","Female","approach_avoid_spark_v1","""event"",""trial"",""time""
""fullscreenenter"",""1"",""2282""
","
","
","""event"",""trial"",""time""
""fullscreenenter"",""1"",""2282""
","
","","","","","","933.2000000476837","images/train1.png","","","learning","-7","0","0","0","train","vehicles","1","0","","bad","[-6]"
"html-keyboard-response","158","582883","0.0-9.0-2.0-0.43","5565","1","19","Female","approach_avoid_spark_v1","""event"",""trial"",""time""
""fullscreenenter"",""1"",""2282""
","
","
","""event"",""trial"",""time""
""fullscreenenter"",""1"",""2282""
","
","","","","","","null","<div style=""font-size:60px;"">+</div>","null","","fixation","","","","","","","","","","",""
"aa-learning-trial","159","585893","0.0-9.0-2.0-1.43","5565","1","19","Female","approach_avoid_spark_v1","""event"",""trial"",""time""
""fullscreenenter"",""1"",""2282""
","
","
","""event"",""trial"",""time""
""fullscreenenter"",""1"",""2282""
","
","","","","","","660.0999999642372","images/boat4.png","","","learning","2","2","1","1","boat","vehicles","1","0","","good","[3]"
"html-keyboard-response","160","586396","0.0-9.0-2.0-0.44","5565","1","19","Female","approach_avoid_spark_v1","""event"",""trial"",""time""
""fullscreenenter"",""1"",""2282""
","
","
","""event"",""trial"",""time""
""fullscreenenter"",""1"",""2282""
","
","","","","","","null","<div style=""font-size:60px;"">+</div>","null","","fixation","","","","","","","","","","",""
"aa-learning-trial","161","589404","0.0-9.0-2.0-1.44","5565","1","19","Female","approach_avoid_spark_v1","""event"",""trial"",""time""
""fullscreenenter"",""1"",""2282""
","
","
","""event"",""trial"",""time""
""fullscreenenter"",""1"",""2282""
","
","","","","","","796.8999999761581","images/plane2.png","","","learning","[1]","1","1","1","plane","vehicles","1","0","","neutral","0"
"html-keyboard-response","162","589908","0.0-9.0-2.0-0.45","5565","1","19","Female","approach_avoid_spark_v1","""event"",""trial"",""time""
""fullscreenenter"",""1"",""2282""
","
","
","""event"",""trial"",""time""
""fullscreenenter"",""1"",""2282""
","
","","","","","","null","<div style=""font-size:60px;"">+</div>","null","","fixation","","","","","","","","","","",""
"aa-learning-trial","163","592916","0.0-9.0-2.0-1.45","5565","1","19","Female","approach_avoid_spark_v1","""event"",""trial"",""time""
""fullscreenenter"",""1"",""2282""
","
","
","""event"",""trial"",""time""
""fullscreenenter"",""1"",""2282""
","
","","","","","","737.8000000119209","images/train6.png","","","learning","-6","0","0","0","train","vehicles","1","0","","bad","[-6]"
"html-keyboard-response","164","593420","0.0-9.0-2.0-0.46","5565","1","19","Female","approach_avoid_spark_v1","""event"",""trial"",""time""
""fullscreenenter"",""1"",""2282""
","
","
","""event"",""trial"",""time""
""fullscreenenter"",""1"",""2282""
","
","","","","","","null","<div style=""font-size:60px;"">+</div>","null","","fixation","","","","","","","","","","",""
"aa-learning-trial","165","596428","0.0-9.0-2.0-1.46","5565","1","19","Female","approach_avoid_spark_v1","""event"",""trial"",""time""
""fullscreenenter"",""1"",""2282""
","
","
","""event"",""trial"",""time""
""fullscreenenter"",""1"",""2282""
","
","","","","","","711","images/boat6.png","","","learning","5","5","1","1","boat","vehicles","1","0","","good","[3]"
"html-keyboard-response","166","596932","0.0-9.0-2.0-0.47","5565","1","19","Female","approach_avoid_spark_v1","""event"",""trial"",""time""
""fullscreenenter"",""1"",""2282""
","
","
","""event"",""trial"",""time""
""fullscreenenter"",""1"",""2282""
","
","","","","","","null","<div style=""font-size:60px;"">+</div>","null","","fixation","","","","","","","","","","",""
"aa-learning-trial","167","599940","0.0-9.0-2.0-1.47","5565","1","19","Female","approach_avoid_spark_v1","""event"",""trial"",""time""
""fullscreenenter"",""1"",""2282""
","
","
","""event"",""trial"",""time""
""fullscreenenter"",""1"",""2282""
","
","","","","","","534.6000000238419","images/boat2.png","","","learning","2","2","1","1","boat","vehicles","1","0","","good","[3]"
"html-keyboard-response","168","600444","0.0-9.0-2.0-0.48","5565","1","19","Female","approach_avoid_spark_v1","""event"",""trial"",""time""
""fullscreenenter"",""1"",""2282""
","
","
","""event"",""trial"",""time""
""fullscreenenter"",""1"",""2282""
","
","","","","","","null","<div style=""font-size:60px;"">+</div>","null","","fixation","","","","","","","","","","",""
"aa-learning-trial","169","603452","0.0-9.0-2.0-1.48","5565","1","19","Female","approach_avoid_spark_v1","""event"",""trial"",""time""
""fullscreenenter"",""1"",""2282""
","
","
","""event"",""trial"",""time""
""fullscreenenter"",""1"",""2282""
","
","","","","","","989.2999999523163","images/plane5.png","","","learning","2","2","1","1","plane","vehicles","1","0","","neutral","0"
"html-keyboard-response","170","603956","0.0-9.0-2.0-0.49","5565","1","19","Female","approach_avoid_spark_v1","""event"",""trial"",""time""
""fullscreenenter"",""1"",""2282""
","
","
","""event"",""trial"",""time""
""fullscreenenter"",""1"",""2282""
","
","","","","","","null","<div style=""font-size:60px;"">+</div>","null","","fixation","","","","","","","","","","",""
"aa-learning-trial","171","606964","0.0-9.0-2.0-1.49","5565","1","19","Female","approach_avoid_spark_v1","""event"",""trial"",""time""
""fullscreenenter"",""1"",""2282""
","
","
","""event"",""trial"",""time""
""fullscreenenter"",""1"",""2282""
","
","","","","","","633.5","images/boat6.png","","","learning","1","1","1","1","boat","vehicles","1","0","","good","[3]"
"html-keyboard-response","172","607468","0.0-9.0-2.0-0.50","5565","1","19","Female","approach_avoid_spark_v1","""event"",""trial"",""time""
""fullscreenenter"",""1"",""2282""
","
","
","""event"",""trial"",""time""
""fullscreenenter"",""1"",""2282""
","
","","","","","","null","<div style=""font-size:60px;"">+</div>","null","","fixation","","","","","","","","","","",""
"aa-learning-trial","173","610476","0.0-9.0-2.0-1.50","5565","1","19","Female","approach_avoid_spark_v1","""event"",""trial"",""time""
""fullscreenenter"",""1"",""2282""
","
","
","""event"",""trial"",""time""
""fullscreenenter"",""1"",""2282""
","
","","","","","","604.5","images/train5.png","","","learning","-6","0","0","0","train","vehicles","1","0","","bad","[-6]"
"html-button-response","174","612410","0.0-9.0-3.0","5565","1","19","Female","approach_avoid_spark_v1","""event"",""trial"",""time""
""fullscreenenter"",""1"",""2282""
","
","
","""event"",""trial"",""time""
""fullscreenenter"",""1"",""2282""
","
","","","","","","1932.3999999761581","<p> You have completed the round! <p> In this round, you earned 25 points! </p>","0","","break","","","","","","","","","","",""
"html-button-response","175","613429","0.0-10.0","5565","1","19","Female","approach_avoid_spark_v1","""event"",""trial"",""time""
""fullscreenenter"",""1"",""2282""
","
","
","""event"",""trial"",""time""
""fullscreenenter"",""1"",""2282""
","
","","","","","","1015.6999999880791","<p> Now it's time to play another round. </p>","0","","transition_screen","","","","","","","","","","",""
"preload","176","614487","0.0-11.0-0.0","5565","1","19","Female","approach_avoid_spark_v1","""event"",""trial"",""time""
""fullscreenenter"",""1"",""2282""
","
","
","""event"",""trial"",""time""
""fullscreenenter"",""1"",""2282""
","
","true","false","[]","[]","[]","","","","","","","","","","","","","","","",""
"learning-instructions","177","621033","0.0-11.0-1.0-0.0","5565","1","19","Female","approach_avoid_spark_v1","""event"",""trial"",""time""
""fullscreenenter"",""1"",""2282""
","
","
","""event"",""trial"",""time""
""fullscreenenter"",""1"",""2282""
","
","","","","","","1538.5","<p> Your goal in this round is to take care of lots of animals. </p></div>","","0","instructions","","","","","","","","","","",""
"learning-instructions","178","632011","0.0-11.0-1.0-0.1","5565","1","19","Female","approach_avoid_spark_v1","""event"",""trial"",""time""
""fullscreenenter"",""1"",""2282""
","
","
","""event"",""trial"",""time""
""fullscreenenter"",""1"",""2282""
","
","","","","","","976.2999999523163","<p> Some animals want to be pet, while other animals want to be left alone.  </p><p> On each turn, you will see an animal.   </p><p> You need to decide whether to pet it or not.  </p>","","0","instructions","","","","","","","","","","",""
"learning-instructions","179","637824","0.0-11.0-1.0-0.2","5565","1","19","Female","approach_avoid_spark_v1","""event"",""trial"",""time""
""fullscreenenter"",""1"",""2282""
","
","
","""event"",""trial"",""time""
""fullscreenenter"",""1"",""2282""
","
","","","","","","539.8000000119209","<p> You can pet the animal by pressing 1 and leave the animal alone by pressing 0. </p><br><div class=""choice-instructions-grid""> <div class=""choice-option""><img src=""images/approach.png"" class=""choice-option-img"" stage=""instructions"" position=""0"" ><div class=""choice-option-text""> Press ""1."" </div></div><div class=""choice-option""><img src=""images/avoid.png"" class=""choice-option-img"" stage=""instructions"" position=""1"" ><div class=""choice-option-text""> Press ""0."" </div></div>","","0","instructions","","","","","","","","","","",""
"learning-instructions","180","647820","0.0-11.0-1.0-0.3","5565","1","19","Female","approach_avoid_spark_v1","""event"",""trial"",""time""
""fullscreenenter"",""1"",""2282""
","
","
","""event"",""trial"",""time""
""fullscreenenter"",""1"",""2282""
","
","","","","","","975.5","<p> If you pet an animal that wants to be pet, you will make it feel happy! </p><p> But if you pet an animal that wants to be left alone, you will make it feel angry. </p>","","0","instructions","","","","","","","","","","",""
"learning-instructions","181","661227","0.0-11.0-1.0-0.4","5565","1","19","Female","approach_avoid_spark_v1","""event"",""trial"",""time""
""fullscreenenter"",""1"",""2282""
","
","
","""event"",""trial"",""time""
""fullscreenenter"",""1"",""2282""
","
","","","","","","583.0999999642372","<p> You will earn points based on how you made the animal feel. </p><p> If you made it feel happy, you will WIN anywhere from 1 - 9 points, </p><p> but if you made it feel angry, you will LOSE anywhere from 1 - 9 points. </p>","","0","instructions","","","","","","","","","","",""
"learning-instructions","182","668915","0.0-11.0-1.0-0.5","5565","1","19","Female","approach_avoid_spark_v1","""event"",""trial"",""time""
""fullscreenenter"",""1"",""2282""
","
","
","""event"",""trial"",""time""
""fullscreenenter"",""1"",""2282""
","
","","","","","","1029.2999999523163","<p> You will see how many points you won or lost in the center of the screen. </p><p> Here is what you would see if you won 5 points: </p><p style=""color:green;font-size:50px;font-weight:bolder"">5</p>","","0","instructions","","","","","","","","","","",""
"learning-instructions","183","677541","0.0-11.0-1.0-0.6","5565","1","19","Female","approach_avoid_spark_v1","""event"",""trial"",""time""
""fullscreenenter"",""1"",""2282""
","
","
","""event"",""trial"",""time""
""fullscreenenter"",""1"",""2282""
","
","","","","","","5777.099999964237","<p> And here is what you would see if you lost 3 points: </p><p style=""color:red;font-size:50px;font-weight:bolder"">-3</p>","","0","instructions","","","","","","","","","","",""
"learning-instructions","184","693510","0.0-11.0-1.0-0.7","5565","1","19","Female","approach_avoid_spark_v1","""event"",""trial"",""time""
""fullscreenenter"",""1"",""2282""
","
","
","""event"",""trial"",""time""
""fullscreenenter"",""1"",""2282""
","
","","","","","","1685.5999999642372","<p> Some animals will become very happy or very angry. </p><p> These animals will make you win or lose LOTS of points. </p><p> Other animals have less strong feelings. </p><p> These animals will make you win or lose small amounts of points. </p>","","0","instructions","","","","","","","","","","",""
"learning-instructions","185","706440","0.0-11.0-1.0-0.8","5565","1","19","Female","approach_avoid_spark_v1","""event"",""trial"",""time""
""fullscreenenter"",""1"",""2282""
","
","
","""event"",""trial"",""time""
""fullscreenenter"",""1"",""2282""
","
","","","","","","1166","<p> If you choose to leave the animal alone, you will not win or lose any points. </p><p>  However, in the center of the screen, you will see the number of points you WOULD HAVE won or lost if you had pet the animal. </p>","","0","instructions","","","","","","","","","","",""
"learning-instructions","186","719900","0.0-11.0-1.0-0.9","5565","1","19","Female","approach_avoid_spark_v1","""event"",""trial"",""time""
""fullscreenenter"",""1"",""2282""
","
","
","""event"",""trial"",""time""
""fullscreenenter"",""1"",""2282""
","
","","","","","","1465","<p> Here is what you might see if you did not pet the animal but the animal wanted to be pet: </p><p style=""color:grey; font-size:50px; display: inline-block; border-spacing: 15px; border-width:3px; border-style:solid; border-color:red"">  &nbsp; 6 &nbsp; </p><p> Remember, in this case, you would not win or lose ANY points because you did not pet the animal.  </p>","","0","instructions","","","","","","","","","","",""
"learning-instructions","187","729828","0.0-11.0-1.0-0.10","5565","1","19","Female","approach_avoid_spark_v1","""event"",""trial"",""time""
""fullscreenenter"",""1"",""2282""
","
","
","""event"",""trial"",""time""
""fullscreenenter"",""1"",""2282""
","
","","","","","","2603.599999964237","<p> Try to make the best choice for each animal because </p><p> at the end of the game, you will earn bonus money based on how many points you earned. </p>","","0","instructions","","","","","","","","","","",""
"learning-instructions","188","775010","0.0-11.0-1.0-0.11","5565","1","19","Female","approach_avoid_spark_v1","""event"",""trial"",""time""
""fullscreenenter"",""1"",""2282""
","
","
","""event"",""trial"",""time""
""fullscreenenter"",""1"",""2282""
","
","","","","","","36985.60000002384","<p> You will have 3 seconds to make each choice. Try to respond before time runs out! </p><p> You will lose 5 points each time you do not make a response. </p>","","0","instructions","","","","","","","","","","",""
"html-keyboard-response","189","775628","0.0-11.0-2.0-0.0","5565","1","19","Female","approach_avoid_spark_v1","""event"",""trial"",""time""
""fullscreenenter"",""1"",""2282""
","
","
","""event"",""trial"",""time""
""fullscreenenter"",""1"",""2282""
","
","","","","","","null","<div style=""font-size:60px;"">+</div>","null","","fixation","","","","","","","","","","",""
"aa-learning-trial","190","778636","0.0-11.0-2.0-1.0","5565","1","19","Female","approach_avoid_spark_v1","""event"",""trial"",""time""
""fullscreenenter"",""1"",""2282""
","
","
","""event"",""trial"",""time""
""fullscreenenter"",""1"",""2282""
","
","","","","","","1155.5","images/cat7.png","","","learning","6","6","1","1","cat","pets","2","1","","neutral","0"
"html-keyboard-response","191","779140","0.0-11.0-2.0-0.1","5565","1","19","Female","approach_avoid_spark_v1","""event"",""trial"",""time""
""fullscreenenter"",""1"",""2282""
","
","
","""event"",""trial"",""time""
""fullscreenenter"",""1"",""2282""
","
","","","","","","null","<div style=""font-size:60px;"">+</div>","null","","fixation","","","","","","","","","","",""
"aa-learning-trial","192","782148","0.0-11.0-2.0-1.1","5565","1","19","Female","approach_avoid_spark_v1","""event"",""trial"",""time""
""fullscreenenter"",""1"",""2282""
","
","
","""event"",""trial"",""time""
""fullscreenenter"",""1"",""2282""
","
","","","","","","775.5","images/rabbit6.png","","","learning","-4","-4","1","1","rabbit","pets","2","1","","bad","[-5]"
"html-keyboard-response","193","782652","0.0-11.0-2.0-0.2","5565","1","19","Female","approach_avoid_spark_v1","""event"",""trial"",""time""
""fullscreenenter"",""1"",""2282""
","
","
","""event"",""trial"",""time""
""fullscreenenter"",""1"",""2282""
","
","","","","","","null","<div style=""font-size:60px;"">+</div>","null","","fixation","","","","","","","","","","",""
"aa-learning-trial","194","785659","0.0-11.0-2.0-1.2","5565","1","19","Female","approach_avoid_spark_v1","""event"",""trial"",""time""
""fullscreenenter"",""1"",""2282""
","
","
","""event"",""trial"",""time""
""fullscreenenter"",""1"",""2282""
","
","","","","","","1032.7000000476837","images/rabbit3.png","","","learning","5","0","0","0","rabbit","pets","2","1","","bad","[-5]"
"html-keyboard-response","195","786164","0.0-11.0-2.0-0.3","5565","1","19","Female","approach_avoid_spark_v1","""event"",""trial"",""time""
""fullscreenenter"",""1"",""2282""
","
","
","""event"",""trial"",""time""
""fullscreenenter"",""1"",""2282""
","
","","","","","","null","<div style=""font-size:60px;"">+</div>","null","","fixation","","","","","","","","","","",""
"aa-learning-trial","196","789172","0.0-11.0-2.0-1.3","5565","1","19","Female","approach_avoid_spark_v1","""event"",""trial"",""time""
""fullscreenenter"",""1"",""2282""
","
","
","""event"",""trial"",""time""
""fullscreenenter"",""1"",""2282""
","
","","","","","","939","images/rodent2.png","","","learning","-5","-5","1","1","rodent","pets","2","1","","good","[3]"
"html-keyboard-response","197","789676","0.0-11.0-2.0-0.4","5565","1","19","Female","approach_avoid_spark_v1","""event"",""trial"",""time""
""fullscreenenter"",""1"",""2282""
","
","
","""event"",""trial"",""time""
""fullscreenenter"",""1"",""2282""
","
","","","","","","null","<div style=""font-size:60px;"">+</div>","null","","fixation","","","","","","","","","","",""
"aa-learning-trial","198","792684","0.0-11.0-2.0-1.4","5565","1","19","Female","approach_avoid_spark_v1","""event"",""trial"",""time""
""fullscreenenter"",""1"",""2282""
","
","
","""event"",""trial"",""time""
""fullscreenenter"",""1"",""2282""
","
","","","","","","1454.800000011921","images/cat7.png","","","learning","6","6","1","1","cat","pets","2","1","","neutral","0"
"html-keyboard-response","199","793187","0.0-11.0-2.0-0.5","5565","1","19","Female","approach_avoid_spark_v1","""event"",""trial"",""time""
""fullscreenenter"",""1"",""2282""
","
","
","""event"",""trial"",""time""
""fullscreenenter"",""1"",""2282""
","
","","","","","","null","<div style=""font-size:60px;"">+</div>","null","","fixation","","","","","","","","","","",""
"aa-learning-trial","200","796196","0.0-11.0-2.0-1.5","5565","1","19","Female","approach_avoid_spark_v1","""event"",""trial"",""time""
""fullscreenenter"",""1"",""2282""
","
","
","""event"",""trial"",""time""
""fullscreenenter"",""1"",""2282""
","
","","","","","","869","images/rabbit4.png","","","learning","9","9","1","1","rabbit","pets","2","1","","bad","[-5]"
"html-keyboard-response","201","796700","0.0-11.0-2.0-0.6","5565","1","19","Female","approach_avoid_spark_v1","""event"",""trial"",""time""
""fullscreenenter"",""1"",""2282""
","
","
","""event"",""trial"",""time""
""fullscreenenter"",""1"",""2282""
","
","","","","","","null","<div style=""font-size:60px;"">+</div>","null","","fixation","","","","","","","","","","",""
"aa-learning-trial","202","799707","0.0-11.0-2.0-1.6","5565","1","19","Female","approach_avoid_spark_v1","""event"",""trial"",""time""
""fullscreenenter"",""1"",""2282""
","
","
","""event"",""trial"",""time""
""fullscreenenter"",""1"",""2282""
","
","","","","","","835.4000000357628","images/cat4.png","","","learning","-2","-2","1","1","cat","pets","2","1","","neutral","0"
"html-keyboard-response","203","800213","0.0-11.0-2.0-0.7","5565","1","19","Female","approach_avoid_spark_v1","""event"",""trial"",""time""
""fullscreenenter"",""1"",""2282""
","
","
","""event"",""trial"",""time""
""fullscreenenter"",""1"",""2282""
","
","","","","","","null","<div style=""font-size:60px;"">+</div>","null","","fixation","","","","","","","","","","",""
"aa-learning-trial","204","803220","0.0-11.0-2.0-1.7","5565","1","19","Female","approach_avoid_spark_v1","""event"",""trial"",""time""
""fullscreenenter"",""1"",""2282""
","
","
","""event"",""trial"",""time""
""fullscreenenter"",""1"",""2282""
","
","","","","","","1451.3999999761581","images/rabbit3.png","","","learning","5","5","1","1","rabbit","pets","2","1","","bad","[-5]"
"html-keyboard-response","205","803724","0.0-11.0-2.0-0.8","5565","1","19","Female","approach_avoid_spark_v1","""event"",""trial"",""time""
""fullscreenenter"",""1"",""2282""
","
","
","""event"",""trial"",""time""
""fullscreenenter"",""1"",""2282""
","
","","","","","","null","<div style=""font-size:60px;"">+</div>","null","","fixation","","","","","","","","","","",""
"aa-learning-trial","206","806731","0.0-11.0-2.0-1.8","5565","1","19","Female","approach_avoid_spark_v1","""event"",""trial"",""time""
""fullscreenenter"",""1"",""2282""
","
","
","""event"",""trial"",""time""
""fullscreenenter"",""1"",""2282""
","
","","","","","","1737.199999988079","images/cat3.png","","","learning","-3","-3","1","1","cat","pets","2","1","","neutral","0"
"html-keyboard-response","207","807235","0.0-11.0-2.0-0.9","5565","1","19","Female","approach_avoid_spark_v1","""event"",""trial"",""time""
""fullscreenenter"",""1"",""2282""
","
","
","""event"",""trial"",""time""
""fullscreenenter"",""1"",""2282""
","
","","","","","","null","<div style=""font-size:60px;"">+</div>","null","","fixation","","","","","","","","","","",""
"aa-learning-trial","208","810243","0.0-11.0-2.0-1.9","5565","1","19","Female","approach_avoid_spark_v1","""event"",""trial"",""time""
""fullscreenenter"",""1"",""2282""
","
","
","""event"",""trial"",""time""
""fullscreenenter"",""1"",""2282""
","
","","","","","","916.6999999880791","images/cat4.png","","","learning","-2","0","0","0","cat","pets","2","1","","neutral","0"
"html-keyboard-response","209","810748","0.0-11.0-2.0-0.10","5565","1","19","Female","approach_avoid_spark_v1","""event"",""trial"",""time""
""fullscreenenter"",""1"",""2282""
","
","
","""event"",""trial"",""time""
""fullscreenenter"",""1"",""2282""
","
","","","","","","null","<div style=""font-size:60px;"">+</div>","null","","fixation","","","","","","","","","","",""
"aa-learning-trial","210","813755","0.0-11.0-2.0-1.10","5565","1","19","Female","approach_avoid_spark_v1","""event"",""trial"",""time""
""fullscreenenter"",""1"",""2282""
","
","
","""event"",""trial"",""time""
""fullscreenenter"",""1"",""2282""
","
","","","","","","851.8000000119209","images/rodent5.png","","","learning","8","8","1","1","rodent","pets","2","1","","good","[3]"
"html-keyboard-response","211","814261","0.0-11.0-2.0-0.11","5565","1","19","Female","approach_avoid_spark_v1","""event"",""trial"",""time""
""fullscreenenter"",""1"",""2282""
","
","
","""event"",""trial"",""time""
""fullscreenenter"",""1"",""2282""
","
","","","","","","null","<div style=""font-size:60px;"">+</div>","null","","fixation","","","","","","","","","","",""
"aa-learning-trial","212","817268","0.0-11.0-2.0-1.11","5565","1","19","Female","approach_avoid_spark_v1","""event"",""trial"",""time""
""fullscreenenter"",""1"",""2282""
","
","
","""event"",""trial"",""time""
""fullscreenenter"",""1"",""2282""
","
","","","","","","921.8000000119209","images/rabbit6.png","","","learning","-4","-4","1","1","rabbit","pets","2","1","","bad","[-5]"
"html-keyboard-response","213","817772","0.0-11.0-2.0-0.12","5565","1","19","Female","approach_avoid_spark_v1","""event"",""trial"",""time""
""fullscreenenter"",""1"",""2282""
","
","
","""event"",""trial"",""time""
""fullscreenenter"",""1"",""2282""
","
","","","","","","null","<div style=""font-size:60px;"">+</div>","null","","fixation","","","","","","","","","","",""
"aa-learning-trial","214","820780","0.0-11.0-2.0-1.12","5565","1","19","Female","approach_avoid_spark_v1","""event"",""trial"",""time""
""fullscreenenter"",""1"",""2282""
","
","
","""event"",""trial"",""time""
""fullscreenenter"",""1"",""2282""
","
","","","","","","802.6999999880791","images/rodent3.png","","","learning","2","2","1","1","rodent","pets","2","1","","good","[3]"
"html-keyboard-response","215","821284","0.0-11.0-2.0-0.13","5565","1","19","Female","approach_avoid_spark_v1","""event"",""trial"",""time""
""fullscreenenter"",""1"",""2282""
","
","
","""event"",""trial"",""time""
""fullscreenenter"",""1"",""2282""
","
","","","","","","null","<div style=""font-size:60px;"">+</div>","null","","fixation","","","","","","","","","","",""
"aa-learning-trial","216","824291","0.0-11.0-2.0-1.13","5565","1","19","Female","approach_avoid_spark_v1","""event"",""trial"",""time""
""fullscreenenter"",""1"",""2282""
","
","
","""event"",""trial"",""time""
""fullscreenenter"",""1"",""2282""
","
","","","","","","463.2000000476837","images/rodent3.png","","","learning","2","2","1","1","rodent","pets","2","1","","good","[3]"
"html-keyboard-response","217","824795","0.0-11.0-2.0-0.14","5565","1","19","Female","approach_avoid_spark_v1","""event"",""trial"",""time""
""fullscreenenter"",""1"",""2282""
","
","
","""event"",""trial"",""time""
""fullscreenenter"",""1"",""2282""
","
","","","","","","null","<div style=""font-size:60px;"">+</div>","null","","fixation","","","","","","","","","","",""
"aa-learning-trial","218","827803","0.0-11.0-2.0-1.14","5565","1","19","Female","approach_avoid_spark_v1","""event"",""trial"",""time""
""fullscreenenter"",""1"",""2282""
","
","
","""event"",""trial"",""time""
""fullscreenenter"",""1"",""2282""
","
","","","","","","679.8999999761581","images/rodent5.png","","","learning","8","8","1","1","rodent","pets","2","1","","good","[3]"
"html-keyboard-response","219","828308","0.0-11.0-2.0-0.15","5565","1","19","Female","approach_avoid_spark_v1","""event"",""trial"",""time""
""fullscreenenter"",""1"",""2282""
","
","
","""event"",""trial"",""time""
""fullscreenenter"",""1"",""2282""
","
","","","","","","null","<div style=""font-size:60px;"">+</div>","null","","fixation","","","","","","","","","","",""
"aa-learning-trial","220","831316","0.0-11.0-2.0-1.15","5565","1","19","Female","approach_avoid_spark_v1","""event"",""trial"",""time""
""fullscreenenter"",""1"",""2282""
","
","
","""event"",""trial"",""time""
""fullscreenenter"",""1"",""2282""
","
","","","","","","471.30000001192093","images/rodent5.png","","","learning","8","8","1","1","rodent","pets","2","1","","good","[3]"
"html-keyboard-response","221","831820","0.0-11.0-2.0-0.16","5565","1","19","Female","approach_avoid_spark_v1","""event"",""trial"",""time""
""fullscreenenter"",""1"",""2282""
","
","
","""event"",""trial"",""time""
""fullscreenenter"",""1"",""2282""
","
","","","","","","null","<div style=""font-size:60px;"">+</div>","null","","fixation","","","","","","","","","","",""
"aa-learning-trial","222","834827","0.0-11.0-2.0-1.16","5565","1","19","Female","approach_avoid_spark_v1","""event"",""trial"",""time""
""fullscreenenter"",""1"",""2282""
","
","
","""event"",""trial"",""time""
""fullscreenenter"",""1"",""2282""
","
","","","","","","679.7999999523163","images/cat7.png","","","learning","6","6","1","1","cat","pets","2","1","","neutral","0"
"html-keyboard-response","223","835332","0.0-11.0-2.0-0.17","5565","1","19","Female","approach_avoid_spark_v1","""event"",""trial"",""time""
""fullscreenenter"",""1"",""2282""
","
","
","""event"",""trial"",""time""
""fullscreenenter"",""1"",""2282""
","
","","","","","","null","<div style=""font-size:60px;"">+</div>","null","","fixation","","","","","","","","","","",""
"aa-learning-trial","224","838340","0.0-11.0-2.0-1.17","5565","1","19","Female","approach_avoid_spark_v1","""event"",""trial"",""time""
""fullscreenenter"",""1"",""2282""
","
","
","""event"",""trial"",""time""
""fullscreenenter"",""1"",""2282""
","
","","","","","","782.3999999761581","images/rodent3.png","","","learning","2","2","1","1","rodent","pets","2","1","","good","[3]"
"html-keyboard-response","225","838843","0.0-11.0-2.0-0.18","5565","1","19","Female","approach_avoid_spark_v1","""event"",""trial"",""time""
""fullscreenenter"",""1"",""2282""
","
","
","""event"",""trial"",""time""
""fullscreenenter"",""1"",""2282""
","
","","","","","","null","<div style=""font-size:60px;"">+</div>","null","","fixation","","","","","","","","","","",""
"aa-learning-trial","226","841852","0.0-11.0-2.0-1.18","5565","1","19","Female","approach_avoid_spark_v1","""event"",""trial"",""time""
""fullscreenenter"",""1"",""2282""
","
","
","""event"",""trial"",""time""
""fullscreenenter"",""1"",""2282""
","
","","","","","","592.4000000357628","images/cat4.png","","","learning","-2","-2","1","1","cat","pets","2","1","","neutral","0"
"html-keyboard-response","227","842356","0.0-11.0-2.0-0.19","5565","1","19","Female","approach_avoid_spark_v1","""event"",""trial"",""time""
""fullscreenenter"",""1"",""2282""
","
","
","""event"",""trial"",""time""
""fullscreenenter"",""1"",""2282""
","
","","","","","","null","<div style=""font-size:60px;"">+</div>","null","","fixation","","","","","","","","","","",""
"aa-learning-trial","228","845363","0.0-11.0-2.0-1.19","5565","1","19","Female","approach_avoid_spark_v1","""event"",""trial"",""time""
""fullscreenenter"",""1"",""2282""
","
","
","""event"",""trial"",""time""
""fullscreenenter"",""1"",""2282""
","
","","","","","","692.1999999880791","images/rodent5.png","","","learning","8","8","1","1","rodent","pets","2","1","","good","[3]"
"html-keyboard-response","229","845868","0.0-11.0-2.0-0.20","5565","1","19","Female","approach_avoid_spark_v1","""event"",""trial"",""time""
""fullscreenenter"",""1"",""2282""
","
","
","""event"",""trial"",""time""
""fullscreenenter"",""1"",""2282""
","
","","","","","","null","<div style=""font-size:60px;"">+</div>","null","","fixation","","","","","","","","","","",""
"aa-learning-trial","230","848875","0.0-11.0-2.0-1.20","5565","1","19","Female","approach_avoid_spark_v1","""event"",""trial"",""time""
""fullscreenenter"",""1"",""2282""
","
","
","""event"",""trial"",""time""
""fullscreenenter"",""1"",""2282""
","
","","","","","","777.0999999642372","images/rabbit3.png","","","learning","5","5","1","1","rabbit","pets","2","1","","bad","[-5]"
"html-keyboard-response","231","849379","0.0-11.0-2.0-0.21","5565","1","19","Female","approach_avoid_spark_v1","""event"",""trial"",""time""
""fullscreenenter"",""1"",""2282""
","
","
","""event"",""trial"",""time""
""fullscreenenter"",""1"",""2282""
","
","","","","","","null","<div style=""font-size:60px;"">+</div>","null","","fixation","","","","","","","","","","",""
"aa-learning-trial","232","852388","0.0-11.0-2.0-1.21","5565","1","19","Female","approach_avoid_spark_v1","""event"",""trial"",""time""
""fullscreenenter"",""1"",""2282""
","
","
","""event"",""trial"",""time""
""fullscreenenter"",""1"",""2282""
","
","","","","","","917.5","images/rabbit6.png","","","learning","-4","0","0","0","rabbit","pets","2","1","","bad","[-5]"
"html-keyboard-response","233","852891","0.0-11.0-2.0-0.22","5565","1","19","Female","approach_avoid_spark_v1","""event"",""trial"",""time""
""fullscreenenter"",""1"",""2282""
","
","
","""event"",""trial"",""time""
""fullscreenenter"",""1"",""2282""
","
","","","","","","null","<div style=""font-size:60px;"">+</div>","null","","fixation","","","","","","","","","","",""
"aa-learning-trial","234","855900","0.0-11.0-2.0-1.22","5565","1","19","Female","approach_avoid_spark_v1","""event"",""trial"",""time""
""fullscreenenter"",""1"",""2282""
","
","
","""event"",""trial"",""time""
""fullscreenenter"",""1"",""2282""
","
","","","","","","942.6999999880791","images/cat3.png","","","learning","-3","-3","1","1","cat","pets","2","1","","neutral","0"
"html-keyboard-response","235","856404","0.0-11.0-2.0-0.23","5565","1","19","Female","approach_avoid_spark_v1","""event"",""trial"",""time""
""fullscreenenter"",""1"",""2282""
","
","
","""event"",""trial"",""time""
""fullscreenenter"",""1"",""2282""
","
","","","","","","null","<div style=""font-size:60px;"">+</div>","null","","fixation","","","","","","","","","","",""
"aa-learning-trial","236","859412","0.0-11.0-2.0-1.23","5565","1","19","Female","approach_avoid_spark_v1","""event"",""trial"",""time""
""fullscreenenter"",""1"",""2282""
","
","
","""event"",""trial"",""time""
""fullscreenenter"",""1"",""2282""
","
