"trial_type","trial_index","time_elapsed","internal_node_id","subject_id","task_condition","age","gender","task_version","interactions","blur_events","focus_events","fullscreenenter_events","fullscreenexit_events","success","timeout","failed_images","failed_audio","failed_video","rt","stimulus","response","button_pressed","task_part","approach_reward","points","key_press","option_selected","stim_cat","task_block","block_condition","block_number","correct","cat_type","mean_cat_reward"
"pavlovia","0","5","0.0-0.0","5890","1","16","Female","approach_avoid_spark_v1","""event"",""trial"",""time""
""fullscreenenter"",""1"",""4028""
","
","
","""event"",""trial"",""time""
""fullscreenenter"",""1"",""4028""
","
","","","","","","","","","","","","","","","","","","","","",""
"fullscreen","1","4973","0.0-1.0","5890","1","16","Female","approach_avoid_spark_v1","""event"",""trial"",""time""
""fullscreenenter"",""1"",""4028""
","
","
","""event"",""trial"",""time""
""fullscreenenter"",""1"",""4028""
","
","true","","","","","","","","","","","","","","","","","","","",""
"preload","2","8700","0.0-2.0","5890","1","16","Female","approach_avoid_spark_v1","""event"",""trial"",""time""
""fullscreenenter"",""1"",""4028""
","
","
","""event"",""trial"",""time""
""fullscreenenter"",""1"",""4028""
","
","true","false","[]","[]","[]","","","","","","","","","","","","","","","",""
"audio-keyboard-response","3","10864","0.0-3.0","5890","1","16","Female","approach_avoid_spark_v1","""event"",""trial"",""time""
""fullscreenenter"",""1"",""4028""
","
","
","""event"",""trial"",""time""
""fullscreenenter"",""1"",""4028""
","
","","","","","","2160","audio/beep_loop.wav"," ","","","","","","","","","","","","",""
"audio-button-response","4","14586","0.0-4.0","5890","1","16","Female","approach_avoid_spark_v1","""event"",""trial"",""time""
""fullscreenenter"",""1"",""4028""
","
","
","""event"",""trial"",""time""
""fullscreenenter"",""1"",""4028""
","
","","","","","","3720","audio/shark.wav","4","","","","","","","","","","","","",""
"audio-button-response","5","17282","0.0-5.0","5890","1","16","Female","approach_avoid_spark_v1","""event"",""trial"",""time""
""fullscreenenter"",""1"",""4028""
","
","
","""event"",""trial"",""time""
""fullscreenenter"",""1"",""4028""
","
","","","","","","1680","audio/turtle.wav","1","","","","","","","","","","","","",""
"preload","6","19983","0.0-6.0","5890","1","16","Female","approach_avoid_spark_v1","""event"",""trial"",""time""
""fullscreenenter"",""1"",""4028""
","
","
","""event"",""trial"",""time""
""fullscreenenter"",""1"",""4028""
","
","true","false","[]","[]","[]","","","","","","","","","","","","","","","",""
"html-keyboard-response","7","21403","0.0-7.0","5890","1","16","Female","approach_avoid_spark_v1","""event"",""trial"",""time""
""fullscreenenter"",""1"",""4028""
","
","
","""event"",""trial"",""time""
""fullscreenenter"",""1"",""4028""
","
","","","","","","1418.3999999761581","Welcome to the experiment. Press any key to begin and to advance the instructions."," ","","","","","","","","","","","","",""
"learning-instructions","8","30309","0.0-8.0-0.0-0.0","5890","1","16","Female","approach_avoid_spark_v1","""event"",""trial"",""time""
""fullscreenenter"",""1"",""4028""
","
","
","""event"",""trial"",""time""
""fullscreenenter"",""1"",""4028""
","
","","","","","","1949","<p> Welcome! Today you are going to play 6 different rounds of a decision-making game. </p><p> Use the mouse to click next to continue. </p>","","0","instructions","","","","","","","","","","",""
"learning-instructions","9","34457","0.0-8.0-0.0-0.1","5890","1","16","Female","approach_avoid_spark_v1","""event"",""trial"",""time""
""fullscreenenter"",""1"",""4028""
","
","
","""event"",""trial"",""time""
""fullscreenenter"",""1"",""4028""
","
","","","","","","1418.300000011921","<p> You will start with a practice round to learn the rules. </p>","","0","instructions","","","","","","","","","","",""
"learning-instructions","10","38984","0.0-8.0-0.0-0.2","5890","1","16","Female","approach_avoid_spark_v1","""event"",""trial"",""time""
""fullscreenenter"",""1"",""4028""
","
","
","""event"",""trial"",""time""
""fullscreenenter"",""1"",""4028""
","
","","","","","","1065.300000011921","<p> Your goal in this round is to give out sports equipment to kids. </p></div>","","0","instructions","","","","","","","","","","",""
"learning-instructions","11","48233","0.0-8.0-0.0-0.3","5890","1","16","Female","approach_avoid_spark_v1","""event"",""trial"",""time""
""fullscreenenter"",""1"",""4028""
","
","
","""event"",""trial"",""time""
""fullscreenenter"",""1"",""4028""
","
","","","","","","1694","<p> The kids only like some of the equipment.  </p><p> On each turn, you will see a piece of sports equipment.   </p><p> You need to decide whether to give it to the kids or not.  </p>","","0","instructions","","","","","","","","","","",""
"learning-instructions","12","54153","0.0-8.0-0.0-0.4","5890","1","16","Female","approach_avoid_spark_v1","""event"",""trial"",""time""
""fullscreenenter"",""1"",""4028""
","
","
","""event"",""trial"",""time""
""fullscreenenter"",""1"",""4028""
","
","","","","","","1163.5","<p> You can give them the equipment by pressing 1 and choose not to give it to them by pressing 0. </p><br><div class=""choice-instructions-grid""> <div class=""choice-option""><img src=""images/approach.png"" class=""choice-option-img"" stage=""instructions"" position=""0"" ><div class=""choice-option-text""> Press ""1."" </div></div><div class=""choice-option""><img src=""images/avoid.png"" class=""choice-option-img"" stage=""instructions"" position=""1"" ><div class=""choice-option-text""> Press ""0."" </div></div>","","0","instructions","","","","","","","","","","",""
"learning-instructions","13","62813","0.0-8.0-0.0-0.5","5890","1","16","Female","approach_avoid_spark_v1","""event"",""trial"",""time""
""fullscreenenter"",""1"",""4028""
","
","
","""event"",""trial"",""time""
""fullscreenenter"",""1"",""4028""
","
","","","","","","1264.1000000238419","<p> If you give them a piece of equipment they like, they will be happy! </p><p> But if you give them a piece of equipment they do not like, they will be sad. </p>","","0","instructions","","","","","","","","","","",""
"learning-instructions","14","74220","0.0-8.0-0.0-0.6","5890","1","16","Female","approach_avoid_spark_v1","""event"",""trial"",""time""
""fullscreenenter"",""1"",""4028""
","
","
","""event"",""trial"",""time""
""fullscreenenter"",""1"",""4028""
","
","","","","","","890.5","<p> You will earn points based on how you make kids feel. </p><p> If you make them happy, you will WIN anywhere from 1 - 9 points, </p><p> but if you make them sad, you will LOSE anywhere from 1 - 9 points. </p>","","0","instructions","","","","","","","","","","",""
"learning-instructions","15","84532","0.0-8.0-0.0-0.7","5890","1","16","Female","approach_avoid_spark_v1","""event"",""trial"",""time""
""fullscreenenter"",""1"",""4028""
","
","
","""event"",""trial"",""time""
""fullscreenenter"",""1"",""4028""
","
","","","","","","752.1000000238419","<p> You will see how many points you won or lost in the center of the screen. </p><p> Here is what you would see if you won 6 points: </p><p style=""color:green;font-size:50px;font-weight:bolder"">6</p><p style=""color:green"">The text is GREEN because you WON points.</p>","","0","instructions","","","","","","","","","","",""
"learning-instructions","16","90538","0.0-8.0-0.0-0.8","5890","1","16","Female","approach_avoid_spark_v1","""event"",""trial"",""time""
""fullscreenenter"",""1"",""4028""
","
","
","""event"",""trial"",""time""
""fullscreenenter"",""1"",""4028""
","
","","","","","","488.69999998807907","<p> And here is what you would see if you lost 4 points: </p><p style=""color:red;font-size:50px;font-weight:bolder"">-4</p><p style=""color:red"">The text is RED because you LOST points. </p>","","0","instructions","","","","","","","","","","",""
"learning-instructions","17","106182","0.0-8.0-0.0-0.9","5890","1","16","Female","approach_avoid_spark_v1","""event"",""trial"",""time""
""fullscreenenter"",""1"",""4028""
","
","
","""event"",""trial"",""time""
""fullscreenenter"",""1"",""4028""
","
","","","","","","933.5","<p> Some of the equipment will make the kids VERY happy or sad. </p><p> These pieces of equipment will make you win or lose LOTS of points. </p><p> Other pieces of equipment will only make the kids a little happy or sad. </p><p> These pieces of equipment will make you win or lose small amounts of points. </p>","","0","instructions","","","","","","","","","","",""
"learning-instructions","18","118514","0.0-8.0-0.0-0.10","5890","1","16","Female","approach_avoid_spark_v1","""event"",""trial"",""time""
""fullscreenenter"",""1"",""4028""
","
","
","""event"",""trial"",""time""
""fullscreenenter"",""1"",""4028""
","
","","","","","","1695.2999999523163","<p> If you choose not to give them the equipment, you will not win or lose any points. </p><p>  However, in the center of the screen, you will see the number of points you WOULD HAVE won or lost if you had given them the equipment. </p>","","0","instructions","","","","","","","","","","",""
"learning-instructions","19","146144","0.0-8.0-0.0-0.11","5890","1","16","Female","approach_avoid_spark_v1","""event"",""trial"",""time""
""fullscreenenter"",""1"",""4028""
","
","
","""event"",""trial"",""time""
""fullscreenenter"",""1"",""4028""
","
","","","","","","6095.600000023842","<p> Here is what you might see if you did not give the equipment to the kids but it would have made them happy: </p><p style=""color:grey; font-size:50px; display: inline-block; border-spacing: 15px; border-width:3px; border-style:solid; border-color:red"">  &nbsp; 7 &nbsp; </p><p> Remember, in this case, you would not win or lose ANY points because you did not give them the equipment.  </p><p style=""color:grey"">The text is GREY because you earned ZERO points. </p><p style=""color:red"">However, choosing to give the kids the equipment would have made you win points. The box around the text is RED because you chose the worse option. </p>","","0","instructions","","","","","","","","","","",""
"learning-instructions","20","170059","0.0-8.0-0.0-0.12","5890","1","16","Female","approach_avoid_spark_v1","""event"",""trial"",""time""
""fullscreenenter"",""1"",""4028""
","
","
","""event"",""trial"",""time""
""fullscreenenter"",""1"",""4028""
","
","","","","","","2829.600000023842","<p> Here is what you might see if you did not give the equipment to the kids but it would have made them sad: </p><p style=""color:grey;font-size:50px; display: inline-block; border-spacing: 15px; border-width:3px; border-style:solid; border-color:green"">  &nbsp; -8 &nbsp; </p><p> Remember, in this case, you would not win or lose ANY points because you did not give them the equipment.  </p><p style=""color:grey"">The text is GREY because you earned ZERO points. </p><p  style=""color:green""> Choosing to give the kids the equipment would have made you lose points. The box around the text is GREEN because you chose the better option.</p>","","0","instructions","","","","","","","","","","",""
"learning-instructions","21","180018","0.0-8.0-0.0-0.13","5890","1","16","Female","approach_avoid_spark_v1","""event"",""trial"",""time""
""fullscreenenter"",""1"",""4028""
","
","
","""event"",""trial"",""time""
""fullscreenenter"",""1"",""4028""
","
","","","","","","479.39999997615814","<p> You will have 3 seconds to make each choice. Try to respond before time runs out! </p><p> You will lose 5 points each time you do not make a response. </p>","","0","instructions","","","","","","","","","","",""
"learning-instructions","22","186115","0.0-8.0-0.0-0.14","5890","1","16","Female","approach_avoid_spark_v1","""event"",""trial"",""time""
""fullscreenenter"",""1"",""4028""
","
","
","""event"",""trial"",""time""
""fullscreenenter"",""1"",""4028""
","
","","","","","","676.5","<p> This is just a practice round, but in the real game, your bonus payment will depend on your total number of points.","","0","instructions","","","","","","","","","","",""
"learning-instructions","23","192665","0.0-8.0-0.0-0.15","5890","1","16","Female","approach_avoid_spark_v1","""event"",""trial"",""time""
""fullscreenenter"",""1"",""4028""
","
","
","""event"",""trial"",""time""
""fullscreenenter"",""1"",""4028""
","
","","","","","","776.1000000238419","<p> Remember, you can give them the equipment by pressing 1 and choose not to give it to them by pressing 0. </p><br><div class=""choice-instructions-grid""> <div class=""choice-option""><img src=""images/approach.png"" class=""choice-option-img"" stage=""instructions"" position=""0"" ><div class=""choice-option-text""> Press ""1."" </div></div><div class=""choice-option""><img src=""images/avoid.png"" class=""choice-option-img"" stage=""instructions"" position=""1"" ><div class=""choice-option-text""> Press ""0."" </div></div>","","0","instructions","","","","","","","","","","",""
"html-button-response","24","196480","0.0-8.0-1.0","5890","1","16","Female","approach_avoid_spark_v1","""event"",""trial"",""time""
""fullscreenenter"",""1"",""4028""
","
","
","""event"",""trial"",""time""
""fullscreenenter"",""1"",""4028""
","
","","","","","","3706.199999988079","<p> Ready to practice? </p>","0","","","","","","","","","","","","",""
"html-keyboard-response","25","197088","0.0-8.0-2.0-0.0","5890","1","16","Female","approach_avoid_spark_v1","""event"",""trial"",""time""
""fullscreenenter"",""1"",""4028""
","
","
","""event"",""trial"",""time""
""fullscreenenter"",""1"",""4028""
","
","","","","","","null","<div style=""font-size:60px;"">+</div>","null","","fixation","","","","","","","","","","",""
"aa-learning-trial","26","200097","0.0-8.0-2.0-1.0","5890","1","16","Female","approach_avoid_spark_v1","""event"",""trial"",""time""
""fullscreenenter"",""1"",""4028""
","
","
","""event"",""trial"",""time""
""fullscreenenter"",""1"",""4028""
","
","","","","","","2966","images/racket1.png","","","learning","8","8","1","1","practice","practice","practice","-1","","",""
"html-keyboard-response","27","200610","0.0-8.0-2.0-0.1","5890","1","16","Female","approach_avoid_spark_v1","""event"",""trial"",""time""
""fullscreenenter"",""1"",""4028""
","
","
","""event"",""trial"",""time""
""fullscreenenter"",""1"",""4028""
","
","","","","","","null","<div style=""font-size:60px;"">+</div>","null","","fixation","","","","","","","","","","",""
"aa-learning-trial","28","203616","0.0-8.0-2.0-1.1","5890","1","16","Female","approach_avoid_spark_v1","""event"",""trial"",""time""
""fullscreenenter"",""1"",""4028""
","
","
","""event"",""trial"",""time""
""fullscreenenter"",""1"",""4028""
","
","","","","","","2733.600000023842","images/ball2.png","","","learning","3","3","1","1","practice","practice","practice","-1","","",""
"html-keyboard-response","29","204130","0.0-8.0-2.0-0.2","5890","1","16","Female","approach_avoid_spark_v1","""event"",""trial"",""time""
""fullscreenenter"",""1"",""4028""
","
","
","""event"",""trial"",""time""
""fullscreenenter"",""1"",""4028""
","
","","","","","","null","<div style=""font-size:60px;"">+</div>","null","","fixation","","","","","","","","","","",""
"aa-learning-trial","30","207148","0.0-8.0-2.0-1.2","5890","1","16","Female","approach_avoid_spark_v1","""event"",""trial"",""time""
""fullscreenenter"",""1"",""4028""
","
","
","""event"",""trial"",""time""
""fullscreenenter"",""1"",""4028""
","
","","","","","","795.5","images/ball3.png","","","learning","-3","0","0","0","practice","practice","practice","-1","","",""
"html-keyboard-response","31","207655","0.0-8.0-2.0-0.3","5890","1","16","Female","approach_avoid_spark_v1","""event"",""trial"",""time""
""fullscreenenter"",""1"",""4028""
","
","
","""event"",""trial"",""time""
""fullscreenenter"",""1"",""4028""
","
","","","","","","null","<div style=""font-size:60px;"">+</div>","null","","fixation","","","","","","","","","","",""
"aa-learning-trial","32","210664","0.0-8.0-2.0-1.3","5890","1","16","Female","approach_avoid_spark_v1","""event"",""trial"",""time""
""fullscreenenter"",""1"",""4028""
","
","
","""event"",""trial"",""time""
""fullscreenenter"",""1"",""4028""
","
","","","","","","1080","images/racket3.png","","","learning","4","0","0","0","practice","practice","practice","-1","","",""
"html-keyboard-response","33","211176","0.0-8.0-2.0-0.4","5890","1","16","Female","approach_avoid_spark_v1","""event"",""trial"",""time""
""fullscreenenter"",""1"",""4028""
","
","
","""event"",""trial"",""time""
""fullscreenenter"",""1"",""4028""
","
","","","","","","null","<div style=""font-size:60px;"">+</div>","null","","fixation","","","","","","","","","","",""
"aa-learning-trial","34","214182","0.0-8.0-2.0-1.4","5890","1","16","Female","approach_avoid_spark_v1","""event"",""trial"",""time""
""fullscreenenter"",""1"",""4028""
","
","
","""event"",""trial"",""time""
""fullscreenenter"",""1"",""4028""
","
","","","","","","356.30000001192093","images/racket3.png","","","learning","8","8","1","1","practice","practice","practice","-1","","",""
"html-keyboard-response","35","214696","0.0-8.0-2.0-0.5","5890","1","16","Female","approach_avoid_spark_v1","""event"",""trial"",""time""
""fullscreenenter"",""1"",""4028""
","
","
","""event"",""trial"",""time""
""fullscreenenter"",""1"",""4028""
","
","","","","","","null","<div style=""font-size:60px;"">+</div>","null","","fixation","","","","","","","","","","",""
"aa-learning-trial","36","217711","0.0-8.0-2.0-1.5","5890","1","16","Female","approach_avoid_spark_v1","""event"",""trial"",""time""
""fullscreenenter"",""1"",""4028""
","
","
","""event"",""trial"",""time""
""fullscreenenter"",""1"",""4028""
","
","","","","","","750.8000000119209","images/racket4.png","","","learning","4","4","1","1","practice","practice","practice","-1","","",""
"html-keyboard-response","37","218225","0.0-8.0-2.0-0.6","5890","1","16","Female","approach_avoid_spark_v1","""event"",""trial"",""time""
""fullscreenenter"",""1"",""4028""
","
","
","""event"",""trial"",""time""
""fullscreenenter"",""1"",""4028""
","
","","","","","","null","<div style=""font-size:60px;"">+</div>","null","","fixation","","","","","","","","","","",""
"aa-learning-trial","38","221234","0.0-8.0-2.0-1.6","5890","1","16","Female","approach_avoid_spark_v1","""event"",""trial"",""time""
""fullscreenenter"",""1"",""4028""
","
","
","""event"",""trial"",""time""
""fullscreenenter"",""1"",""4028""
","
","","","","","","249.19999998807907","images/ball1.png","","","learning","-6","-6","1","1","practice","practice","practice","-1","","",""
"html-keyboard-response","39","221749","0.0-8.0-2.0-0.7","5890","1","16","Female","approach_avoid_spark_v1","""event"",""trial"",""time""
""fullscreenenter"",""1"",""4028""
","
","
","""event"",""trial"",""time""
""fullscreenenter"",""1"",""4028""
","
","","","","","","null","<div style=""font-size:60px;"">+</div>","null","","fixation","","","","","","","","","","",""
"aa-learning-trial","40","224757","0.0-8.0-2.0-1.7","5890","1","16","Female","approach_avoid_spark_v1","""event"",""trial"",""time""
""fullscreenenter"",""1"",""4028""
","
","
","""event"",""trial"",""time""
""fullscreenenter"",""1"",""4028""
","
","","","","","","1132.5999999642372","images/ball4.png","","","learning","5","5","1","1","practice","practice","practice","-1","","",""
"html-keyboard-response","41","225261","0.0-8.0-2.0-0.8","5890","1","16","Female","approach_avoid_spark_v1","""event"",""trial"",""time""
""fullscreenenter"",""1"",""4028""
","
","
","""event"",""trial"",""time""
""fullscreenenter"",""1"",""4028""
","
","","","","","","null","<div style=""font-size:60px;"">+</div>","null","","fixation","","","","","","","","","","",""
"aa-learning-trial","42","228270","0.0-8.0-2.0-1.8","5890","1","16","Female","approach_avoid_spark_v1","""event"",""trial"",""time""
""fullscreenenter"",""1"",""4028""
","
","
","""event"",""trial"",""time""
""fullscreenenter"",""1"",""4028""
","
","","","","","","695.5999999642372","images/racket1.png","","","learning","9","0","0","0","practice","practice","practice","-1","","",""
"html-keyboard-response","43","228772","0.0-8.0-2.0-0.9","5890","1","16","Female","approach_avoid_spark_v1","""event"",""trial"",""time""
""fullscreenenter"",""1"",""4028""
","
","
","""event"",""trial"",""time""
""fullscreenenter"",""1"",""4028""
","
","","","","","","null","<div style=""font-size:60px;"">+</div>","null","","fixation","","","","","","","","","","",""
"aa-learning-trial","44","231786","0.0-8.0-2.0-1.9","5890","1","16","Female","approach_avoid_spark_v1","""event"",""trial"",""time""
""fullscreenenter"",""1"",""4028""
","
","
","""event"",""trial"",""time""
""fullscreenenter"",""1"",""4028""
","
","","","","","","693.4000000357628","images/ball2.png","","","learning","-3","-3","1","1","practice","practice","practice","-1","","",""
"html-keyboard-response","45","232292","0.0-8.0-2.0-0.10","5890","1","16","Female","approach_avoid_spark_v1","""event"",""trial"",""time""
""fullscreenenter"",""1"",""4028""
","
","
","""event"",""trial"",""time""
""fullscreenenter"",""1"",""4028""
","
","","","","","","null","<div style=""font-size:60px;"">+</div>","null","","fixation","","","","","","","","","","",""
"aa-learning-trial","46","235301","0.0-8.0-2.0-1.10","5890","1","16","Female","approach_avoid_spark_v1","""event"",""trial"",""time""
""fullscreenenter"",""1"",""4028""
","
","
","""event"",""trial"",""time""
""fullscreenenter"",""1"",""4028""
","
","","","","","","1745.1000000238419","images/racket3.png","","","learning","-3","-3","1","1","practice","practice","practice","-1","","",""
"html-keyboard-response","47","235805","0.0-8.0-2.0-0.11","5890","1","16","Female","approach_avoid_spark_v1","""event"",""trial"",""time""
""fullscreenenter"",""1"",""4028""
","
","
","""event"",""trial"",""time""
""fullscreenenter"",""1"",""4028""
","
","","","","","","null","<div style=""font-size:60px;"">+</div>","null","","fixation","","","","","","","","","","",""
"aa-learning-trial","48","238814","0.0-8.0-2.0-1.11","5890","1","16","Female","approach_avoid_spark_v1","""event"",""trial"",""time""
""fullscreenenter"",""1"",""4028""
","
","
","""event"",""trial"",""time""
""fullscreenenter"",""1"",""4028""
","
","","","","","","1004.2000000476837","images/racket1.png","","","learning","4","4","1","1","practice","practice","practice","-1","","",""
"html-button-response","49","240644","0.0-8.0-3.0","5890","1","16","Female","approach_avoid_spark_v1","""event"",""trial"",""time""
""fullscreenenter"",""1"",""4028""
","
","
","""event"",""trial"",""time""
""fullscreenenter"",""1"",""4028""
","
","","","","","","1827.6000000238419","<p> You earned 20 points in the practice round! </p>","0","","break","","","","","","","","","","",""
"learning-instructions","50","250449","0.0-8.0-4.0-0.0","5890","1","16","Female","approach_avoid_spark_v1","""event"",""trial"",""time""
""fullscreenenter"",""1"",""4028""
","
","
","""event"",""trial"",""time""
""fullscreenenter"",""1"",""4028""
","
","","","","","","2783.199999988079","<p> It's almost time to start the real game. </p><p> Before you start, we're going to ask you a few questions about how the game works. </p>","","0","instructions","","","","","","","","","","",""
"preload","51","252453","0.0-8.0-5.0","5890","1","16","Female","approach_avoid_spark_v1","""event"",""trial"",""time""
""fullscreenenter"",""1"",""4028""
","
","
","""event"",""trial"",""time""
""fullscreenenter"",""1"",""4028""
","
","true","false","[]","[]","[]","","","","","","","","","","","","","","","",""
"comp-q","52","259902","0.0-8.0-6.0-0.0","5890","1","16","Female","approach_avoid_spark_v1","""event"",""trial"",""time""
""fullscreenenter"",""1"",""4028""
","
","
","""event"",""trial"",""time""
""fullscreenenter"",""1"",""4028""
","
","","","","","","2446.5","<p> <b> True or False? </b> </p><p> If you see a number in GREY, that means you earned that many points. </p>","","1","comp_question","","","","","","","","","true","",""
"comp-q","53","269602","0.0-8.0-6.0-1.0","5890","1","16","Female","approach_avoid_spark_v1","""event"",""trial"",""time""
""fullscreenenter"",""1"",""4028""
","
","
","""event"",""trial"",""time""
""fullscreenenter"",""1"",""4028""
","
","","","","","","1336","<p><b> That's right! </b> If you see a grey number, it means you earned ZERO points. <br> The grey numbers show the points you WOULD HAVE earned if you had made the other choice. </p>","","0","comp_answer","","","","","","","","","","",""
"comp-q","54","276069","0.0-8.0-7.0-0.0","5890","1","16","Female","approach_avoid_spark_v1","""event"",""trial"",""time""
""fullscreenenter"",""1"",""4028""
","
","
","""event"",""trial"",""time""
""fullscreenenter"",""1"",""4028""
","
","","","","","","1752.699999988079","<p> <b> True or False? </b> </p><p> You will have as much time as you want to make each choice. </p>","","1","comp_question","","","","","","","","","true","",""
"comp-q","55","281637","0.0-8.0-7.0-1.0","5890","1","16","Female","approach_avoid_spark_v1","""event"",""trial"",""time""
""fullscreenenter"",""1"",""4028""
","
","
","""event"",""trial"",""time""
""fullscreenenter"",""1"",""4028""
","
","","","","","","1510.300000011921","<p> <b> That's right! </b> You will only have 3 seconds to make each choice. </p>","","0","comp_answer","","","","","","","","","","",""
"comp-q","56","287374","0.0-8.0-8.0-0.0","5890","1","16","Female","approach_avoid_spark_v1","""event"",""trial"",""time""
""fullscreenenter"",""1"",""4028""
","
","
","""event"",""trial"",""time""
""fullscreenenter"",""1"",""4028""
","
","","","","","","1068.300000011921","<p> <b> True or False? </b> </p><p> You should use the '1' and '0' keys to make your choices. </p>","","0","comp_question","","","","","","","","","true","",""
"comp-q","57","293830","0.0-8.0-8.0-1.0","5890","1","16","Female","approach_avoid_spark_v1","""event"",""trial"",""time""
""fullscreenenter"",""1"",""4028""
","
","
","""event"",""trial"",""time""
""fullscreenenter"",""1"",""4028""
","
","","","","","","1844.1000000238419","<p> <b> That's right! </b> You should use the '1' and '0' keys to make each choice. </p>","","0","comp_answer","","","","","","","","","","",""
"learning-instructions","58","302040","0.0-8.0-9.0-0.0","5890","1","16","Female","approach_avoid_spark_v1","""event"",""trial"",""time""
""fullscreenenter"",""1"",""4028""
","
","
","""event"",""trial"",""time""
""fullscreenenter"",""1"",""4028""
","
","","","","","","1924.0999999642372","<p> It's now time to start the real game. </p>Do your best, because the points you earn in the next rounds will influence your bonus payment. </p>","","0","instructions","","","","","","","","","","",""
"preload","59","302165","0.0-9.0-0.0","5890","1","16","Female","approach_avoid_spark_v1","""event"",""trial"",""time""
""fullscreenenter"",""1"",""4028""
","
","
","""event"",""trial"",""time""
""fullscreenenter"",""1"",""4028""
","
","true","false","[]","[]","[]","","","","","","","","","","","","","","","",""
"learning-instructions","60","309294","0.0-9.0-1.0-0.0","5890","1","16","Female","approach_avoid_spark_v1","""event"",""trial"",""time""
""fullscreenenter"",""1"",""4028""
","
","
","""event"",""trial"",""time""
""fullscreenenter"",""1"",""4028""
","
","","","","","","2298.300000011921","<p> Your goal in this round is to decorate your friend's new house with furniture. </p></div>","","0","instructions","","","","","","","","","","",""
"learning-instructions","61","321858","0.0-9.0-1.0-0.1","5890","1","16","Female","approach_avoid_spark_v1","""event"",""trial"",""time""
""fullscreenenter"",""1"",""4028""
","
","
","""event"",""trial"",""time""
""fullscreenenter"",""1"",""4028""
","
","","","","","","2392.699999988079","<p> Your friend likes some pieces of furniture but not others.  </p><p> On each turn, you will see a piece of furniture.   </p><p> You need to decide whether to put it in your friend's house or not.  </p>","","0","instructions","","","","","","","","","","",""
"learning-instructions","62","328907","0.0-9.0-1.0-0.2","5890","1","16","Female","approach_avoid_spark_v1","""event"",""trial"",""time""
""fullscreenenter"",""1"",""4028""
","
","
","""event"",""trial"",""time""
""fullscreenenter"",""1"",""4028""
","
","","","","","","1251","<p> You can put the furniture in her house by pressing 1 and deliver it elsewhere by pressing 0. </p><br><div class=""choice-instructions-grid""> <div class=""choice-option""><img src=""images/approach.png"" class=""choice-option-img"" stage=""instructions"" position=""0"" ><div class=""choice-option-text""> Press ""1."" </div></div><div class=""choice-option""><img src=""images/avoid.png"" class=""choice-option-img"" stage=""instructions"" position=""1"" ><div class=""choice-option-text""> Press ""0."" </div></div>","","0","instructions","","","","","","","","","","",""
"learning-instructions","63","340074","0.0-9.0-1.0-0.3","5890","1","16","Female","approach_avoid_spark_v1","""event"",""trial"",""time""
""fullscreenenter"",""1"",""4028""
","
","
","""event"",""trial"",""time""
""fullscreenenter"",""1"",""4028""
","
","","","","","","1739.300000011921","<p> If you decorate your friend's house with furniture she likes, she will be happy! </p><p> But if you give her furniture that she does not like, she will be annoyed. </p>","","0","instructions","","","","","","","","","","",""
"learning-instructions","64","353099","0.0-9.0-1.0-0.4","5890","1","16","Female","approach_avoid_spark_v1","""event"",""trial"",""time""
""fullscreenenter"",""1"",""4028""
","
","
","""event"",""trial"",""time""
""fullscreenenter"",""1"",""4028""
","
","","","","","","793.7999999523163","<p> You will earn points based on how you made your friend feel. </p><p> If you made her happy, you will WIN anywhere from 1 - 9 points, </p><p> but if you made her annoyed you will LOSE anywhere from 1 - 9 points. </p>","","0","instructions","","","","","","","","","","",""
"learning-instructions","65","367310","0.0-9.0-1.0-0.5","5890","1","16","Female","approach_avoid_spark_v1","""event"",""trial"",""time""
""fullscreenenter"",""1"",""4028""
","
","
","""event"",""trial"",""time""
""fullscreenenter"",""1"",""4028""
","
","","","","","","994.3000000119209","<p> You will see how many points you won or lost in the center of the screen. </p><p> Here is what you would see if you won 5 points: </p><p style=""color:green;font-size:50px;font-weight:bolder"">5</p>","","0","instructions","","","","","","","","","","",""
"learning-instructions","66","372834","0.0-9.0-1.0-0.6","5890","1","16","Female","approach_avoid_spark_v1","""event"",""trial"",""time""
""fullscreenenter"",""1"",""4028""
","
","
","""event"",""trial"",""time""
""fullscreenenter"",""1"",""4028""
","
","","","","","","1318.3999999761581","<p> And here is what you would see if you lost 3 points: </p><p style=""color:red;font-size:50px;font-weight:bolder"">-3</p>","","0","instructions","","","","","","","","","","",""
"learning-instructions","67","393293","0.0-9.0-1.0-0.7","5890","1","16","Female","approach_avoid_spark_v1","""event"",""trial"",""time""
""fullscreenenter"",""1"",""4028""
","
","
","""event"",""trial"",""time""
""fullscreenenter"",""1"",""4028""
","
","","","","","","906.3999999761581","<p> Some pieces of furniture will make her feel very happy or very annoyed. </p><p> These pieces of furniture will make you win or lose LOTS of points. </p><p> Other pieces of furniture will only make her feel a little happy or a little annoyed. </p><p> These pieces of furniture will make you win or lose small amounts of points. </p>","","0","instructions","","","","","","","","","","",""
"learning-instructions","68","408487","0.0-9.0-1.0-0.8","5890","1","16","Female","approach_avoid_spark_v1","""event"",""trial"",""time""
""fullscreenenter"",""1"",""4028""
","
","
","""event"",""trial"",""time""
""fullscreenenter"",""1"",""4028""
","
","","","","","","1661.199999988079","<p> If you choose to deliver a piece of furniture elsewhere, you will not win or lose any points. </p><p>  However, in the center of the screen, you will see the number of points you WOULD HAVE won or lost if you had given the furniture to your friend. </p>","","0","instructions","","","","","","","","","","",""
"learning-instructions","69","421201","0.0-9.0-1.0-0.9","5890","1","16","Female","approach_avoid_spark_v1","""event"",""trial"",""time""
""fullscreenenter"",""1"",""4028""
","
","
","""event"",""trial"",""time""
""fullscreenenter"",""1"",""4028""
","
","","","","","","794.5","<p> Here is what you might see if you did not give a piece of furniture to your friend that would have made her happy: </p><p style=""color:grey; font-size:50px; display: inline-block; border-spacing: 15px; border-width:3px; border-style:solid; border-color:red"">  &nbsp; 6 &nbsp; </p><p> Remember, in this case, you would not win or lose ANY points because you did not give her the furniture.  </p>","","0","instructions","","","","","","","","","","",""
"learning-instructions","70","430131","0.0-9.0-1.0-0.10","5890","1","16","Female","approach_avoid_spark_v1","""event"",""trial"",""time""
""fullscreenenter"",""1"",""4028""
","
","
","""event"",""trial"",""time""
""fullscreenenter"",""1"",""4028""
","
","","","","","","1027.5","<p> Try to make the best choice for each piece of furniture because </p><p> at the end of the game, you will earn bonus money based on how many points you earned. </p>","","0","instructions","","","","","","","","","","",""
"learning-instructions","71","438970","0.0-9.0-1.0-0.11","5890","1","16","Female","approach_avoid_spark_v1","""event"",""trial"",""time""
""fullscreenenter"",""1"",""4028""
","
","
","""event"",""trial"",""time""
""fullscreenenter"",""1"",""4028""
","
","","","","","","644.5","<p> You will have 3 seconds to make each choice. Try to respond before time runs out! </p><p> You will lose 5 points each time you do not make a response. </p>","","0","instructions","","","","","","","","","","",""
"html-keyboard-response","72","439595","0.0-9.0-2.0-0.0","5890","1","16","Female","approach_avoid_spark_v1","""event"",""trial"",""time""
""fullscreenenter"",""1"",""4028""
","
","
","""event"",""trial"",""time""
""fullscreenenter"",""1"",""4028""
","
","","","","","","null","<div style=""font-size:60px;"">+</div>","null","","fixation","","","","","","","","","","",""
"aa-learning-trial","73","442612","0.0-9.0-2.0-1.0","5890","1","16","Female","approach_avoid_spark_v1","""event"",""trial"",""time""
""fullscreenenter"",""1"",""4028""
","
","
","""event"",""trial"",""time""
""fullscreenenter"",""1"",""4028""
","
","","","","","","1074.199999988079","images/table7.png","","","learning","-6","-6","1","1","table","furniture","1","0","","bad","[-5]"
"html-keyboard-response","74","443128","0.0-9.0-2.0-0.1","5890","1","16","Female","approach_avoid_spark_v1","""event"",""trial"",""time""
""fullscreenenter"",""1"",""4028""
","
","
","""event"",""trial"",""time""
""fullscreenenter"",""1"",""4028""
","
","","","","","","null","<div style=""font-size:60px;"">+</div>","null","","fixation","","","","","","","","","","",""
"aa-learning-trial","75","446148","0.0-9.0-2.0-1.1","5890","1","16","Female","approach_avoid_spark_v1","""event"",""trial"",""time""
""fullscreenenter"",""1"",""4028""
","
","
","""event"",""trial"",""time""
""fullscreenenter"",""1"",""4028""
","
","","","","","","654.1999999880791","images/chair8.png","","","learning","-1","0","0","0","chair","furniture","1","0","","neutral","0"
"html-keyboard-response","76","446661","0.0-9.0-2.0-0.2","5890","1","16","Female","approach_avoid_spark_v1","""event"",""trial"",""time""
""fullscreenenter"",""1"",""4028""
","
","
","""event"",""trial"",""time""
""fullscreenenter"",""1"",""4028""
","
","","","","","","null","<div style=""font-size:60px;"">+</div>","null","","fixation","","","","","","","","","","",""
"aa-learning-trial","77","449684","0.0-9.0-2.0-1.2","5890","1","16","Female","approach_avoid_spark_v1","""event"",""trial"",""time""
""fullscreenenter"",""1"",""4028""
","
","
","""event"",""trial"",""time""
""fullscreenenter"",""1"",""4028""
","
","","","","","","709.5","images/table4.png","","","learning","-2","-2","1","1","table","furniture","1","0","","bad","[-5]"
"html-keyboard-response","78","450197","0.0-9.0-2.0-0.3","5890","1","16","Female","approach_avoid_spark_v1","""event"",""trial"",""time""
""fullscreenenter"",""1"",""4028""
","
","
","""event"",""trial"",""time""
""fullscreenenter"",""1"",""4028""
","
","","","","","","null","<div style=""font-size:60px;"">+</div>","null","","fixation","","","","","","","","","","",""
"aa-learning-trial","79","453205","0.0-9.0-2.0-1.3","5890","1","16","Female","approach_avoid_spark_v1","""event"",""trial"",""time""
""fullscreenenter"",""1"",""4028""
","
","
","""event"",""trial"",""time""
""fullscreenenter"",""1"",""4028""
","
","","","","","","1107","images/table7.png","","","learning","-5","0","0","0","table","furniture","1","0","","bad","[-5]"
"html-keyboard-response","80","453709","0.0-9.0-2.0-0.4","5890","1","16","Female","approach_avoid_spark_v1","""event"",""trial"",""time""
""fullscreenenter"",""1"",""4028""
","
","
","""event"",""trial"",""time""
""fullscreenenter"",""1"",""4028""
","
","","","","","","null","<div style=""font-size:60px;"">+</div>","null","","fixation","","","","","","","","","","",""
"aa-learning-trial","81","456731","0.0-9.0-2.0-1.4","5890","1","16","Female","approach_avoid_spark_v1","""event"",""trial"",""time""
""fullscreenenter"",""1"",""4028""
","
","
","""event"",""trial"",""time""
""fullscreenenter"",""1"",""4028""
","
","","","","","","1192.300000011921","images/chair3.png","","","learning","[-1]","0","0","0","chair","furniture","1","0","","neutral","0"
"html-keyboard-response","82","457250","0.0-9.0-2.0-0.5","5890","1","16","Female","approach_avoid_spark_v1","""event"",""trial"",""time""
""fullscreenenter"",""1"",""4028""
","
","
","""event"",""trial"",""time""
""fullscreenenter"",""1"",""4028""
","
","","","","","","null","<div style=""font-size:60px;"">+</div>","null","","fixation","","","","","","","","","","",""
"aa-learning-trial","83","460266","0.0-9.0-2.0-1.5","5890","1","16","Female","approach_avoid_spark_v1","""event"",""trial"",""time""
""fullscreenenter"",""1"",""4028""
","
","
","""event"",""trial"",""time""
""fullscreenenter"",""1"",""4028""
","
","","","","","","433.60000002384186","images/bed2.png","","","learning","6","6","1","1","bed","furniture","1","0","","good","[6]"
"html-keyboard-response","84","460778","0.0-9.0-2.0-0.6","5890","1","16","Female","approach_avoid_spark_v1","""event"",""trial"",""time""
""fullscreenenter"",""1"",""4028""
","
","
","""event"",""trial"",""time""
""fullscreenenter"",""1"",""4028""
","
","","","","","","null","<div style=""font-size:60px;"">+</div>","null","","fixation","","","","","","","","","","",""
"aa-learning-trial","85","463792","0.0-9.0-2.0-1.6","5890","1","16","Female","approach_avoid_spark_v1","""event"",""trial"",""time""
""fullscreenenter"",""1"",""4028""
","
","
","""event"",""trial"",""time""
""fullscreenenter"",""1"",""4028""
","
","","","","","","1093.5","images/bed1.png","","","learning","4","0","0","0","bed","furniture","1","0","","good","[6]"
"html-keyboard-response","86","464309","0.0-9.0-2.0-0.7","5890","1","16","Female","approach_avoid_spark_v1","""event"",""trial"",""time""
""fullscreenenter"",""1"",""4028""
","
","
","""event"",""trial"",""time""
""fullscreenenter"",""1"",""4028""
","
","","","","","","null","<div style=""font-size:60px;"">+</div>","null","","fixation","","","","","","","","","","",""
"aa-learning-trial","87","467320","0.0-9.0-2.0-1.7","5890","1","16","Female","approach_avoid_spark_v1","""event"",""trial"",""time""
""fullscreenenter"",""1"",""4028""
","
","
","""event"",""trial"",""time""
""fullscreenenter"",""1"",""4028""
","
","","","","","","857.8999999761581","images/table4.png","","","learning","-4","0","0","0","table","furniture","1","0","","bad","[-5]"
"html-keyboard-response","88","467840","0.0-9.0-2.0-0.8","5890","1","16","Female","approach_avoid_spark_v1","""event"",""trial"",""time""
""fullscreenenter"",""1"",""4028""
","
","
","""event"",""trial"",""time""
""fullscreenenter"",""1"",""4028""
","
","","","","","","null","<div style=""font-size:60px;"">+</div>","null","","fixation","","","","","","","","","","",""
"aa-learning-trial","89","470845","0.0-9.0-2.0-1.8","5890","1","16","Female","approach_avoid_spark_v1","""event"",""trial"",""time""
""fullscreenenter"",""1"",""4028""
","
","
","""event"",""trial"",""time""
""fullscreenenter"",""1"",""4028""
","
","","","","","","732.0999999642372","images/bed3.png","","","learning","6","6","1","1","bed","furniture","1","0","","good","[6]"
"html-keyboard-response","90","471348","0.0-9.0-2.0-0.9","5890","1","16","Female","approach_avoid_spark_v1","""event"",""trial"",""time""
""fullscreenenter"",""1"",""4028""
","
","
","""event"",""trial"",""time""
""fullscreenenter"",""1"",""4028""
","
","","","","","","null","<div style=""font-size:60px;"">+</div>","null","","fixation","","","","","","","","","","",""
"aa-learning-trial","91","474358","0.0-9.0-2.0-1.9","5890","1","16","Female","approach_avoid_spark_v1","""event"",""trial"",""time""
""fullscreenenter"",""1"",""4028""
","
","
","""event"",""trial"",""time""
""fullscreenenter"",""1"",""4028""
","
","","","","","","582.1000000238419","images/chair7.png","","","learning","[1]","1","1","1","chair","furniture","1","0","","neutral","0"
"html-keyboard-response","92","474861","0.0-9.0-2.0-0.10","5890","1","16","Female","approach_avoid_spark_v1","""event"",""trial"",""time""
""fullscreenenter"",""1"",""4028""
","
","
","""event"",""trial"",""time""
""fullscreenenter"",""1"",""4028""
","
","","","","","","null","<div style=""font-size:60px;"">+</div>","null","","fixation","","","","","","","","","","",""
"aa-learning-trial","93","477869","0.0-9.0-2.0-1.10","5890","1","16","Female","approach_avoid_spark_v1","""event"",""trial"",""time""
""fullscreenenter"",""1"",""4028""
","
","
","""event"",""trial"",""time""
""fullscreenenter"",""1"",""4028""
","
","","","","","","791","images/bed1.png","","","learning","5","5","1","1","bed","furniture","1","0","","good","[6]"
"html-keyboard-response","94","478372","0.0-9.0-2.0-0.11","5890","1","16","Female","approach_avoid_spark_v1","""event"",""trial"",""time""
""fullscreenenter"",""1"",""4028""
","
","
","""event"",""trial"",""time""
""fullscreenenter"",""1"",""4028""
","
","","","","","","null","<div style=""font-size:60px;"">+</div>","null","","fixation","","","","","","","","","","",""
"aa-learning-trial","95","481381","0.0-9.0-2.0-1.11","5890","1","16","Female","approach_avoid_spark_v1","""event"",""trial"",""time""
""fullscreenenter"",""1"",""4028""
","
","
","""event"",""trial"",""time""
""fullscreenenter"",""1"",""4028""
","
","","","","","","804.5","images/chair3.png","","","learning","1","0","0","0","chair","furniture","1","0","","neutral","0"
"html-keyboard-response","96","481886","0.0-9.0-2.0-0.12","5890","1","16","Female","approach_avoid_spark_v1","""event"",""trial"",""time""
""fullscreenenter"",""1"",""4028""
","
","
","""event"",""trial"",""time""
""fullscreenenter"",""1"",""4028""
","
","","","","","","null","<div style=""font-size:60px;"">+</div>","null","","fixation","","","","","","","","","","",""
"aa-learning-trial","97","484894","0.0-9.0-2.0-1.12","5890","1","16","Female","approach_avoid_spark_v1","""event"",""trial"",""time""
""fullscreenenter"",""1"",""4028""
","
","
","""event"",""trial"",""time""
""fullscreenenter"",""1"",""4028""
","
","","","","","","942.8000000119209","images/bed3.png","","","learning","7","7","1","1","bed","furniture","1","0","","good","[6]"
"html-keyboard-response","98","485396","0.0-9.0-2.0-0.13","5890","1","16","Female","approach_avoid_spark_v1","""event"",""trial"",""time""
""fullscreenenter"",""1"",""4028""
","
","
","""event"",""trial"",""time""
""fullscreenenter"",""1"",""4028""
","
","","","","","","null","<div style=""font-size:60px;"">+</div>","null","","fixation","","","","","","","","","","",""
"aa-learning-trial","99","488405","0.0-9.0-2.0-1.13","5890","1","16","Female","approach_avoid_spark_v1","""event"",""trial"",""time""
""fullscreenenter"",""1"",""4028""
","
","
","""event"",""trial"",""time""
""fullscreenenter"",""1"",""4028""
","
","","","","","","811.2000000476837","images/chair8.png","","","learning","1","0","0","0","chair","furniture","1","0","","neutral","0"
"html-keyboard-response","100","488909","0.0-9.0-2.0-0.14","5890","1","16","Female","approach_avoid_spark_v1","""event"",""trial"",""time""
""fullscreenenter"",""1"",""4028""
","
","
","""event"",""trial"",""time""
""fullscreenenter"",""1"",""4028""
","
","","","","","","null","<div style=""font-size:60px;"">+</div>","null","","fixation","","","","","","","","","","",""
"aa-learning-trial","101","491917","0.0-9.0-2.0-1.14","5890","1","16","Female","approach_avoid_spark_v1","""event"",""trial"",""time""
""fullscreenenter"",""1"",""4028""
","
","
","""event"",""trial"",""time""
""fullscreenenter"",""1"",""4028""
","
","","","","","","1309.800000011921","images/table5.png","","","learning","-4","-4","1","1","table","furniture","1","0","","bad","[-5]"
"html-keyboard-response","102","492422","0.0-9.0-2.0-0.15","5890","1","16","Female","approach_avoid_spark_v1","""event"",""trial"",""time""
""fullscreenenter"",""1"",""4028""
","
","
","""event"",""trial"",""time""
""fullscreenenter"",""1"",""4028""
","
","","","","","","null","<div style=""font-size:60px;"">+</div>","null","","fixation","","","","","","","","","","",""
"aa-learning-trial","103","495429","0.0-9.0-2.0-1.15","5890","1","16","Female","approach_avoid_spark_v1","""event"",""trial"",""time""
""fullscreenenter"",""1"",""4028""
","
","
","""event"",""trial"",""time""
""fullscreenenter"",""1"",""4028""
","
","","","","","","823.5","images/table4.png","","","learning","-3","0","0","0","table","furniture","1","0","","bad","[-5]"
"html-keyboard-response","104","495932","0.0-9.0-2.0-0.16","5890","1","16","Female","approach_avoid_spark_v1","""event"",""trial"",""time""
""fullscreenenter"",""1"",""4028""
","
","
","""event"",""trial"",""time""
""fullscreenenter"",""1"",""4028""
","
","","","","","","null","<div style=""font-size:60px;"">+</div>","null","","fixation","","","","","","","","","","",""
"aa-learning-trial","105","498942","0.0-9.0-2.0-1.16","5890","1","16","Female","approach_avoid_spark_v1","""event"",""trial"",""time""
""fullscreenenter"",""1"",""4028""
","
","
","""event"",""trial"",""time""
""fullscreenenter"",""1"",""4028""
","
","","","","","","727.1999999880791","images/bed1.png","","","learning","9","9","1","1","bed","furniture","1","0","","good","[6]"
"html-keyboard-response","106","499444","0.0-9.0-2.0-0.17","5890","1","16","Female","approach_avoid_spark_v1","""event"",""trial"",""time""
""fullscreenenter"",""1"",""4028""
","
","
","""event"",""trial"",""time""
""fullscreenenter"",""1"",""4028""
","
","","","","","","null","<div style=""font-size:60px;"">+</div>","null","","fixation","","","","","","","","","","",""
"aa-learning-trial","107","502453","0.0-9.0-2.0-1.17","5890","1","16","Female","approach_avoid_spark_v1","""event"",""trial"",""time""
""fullscreenenter"",""1"",""4028""
","
","
","""event"",""trial"",""time""
""fullscreenenter"",""1"",""4028""
","
","","","","","","736.8999999761581","images/bed4.png","","","learning","5","5","1","1","bed","furniture","1","0","","good","[6]"
"html-keyboard-response","108","502957","0.0-9.0-2.0-0.18","5890","1","16","Female","approach_avoid_spark_v1","""event"",""trial"",""time""
""fullscreenenter"",""1"",""4028""
","
","
","""event"",""trial"",""time""
""fullscreenenter"",""1"",""4028""
","
","","","","","","null","<div style=""font-size:60px;"">+</div>","null","","fixation","","","","","","","","","","",""
"aa-learning-trial","109","505966","0.0-9.0-2.0-1.18","5890","1","16","Female","approach_avoid_spark_v1","""event"",""trial"",""time""
""fullscreenenter"",""1"",""4028""
","
","
","""event"",""trial"",""time""
""fullscreenenter"",""1"",""4028""
","
","","","","","","871.8000000119209","images/bed2.png","","","learning","5","5","1","1","bed","furniture","1","0","","good","[6]"
"html-keyboard-response","110","506469","0.0-9.0-2.0-0.19","5890","1","16","Female","approach_avoid_spark_v1","""event"",""trial"",""time""
""fullscreenenter"",""1"",""4028""
","
","
","""event"",""trial"",""time""
""fullscreenenter"",""1"",""4028""
","
","","","","","","null","<div style=""font-size:60px;"">+</div>","null","","fixation","","","","","","","","","","",""
"aa-learning-trial","111","509478","0.0-9.0-2.0-1.19","5890","1","16","Female","approach_avoid_spark_v1","""event"",""trial"",""time""
""fullscreenenter"",""1"",""4028""
","
","
","""event"",""trial"",""time""
""fullscreenenter"",""1"",""4028""
","
","","","","","","651.6000000238419","images/bed1.png","","","learning","8","8","1","1","bed","furniture","1","0","","good","[6]"
"html-keyboard-response","112","509981","0.0-9.0-2.0-0.20","5890","1","16","Female","approach_avoid_spark_v1","""event"",""trial"",""time""
""fullscreenenter"",""1"",""4028""
","
","
","""event"",""trial"",""time""
""fullscreenenter"",""1"",""4028""
","
","","","","","","null","<div style=""font-size:60px;"">+</div>","null","","fixation","","","","","","","","","","",""
"aa-learning-trial","113","512989","0.0-9.0-2.0-1.20","5890","1","16","Female","approach_avoid_spark_v1","""event"",""trial"",""time""
""fullscreenenter"",""1"",""4028""
","
","
","""event"",""trial"",""time""
""fullscreenenter"",""1"",""4028""
","
","","","","","","691.3000000119209","images/table7.png","","","learning","-7","0","0","0","table","furniture","1","0","","bad","[-5]"
"html-keyboard-response","114","513493","0.0-9.0-2.0-0.21","5890","1","16","Female","approach_avoid_spark_v1","""event"",""trial"",""time""
""fullscreenenter"",""1"",""4028""
","
","
","""event"",""trial"",""time""
""fullscreenenter"",""1"",""4028""
","
","","","","","","null","<div style=""font-size:60px;"">+</div>","null","","fixation","","","","","","","","","","",""
"aa-learning-trial","115","516502","0.0-9.0-2.0-1.21","5890","1","16","Female","approach_avoid_spark_v1","""event"",""trial"",""time""
""fullscreenenter"",""1"",""4028""
","
","
","""event"",""trial"",""time""
""fullscreenenter"",""1"",""4028""
","
","","","","","","546.6000000238419","images/table7.png","","","learning","-4","0","0","0","table","furniture","1","0","","bad","[-5]"
"html-keyboard-response","116","517005","0.0-9.0-2.0-0.22","5890","1","16","Female","approach_avoid_spark_v1","""event"",""trial"",""time""
""fullscreenenter"",""1"",""4028""
","
","
","""event"",""trial"",""time""
""fullscreenenter"",""1"",""4028""
","
","","","","","","null","<div style=""font-size:60px;"">+</div>","null","","fixation","","","","","","","","","","",""
"aa-learning-trial","117","520015","0.0-9.0-2.0-1.22","5890","1","16","Female","approach_avoid_spark_v1","""event"",""trial"",""time""
""fullscreenenter"",""1"",""4028""
","
","
","""event"",""trial"",""time""
""fullscreenenter"",""1"",""4028""
","
","","","","","","961.8999999761581","images/chair8.png","","","learning","-2","-2","1","1","chair","furniture","1","0","","neutral","0"
"html-keyboard-response","118","520518","0.0-9.0-2.0-0.23","5890","1","16","Female","approach_avoid_spark_v1","""event"",""trial"",""time""
""fullscreenenter"",""1"",""4028""
","
","
","""event"",""trial"",""time""
""fullscreenenter"",""1"",""4028""
","
","","","","","","null","<div style=""font-size:60px;"">+</div>","null","","fixation","","","","","","","","","","",""
"aa-learning-trial","119","523531","0.0-9.0-2.0-1.23","5890","1","16","Female","approach_avoid_spark_v1","""event"",""trial"",""time""
""fullscreenenter"",""1"",""4028""
","
","
","""event"",""trial"",""time""
""fullscreenenter"",""1"",""4028""
","
","","","","","","907.6999999880791","images/chair3.png","","","learning","1","1","1","1","chair","furniture","1","0","","neutral","0"
"html-keyboard-response","120","524037","0.0-9.0-2.0-0.24","5890","1","16","Female","approach_avoid_spark_v1","""event"",""trial"",""time""
""fullscreenenter"",""1"",""4028""
","
","
","""event"",""trial"",""time""
""fullscreenenter"",""1"",""4028""
","
","","","","","","null","<div style=""font-size:60px;"">+</div>","null","","fixation","","","","","","","","","","",""
"aa-learning-trial","121","527046","0.0-9.0-2.0-1.24","5890","1","16","Female","approach_avoid_spark_v1","""event"",""trial"",""time""
""fullscreenenter"",""1"",""4028""
","
","
","""event"",""trial"",""time""
""fullscreenenter"",""1"",""4028""
","
","","","","","","760.3000000119209","images/table8.png","","","learning","-5","-5","1","1","table","furniture","1","0","","bad","[-5]"
"html-keyboard-response","122","527549","0.0-9.0-2.0-0.25","5890","1","16","Female","approach_avoid_spark_v1","""event"",""trial"",""time""
""fullscreenenter"",""1"",""4028""
","
","
","""event"",""trial"",""time""
""fullscreenenter"",""1"",""4028""
","
","","","","","","null","<div style=""font-size:60px;"">+</div>","null","","fixation","","","","","","","","","","",""
"aa-learning-trial","123","530558","0.0-9.0-2.0-1.25","5890","1","16","Female","approach_avoid_spark_v1","""event"",""trial"",""time""
""fullscreenenter"",""1"",""4028""
","
","
","""event"",""trial"",""time""
""fullscreenenter"",""1"",""4028""
","
","","","","","","726","images/chair4.png","","","learning","1","1","1","1","chair","furniture","1","0","","neutral","0"
"html-keyboard-response","124","531061","0.0-9.0-2.0-0.26","5890","1","16","Female","approach_avoid_spark_v1","""event"",""trial"",""time""
""fullscreenenter"",""1"",""4028""
","
","
","""event"",""trial"",""time""
""fullscreenenter"",""1"",""4028""
","
","","","","","","null","<div style=""font-size:60px;"">+</div>","null","","fixation","","","","","","","","","","",""
"aa-learning-trial","125","534070","0.0-9.0-2.0-1.26","5890","1","16","Female","approach_avoid_spark_v1","""event"",""trial"",""time""
""fullscreenenter"",""1"",""4028""
","
","
","""event"",""trial"",""time""
""fullscreenenter"",""1"",""4028""
","
","","","","","","760.6000000238419","images/table3.png","","","learning","-2","-2","1","1","table","furniture","1","0","","bad","[-5]"
"html-keyboard-response","126","534573","0.0-9.0-2.0-0.27","5890","1","16","Female","approach_avoid_spark_v1","""event"",""trial"",""time""
""fullscreenenter"",""1"",""4028""
","
","
","""event"",""trial"",""time""
""fullscreenenter"",""1"",""4028""
","
","","","","","","null","<div style=""font-size:60px;"">+</div>","null","","fixation","","","","","","","","","","",""
"aa-learning-trial","127","537582","0.0-9.0-2.0-1.27","5890","1","16","Female","approach_avoid_spark_v1","""event"",""trial"",""time""
""fullscreenenter"",""1"",""4028""
","
","
","""event"",""trial"",""time""
""fullscreenenter"",""1"",""4028""
","
","","","","","","635.8999999761581","images/bed3.png","","","learning","6","6","1","1","bed","furniture","1","0","","good","[6]"
"html-keyboard-response","128","538085","0.0-9.0-2.0-0.28","5890","1","16","Female","approach_avoid_spark_v1","""event"",""trial"",""time""
""fullscreenenter"",""1"",""4028""
","
","
","""event"",""trial"",""time""
""fullscreenenter"",""1"",""4028""
","
","","","","","","null","<div style=""font-size:60px;"">+</div>","null","","fixation","","","","","","","","","","",""
"aa-learning-trial","129","541094","0.0-9.0-2.0-1.28","5890","1","16","Female","approach_avoid_spark_v1","""event"",""trial"",""time""
""fullscreenenter"",""1"",""4028""
","
","
","""event"",""trial"",""time""
""fullscreenenter"",""1"",""4028""
","
","","","","","","990.1999999880791","images/chair8.png","","","learning","-1","-1","1","1","chair","furniture","1","0","","neutral","0"
"html-keyboard-response","130","541597","0.0-9.0-2.0-0.29","5890","1","16","Female","approach_avoid_spark_v1","""event"",""trial"",""time""
""fullscreenenter"",""1"",""4028""
","
","
","""event"",""trial"",""time""
""fullscreenenter"",""1"",""4028""
","
","","","","","","null","<div style=""font-size:60px;"">+</div>","null","","fixation","","","","","","","","","","",""
"aa-learning-trial","131","544606","0.0-9.0-2.0-1.29","5890","1","16","Female","approach_avoid_spark_v1","""event"",""trial"",""time""
""fullscreenenter"",""1"",""4028""
","
","
","""event"",""trial"",""time""
""fullscreenenter"",""1"",""4028""
","
","","","","","","543.8999999761581","images/chair7.png","","","learning","2","2","1","1","chair","furniture","1","0","","neutral","0"
"html-keyboard-response","132","545109","0.0-9.0-2.0-0.30","5890","1","16","Female","approach_avoid_spark_v1","""event"",""trial"",""time""
""fullscreenenter"",""1"",""4028""
","
","
","""event"",""trial"",""time""
""fullscreenenter"",""1"",""4028""
","
","","","","","","null","<div style=""font-size:60px;"">+</div>","null","","fixation","","","","","","","","","","",""
"aa-learning-trial","133","548118","0.0-9.0-2.0-1.30","5890","1","16","Female","approach_avoid_spark_v1","""event"",""trial"",""time""
""fullscreenenter"",""1"",""4028""
","
","
","""event"",""trial"",""time""
""fullscreenenter"",""1"",""4028""
","
","","","","","","686.7999999523163","images/chair8.png","","","learning","[1]","1","1","1","chair","furniture","1","0","","neutral","0"
"html-keyboard-response","134","548622","0.0-9.0-2.0-0.31","5890","1","16","Female","approach_avoid_spark_v1","""event"",""trial"",""time""
""fullscreenenter"",""1"",""4028""
","
","
","""event"",""trial"",""time""
""fullscreenenter"",""1"",""4028""
","
","","","","","","null","<div style=""font-size:60px;"">+</div>","null","","fixation","","","","","","","","","","",""
"aa-learning-trial","135","551631","0.0-9.0-2.0-1.31","5890","1","16","Female","approach_avoid_spark_v1","""event"",""trial"",""time""
""fullscreenenter"",""1"",""4028""
","
","
","""event"",""trial"",""time""
""fullscreenenter"",""1"",""4028""
","
","","","","","","1039","images/table4.png","","","learning","-5","0","0","0","table","furniture","1","0","","bad","[-5]"
"html-keyboard-response","136","552134","0.0-9.0-2.0-0.32","5890","1","16","Female","approach_avoid_spark_v1","""event"",""trial"",""time""
""fullscreenenter"",""1"",""4028""
","
","
","""event"",""trial"",""time""
""fullscreenenter"",""1"",""4028""
","
","","","","","","null","<div style=""font-size:60px;"">+</div>","null","","fixation","","","","","","","","","","",""
"aa-learning-trial","137","555142","0.0-9.0-2.0-1.32","5890","1","16","Female","approach_avoid_spark_v1","""event"",""trial"",""time""
""fullscreenenter"",""1"",""4028""
","
","
","""event"",""trial"",""time""
""fullscreenenter"",""1"",""4028""
","
","","","","","","632.5","images/bed1.png","","","learning","6","6","1","1","bed","furniture","1","0","","good","[6]"
"html-keyboard-response","138","555645","0.0-9.0-2.0-0.33","5890","1","16","Female","approach_avoid_spark_v1","""event"",""trial"",""time""
""fullscreenenter"",""1"",""4028""
","
","
","""event"",""trial"",""time""
""fullscreenenter"",""1"",""4028""
","
","","","","","","null","<div style=""font-size:60px;"">+</div>","null","","fixation","","","","","","","","","","",""
"aa-learning-trial","139","558653","0.0-9.0-2.0-1.33","5890","1","16","Female","approach_avoid_spark_v1","""event"",""trial"",""time""
""fullscreenenter"",""1"",""4028""
","
","
","""event"",""trial"",""time""
""fullscreenenter"",""1"",""4028""
","
","","","","","","571.3999999761581","images/bed3.png","","","learning","9","9","1","1","bed","furniture","1","0","","good","[6]"
"html-keyboard-response","140","559157","0.0-9.0-2.0-0.34","5890","1","16","Female","approach_avoid_spark_v1","""event"",""trial"",""time""
""fullscreenenter"",""1"",""4028""
","
","
","""event"",""trial"",""time""
""fullscreenenter"",""1"",""4028""
","
","","","","","","null","<div style=""font-size:60px;"">+</div>","null","","fixation","","","","","","","","","","",""
"aa-learning-trial","141","562165","0.0-9.0-2.0-1.34","5890","1","16","Female","approach_avoid_spark_v1","""event"",""trial"",""time""
""fullscreenenter"",""1"",""4028""
","
","
","""event"",""trial"",""time""
""fullscreenenter"",""1"",""4028""
","
","","","","","","857","images/table5.png","","","learning","-7","0","0","0","table","furniture","1","0","","bad","[-5]"
"html-keyboard-response","142","562670","0.0-9.0-2.0-0.35","5890","1","16","Female","approach_avoid_spark_v1","""event"",""trial"",""time""
""fullscreenenter"",""1"",""4028""
","
","
","""event"",""trial"",""time""
""fullscreenenter"",""1"",""4028""
","
","","","","","","null","<div style=""font-size:60px;"">+</div>","null","","fixation","","","","","","","","","","",""
"aa-learning-trial","143","565678","0.0-9.0-2.0-1.35","5890","1","16","Female","approach_avoid_spark_v1","""event"",""trial"",""time""
""fullscreenenter"",""1"",""4028""
","
","
","""event"",""trial"",""time""
""fullscreenenter"",""1"",""4028""
","
","","","","","","901.4000000357628","images/chair3.png","","","learning","-3","0","0","0","chair","furniture","1","0","","neutral","0"
"html-keyboard-response","144","566181","0.0-9.0-2.0-0.36","5890","1","16","Female","approach_avoid_spark_v1","""event"",""trial"",""time""
""fullscreenenter"",""1"",""4028""
","
","
","""event"",""trial"",""time""
""fullscreenenter"",""1"",""4028""
","
","","","","","","null","<div style=""font-size:60px;"">+</div>","null","","fixation","","","","","","","","","","",""
"aa-learning-trial","145","569189","0.0-9.0-2.0-1.36","5890","1","16","Female","approach_avoid_spark_v1","""event"",""trial"",""time""
""fullscreenenter"",""1"",""4028""
","
","
","""event"",""trial"",""time""
""fullscreenenter"",""1"",""4028""
","
","","","","","","795.1999999880791","images/table7.png","","","learning","-4","0","0","0","table","furniture","1","0","","bad","[-5]"
"html-keyboard-response","146","569693","0.0-9.0-2.0-0.37","5890","1","16","Female","approach_avoid_spark_v1","""event"",""trial"",""time""
""fullscreenenter"",""1"",""4028""
","
","
","""event"",""trial"",""time""
""fullscreenenter"",""1"",""4028""
","
","","","","","","null","<div style=""font-size:60px;"">+</div>","null","","fixation","","","","","","","","","","",""
"aa-learning-trial","147","572701","0.0-9.0-2.0-1.37","5890","1","16","Female","approach_avoid_spark_v1","""event"",""trial"",""time""
""fullscreenenter"",""1"",""4028""
","
","
","""event"",""trial"",""time""
""fullscreenenter"",""1"",""4028""
","
","","","","","","526.2000000476837","images/bed3.png","","","learning","6","6","1","1","bed","furniture","1","0","","good","[6]"
"html-keyboard-response","148","573205","0.0-9.0-2.0-0.38","5890","1","16","Female","approach_avoid_spark_v1","""event"",""trial"",""time""
""fullscreenenter"",""1"",""4028""
","
","
","""event"",""trial"",""time""
""fullscreenenter"",""1"",""4028""
","
","","","","","","null","<div style=""font-size:60px;"">+</div>","null","","fixation","","","","","","","","","","",""
"aa-learning-trial","149","576214","0.0-9.0-2.0-1.38","5890","1","16","Female","approach_avoid_spark_v1","""event"",""trial"",""time""
""fullscreenenter"",""1"",""4028""
","
","
","""event"",""trial"",""time""
""fullscreenenter"",""1"",""4028""
","
","","","","","","448.30000001192093","images/bed1.png","","","learning","4","4","1","1","bed","furniture","1","0","","good","[6]"
"html-keyboard-response","150","576718","0.0-9.0-2.0-0.39","5890","1","16","Female","approach_avoid_spark_v1","""event"",""trial"",""time""
""fullscreenenter"",""1"",""4028""
","
","
","""event"",""trial"",""time""
""fullscreenenter"",""1"",""4028""
","
","","","","","","null","<div style=""font-size:60px;"">+</div>","null","","fixation","","","","","","","","","","",""
"aa-learning-trial","151","579726","0.0-9.0-2.0-1.39","5890","1","16","Female","approach_avoid_spark_v1","""event"",""trial"",""time""
""fullscreenenter"",""1"",""4028""
","
","
","""event"",""trial"",""time""
""fullscreenenter"",""1"",""4028""
","
","","","","","","803.5","images/chair3.png","","","learning","3","3","1","1","chair","furniture","1","0","","neutral","0"
"html-keyboard-response","152","580229","0.0-9.0-2.0-0.40","5890","1","16","Female","approach_avoid_spark_v1","""event"",""trial"",""time""
""fullscreenenter"",""1"",""4028""
","
","
","""event"",""trial"",""time""
""fullscreenenter"",""1"",""4028""
","
","","","","","","null","<div style=""font-size:60px;"">+</div>","null","","fixation","","","","","","","","","","",""
"aa-learning-trial","153","583238","0.0-9.0-2.0-1.40","5890","1","16","Female","approach_avoid_spark_v1","""event"",""trial"",""time""
""fullscreenenter"",""1"",""4028""
","
","
","""event"",""trial"",""time""
""fullscreenenter"",""1"",""4028""
","
","","","","","","610.1999999880791","images/bed2.png","","","learning","5","5","1","1","bed","furniture","1","0","","good","[6]"
"html-keyboard-response","154","583742","0.0-9.0-2.0-0.41","5890","1","16","Female","approach_avoid_spark_v1","""event"",""trial"",""time""
""fullscreenenter"",""1"",""4028""
","
","
","""event"",""trial"",""time""
""fullscreenenter"",""1"",""4028""
","
","","","","","","null","<div style=""font-size:60px;"">+</div>","null","","fixation","","","","","","","","","","",""
"aa-learning-trial","155","586750","0.0-9.0-2.0-1.41","5890","1","16","Female","approach_avoid_spark_v1","""event"",""trial"",""time""
""fullscreenenter"",""1"",""4028""
","
","
","""event"",""trial"",""time""
""fullscreenenter"",""1"",""4028""
","
","","","","","","858","images/chair7.png","","","learning","3","3","1","1","chair","furniture","1","0","","neutral","0"
"html-keyboard-response","156","587254","0.0-9.0-2.0-0.42","5890","1","16","Female","approach_avoid_spark_v1","""event"",""trial"",""time""
""fullscreenenter"",""1"",""4028""
","
","
","""event"",""trial"",""time""
""fullscreenenter"",""1"",""4028""
","
","","","","","","null","<div style=""font-size:60px;"">+</div>","null","","fixation","","","","","","","","","","",""
"aa-learning-trial","157","590262","0.0-9.0-2.0-1.42","5890","1","16","Female","approach_avoid_spark_v1","""event"",""trial"",""time""
""fullscreenenter"",""1"",""4028""
","
","
","""event"",""trial"",""time""
""fullscreenenter"",""1"",""4028""
","
","","","","","","915","images/chair1.png","","","learning","3","3","1","1","chair","furniture","1","0","","neutral","0"
"html-keyboard-response","158","590765","0.0-9.0-2.0-0.43","5890","1","16","Female","approach_avoid_spark_v1","""event"",""trial"",""time""
""fullscreenenter"",""1"",""4028""
","
","
","""event"",""trial"",""time""
""fullscreenenter"",""1"",""4028""
","
","","","","","","null","<div style=""font-size:60px;"">+</div>","null","","fixation","","","","","","","","","","",""
"aa-learning-trial","159","593773","0.0-9.0-2.0-1.43","5890","1","16","Female","approach_avoid_spark_v1","""event"",""trial"",""time""
""fullscreenenter"",""1"",""4028""
","
","
","""event"",""trial"",""time""
""fullscreenenter"",""1"",""4028""
","
","","","","","","557.5","images/table7.png","","","learning","-3","0","0","0","table","furniture","1","0","","bad","[-5]"
"html-keyboard-response","160","594278","0.0-9.0-2.0-0.44","5890","1","16","Female","approach_avoid_spark_v1","""event"",""trial"",""time""
""fullscreenenter"",""1"",""4028""
","
","
","""event"",""trial"",""time""
""fullscreenenter"",""1"",""4028""
","
","","","","","","null","<div style=""font-size:60px;"">+</div>","null","","fixation","","","","","","","","","","",""
"aa-learning-trial","161","597287","0.0-9.0-2.0-1.44","5890","1","16","Female","approach_avoid_spark_v1","""event"",""trial"",""time""
""fullscreenenter"",""1"",""4028""
","
","
","""event"",""trial"",""time""
""fullscreenenter"",""1"",""4028""
","
","","","","","","821.1000000238419","images/chair3.png","","","learning","1","0","0","0","chair","furniture","1","0","","neutral","0"
"html-keyboard-response","162","597789","0.0-9.0-2.0-0.45","5890","1","16","Female","approach_avoid_spark_v1","""event"",""trial"",""time""
""fullscreenenter"",""1"",""4028""
","
","
","""event"",""trial"",""time""
""fullscreenenter"",""1"",""4028""
","
","","","","","","null","<div style=""font-size:60px;"">+</div>","null","","fixation","","","","","","","","","","",""
"aa-learning-trial","163","600798","0.0-9.0-2.0-1.45","5890","1","16","Female","approach_avoid_spark_v1","""event"",""trial"",""time""
""fullscreenenter"",""1"",""4028""
","
","
","""event"",""trial"",""time""
""fullscreenenter"",""1"",""4028""
","
","","","","","","707.8000000119209","images/table4.png","","","learning","-5","0","0","0","table","furniture","1","0","","bad","[-5]"
"html-keyboard-response","164","601302","0.0-9.0-2.0-0.46","5890","1","16","Female","approach_avoid_spark_v1","""event"",""trial"",""time""
""fullscreenenter"",""1"",""4028""
","
","
","""event"",""trial"",""time""
""fullscreenenter"",""1"",""4028""
","
","","","","","","null","<div style=""font-size:60px;"">+</div>","null","","fixation","","","","","","","","","","",""
"aa-learning-trial","165","604310","0.0-9.0-2.0-1.46","5890","1","16","Female","approach_avoid_spark_v1","""event"",""trial"",""time""
""fullscreenenter"",""1"",""4028""
","
","
","""event"",""trial"",""time""
""fullscreenenter"",""1"",""4028""
","
","","","","","","1299.6000000238419","images/bed5.png","","","learning","6","6","1","1","bed","furniture","1","0","","good","[6]"
"html-keyboard-response","166","604814","0.0-9.0-2.0-0.47","5890","1","16","Female","approach_avoid_spark_v1","""event"",""trial"",""time""
""fullscreenenter"",""1"",""4028""
","
","
","""event"",""trial"",""time""
""fullscreenenter"",""1"",""4028""
","
","","","","","","null","<div style=""font-size:60px;"">+</div>","null","","fixation","","","","","","","","","","",""
"aa-learning-trial","167","607822","0.0-9.0-2.0-1.47","5890","1","16","Female","approach_avoid_spark_v1","""event"",""trial"",""time""
""fullscreenenter"",""1"",""4028""
","
","
","""event"",""trial"",""time""
""fullscreenenter"",""1"",""4028""
","
","","","","","","697","images/table5.png","","","learning","-6","0","0","0","table","furniture","1","0","","bad","[-5]"
"html-keyboard-response","168","608325","0.0-9.0-2.0-0.48","5890","1","16","Female","approach_avoid_spark_v1","""event"",""trial"",""time""
""fullscreenenter"",""1"",""4028""
","
","
","""event"",""trial"",""time""
""fullscreenenter"",""1"",""4028""
","
","","","","","","null","<div style=""font-size:60px;"">+</div>","null","","fixation","","","","","","","","","","",""
"aa-learning-trial","169","611333","0.0-9.0-2.0-1.48","5890","1","16","Female","approach_avoid_spark_v1","""event"",""trial"",""time""
""fullscreenenter"",""1"",""4028""
","
","
","""event"",""trial"",""time""
""fullscreenenter"",""1"",""4028""
","
","","","","","","633","images/table4.png","","","learning","-4","0","0","0","table","furniture","1","0","","bad","[-5]"
"html-keyboard-response","170","611838","0.0-9.0-2.0-0.49","5890","1","16","Female","approach_avoid_spark_v1","""event"",""trial"",""time""
""fullscreenenter"",""1"",""4028""
","
","
","""event"",""trial"",""time""
""fullscreenenter"",""1"",""4028""
","
","","","","","","null","<div style=""font-size:60px;"">+</div>","null","","fixation","","","","","","","","","","",""
"aa-learning-trial","171","614846","0.0-9.0-2.0-1.49","5890","1","16","Female","approach_avoid_spark_v1","""event"",""trial"",""time""
""fullscreenenter"",""1"",""4028""
","
","
","""event"",""trial"",""time""
""fullscreenenter"",""1"",""4028""
","
","","","","","","979.8999999761581","images/chair8.png","","","learning","1","0","0","0","chair","furniture","1","0","","neutral","0"
"html-keyboard-response","172","615349","0.0-9.0-2.0-0.50","5890","1","16","Female","approach_avoid_spark_v1","""event"",""trial"",""time""
""fullscreenenter"",""1"",""4028""
","
","
","""event"",""trial"",""time""
""fullscreenenter"",""1"",""4028""
","
","","","","","","null","<div style=""font-size:60px;"">+</div>","null","","fixation","","","","","","","","","","",""
"aa-learning-trial","173","618358","0.0-9.0-2.0-1.50","5890","1","16","Female","approach_avoid_spark_v1","""event"",""trial"",""time""
""fullscreenenter"",""1"",""4028""
","
","
","""event"",""trial"",""time""
""fullscreenenter"",""1"",""4028""
","
","","","","","","634.0999999642372","images/bed3.png","","","learning","6","6","1","1","bed","furniture","1","0","","good","[6]"
"html-button-response","174","620952","0.0-9.0-3.0","5890","1","16","Female","approach_avoid_spark_v1","""event"",""trial"",""time""
""fullscreenenter"",""1"",""4028""
","
","
","""event"",""trial"",""time""
""fullscreenenter"",""1"",""4028""
","
","","","","","","2591.400000035763","<p> You have completed the round! <p> In this round, you earned 92 points! </p>","0","","break","","","","","","","","","","",""
"html-button-response","175","623993","0.0-10.0","5890","1","16","Female","approach_avoid_spark_v1","""event"",""trial"",""time""
""fullscreenenter"",""1"",""4028""
","
","
","""event"",""trial"",""time""
""fullscreenenter"",""1"",""4028""
","
","","","","","","3040.100000023842","<p> Now it's time to play another round. </p>","0","","transition_screen","","","","","","","","","","",""
"preload","176","624124","0.0-11.0-0.0","5890","1","16","Female","approach_avoid_spark_v1","""event"",""trial"",""time""
""fullscreenenter"",""1"",""4028""
","
","
","""event"",""trial"",""time""
""fullscreenenter"",""1"",""4028""
","
","true","false","[]","[]","[]","","","","","","","","","","","","","","","",""
"learning-instructions","177","631987","0.0-11.0-1.0-0.0","5890","1","16","Female","approach_avoid_spark_v1","""event"",""trial"",""time""
""fullscreenenter"",""1"",""4028""
","
","
","""event"",""trial"",""time""
""fullscreenenter"",""1"",""4028""
","
","","","","","","2566.300000011921","<p> Your goal in this round is to eat tasty fruit. </p></div>","","0","instructions","","","","","","","","","","",""
"learning-instructions","178","645696","0.0-11.0-1.0-0.1","5890","1","16","Female","approach_avoid_spark_v1","""event"",""trial"",""time""
""fullscreenenter"",""1"",""4028""
","
","
","""event"",""trial"",""time""
""fullscreenenter"",""1"",""4028""
","
","","","","","","3285.800000011921","<p> Some of the fruits you will see are tasty. Others are rotten on the inside.  </p><p> On each turn, you will see a fruit.   </p><p> You need to decide whether to eat it or not.  </p>","","0","instructions","","","","","","","","","","",""
"learning-instructions","179","652190","0.0-11.0-1.0-0.2","5890","1","16","Female","approach_avoid_spark_v1","""event"",""trial"",""time""
""fullscreenenter"",""1"",""4028""
","
","
","""event"",""trial"",""time""
""fullscreenenter"",""1"",""4028""
","
","","","","","","968.9000000357628","<p> You can eat the fruit by pressing 1 and choose not to eat it by pressing 0. </p><br><div class=""choice-instructions-grid""> <div class=""choice-option""><img src=""images/approach.png"" class=""choice-option-img"" stage=""instructions"" position=""0"" ><div class=""choice-option-text""> Press ""1."" </div></div><div class=""choice-option""><img src=""images/avoid.png"" class=""choice-option-img"" stage=""instructions"" position=""1"" ><div class=""choice-option-text""> Press ""0."" </div></div>","","0","instructions","","","","","","","","","","",""
"learning-instructions","180","660951","0.0-11.0-1.0-0.3","5890","1","16","Female","approach_avoid_spark_v1","""event"",""trial"",""time""
""fullscreenenter"",""1"",""4028""
","
","
","""event"",""trial"",""time""
""fullscreenenter"",""1"",""4028""
","
","","","","","","1020.8000000119209","<p> If you eat the fruit and it was tasty, you will win points! </p><p> But if you eat the fruit and it was rotten, you will lose points. </p>","","0","instructions","","","","","","","","","","",""
"learning-instructions","181","674356","0.0-11.0-1.0-0.4","5890","1","16","Female","approach_avoid_spark_v1","""event"",""trial"",""time""
""fullscreenenter"",""1"",""4028""
","
","
","""event"",""trial"",""time""
""fullscreenenter"",""1"",""4028""
","
","","","","","","1685.300000011921","<p> You will earn points based on how tasty or rotten the fruit was. </p><p> If it was tasty, you will WIN anywhere from 1 - 9 points, </p><p> but if it was rotten, you will LOSE anywhere from 1 - 9 points. </p>","","0","instructions","","","","","","","","","","",""
"learning-instructions","182","682323","0.0-11.0-1.0-0.5","5890","1","16","Female","approach_avoid_spark_v1","""event"",""trial"",""time""
""fullscreenenter"",""1"",""4028""
","
","
","""event"",""trial"",""time""
""fullscreenenter"",""1"",""4028""
","
","","","","","","1312.6000000238419","<p> You will see how many points you won or lost in the center of the screen. </p><p> Here is what you would see if you earned 5 points: </p><p style=""color:green;font-size:50px;font-weight:bolder"">5</p>","","0","instructions","","","","","","","","","","",""
"learning-instructions","183","685981","0.0-11.0-1.0-0.6","5890","1","16","Female","approach_avoid_spark_v1","""event"",""trial"",""time""
""fullscreenenter"",""1"",""4028""
","
","
","""event"",""trial"",""time""
""fullscreenenter"",""1"",""4028""
","
","","","","","","800.2999999523163","<p> And here is what you would see if you lost 3 points: </p><p style=""color:red;font-size:50px;font-weight:bolder"">-3</p>","","0","instructions","","","","","","","","","","",""
"learning-instructions","184","701336","0.0-11.0-1.0-0.7","5890","1","16","Female","approach_avoid_spark_v1","""event"",""trial"",""time""
""fullscreenenter"",""1"",""4028""
","
","
","""event"",""trial"",""time""
""fullscreenenter"",""1"",""4028""
","
","","","","","","1376.1000000238419","<p> Some fruit is very tasty or very rotten. </p><p> These fruits will make you win or lose LOTS of points. </p><p> Other fruits are only kind of tasty or kind of rotten. </p><p> These fruits will make you win or lose small amounts of points. </p>","","0","instructions","","","","","","","","","","",""
"learning-instructions","185","712412","0.0-11.0-1.0-0.8","5890","1","16","Female","approach_avoid_spark_v1","""event"",""trial"",""time""
""fullscreenenter"",""1"",""4028""
","
","
","""event"",""trial"",""time""
""fullscreenenter"",""1"",""4028""
","
","","","","","","490.89999997615814","<p> If you choose to not eat the fruit, you will not win or lose any points. </p><p>  However, in the center of the screen, you will see the number of points you WOULD HAVE earned if you had eaten the fruit. </p>","","0","instructions","","","","","","","","","","",""
"learning-instructions","186","723753","0.0-11.0-1.0-0.9","5890","1","16","Female","approach_avoid_spark_v1","""event"",""trial"",""time""
""fullscreenenter"",""1"",""4028""
","
","
","""event"",""trial"",""time""
""fullscreenenter"",""1"",""4028""
","
","","","","","","1222.800000011921","<p> Here is what you might see if you did not eat the fruit but the fruit was tasty: </p><p style=""color:grey; font-size:50px; display: inline-block; border-spacing: 15px; border-width:3px; border-style:solid; border-color:red"">  &nbsp; 6 &nbsp; </p><p> Remember, in this case, you would not win or lose ANY points because you did not eat the fruit.  </p>","","0","instructions","","","","","","","","","","",""
"learning-instructions","187","732685","0.0-11.0-1.0-0.10","5890","1","16","Female","approach_avoid_spark_v1","""event"",""trial"",""time""
""fullscreenenter"",""1"",""4028""
","
","
","""event"",""trial"",""time""
""fullscreenenter"",""1"",""4028""
","
","","","","","","504","<p> Try to make the best choice for each fruit because </p><p> at the end of the game, you will earn bonus money based on how many points you earned. </p>","","0","instructions","","","","","","","","","","",""
"learning-instructions","188","741379","0.0-11.0-1.0-0.11","5890","1","16","Female","approach_avoid_spark_v1","""event"",""trial"",""time""
""fullscreenenter"",""1"",""4028""
","
","
","""event"",""trial"",""time""
""fullscreenenter"",""1"",""4028""
","
","","","","","","498.2999999523163","<p> You will have 3 seconds to make each choice. Try to respond before time runs out! </p><p> You will lose 5 points each time you do not make a response. </p>","","0","instructions","","","","","","","","","","",""
"html-keyboard-response","189","742007","0.0-11.0-2.0-0.0","5890","1","16","Female","approach_avoid_spark_v1","""event"",""trial"",""time""
""fullscreenenter"",""1"",""4028""
","
","
","""event"",""trial"",""time""
""fullscreenenter"",""1"",""4028""
","
","","","","","","null","<div style=""font-size:60px;"">+</div>","null","","fixation","","","","","","","","","","",""
"aa-learning-trial","190","745029","0.0-11.0-2.0-1.0","5890","1","16","Female","approach_avoid_spark_v1","""event"",""trial"",""time""
""fullscreenenter"",""1"",""4028""
","
","
","""event"",""trial"",""time""
""fullscreenenter"",""1"",""4028""
","
","","","","","","1119","images/orange7.png","","","learning","-9","-9","1","1","orange","fruit","2","1","","bad","[-5]"
"html-keyboard-response","191","745546","0.0-11.0-2.0-0.1","5890","1","16","Female","approach_avoid_spark_v1","""event"",""trial"",""time""
""fullscreenenter"",""1"",""4028""
","
","
","""event"",""trial"",""time""
""fullscreenenter"",""1"",""4028""
","
","","","","","","null","<div style=""font-size:60px;"">+</div>","null","","fixation","","","","","","","","","","",""
"aa-learning-trial","192","748562","0.0-11.0-2.0-1.1","5890","1","16","Female","approach_avoid_spark_v1","""event"",""trial"",""time""
""fullscreenenter"",""1"",""4028""
","
","
","""event"",""trial"",""time""
""fullscreenenter"",""1"",""4028""
","
","","","","","","776.7000000476837","images/orange1.png","","","learning","-3","0","0","0","orange","fruit","2","1","","bad","[-5]"
"html-keyboard-response","193","749077","0.0-11.0-2.0-0.2","5890","1","16","Female","approach_avoid_spark_v1","""event"",""trial"",""time""
""fullscreenenter"",""1"",""4028""
","
","
","""event"",""trial"",""time""
""fullscreenenter"",""1"",""4028""
","
","","","","","","null","<div style=""font-size:60px;"">+</div>","null","","fixation","","","","","","","","","","",""
"aa-learning-trial","194","752088","0.0-11.0-2.0-1.2","5890","1","16","Female","approach_avoid_spark_v1","""event"",""trial"",""time""
""fullscreenenter"",""1"",""4028""
","
","
","""event"",""trial"",""time""
""fullscreenenter"",""1"",""4028""
","
","","","","","","536.3000000119209","images/apple3.png","","","learning","-4","-4","1","1","apple","fruit","2","1","","good","[6]"
"html-keyboard-response","195","752605","0.0-11.0-2.0-0.3","5890","1","16","Female","approach_avoid_spark_v1","""event"",""trial"",""time""
""fullscreenenter"",""1"",""4028""
","
","
","""event"",""trial"",""time""
""fullscreenenter"",""1"",""4028""
","
","","","","","","null","<div style=""font-size:60px;"">+</div>","null","","fixation","","","","","","","","","","",""
"aa-learning-trial","196","755618","0.0-11.0-2.0-1.3","5890","1","16","Female","approach_avoid_spark_v1","""event"",""trial"",""time""
""fullscreenenter"",""1"",""4028""
","
","
","""event"",""trial"",""time""
""fullscreenenter"",""1"",""4028""
","
","","","","","","759.3000000119209","images/orange1.png","","","learning","-3","0","0","0","orange","fruit","2","1","","bad","[-5]"
"html-keyboard-response","197","756135","0.0-11.0-2.0-0.4","5890","1","16","Female","approach_avoid_spark_v1","""event"",""trial"",""time""
""fullscreenenter"",""1"",""4028""
","
","
","""event"",""trial"",""time""
""fullscreenenter"",""1"",""4028""
","
","","","","","","null","<div style=""font-size:60px;"">+</div>","null","","fixation","","","","","","","","","","",""
"aa-learning-trial","198","759155","0.0-11.0-2.0-1.4","5890","1","16","Female","approach_avoid_spark_v1","""event"",""trial"",""time""
""fullscreenenter"",""1"",""4028""
","
","
","""event"",""trial"",""time""
""fullscreenenter"",""1"",""4028""
","
","","","","","","685.6999999880791","images/apple1.png","","","learning","-7","0","0","0","apple","fruit","2","1","","good","[6]"
"html-keyboard-response","199","759670","0.0-11.0-2.0-0.5","5890","1","16","Female","approach_avoid_spark_v1","""event"",""trial"",""time""
""fullscreenenter"",""1"",""4028""
","
","
","""event"",""trial"",""time""
""fullscreenenter"",""1"",""4028""
","
","","","","","","null","<div style=""font-size:60px;"">+</div>","null","","fixation","","","","","","","","","","",""
"aa-learning-trial","200","762687","0.0-11.0-2.0-1.5","5890","1","16","Female","approach_avoid_spark_v1","""event"",""trial"",""time""
""fullscreenenter"",""1"",""4028""
","
","
","""event"",""trial"",""time""
""fullscreenenter"",""1"",""4028""
","
","","","","","","747.1000000238419","images/orange7.png","","","learning","-9","0","0","0","orange","fruit","2","1","","bad","[-5]"
"html-keyboard-response","201","763204","0.0-11.0-2.0-0.6","5890","1","16","Female","approach_avoid_spark_v1","""event"",""trial"",""time""
""fullscreenenter"",""1"",""4028""
","
","
","""event"",""trial"",""time""
""fullscreenenter"",""1"",""4028""
","
","","","","","","null","<div style=""font-size:60px;"">+</div>","null","","fixation","","","","","","","","","","",""
"aa-learning-trial","202","766215","0.0-11.0-2.0-1.6","5890","1","16","Female","approach_avoid_spark_v1","""event"",""trial"",""time""
""fullscreenenter"",""1"",""4028""
","
","
","""event"",""trial"",""time""
""fullscreenenter"",""1"",""4028""
","
","","","","","","530.8999999761581","images/apple1.png","","","learning","-7","0","0","0","apple","fruit","2","1","","good","[6]"
"html-keyboard-response","203","766735","0.0-11.0-2.0-0.7","5890","1","16","Female","approach_avoid_spark_v1","""event"",""trial"",""time""
""fullscreenenter"",""1"",""4028""
","
","
","""event"",""trial"",""time""
""fullscreenenter"",""1"",""4028""
","
","","","","","","null","<div style=""font-size:60px;"">+</div>","null","","fixation","","","","","","","","","","",""
"aa-learning-trial","204","769745","0.0-11.0-2.0-1.7","5890","1","16","Female","approach_avoid_spark_v1","""event"",""trial"",""time""
""fullscreenenter"",""1"",""4028""
","
","
","""event"",""trial"",""time""
""fullscreenenter"",""1"",""4028""
","
","","","","","","699.5","images/straw7.png","","","learning","7","7","1","1","straw","fruit","2","1","","neutral","0"
"html-keyboard-response","205","770261","0.0-11.0-2.0-0.8","5890","1","16","Female","approach_avoid_spark_v1","""event"",""trial"",""time""
""fullscreenenter"",""1"",""4028""
","
","
","""event"",""trial"",""time""
""fullscreenenter"",""1"",""4028""
","
","","","","","","null","<div style=""font-size:60px;"">+</div>","null","","fixation","","","","","","","","","","",""
"aa-learning-trial","206","773269","0.0-11.0-2.0-1.8","5890","1","16","Female","approach_avoid_spark_v1","""event"",""trial"",""time""
""fullscreenenter"",""1"",""4028""
","
","
","""event"",""trial"",""time""
""fullscreenenter"",""1"",""4028""
","
","","","","","","651","images/straw4.png","","","learning","2","2","1","1","straw","fruit","2","1","","neutral","0"
"html-keyboard-response","207","773785","0.0-11.0-2.0-0.9","5890","1","16","Female","approach_avoid_spark_v1","""event"",""trial"",""time""
""fullscreenenter"",""1"",""4028""
","
","
","""event"",""trial"",""time""
""fullscreenenter"",""1"",""4028""
","
","","","","","","null","<div style=""font-size:60px;"">+</div>","null","","fixation","","","","","","","","","","",""
"aa-learning-trial","208","776789","0.0-11.0-2.0-1.9","5890","1","16","Female","approach_avoid_spark_v1","""event"",""trial"",""time""
""fullscreenenter"",""1"",""4028""
","
","
","""event"",""trial"",""time""
""fullscreenenter"",""1"",""4028""
","
","","","","","","772.3000000119209","images/orange8.png","","","learning","3","0","0","0","orange","fruit","2","1","","bad","[-5]"
"html-keyboard-response","209","777293","0.0-11.0-2.0-0.10","5890","1","16","Female","approach_avoid_spark_v1","""event"",""trial"",""time""
""fullscreenenter"",""1"",""4028""
","
","
","""event"",""trial"",""time""
""fullscreenenter"",""1"",""4028""
","
","","","","","","null","<div style=""font-size:60px;"">+</div>","null","","fixation","","","","","","","","","","",""
"aa-learning-trial","210","780301","0.0-11.0-2.0-1.10","5890","1","16","Female","approach_avoid_spark_v1","""event"",""trial"",""time""
""fullscreenenter"",""1"",""4028""
","
","
","""event"",""trial"",""time""
""fullscreenenter"",""1"",""4028""
","
","","","","","","806","images/apple7.png","","","learning","-1","-1","1","1","apple","fruit","2","1","","good","[6]"
"html-keyboard-response","211","780805","0.0-11.0-2.0-0.11","5890","1","16","Female","approach_avoid_spark_v1","""event"",""trial"",""time""
""fullscreenenter"",""1"",""4028""
","
","
","""event"",""trial"",""time""
""fullscreenenter"",""1"",""4028""
","
","","","","","","null","<div style=""font-size:60px;"">+</div>","null","","fixation","","","","","","","","","","",""
"aa-learning-trial","212","783813","0.0-11.0-2.0-1.11","5890","1","16","Female","approach_avoid_spark_v1","""event"",""trial"",""time""
""fullscreenenter"",""1"",""4028""
","
","
","""event"",""trial"",""time""
""fullscreenenter"",""1"",""4028""
","
","","","","","","584.4000000357628","images/straw8.png","","","learning","-8","-8","1","1","straw","fruit","2","1","","neutral","0"
"html-keyboard-response","213","784317","0.0-11.0-2.0-0.12","5890","1","16","Female","approach_avoid_spark_v1","""event"",""trial"",""time""
""fullscreenenter"",""1"",""4028""
","
","
","""event"",""trial"",""time""
""fullscreenenter"",""1"",""4028""
","
","","","","","","null","<div style=""font-size:60px;"">+</div>","null","","fixation","","","","","","","","","","",""
"aa-learning-trial","214","787325","0.0-11.0-2.0-1.12","5890","1","16","Female","approach_avoid_spark_v1","""event"",""trial"",""time""
""fullscreenenter"",""1"",""4028""
","
","
","""event"",""trial"",""time""
""fullscreenenter"",""1"",""4028""
","
","","","","","","438.80000001192093","images/apple3.png","","","learning","-4","-4","1","1","apple","fruit","2","1","","good","[6]"
"html-keyboard-response","215","787829","0.0-11.0-2.0-0.13","5890","1","16","Female","approach_avoid_spark_v1","""event"",""trial"",""time""
""fullscreenenter"",""1"",""4028""
","
","
","""event"",""trial"",""time""
""fullscreenenter"",""1"",""4028""
","
","","","","","","null","<div style=""font-size:60px;"">+</div>","null","","fixation","","","","","","","","","","",""
"aa-learning-trial","216","790837","0.0-11.0-2.0-1.13","5890","1","16","Female","approach_avoid_spark_v1","""event"",""trial"",""time""
""fullscreenenter"",""1"",""4028""
","
","
","""event"",""trial"",""time""
""fullscreenenter"",""1"",""4028""
","
","","","","","","686.8000000119209","images/straw8.png","","","learning","-8","0","0","0","straw","fruit","2","1","","neutral","0"
"html-keyboard-response","217","791341","0.0-11.0-2.0-0.14","5890","1","16","Female","approach_avoid_spark_v1","""event"",""trial"",""time""
""fullscreenenter"",""1"",""4028""
","
","
","""event"",""trial"",""time""
""fullscreenenter"",""1"",""4028""
","
","","","","","","null","<div style=""font-size:60px;"">+</div>","null","","fixation","","","","","","","","","","",""
"aa-learning-trial","218","794349","0.0-11.0-2.0-1.14","5890","1","16","Female","approach_avoid_spark_v1","""event"",""trial"",""time""
""fullscreenenter"",""1"",""4028""
","
","
","""event"",""trial"",""time""
""fullscreenenter"",""1"",""4028""
","
","","","","","","548","images/straw4.png","","","learning","2","2","1","1","straw","fruit","2","1","","neutral","0"
"html-keyboard-response","219","794853","0.0-11.0-2.0-0.15","5890","1","16","Female","approach_avoid_spark_v1","""event"",""trial"",""time""
""fullscreenenter"",""1"",""4028""
","
","
","""event"",""trial"",""time""
""fullscreenenter"",""1"",""4028""
","
","","","","","","null","<div style=""font-size:60px;"">+</div>","null","","fixation","","","","","","","","","","",""
"aa-learning-trial","220","797861","0.0-11.0-2.0-1.15","5890","1","16","Female","approach_avoid_spark_v1","""event"",""trial"",""time""
""fullscreenenter"",""1"",""4028""
","
","
","""event"",""trial"",""time""
""fullscreenenter"",""1"",""4028""
","
","","","","","","773.5999999642372","images/straw7.png","","","learning","7","7","1","1","straw","fruit","2","1","","neutral","0"
"html-keyboard-response","221","798366","0.0-11.0-2.0-0.16","5890","1","16","Female","approach_avoid_spark_v1","""event"",""trial"",""time""
""fullscreenenter"",""1"",""4028""
","
","
","""event"",""trial"",""time""
""fullscreenenter"",""1"",""4028""
","
","","","","","","null","<div style=""font-size:60px;"">+</div>","null","","fixation","","","","","","","","","","",""
"aa-learning-trial","222","801373","0.0-11.0-2.0-1.16","5890","1","16","Female","approach_avoid_spark_v1","""event"",""trial"",""time""
""fullscreenenter"",""1"",""4028""
","
","
","""event"",""trial"",""time""
""fullscreenenter"",""1"",""4028""
","
","","","","","","982.1000000238419","images/apple7.png","","","learning","-1","0","0","0","apple","fruit","2","1","","good","[6]"
"html-keyboard-response","223","801877","0.0-11.0-2.0-0.17","5890","1","16","Female","approach_avoid_spark_v1","""event"",""trial"",""time""
""fullscreenenter"",""1"",""4028""
","
","
","""event"",""trial"",""time""
""fullscreenenter"",""1"",""4028""
","
","","","","","","null","<div style=""font-size:60px;"">+</div>","null","","fixation","","","","","","","","","","",""
"aa-learning-trial","224","804885","0.0-11.0-2.0-1.17","5890","1","16","Female","approach_avoid_spark_v1","""event"",""trial"",""time""
""fullscreenenter"",""1"",""4028""
","
","
","""event"",""trial"",""time""
""fullscreenenter"",""1"",""4028""
","
","","","","","","736.8000000119209","images/apple3.png","","","learning","-4","0","0","0","apple","fruit","2","1","","good","[6]"
"html-keyboard-response","225","805389","0.0-11.0-2.0-0.18","5890","1","16","Female","approach_avoid_spark_v1","""event"",""trial"",""time""
""fullscreenenter"",""1"",""4028""
","
","
","""event"",""trial"",""time""
""fullscreenenter"",""1"",""4028""
","
","","","","","","null","<div style=""font-size:60px;"">+</div>","null","","fixation","","","","","","","","","","",""
"aa-learning-trial","226","808397","0.0-11.0-2.0-1.18","5890","1","16","Female","approach_avoid_spark_v1","""event"",""trial"",""time""
""fullscreenenter"",""1"",""4028""
","
","
","""event"",""trial"",""time""
""fullscreenenter"",""1"",""4028""
","
","","","","","","578.9000000357628","images/apple3.png","","","learning","-4","0","0","0","apple","fruit","2","1","","good","[6]"
"html-keyboard-response","227","808902","0.0-11.0-2.0-0.19","5890","1","16","Female","approach_avoid_spark_v1","""event"",""trial"",""time""
""fullscreenenter"",""1"",""4028""
","
","
","""event"",""trial"",""time""
""fullscreenenter"",""1"",""4028""
","
","","","","","","null","<div style=""font-size:60px;"">+</div>","null","","fixation","","","","","","","","","","",""
"aa-learning-trial","228","811909","0.0-11.0-2.0-1.19","5890","1","16","Female","approach_avoid_spark_v1","""event"",""trial"",""time""
""fullscreenenter"",""1"",""4028""
","
","
","""event"",""trial"",""time""
""fullscreenenter"",""1"",""4028""
","
","","","","","","774.5","images/straw7.png","","","learning","7","7","1","1","straw","fruit","2","1","","neutral","0"
"html-keyboard-response","229","812413","0.0-11.0-2.0-0.20","5890","1","16","Female","approach_avoid_spark_v1","""event"",""trial"",""time""
""fullscreenenter"",""1"",""4028""
","
","
","""event"",""trial"",""time""
""fullscreenenter"",""1"",""4028""
","
","","","","","","null","<div style=""font-size:60px;"">+</div>","null","","fixation","","","","","","","","","","",""
"aa-learning-trial","230","815421","0.0-11.0-2.0-1.20","5890","1","16","Female","approach_avoid_spark_v1","""event"",""trial"",""time""
""fullscreenenter"",""1"",""4028""
","
","
","""event"",""trial"",""time""
""fullscreenenter"",""1"",""4028""
","
","","","","","","613.8000000119209","images/straw4.png","","","learning","2","2","1","1","straw","fruit","2","1","","neutral","0"
"html-keyboard-response","231","815925","0.0-11.0-2.0-0.21","5890","1","16","Female","approach_avoid_spark_v1","""event"",""trial"",""time""
""fullscreenenter"",""1"",""4028""
","
","
","""event"",""trial"",""time""
""fullscreenenter"",""1"",""4028""
","
","","","","","","null","<div style=""font-size:60px;"">+</div>","null","","fixation","","","","","","","","","","",""
"aa-learning-trial","232","818933","0.0-11.0-2.0-1.21","5890","1","16","Female","approach_avoid_spark_v1","""event"",""trial"",""time""
""fullscreenenter"",""1"",""4028""
","
","
","""event"",""trial"",""time""
""fullscreenenter"",""1"",""4028""
","
","","","","","","574.1999999880791","images/straw4.png","","","learning","2","2","1","1","straw","fruit","2","1","","neutral","0"
"html-keyboard-response","233","819436","0.0-11.0-2.0-0.22","5890","1","16","Female","approach_avoid_spark_v1","""event"",""trial"",""time""
""fullscreenenter"",""1"",""4028""
","
","
","""event"",""trial"",""time""
""fullscreenenter"",""1"",""4028""
","
","","","","","","null","<div style=""font-size:60px;"">+</div>","null","","fixation","","","","","","","","","","",""
"aa-learning-trial","234","822445","0.0-11.0-2.0-1.22","5890","1","16","Female","approach_avoid_spark_v1","""event"",""trial"",""time""
""fullscreenenter"",""1"",""4028""
","
","
","""event"",""trial"",""time""
""fullscreenenter"",""1"",""4028""
","
","","","","","","713.1999999880791","images/apple7.png","","","learning","-1","0","0","0","apple","fruit","2","1","","good","[6]"
"html-keyboard-response","235","822949","0.0-11.0-2.0-0.23","5890","1","16","Female","approach_avoid_spark_v1","""event"",""trial"",""time""
""fullscreenenter"",""1"",""4028""
","
","
","""event"",""trial"",""time""
""fullscreenenter"",""1"",""4028""
","
","","","","","","null","<div style=""font-size:60px;"">+</div>","null","","fixation","","","","","","","","","","",""
"aa-learning-trial","236","825958","0.0-11.0-2.0-1.23","5890","1","16","Female","approach_avoid_spark_v1","""event"",""trial"",""time""
""fullscreenenter"",""1"",""4028""
","
","
","""event"",""trial"",""time""
""fullscreenenter"",""1"",""4028""
","
