"trial_type","trial_index","time_elapsed","internal_node_id","subject_id","task_condition","age","gender","task_version","interactions","blur_events","focus_events","fullscreenenter_events","fullscreenexit_events","success","timeout","failed_images","failed_audio","failed_video","rt","stimulus","response","button_pressed","task_part","approach_reward","points","key_press","option_selected","stim_cat","task_block","block_condition","block_number","correct","cat_type","mean_cat_reward"
"pavlovia","0","3","0.0-0.0","7197","2","10","Male","approach_avoid_spark_v1","""event"",""trial"",""time""
""fullscreenenter"",""1"",""4238""
","
","
","""event"",""trial"",""time""
""fullscreenenter"",""1"",""4238""
","
","","","","","","","","","","","","","","","","","","","","",""
"fullscreen","1","5231","0.0-1.0","7197","2","10","Male","approach_avoid_spark_v1","""event"",""trial"",""time""
""fullscreenenter"",""1"",""4238""
","
","
","""event"",""trial"",""time""
""fullscreenenter"",""1"",""4238""
","
","true","","","","","","","","","","","","","","","","","","","",""
"preload","2","9386","0.0-2.0","7197","2","10","Male","approach_avoid_spark_v1","""event"",""trial"",""time""
""fullscreenenter"",""1"",""4238""
","
","
","""event"",""trial"",""time""
""fullscreenenter"",""1"",""4238""
","
","true","false","[]","[]","[]","","","","","","","","","","","","","","","",""
"audio-keyboard-response","3","13923","0.0-3.0","7197","2","10","Male","approach_avoid_spark_v1","""event"",""trial"",""time""
""fullscreenenter"",""1"",""4238""
","
","
","""event"",""trial"",""time""
""fullscreenenter"",""1"",""4238""
","
","","","","","","4541.333333333332","audio/beep_loop.wav"," ","","","","","","","","","","","","",""
"audio-button-response","4","16874","0.0-4.0","7197","2","10","Male","approach_avoid_spark_v1","""event"",""trial"",""time""
""fullscreenenter"",""1"",""4238""
","
","
","""event"",""trial"",""time""
""fullscreenenter"",""1"",""4238""
","
","","","","","","2949","audio/shark.wav","4","","","","","","","","","","","","",""
"audio-button-response","5","19174","0.0-5.0","7197","2","10","Male","approach_avoid_spark_v1","""event"",""trial"",""time""
""fullscreenenter"",""1"",""4238""
","
","
","""event"",""trial"",""time""
""fullscreenenter"",""1"",""4238""
","
","","","","","","1301","audio/turtle.wav","1","","","","","","","","","","","","",""
"preload","6","22575","0.0-6.0","7197","2","10","Male","approach_avoid_spark_v1","""event"",""trial"",""time""
""fullscreenenter"",""1"",""4238""
","
","
","""event"",""trial"",""time""
""fullscreenenter"",""1"",""4238""
","
","true","false","[]","[]","[]","","","","","","","","","","","","","","","",""
"html-keyboard-response","7","25539","0.0-7.0","7197","2","10","Male","approach_avoid_spark_v1","""event"",""trial"",""time""
""fullscreenenter"",""1"",""4238""
","
","
","""event"",""trial"",""time""
""fullscreenenter"",""1"",""4238""
","
","","","","","","2963.600000023842","Welcome to the experiment. Press any key to begin and to advance the instructions.","k","","","","","","","","","","","","",""
"learning-instructions","8","33550","0.0-8.0-0.0-0.0","7197","2","10","Male","approach_avoid_spark_v1","""event"",""trial"",""time""
""fullscreenenter"",""1"",""4238""
","
","
","""event"",""trial"",""time""
""fullscreenenter"",""1"",""4238""
","
","","","","","","1049.3999999761581","<p> Welcome! Today you are going to play 6 different rounds of a decision-making game. </p><p> Use the mouse to click next to continue. </p>","","0","instructions","","","","","","","","","","",""
"learning-instructions","9","38204","0.0-8.0-0.0-0.1","7197","2","10","Male","approach_avoid_spark_v1","""event"",""trial"",""time""
""fullscreenenter"",""1"",""4238""
","
","
","""event"",""trial"",""time""
""fullscreenenter"",""1"",""4238""
","
","","","","","","1924.1000000238419","<p> You will start with a practice round to learn the rules. </p>","","0","instructions","","","","","","","","","","",""
"learning-instructions","10","42374","0.0-8.0-0.0-0.2","7197","2","10","Male","approach_avoid_spark_v1","""event"",""trial"",""time""
""fullscreenenter"",""1"",""4238""
","
","
","""event"",""trial"",""time""
""fullscreenenter"",""1"",""4238""
","
","","","","","","724.5","<p> Your goal in this round is to give out sports equipment to kids. </p></div>","","0","instructions","","","","","","","","","","",""
"learning-instructions","11","50918","0.0-8.0-0.0-0.3","7197","2","10","Male","approach_avoid_spark_v1","""event"",""trial"",""time""
""fullscreenenter"",""1"",""4238""
","
","
","""event"",""trial"",""time""
""fullscreenenter"",""1"",""4238""
","
","","","","","","987.3000000715256","<p> The kids only like some of the equipment.  </p><p> On each turn, you will see a piece of sports equipment.   </p><p> You need to decide whether to give it to the kids or not.  </p>","","0","instructions","","","","","","","","","","",""
"learning-instructions","12","57248","0.0-8.0-0.0-0.4","7197","2","10","Male","approach_avoid_spark_v1","""event"",""trial"",""time""
""fullscreenenter"",""1"",""4238""
","
","
","""event"",""trial"",""time""
""fullscreenenter"",""1"",""4238""
","
","","","","","","1566.7000000476837","<p> You can give them the equipment by pressing 1 and choose not to give it to them by pressing 0. </p><br><div class=""choice-instructions-grid""> <div class=""choice-option""><img src=""images/approach.png"" class=""choice-option-img"" stage=""instructions"" position=""0"" ><div class=""choice-option-text""> Press ""1."" </div></div><div class=""choice-option""><img src=""images/avoid.png"" class=""choice-option-img"" stage=""instructions"" position=""1"" ><div class=""choice-option-text""> Press ""0."" </div></div>","","0","instructions","","","","","","","","","","",""
"learning-instructions","13","65191","0.0-8.0-0.0-0.5","7197","2","10","Male","approach_avoid_spark_v1","""event"",""trial"",""time""
""fullscreenenter"",""1"",""4238""
","
","
","""event"",""trial"",""time""
""fullscreenenter"",""1"",""4238""
","
","","","","","","561.5","<p> If you give them a piece of equipment they like, they will be happy! </p><p> But if you give them a piece of equipment they do not like, they will be sad. </p>","","0","instructions","","","","","","","","","","",""
"learning-instructions","14","76208","0.0-8.0-0.0-0.6","7197","2","10","Male","approach_avoid_spark_v1","""event"",""trial"",""time""
""fullscreenenter"",""1"",""4238""
","
","
","""event"",""trial"",""time""
""fullscreenenter"",""1"",""4238""
","
","","","","","","497.7000000476837","<p> You will earn points based on how you make kids feel. </p><p> If you make them happy, you will WIN anywhere from 1 - 9 points, </p><p> but if you make them sad, you will LOSE anywhere from 1 - 9 points. </p>","","0","instructions","","","","","","","","","","",""
"learning-instructions","15","87817","0.0-8.0-0.0-0.7","7197","2","10","Male","approach_avoid_spark_v1","""event"",""trial"",""time""
""fullscreenenter"",""1"",""4238""
","
","
","""event"",""trial"",""time""
""fullscreenenter"",""1"",""4238""
","
","","","","","","2046.7000000476837","<p> You will see how many points you won or lost in the center of the screen. </p><p> Here is what you would see if you won 6 points: </p><p style=""color:green;font-size:50px;font-weight:bolder"">6</p><p style=""color:green"">The text is GREEN because you WON points.</p>","","0","instructions","","","","","","","","","","",""
"learning-instructions","16","93971","0.0-8.0-0.0-0.8","7197","2","10","Male","approach_avoid_spark_v1","""event"",""trial"",""time""
""fullscreenenter"",""1"",""4238""
","
","
","""event"",""trial"",""time""
""fullscreenenter"",""1"",""4238""
","
","","","","","","651.6999999284744","<p> And here is what you would see if you lost 4 points: </p><p style=""color:red;font-size:50px;font-weight:bolder"">-4</p><p style=""color:red"">The text is RED because you LOST points. </p>","","0","instructions","","","","","","","","","","",""
"learning-instructions","17","109108","0.0-8.0-0.0-0.9","7197","2","10","Male","approach_avoid_spark_v1","""event"",""trial"",""time""
""fullscreenenter"",""1"",""4238""
","
","
","""event"",""trial"",""time""
""fullscreenenter"",""1"",""4238""
","
","","","","","","417.89999997615814","<p> Some of the equipment will make the kids VERY happy or sad. </p><p> These pieces of equipment will make you win or lose LOTS of points. </p><p> Other pieces of equipment will only make the kids a little happy or sad. </p><p> These pieces of equipment will make you win or lose small amounts of points. </p>","","0","instructions","","","","","","","","","","",""
"learning-instructions","18","122131","0.0-8.0-0.0-0.10","7197","2","10","Male","approach_avoid_spark_v1","""event"",""trial"",""time""
""fullscreenenter"",""1"",""4238""
","
","
","""event"",""trial"",""time""
""fullscreenenter"",""1"",""4238""
","
","","","","","","2402.100000023842","<p> If you choose not to give them the equipment, you will not win or lose any points. </p><p>  However, in the center of the screen, you will see the number of points you WOULD HAVE won or lost if you had given them the equipment. </p>","","0","instructions","","","","","","","","","","",""
"learning-instructions","19","144301","0.0-8.0-0.0-0.11","7197","2","10","Male","approach_avoid_spark_v1","""event"",""trial"",""time""
""fullscreenenter"",""1"",""4238""
","
","
","""event"",""trial"",""time""
""fullscreenenter"",""1"",""4238""
","
","","","","","","631.7000000476837","<p> Here is what you might see if you did not give the equipment to the kids but it would have made them happy: </p><p style=""color:grey; font-size:50px; display: inline-block; border-spacing: 15px; border-width:3px; border-style:solid; border-color:red"">  &nbsp; 7 &nbsp; </p><p> Remember, in this case, you would not win or lose ANY points because you did not give them the equipment.  </p><p style=""color:grey"">The text is GREY because you earned ZERO points. </p><p style=""color:red"">However, choosing to give the kids the equipment would have made you win points. The box around the text is RED because you chose the worse option. </p>","","0","instructions","","","","","","","","","","",""
"learning-instructions","20","167049","0.0-8.0-0.0-0.12","7197","2","10","Male","approach_avoid_spark_v1","""event"",""trial"",""time""
""fullscreenenter"",""1"",""4238""
","
","
","""event"",""trial"",""time""
""fullscreenenter"",""1"",""4238""
","
","","","","","","1668.9000000953674","<p> Here is what you might see if you did not give the equipment to the kids but it would have made them sad: </p><p style=""color:grey;font-size:50px; display: inline-block; border-spacing: 15px; border-width:3px; border-style:solid; border-color:green"">  &nbsp; -8 &nbsp; </p><p> Remember, in this case, you would not win or lose ANY points because you did not give them the equipment.  </p><p style=""color:grey"">The text is GREY because you earned ZERO points. </p><p  style=""color:green""> Choosing to give the kids the equipment would have made you lose points. The box around the text is GREEN because you chose the better option.</p>","","0","instructions","","","","","","","","","","",""
"learning-instructions","21","177439","0.0-8.0-0.0-0.13","7197","2","10","Male","approach_avoid_spark_v1","""event"",""trial"",""time""
""fullscreenenter"",""1"",""4238""
","
","
","""event"",""trial"",""time""
""fullscreenenter"",""1"",""4238""
","
","","","","","","1179.7999999523163","<p> You will have 3 seconds to make each choice. Try to respond before time runs out! </p><p> You will lose 5 points each time you do not make a response. </p>","","0","instructions","","","","","","","","","","",""
"learning-instructions","22","183468","0.0-8.0-0.0-0.14","7197","2","10","Male","approach_avoid_spark_v1","""event"",""trial"",""time""
""fullscreenenter"",""1"",""4238""
","
","
","""event"",""trial"",""time""
""fullscreenenter"",""1"",""4238""
","
","","","","","","617.6999999284744","<p> This is just a practice round, but in the real game, your bonus payment will depend on your total number of points.","","0","instructions","","","","","","","","","","",""
"learning-instructions","23","190110","0.0-8.0-0.0-0.15","7197","2","10","Male","approach_avoid_spark_v1","""event"",""trial"",""time""
""fullscreenenter"",""1"",""4238""
","
","
","""event"",""trial"",""time""
""fullscreenenter"",""1"",""4238""
","
","","","","","","869.8999999761581","<p> Remember, you can give them the equipment by pressing 1 and choose not to give it to them by pressing 0. </p><br><div class=""choice-instructions-grid""> <div class=""choice-option""><img src=""images/approach.png"" class=""choice-option-img"" stage=""instructions"" position=""0"" ><div class=""choice-option-text""> Press ""1."" </div></div><div class=""choice-option""><img src=""images/avoid.png"" class=""choice-option-img"" stage=""instructions"" position=""1"" ><div class=""choice-option-text""> Press ""0."" </div></div>","","0","instructions","","","","","","","","","","",""
"html-button-response","24","193122","0.0-8.0-1.0","7197","2","10","Male","approach_avoid_spark_v1","""event"",""trial"",""time""
""fullscreenenter"",""1"",""4238""
","
","
","""event"",""trial"",""time""
""fullscreenenter"",""1"",""4238""
","
","","","","","","2910","<p> Ready to practice? </p>","0","","","","","","","","","","","","",""
"html-keyboard-response","25","193750","0.0-8.0-2.0-0.0","7197","2","10","Male","approach_avoid_spark_v1","""event"",""trial"",""time""
""fullscreenenter"",""1"",""4238""
","
","
","""event"",""trial"",""time""
""fullscreenenter"",""1"",""4238""
","
","","","","","","null","<div style=""font-size:60px;"">+</div>","null","","fixation","","","","","","","","","","",""
"aa-learning-trial","26","196763","0.0-8.0-2.0-1.0","7197","2","10","Male","approach_avoid_spark_v1","""event"",""trial"",""time""
""fullscreenenter"",""1"",""4238""
","
","
","""event"",""trial"",""time""
""fullscreenenter"",""1"",""4238""
","
","","","","","","null","images/racket1.png","","","learning","3","-5","","null","practice","practice","practice","-1","","",""
"html-keyboard-response","27","197264","0.0-8.0-2.0-0.1","7197","2","10","Male","approach_avoid_spark_v1","""event"",""trial"",""time""
""fullscreenenter"",""1"",""4238""
","
","
","""event"",""trial"",""time""
""fullscreenenter"",""1"",""4238""
","
","","","","","","null","<div style=""font-size:60px;"">+</div>","null","","fixation","","","","","","","","","","",""
"aa-learning-trial","28","200277","0.0-8.0-2.0-1.1","7197","2","10","Male","approach_avoid_spark_v1","""event"",""trial"",""time""
""fullscreenenter"",""1"",""4238""
","
","
","""event"",""trial"",""time""
""fullscreenenter"",""1"",""4238""
","
","","","","","","null","images/ball4.png","","","learning","-2","-5","","null","practice","practice","practice","-1","","",""
"html-keyboard-response","29","200778","0.0-8.0-2.0-0.2","7197","2","10","Male","approach_avoid_spark_v1","""event"",""trial"",""time""
""fullscreenenter"",""1"",""4238""
","
","
","""event"",""trial"",""time""
""fullscreenenter"",""1"",""4238""
","
","","","","","","null","<div style=""font-size:60px;"">+</div>","null","","fixation","","","","","","","","","","",""
"aa-learning-trial","30","203781","0.0-8.0-2.0-1.2","7197","2","10","Male","approach_avoid_spark_v1","""event"",""trial"",""time""
""fullscreenenter"",""1"",""4238""
","
","
","""event"",""trial"",""time""
""fullscreenenter"",""1"",""4238""
","
","","","","","","2135.399999976158","images/ball2.png","","","learning","8","-5","insert","","practice","practice","practice","-1","","",""
"html-keyboard-response","31","204283","0.0-8.0-2.0-0.3","7197","2","10","Male","approach_avoid_spark_v1","""event"",""trial"",""time""
""fullscreenenter"",""1"",""4238""
","
","
","""event"",""trial"",""time""
""fullscreenenter"",""1"",""4238""
","
","","","","","","null","<div style=""font-size:60px;"">+</div>","null","","fixation","","","","","","","","","","",""
"aa-learning-trial","32","207301","0.0-8.0-2.0-1.3","7197","2","10","Male","approach_avoid_spark_v1","""event"",""trial"",""time""
""fullscreenenter"",""1"",""4238""
","
","
","""event"",""trial"",""time""
""fullscreenenter"",""1"",""4238""
","
","","","","","","725.3000000715256","images/ball3.png","","","learning","-5","-5","end","","practice","practice","practice","-1","","",""
"html-keyboard-response","33","207812","0.0-8.0-2.0-0.4","7197","2","10","Male","approach_avoid_spark_v1","""event"",""trial"",""time""
""fullscreenenter"",""1"",""4238""
","
","
","""event"",""trial"",""time""
""fullscreenenter"",""1"",""4238""
","
","","","","","","null","<div style=""font-size:60px;"">+</div>","null","","fixation","","","","","","","","","","",""
"aa-learning-trial","34","210823","0.0-8.0-2.0-1.4","7197","2","10","Male","approach_avoid_spark_v1","""event"",""trial"",""time""
""fullscreenenter"",""1"",""4238""
","
","
","""event"",""trial"",""time""
""fullscreenenter"",""1"",""4238""
","
","","","","","","516.1999999284744","images/ball2.png","","","learning","7","-5","insert","","practice","practice","practice","-1","","",""
"html-keyboard-response","35","211338","0.0-8.0-2.0-0.5","7197","2","10","Male","approach_avoid_spark_v1","""event"",""trial"",""time""
""fullscreenenter"",""1"",""4238""
","
","
","""event"",""trial"",""time""
""fullscreenenter"",""1"",""4238""
","
","","","","","","null","<div style=""font-size:60px;"">+</div>","null","","fixation","","","","","","","","","","",""
"aa-learning-trial","36","214354","0.0-8.0-2.0-1.5","7197","2","10","Male","approach_avoid_spark_v1","""event"",""trial"",""time""
""fullscreenenter"",""1"",""4238""
","
","
","""event"",""trial"",""time""
""fullscreenenter"",""1"",""4238""
","
","","","","","","613.8999999761581","images/ball4.png","","","learning","6","-5","end","","practice","practice","practice","-1","","",""
"html-keyboard-response","37","214867","0.0-8.0-2.0-0.6","7197","2","10","Male","approach_avoid_spark_v1","""event"",""trial"",""time""
""fullscreenenter"",""1"",""4238""
","
","
","""event"",""trial"",""time""
""fullscreenenter"",""1"",""4238""
","
","","","","","","null","<div style=""font-size:60px;"">+</div>","null","","fixation","","","","","","","","","","",""
"aa-learning-trial","38","217875","0.0-8.0-2.0-1.6","7197","2","10","Male","approach_avoid_spark_v1","""event"",""trial"",""time""
""fullscreenenter"",""1"",""4238""
","
","
","""event"",""trial"",""time""
""fullscreenenter"",""1"",""4238""
","
","","","","","","892.8999999761581","images/racket2.png","","","learning","2","-5","insert","","practice","practice","practice","-1","","",""
"html-keyboard-response","39","218385","0.0-8.0-2.0-0.7","7197","2","10","Male","approach_avoid_spark_v1","""event"",""trial"",""time""
""fullscreenenter"",""1"",""4238""
","
","
","""event"",""trial"",""time""
""fullscreenenter"",""1"",""4238""
","
","","","","","","null","<div style=""font-size:60px;"">+</div>","null","","fixation","","","","","","","","","","",""
"aa-learning-trial","40","221387","0.0-8.0-2.0-1.7","7197","2","10","Male","approach_avoid_spark_v1","""event"",""trial"",""time""
""fullscreenenter"",""1"",""4238""
","
","
","""event"",""trial"",""time""
""fullscreenenter"",""1"",""4238""
","
","","","","","","470.90000009536743","images/racket1.png","","","learning","-7","-5","end","","practice","practice","practice","-1","","",""
"html-keyboard-response","41","221890","0.0-8.0-2.0-0.8","7197","2","10","Male","approach_avoid_spark_v1","""event"",""trial"",""time""
""fullscreenenter"",""1"",""4238""
","
","
","""event"",""trial"",""time""
""fullscreenenter"",""1"",""4238""
","
","","","","","","null","<div style=""font-size:60px;"">+</div>","null","","fixation","","","","","","","","","","",""
"aa-learning-trial","42","224892","0.0-8.0-2.0-1.8","7197","2","10","Male","approach_avoid_spark_v1","""event"",""trial"",""time""
""fullscreenenter"",""1"",""4238""
","
","
","""event"",""trial"",""time""
""fullscreenenter"",""1"",""4238""
","
","","","","","","582.1000000238419","images/ball2.png","","","learning","-1","-5","insert","","practice","practice","practice","-1","","",""
"html-keyboard-response","43","225394","0.0-8.0-2.0-0.9","7197","2","10","Male","approach_avoid_spark_v1","""event"",""trial"",""time""
""fullscreenenter"",""1"",""4238""
","
","
","""event"",""trial"",""time""
""fullscreenenter"",""1"",""4238""
","
","","","","","","null","<div style=""font-size:60px;"">+</div>","null","","fixation","","","","","","","","","","",""
"aa-learning-trial","44","228396","0.0-8.0-2.0-1.9","7197","2","10","Male","approach_avoid_spark_v1","""event"",""trial"",""time""
""fullscreenenter"",""1"",""4238""
","
","
","""event"",""trial"",""time""
""fullscreenenter"",""1"",""4238""
","
","","","","","","1407.7999999523163","images/racket3.png","","","learning","6","-5","end","","practice","practice","practice","-1","","",""
"html-keyboard-response","45","228897","0.0-8.0-2.0-0.10","7197","2","10","Male","approach_avoid_spark_v1","""event"",""trial"",""time""
""fullscreenenter"",""1"",""4238""
","
","
","""event"",""trial"",""time""
""fullscreenenter"",""1"",""4238""
","
","","","","","","null","<div style=""font-size:60px;"">+</div>","null","","fixation","","","","","","","","","","",""
"aa-learning-trial","46","231901","0.0-8.0-2.0-1.10","7197","2","10","Male","approach_avoid_spark_v1","""event"",""trial"",""time""
""fullscreenenter"",""1"",""4238""
","
","
","""event"",""trial"",""time""
""fullscreenenter"",""1"",""4238""
","
","","","","","","1214.4000000953674","images/ball1.png","","","learning","4","-5","end","","practice","practice","practice","-1","","",""
"html-keyboard-response","47","232403","0.0-8.0-2.0-0.11","7197","2","10","Male","approach_avoid_spark_v1","""event"",""trial"",""time""
""fullscreenenter"",""1"",""4238""
","
","
","""event"",""trial"",""time""
""fullscreenenter"",""1"",""4238""
","
","","","","","","null","<div style=""font-size:60px;"">+</div>","null","","fixation","","","","","","","","","","",""
"aa-learning-trial","48","235406","0.0-8.0-2.0-1.11","7197","2","10","Male","approach_avoid_spark_v1","""event"",""trial"",""time""
""fullscreenenter"",""1"",""4238""
","
","
","""event"",""trial"",""time""
""fullscreenenter"",""1"",""4238""
","
","","","","","","1045","images/ball3.png","","","learning","-3","-5","insert","","practice","practice","practice","-1","","",""
"html-button-response","49","238464","0.0-8.0-3.0","7197","2","10","Male","approach_avoid_spark_v1","""event"",""trial"",""time""
""fullscreenenter"",""1"",""4238""
","
","
","""event"",""trial"",""time""
""fullscreenenter"",""1"",""4238""
","
","","","","","","3055.5","<p> You earned -60 points in the practice round! </p>","0","","break","","","","","","","","","","",""
"learning-instructions","50","246189","0.0-8.0-4.0-0.0","7197","2","10","Male","approach_avoid_spark_v1","""event"",""trial"",""time""
""fullscreenenter"",""1"",""4238""
","
","
","""event"",""trial"",""time""
""fullscreenenter"",""1"",""4238""
","
","","","","","","1735.8999999761581","<p> It's almost time to start the real game. </p><p> Before you start, we're going to ask you a few questions about how the game works. </p>","","0","instructions","","","","","","","","","","",""
"preload","51","247708","0.0-8.0-5.0","7197","2","10","Male","approach_avoid_spark_v1","""event"",""trial"",""time""
""fullscreenenter"",""1"",""4238""
","
","
","""event"",""trial"",""time""
""fullscreenenter"",""1"",""4238""
","
","true","false","[]","[]","[]","","","","","","","","","","","","","","","",""
"comp-q","52","253802","0.0-8.0-6.0-0.0","7197","2","10","Male","approach_avoid_spark_v1","""event"",""trial"",""time""
""fullscreenenter"",""1"",""4238""
","
","
","""event"",""trial"",""time""
""fullscreenenter"",""1"",""4238""
","
","","","","","","1098","<p> <b> True or False? </b> </p><p> If you see a number in GREY, that means you earned that many points. </p>","","1","comp_question","","","","","","","","","true","",""
"comp-q","53","263913","0.0-8.0-6.0-1.0","7197","2","10","Male","approach_avoid_spark_v1","""event"",""trial"",""time""
""fullscreenenter"",""1"",""4238""
","
","
","""event"",""trial"",""time""
""fullscreenenter"",""1"",""4238""
","
","","","","","","1750.0999999046326","<p><b> That's right! </b> If you see a grey number, it means you earned ZERO points. <br> The grey numbers show the points you WOULD HAVE earned if you had made the other choice. </p>","","0","comp_answer","","","","","","","","","","",""
"comp-q","54","269205","0.0-8.0-7.0-0.0","7197","2","10","Male","approach_avoid_spark_v1","""event"",""trial"",""time""
""fullscreenenter"",""1"",""4238""
","
","
","""event"",""trial"",""time""
""fullscreenenter"",""1"",""4238""
","
","","","","","","602.1999999284744","<p> <b> True or False? </b> </p><p> You will have as much time as you want to make each choice. </p>","","1","comp_question","","","","","","","","","true","",""
"comp-q","55","274551","0.0-8.0-7.0-1.0","7197","2","10","Male","approach_avoid_spark_v1","""event"",""trial"",""time""
""fullscreenenter"",""1"",""4238""
","
","
","""event"",""trial"",""time""
""fullscreenenter"",""1"",""4238""
","
","","","","","","1307.3999999761581","<p> <b> That's right! </b> You will only have 3 seconds to make each choice. </p>","","0","comp_answer","","","","","","","","","","",""
"comp-q","56","280684","0.0-8.0-8.0-0.0","7197","2","10","Male","approach_avoid_spark_v1","""event"",""trial"",""time""
""fullscreenenter"",""1"",""4238""
","
","
","""event"",""trial"",""time""
""fullscreenenter"",""1"",""4238""
","
","","","","","","1470.8000000715256","<p> <b> True or False? </b> </p><p> You should use the '1' and '0' keys to make your choices. </p>","","0","comp_question","","","","","","","","","true","",""
"comp-q","57","286132","0.0-8.0-8.0-1.0","7197","2","10","Male","approach_avoid_spark_v1","""event"",""trial"",""time""
""fullscreenenter"",""1"",""4238""
","
","
","""event"",""trial"",""time""
""fullscreenenter"",""1"",""4238""
","
","","","","","","838.4000000953674","<p> <b> That's right! </b> You should use the '1' and '0' keys to make each choice. </p>","","0","comp_answer","","","","","","","","","","",""
"learning-instructions","58","293429","0.0-8.0-9.0-0.0","7197","2","10","Male","approach_avoid_spark_v1","""event"",""trial"",""time""
""fullscreenenter"",""1"",""4238""
","
","
","""event"",""trial"",""time""
""fullscreenenter"",""1"",""4238""
","
","","","","","","1025.7999999523163","<p> It's now time to start the real game. </p>Do your best, because the points you earn in the next rounds will influence your bonus payment. </p>","","0","instructions","","","","","","","","","","",""
"preload","59","293540","0.0-9.0-0.0","7197","2","10","Male","approach_avoid_spark_v1","""event"",""trial"",""time""
""fullscreenenter"",""1"",""4238""
","
","
","""event"",""trial"",""time""
""fullscreenenter"",""1"",""4238""
","
","true","false","[]","[]","[]","","","","","","","","","","","","","","","",""
"learning-instructions","60","300127","0.0-9.0-1.0-0.0","7197","2","10","Male","approach_avoid_spark_v1","""event"",""trial"",""time""
""fullscreenenter"",""1"",""4238""
","
","
","""event"",""trial"",""time""
""fullscreenenter"",""1"",""4238""
","
","","","","","","2014.4000000953674","<p> Your goal in this round is to decorate your friend's new house with furniture. </p></div>","","0","instructions","","","","","","","","","","",""
"learning-instructions","61","310579","0.0-9.0-1.0-0.1","7197","2","10","Male","approach_avoid_spark_v1","""event"",""trial"",""time""
""fullscreenenter"",""1"",""4238""
","
","
","""event"",""trial"",""time""
""fullscreenenter"",""1"",""4238""
","
","","","","","","766.2999999523163","<p> Your friend likes some pieces of furniture but not others.  </p><p> On each turn, you will see a piece of furniture.   </p><p> You need to decide whether to put it in your friend's house or not.  </p>","","0","instructions","","","","","","","","","","",""
"learning-instructions","62","317742","0.0-9.0-1.0-0.2","7197","2","10","Male","approach_avoid_spark_v1","""event"",""trial"",""time""
""fullscreenenter"",""1"",""4238""
","
","
","""event"",""trial"",""time""
""fullscreenenter"",""1"",""4238""
","
","","","","","","1547.7999999523163","<p> You can put the furniture in her house by pressing 1 and deliver it elsewhere by pressing 0. </p><br><div class=""choice-instructions-grid""> <div class=""choice-option""><img src=""images/approach.png"" class=""choice-option-img"" stage=""instructions"" position=""0"" ><div class=""choice-option-text""> Press ""1."" </div></div><div class=""choice-option""><img src=""images/avoid.png"" class=""choice-option-img"" stage=""instructions"" position=""1"" ><div class=""choice-option-text""> Press ""0."" </div></div>","","0","instructions","","","","","","","","","","",""
"learning-instructions","63","327591","0.0-9.0-1.0-0.3","7197","2","10","Male","approach_avoid_spark_v1","""event"",""trial"",""time""
""fullscreenenter"",""1"",""4238""
","
","
","""event"",""trial"",""time""
""fullscreenenter"",""1"",""4238""
","
","","","","","","1148.8999999761581","<p> If you decorate your friend's house with furniture she likes, she will be happy! </p><p> But if you give her furniture that she does not like, she will be annoyed. </p>","","0","instructions","","","","","","","","","","",""
"learning-instructions","64","341359","0.0-9.0-1.0-0.4","7197","2","10","Male","approach_avoid_spark_v1","""event"",""trial"",""time""
""fullscreenenter"",""1"",""4238""
","
","
","""event"",""trial"",""time""
""fullscreenenter"",""1"",""4238""
","
","","","","","","1726.1999999284744","<p> You will earn points based on how you made your friend feel. </p><p> If you made her happy, you will WIN anywhere from 1 - 9 points, </p><p> but if you made her annoyed you will LOSE anywhere from 1 - 9 points. </p>","","0","instructions","","","","","","","","","","",""
"learning-instructions","65","349724","0.0-9.0-1.0-0.5","7197","2","10","Male","approach_avoid_spark_v1","""event"",""trial"",""time""
""fullscreenenter"",""1"",""4238""
","
","
","""event"",""trial"",""time""
""fullscreenenter"",""1"",""4238""
","
","","","","","","830.5","<p> You will see how many points you won or lost in the center of the screen. </p><p> Here is what you would see if you won 5 points: </p><p style=""color:green;font-size:50px;font-weight:bolder"">5</p>","","0","instructions","","","","","","","","","","",""
"learning-instructions","66","353545","0.0-9.0-1.0-0.6","7197","2","10","Male","approach_avoid_spark_v1","""event"",""trial"",""time""
""fullscreenenter"",""1"",""4238""
","
","
","""event"",""trial"",""time""
""fullscreenenter"",""1"",""4238""
","
","","","","","","402.5","<p> And here is what you would see if you lost 3 points: </p><p style=""color:red;font-size:50px;font-weight:bolder"">-3</p>","","0","instructions","","","","","","","","","","",""
"learning-instructions","67","371180","0.0-9.0-1.0-0.7","7197","2","10","Male","approach_avoid_spark_v1","""event"",""trial"",""time""
""fullscreenenter"",""1"",""4238""
","
","
","""event"",""trial"",""time""
""fullscreenenter"",""1"",""4238""
","
","","","","","","455.89999997615814","<p> Some pieces of furniture will make her feel very happy or very annoyed. </p><p> These pieces of furniture will make you win or lose LOTS of points. </p><p> Other pieces of furniture will only make her feel a little happy or a little annoyed. </p><p> These pieces of furniture will make you win or lose small amounts of points. </p>","","0","instructions","","","","","","","","","","",""
"learning-instructions","68","384715","0.0-9.0-1.0-0.8","7197","2","10","Male","approach_avoid_spark_v1","""event"",""trial"",""time""
""fullscreenenter"",""1"",""4238""
","
","
","""event"",""trial"",""time""
""fullscreenenter"",""1"",""4238""
","
","","","","","","892.2000000476837","<p> If you choose to deliver a piece of furniture elsewhere, you will not win or lose any points. </p><p>  However, in the center of the screen, you will see the number of points you WOULD HAVE won or lost if you had given the furniture to your friend. </p>","","0","instructions","","","","","","","","","","",""
"learning-instructions","69","397213","0.0-9.0-1.0-0.9","7197","2","10","Male","approach_avoid_spark_v1","""event"",""trial"",""time""
""fullscreenenter"",""1"",""4238""
","
","
","""event"",""trial"",""time""
""fullscreenenter"",""1"",""4238""
","
","","","","","","879.7000000476837","<p> Here is what you might see if you did not give a piece of furniture to your friend that would have made her happy: </p><p style=""color:grey; font-size:50px; display: inline-block; border-spacing: 15px; border-width:3px; border-style:solid; border-color:red"">  &nbsp; 6 &nbsp; </p><p> Remember, in this case, you would not win or lose ANY points because you did not give her the furniture.  </p>","","0","instructions","","","","","","","","","","",""
"learning-instructions","70","405445","0.0-9.0-1.0-0.10","7197","2","10","Male","approach_avoid_spark_v1","""event"",""trial"",""time""
""fullscreenenter"",""1"",""4238""
","
","
","""event"",""trial"",""time""
""fullscreenenter"",""1"",""4238""
","
","","","","","","721.3999999761581","<p> Try to make the best choice for each piece of furniture because </p><p> at the end of the game, you will earn bonus money based on how many points you earned. </p>","","0","instructions","","","","","","","","","","",""
"learning-instructions","71","414323","0.0-9.0-1.0-0.11","7197","2","10","Male","approach_avoid_spark_v1","""event"",""trial"",""time""
""fullscreenenter"",""1"",""4238""
","
","
","""event"",""trial"",""time""
""fullscreenenter"",""1"",""4238""
","
","","","","","","679.6999999284744","<p> You will have 3 seconds to make each choice. Try to respond before time runs out! </p><p> You will lose 5 points each time you do not make a response. </p>","","0","instructions","","","","","","","","","","",""
"html-keyboard-response","72","414940","0.0-9.0-2.0-0.0","7197","2","10","Male","approach_avoid_spark_v1","""event"",""trial"",""time""
""fullscreenenter"",""1"",""4238""
","
","
","""event"",""trial"",""time""
""fullscreenenter"",""1"",""4238""
","
","","","","","","null","<div style=""font-size:60px;"">+</div>","null","","fixation","","","","","","","","","","",""
"aa-learning-trial","73","417953","0.0-9.0-2.0-1.0","7197","2","10","Male","approach_avoid_spark_v1","""event"",""trial"",""time""
""fullscreenenter"",""1"",""4238""
","
","
","""event"",""trial"",""time""
""fullscreenenter"",""1"",""4238""
","
","","","","","","1946.3000000715256","images/sofa8.png","","","learning","-1","-5","insert","","sofa","furniture","2","0","","bad","[-5]"
"html-keyboard-response","74","418469","0.0-9.0-2.0-0.1","7197","2","10","Male","approach_avoid_spark_v1","""event"",""trial"",""time""
""fullscreenenter"",""1"",""4238""
","
","
","""event"",""trial"",""time""
""fullscreenenter"",""1"",""4238""
","
","","","","","","null","<div style=""font-size:60px;"">+</div>","null","","fixation","","","","","","","","","","",""
"aa-learning-trial","75","421477","0.0-9.0-2.0-1.1","7197","2","10","Male","approach_avoid_spark_v1","""event"",""trial"",""time""
""fullscreenenter"",""1"",""4238""
","
","
","""event"",""trial"",""time""
""fullscreenenter"",""1"",""4238""
","
","","","","","","1042.5","images/bed6.png","","","learning","4","-5","end","","bed","furniture","2","0","","neutral","0"
"html-keyboard-response","76","421979","0.0-9.0-2.0-0.2","7197","2","10","Male","approach_avoid_spark_v1","""event"",""trial"",""time""
""fullscreenenter"",""1"",""4238""
","
","
","""event"",""trial"",""time""
""fullscreenenter"",""1"",""4238""
","
","","","","","","null","<div style=""font-size:60px;"">+</div>","null","","fixation","","","","","","","","","","",""
"aa-learning-trial","77","424994","0.0-9.0-2.0-1.2","7197","2","10","Male","approach_avoid_spark_v1","""event"",""trial"",""time""
""fullscreenenter"",""1"",""4238""
","
","
","""event"",""trial"",""time""
""fullscreenenter"",""1"",""4238""
","
","","","","","","1564.4000000953674","images/sofa2.png","","","learning","-6","-5","insert","","sofa","furniture","2","0","","bad","[-5]"
"html-keyboard-response","78","425509","0.0-9.0-2.0-0.3","7197","2","10","Male","approach_avoid_spark_v1","""event"",""trial"",""time""
""fullscreenenter"",""1"",""4238""
","
","
","""event"",""trial"",""time""
""fullscreenenter"",""1"",""4238""
","
","","","","","","null","<div style=""font-size:60px;"">+</div>","null","","fixation","","","","","","","","","","",""
"aa-learning-trial","79","428524","0.0-9.0-2.0-1.3","7197","2","10","Male","approach_avoid_spark_v1","""event"",""trial"",""time""
""fullscreenenter"",""1"",""4238""
","
","
","""event"",""trial"",""time""
""fullscreenenter"",""1"",""4238""
","
","","","","","","1482.1000000238419","images/table8.png","","","learning","1","-5","end","","table","furniture","2","0","","good","[5]"
"html-keyboard-response","80","429039","0.0-9.0-2.0-0.4","7197","2","10","Male","approach_avoid_spark_v1","""event"",""trial"",""time""
""fullscreenenter"",""1"",""4238""
","
","
","""event"",""trial"",""time""
""fullscreenenter"",""1"",""4238""
","
","","","","","","null","<div style=""font-size:60px;"">+</div>","null","","fixation","","","","","","","","","","",""
"aa-learning-trial","81","432045","0.0-9.0-2.0-1.4","7197","2","10","Male","approach_avoid_spark_v1","""event"",""trial"",""time""
""fullscreenenter"",""1"",""4238""
","
","
","""event"",""trial"",""time""
""fullscreenenter"",""1"",""4238""
","
","","","","","","1552.8999999761581","images/sofa8.png","","","learning","-1","-5","end","","sofa","furniture","2","0","","bad","[-5]"
"html-keyboard-response","82","432560","0.0-9.0-2.0-0.5","7197","2","10","Male","approach_avoid_spark_v1","""event"",""trial"",""time""
""fullscreenenter"",""1"",""4238""
","
","
","""event"",""trial"",""time""
""fullscreenenter"",""1"",""4238""
","
","","","","","","null","<div style=""font-size:60px;"">+</div>","null","","fixation","","","","","","","","","","",""
"aa-learning-trial","83","435568","0.0-9.0-2.0-1.5","7197","2","10","Male","approach_avoid_spark_v1","""event"",""trial"",""time""
""fullscreenenter"",""1"",""4238""
","
","
","""event"",""trial"",""time""
""fullscreenenter"",""1"",""4238""
","
","","","","","","1879.1000000238419","images/bed6.png","","","learning","4","-5","insert","","bed","furniture","2","0","","neutral","0"
"html-keyboard-response","84","436082","0.0-9.0-2.0-0.6","7197","2","10","Male","approach_avoid_spark_v1","""event"",""trial"",""time""
""fullscreenenter"",""1"",""4238""
","
","
","""event"",""trial"",""time""
""fullscreenenter"",""1"",""4238""
","
","","","","","","null","<div style=""font-size:60px;"">+</div>","null","","fixation","","","","","","","","","","",""
"aa-learning-trial","85","439094","0.0-9.0-2.0-1.6","7197","2","10","Male","approach_avoid_spark_v1","""event"",""trial"",""time""
""fullscreenenter"",""1"",""4238""
","
","
","""event"",""trial"",""time""
""fullscreenenter"",""1"",""4238""
","
","","","","","","1269.2999999523163","images/bed3.png","","","learning","8","-5","end","","bed","furniture","2","0","","neutral","0"
"html-keyboard-response","86","439608","0.0-9.0-2.0-0.7","7197","2","10","Male","approach_avoid_spark_v1","""event"",""trial"",""time""
""fullscreenenter"",""1"",""4238""
","
","
","""event"",""trial"",""time""
""fullscreenenter"",""1"",""4238""
","
","","","","","","null","<div style=""font-size:60px;"">+</div>","null","","fixation","","","","","","","","","","",""
"aa-learning-trial","87","442626","0.0-9.0-2.0-1.7","7197","2","10","Male","approach_avoid_spark_v1","""event"",""trial"",""time""
""fullscreenenter"",""1"",""4238""
","
","
","""event"",""trial"",""time""
""fullscreenenter"",""1"",""4238""
","
","","","","","","1366.3999999761581","images/sofa4.png","","","learning","-4","-5","insert","","sofa","furniture","2","0","","bad","[-5]"
"html-keyboard-response","88","443140","0.0-9.0-2.0-0.8","7197","2","10","Male","approach_avoid_spark_v1","""event"",""trial"",""time""
""fullscreenenter"",""1"",""4238""
","
","
","""event"",""trial"",""time""
""fullscreenenter"",""1"",""4238""
","
","","","","","","null","<div style=""font-size:60px;"">+</div>","null","","fixation","","","","","","","","","","",""
"aa-learning-trial","89","446143","0.0-9.0-2.0-1.8","7197","2","10","Male","approach_avoid_spark_v1","""event"",""trial"",""time""
""fullscreenenter"",""1"",""4238""
","
","
","""event"",""trial"",""time""
""fullscreenenter"",""1"",""4238""
","
","","","","","","922.7999999523163","images/table6.png","","","learning","5","-5","end","","table","furniture","2","0","","good","[5]"
"html-keyboard-response","90","446646","0.0-9.0-2.0-0.9","7197","2","10","Male","approach_avoid_spark_v1","""event"",""trial"",""time""
""fullscreenenter"",""1"",""4238""
","
","
","""event"",""trial"",""time""
""fullscreenenter"",""1"",""4238""
","
","","","","","","null","<div style=""font-size:60px;"">+</div>","null","","fixation","","","","","","","","","","",""
"aa-learning-trial","91","449648","0.0-9.0-2.0-1.9","7197","2","10","Male","approach_avoid_spark_v1","""event"",""trial"",""time""
""fullscreenenter"",""1"",""4238""
","
","
","""event"",""trial"",""time""
""fullscreenenter"",""1"",""4238""
","
","","","","","","2098.7999999523163","images/sofa4.png","","","learning","-4","-5","end","","sofa","furniture","2","0","","bad","[-5]"
"html-keyboard-response","92","450150","0.0-9.0-2.0-0.10","7197","2","10","Male","approach_avoid_spark_v1","""event"",""trial"",""time""
""fullscreenenter"",""1"",""4238""
","
","
","""event"",""trial"",""time""
""fullscreenenter"",""1"",""4238""
","
","","","","","","null","<div style=""font-size:60px;"">+</div>","null","","fixation","","","","","","","","","","",""
"aa-learning-trial","93","453153","0.0-9.0-2.0-1.10","7197","2","10","Male","approach_avoid_spark_v1","""event"",""trial"",""time""
""fullscreenenter"",""1"",""4238""
","
","
","""event"",""trial"",""time""
""fullscreenenter"",""1"",""4238""
","
","","","","","","1473.3999999761581","images/table4.png","","","learning","-5","-5","insert","","table","furniture","2","0","","good","[5]"
"html-keyboard-response","94","453655","0.0-9.0-2.0-0.11","7197","2","10","Male","approach_avoid_spark_v1","""event"",""trial"",""time""
""fullscreenenter"",""1"",""4238""
","
","
","""event"",""trial"",""time""
""fullscreenenter"",""1"",""4238""
","
","","","","","","null","<div style=""font-size:60px;"">+</div>","null","","fixation","","","","","","","","","","",""
"aa-learning-trial","95","456658","0.0-9.0-2.0-1.11","7197","2","10","Male","approach_avoid_spark_v1","""event"",""trial"",""time""
""fullscreenenter"",""1"",""4238""
","
","
","""event"",""trial"",""time""
""fullscreenenter"",""1"",""4238""
","
","","","","","","1112.7999999523163","images/bed4.png","","","learning","2","-5","end","","bed","furniture","2","0","","neutral","0"
"html-keyboard-response","96","457159","0.0-9.0-2.0-0.12","7197","2","10","Male","approach_avoid_spark_v1","""event"",""trial"",""time""
""fullscreenenter"",""1"",""4238""
","
","
","""event"",""trial"",""time""
""fullscreenenter"",""1"",""4238""
","
","","","","","","null","<div style=""font-size:60px;"">+</div>","null","","fixation","","","","","","","","","","",""
"aa-learning-trial","97","460162","0.0-9.0-2.0-1.12","7197","2","10","Male","approach_avoid_spark_v1","""event"",""trial"",""time""
""fullscreenenter"",""1"",""4238""
","
","
","""event"",""trial"",""time""
""fullscreenenter"",""1"",""4238""
","
","","","","","","1560.5","images/table6.png","","","learning","5","-5","insert","","table","furniture","2","0","","good","[5]"
"html-keyboard-response","98","460664","0.0-9.0-2.0-0.13","7197","2","10","Male","approach_avoid_spark_v1","""event"",""trial"",""time""
""fullscreenenter"",""1"",""4238""
","
","
","""event"",""trial"",""time""
""fullscreenenter"",""1"",""4238""
","
","","","","","","null","<div style=""font-size:60px;"">+</div>","null","","fixation","","","","","","","","","","",""
"aa-learning-trial","99","463668","0.0-9.0-2.0-1.13","7197","2","10","Male","approach_avoid_spark_v1","""event"",""trial"",""time""
""fullscreenenter"",""1"",""4238""
","
","
","""event"",""trial"",""time""
""fullscreenenter"",""1"",""4238""
","
","","","","","","1248","images/bed4.png","","","learning","2","-5","end","","bed","furniture","2","0","","neutral","0"
"html-keyboard-response","100","464169","0.0-9.0-2.0-0.14","7197","2","10","Male","approach_avoid_spark_v1","""event"",""trial"",""time""
""fullscreenenter"",""1"",""4238""
","
","
","""event"",""trial"",""time""
""fullscreenenter"",""1"",""4238""
","
","","","","","","null","<div style=""font-size:60px;"">+</div>","null","","fixation","","","","","","","","","","",""
"aa-learning-trial","101","467173","0.0-9.0-2.0-1.14","7197","2","10","Male","approach_avoid_spark_v1","""event"",""trial"",""time""
""fullscreenenter"",""1"",""4238""
","
","
","""event"",""trial"",""time""
""fullscreenenter"",""1"",""4238""
","
","","","","","","1333.5","images/table4.png","","","learning","-5","-5","insert","","table","furniture","2","0","","good","[5]"
"html-keyboard-response","102","467676","0.0-9.0-2.0-0.15","7197","2","10","Male","approach_avoid_spark_v1","""event"",""trial"",""time""
""fullscreenenter"",""1"",""4238""
","
","
","""event"",""trial"",""time""
""fullscreenenter"",""1"",""4238""
","
","","","","","","null","<div style=""font-size:60px;"">+</div>","null","","fixation","","","","","","","","","","",""
"aa-learning-trial","103","470679","0.0-9.0-2.0-1.15","7197","2","10","Male","approach_avoid_spark_v1","""event"",""trial"",""time""
""fullscreenenter"",""1"",""4238""
","
","
","""event"",""trial"",""time""
""fullscreenenter"",""1"",""4238""
","
","","","","","","755.6000000238419","images/sofa4.png","","","learning","-4","-5","end","","sofa","furniture","2","0","","bad","[-5]"
"html-keyboard-response","104","471181","0.0-9.0-2.0-0.16","7197","2","10","Male","approach_avoid_spark_v1","""event"",""trial"",""time""
""fullscreenenter"",""1"",""4238""
","
","
","""event"",""trial"",""time""
""fullscreenenter"",""1"",""4238""
","
","","","","","","null","<div style=""font-size:60px;"">+</div>","null","","fixation","","","","","","","","","","",""
"aa-learning-trial","105","474183","0.0-9.0-2.0-1.16","7197","2","10","Male","approach_avoid_spark_v1","""event"",""trial"",""time""
""fullscreenenter"",""1"",""4238""
","
","
","""event"",""trial"",""time""
""fullscreenenter"",""1"",""4238""
","
","","","","","","875.6999999284744","images/bed3.png","","","learning","8","-5","insert","","bed","furniture","2","0","","neutral","0"
"html-keyboard-response","106","474685","0.0-9.0-2.0-0.17","7197","2","10","Male","approach_avoid_spark_v1","""event"",""trial"",""time""
""fullscreenenter"",""1"",""4238""
","
","
","""event"",""trial"",""time""
""fullscreenenter"",""1"",""4238""
","
","","","","","","null","<div style=""font-size:60px;"">+</div>","null","","fixation","","","","","","","","","","",""
"aa-learning-trial","107","477688","0.0-9.0-2.0-1.17","7197","2","10","Male","approach_avoid_spark_v1","""event"",""trial"",""time""
""fullscreenenter"",""1"",""4238""
","
","
","""event"",""trial"",""time""
""fullscreenenter"",""1"",""4238""
","
","","","","","","506.1999999284744","images/sofa4.png","","","learning","-4","-5","end","","sofa","furniture","2","0","","bad","[-5]"
"html-keyboard-response","108","478191","0.0-9.0-2.0-0.18","7197","2","10","Male","approach_avoid_spark_v1","""event"",""trial"",""time""
""fullscreenenter"",""1"",""4238""
","
","
","""event"",""trial"",""time""
""fullscreenenter"",""1"",""4238""
","
","","","","","","null","<div style=""font-size:60px;"">+</div>","null","","fixation","","","","","","","","","","",""
"aa-learning-trial","109","481194","0.0-9.0-2.0-1.18","7197","2","10","Male","approach_avoid_spark_v1","""event"",""trial"",""time""
""fullscreenenter"",""1"",""4238""
","
","
","""event"",""trial"",""time""
""fullscreenenter"",""1"",""4238""
","
","","","","","","1184.1000000238419","images/table4.png","","","learning","-5","-5","end","","table","furniture","2","0","","good","[5]"
"html-keyboard-response","110","481696","0.0-9.0-2.0-0.19","7197","2","10","Male","approach_avoid_spark_v1","""event"",""trial"",""time""
""fullscreenenter"",""1"",""4238""
","
","
","""event"",""trial"",""time""
""fullscreenenter"",""1"",""4238""
","
","","","","","","null","<div style=""font-size:60px;"">+</div>","null","","fixation","","","","","","","","","","",""
"aa-learning-trial","111","484699","0.0-9.0-2.0-1.19","7197","2","10","Male","approach_avoid_spark_v1","""event"",""trial"",""time""
""fullscreenenter"",""1"",""4238""
","
","
","""event"",""trial"",""time""
""fullscreenenter"",""1"",""4238""
","
","","","","","","1527.6000000238419","images/table2.png","","","learning","7","-5","end","","table","furniture","2","0","","good","[5]"
"html-keyboard-response","112","485201","0.0-9.0-2.0-0.20","7197","2","10","Male","approach_avoid_spark_v1","""event"",""trial"",""time""
""fullscreenenter"",""1"",""4238""
","
","
","""event"",""trial"",""time""
""fullscreenenter"",""1"",""4238""
","
","","","","","","null","<div style=""font-size:60px;"">+</div>","null","","fixation","","","","","","","","","","",""
"aa-learning-trial","113","488204","0.0-9.0-2.0-1.20","7197","2","10","Male","approach_avoid_spark_v1","""event"",""trial"",""time""
""fullscreenenter"",""1"",""4238""
","
","
","""event"",""trial"",""time""
""fullscreenenter"",""1"",""4238""
","
","","","","","","1733.6999999284744","images/bed6.png","","","learning","4","-5","end","","bed","furniture","2","0","","neutral","0"
"html-keyboard-response","114","488706","0.0-9.0-2.0-0.21","7197","2","10","Male","approach_avoid_spark_v1","""event"",""trial"",""time""
""fullscreenenter"",""1"",""4238""
","
","
","""event"",""trial"",""time""
""fullscreenenter"",""1"",""4238""
","
","","","","","","null","<div style=""font-size:60px;"">+</div>","null","","fixation","","","","","","","","","","",""
"aa-learning-trial","115","491708","0.0-9.0-2.0-1.21","7197","2","10","Male","approach_avoid_spark_v1","""event"",""trial"",""time""
""fullscreenenter"",""1"",""4238""
","
","
","""event"",""trial"",""time""
""fullscreenenter"",""1"",""4238""
","
","","","","","","1429.6999999284744","images/table7.png","","","learning","-8","-5","end","","table","furniture","2","0","","good","[5]"
"html-keyboard-response","116","492210","0.0-9.0-2.0-0.22","7197","2","10","Male","approach_avoid_spark_v1","""event"",""trial"",""time""
""fullscreenenter"",""1"",""4238""
","
","
","""event"",""trial"",""time""
""fullscreenenter"",""1"",""4238""
","
","","","","","","null","<div style=""font-size:60px;"">+</div>","null","","fixation","","","","","","","","","","",""
"aa-learning-trial","117","495214","0.0-9.0-2.0-1.22","7197","2","10","Male","approach_avoid_spark_v1","""event"",""trial"",""time""
""fullscreenenter"",""1"",""4238""
","
","
","""event"",""trial"",""time""
""fullscreenenter"",""1"",""4238""
","
","","","","","","844.3999999761581","images/table6.png","","","learning","5","-5","insert","","table","furniture","2","0","","good","[5]"
"html-keyboard-response","118","495716","0.0-9.0-2.0-0.23","7197","2","10","Male","approach_avoid_spark_v1","""event"",""trial"",""time""
""fullscreenenter"",""1"",""4238""
","
","
","""event"",""trial"",""time""
""fullscreenenter"",""1"",""4238""
","
","","","","","","null","<div style=""font-size:60px;"">+</div>","null","","fixation","","","","","","","","","","",""
"aa-learning-trial","119","498719","0.0-9.0-2.0-1.23","7197","2","10","Male","approach_avoid_spark_v1","""event"",""trial"",""time""
""fullscreenenter"",""1"",""4238""
","
","
","""event"",""trial"",""time""
""fullscreenenter"",""1"",""4238""
","
","","","","","","1388","images/sofa8.png","","","learning","-1","-5","end","","sofa","furniture","2","0","","bad","[-5]"
"html-keyboard-response","120","499221","0.0-9.0-2.0-0.24","7197","2","10","Male","approach_avoid_spark_v1","""event"",""trial"",""time""
""fullscreenenter"",""1"",""4238""
","
","
","""event"",""trial"",""time""
""fullscreenenter"",""1"",""4238""
","
","","","","","","null","<div style=""font-size:60px;"">+</div>","null","","fixation","","","","","","","","","","",""
"aa-learning-trial","121","502225","0.0-9.0-2.0-1.24","7197","2","10","Male","approach_avoid_spark_v1","""event"",""trial"",""time""
""fullscreenenter"",""1"",""4238""
","
","
","""event"",""trial"",""time""
""fullscreenenter"",""1"",""4238""
","
","","","","","","593.5999999046326","images/bed3.png","","","learning","8","-5","insert","","bed","furniture","2","0","","neutral","0"
"html-keyboard-response","122","502726","0.0-9.0-2.0-0.25","7197","2","10","Male","approach_avoid_spark_v1","""event"",""trial"",""time""
""fullscreenenter"",""1"",""4238""
","
","
","""event"",""trial"",""time""
""fullscreenenter"",""1"",""4238""
","
","","","","","","null","<div style=""font-size:60px;"">+</div>","null","","fixation","","","","","","","","","","",""
"aa-learning-trial","123","505730","0.0-9.0-2.0-1.25","7197","2","10","Male","approach_avoid_spark_v1","""event"",""trial"",""time""
""fullscreenenter"",""1"",""4238""
","
","
","""event"",""trial"",""time""
""fullscreenenter"",""1"",""4238""
","
","","","","","","544.1999999284744","images/sofa2.png","","","learning","-6","-5","end","","sofa","furniture","2","0","","bad","[-5]"
"html-keyboard-response","124","506232","0.0-9.0-2.0-0.26","7197","2","10","Male","approach_avoid_spark_v1","""event"",""trial"",""time""
""fullscreenenter"",""1"",""4238""
","
","
","""event"",""trial"",""time""
""fullscreenenter"",""1"",""4238""
","
","","","","","","null","<div style=""font-size:60px;"">+</div>","null","","fixation","","","","","","","","","","",""
"aa-learning-trial","125","509235","0.0-9.0-2.0-1.26","7197","2","10","Male","approach_avoid_spark_v1","""event"",""trial"",""time""
""fullscreenenter"",""1"",""4238""
","
","
","""event"",""trial"",""time""
""fullscreenenter"",""1"",""4238""
","
","","","","","","1103.3999999761581","images/bed6.png","","","learning","4","-5","end","","bed","furniture","2","0","","neutral","0"
"html-keyboard-response","126","509738","0.0-9.0-2.0-0.27","7197","2","10","Male","approach_avoid_spark_v1","""event"",""trial"",""time""
""fullscreenenter"",""1"",""4238""
","
","
","""event"",""trial"",""time""
""fullscreenenter"",""1"",""4238""
","
","","","","","","null","<div style=""font-size:60px;"">+</div>","null","","fixation","","","","","","","","","","",""
"aa-learning-trial","127","512741","0.0-9.0-2.0-1.27","7197","2","10","Male","approach_avoid_spark_v1","""event"",""trial"",""time""
""fullscreenenter"",""1"",""4238""
","
","
","""event"",""trial"",""time""
""fullscreenenter"",""1"",""4238""
","
","","","","","","932.4000000953674","images/sofa2.png","","","learning","-6","-5","insert","","sofa","furniture","2","0","","bad","[-5]"
"html-keyboard-response","128","513242","0.0-9.0-2.0-0.28","7197","2","10","Male","approach_avoid_spark_v1","""event"",""trial"",""time""
""fullscreenenter"",""1"",""4238""
","
","
","""event"",""trial"",""time""
""fullscreenenter"",""1"",""4238""
","
","","","","","","null","<div style=""font-size:60px;"">+</div>","null","","fixation","","","","","","","","","","",""
"aa-learning-trial","129","516245","0.0-9.0-2.0-1.28","7197","2","10","Male","approach_avoid_spark_v1","""event"",""trial"",""time""
""fullscreenenter"",""1"",""4238""
","
","
","""event"",""trial"",""time""
""fullscreenenter"",""1"",""4238""
","
","","","","","","693.2000000476837","images/bed6.png","","","learning","4","-5","end","","bed","furniture","2","0","","neutral","0"
"html-keyboard-response","130","516747","0.0-9.0-2.0-0.29","7197","2","10","Male","approach_avoid_spark_v1","""event"",""trial"",""time""
""fullscreenenter"",""1"",""4238""
","
","
","""event"",""trial"",""time""
""fullscreenenter"",""1"",""4238""
","
","","","","","","null","<div style=""font-size:60px;"">+</div>","null","","fixation","","","","","","","","","","",""
"aa-learning-trial","131","519751","0.0-9.0-2.0-1.29","7197","2","10","Male","approach_avoid_spark_v1","""event"",""trial"",""time""
""fullscreenenter"",""1"",""4238""
","
","
","""event"",""trial"",""time""
""fullscreenenter"",""1"",""4238""
","
","","","","","","1428.2999999523163","images/bed4.png","","","learning","2","-5","end","","bed","furniture","2","0","","neutral","0"
"html-keyboard-response","132","520252","0.0-9.0-2.0-0.30","7197","2","10","Male","approach_avoid_spark_v1","""event"",""trial"",""time""
""fullscreenenter"",""1"",""4238""
","
","
","""event"",""trial"",""time""
""fullscreenenter"",""1"",""4238""
","
","","","","","","null","<div style=""font-size:60px;"">+</div>","null","","fixation","","","","","","","","","","",""
"aa-learning-trial","133","523256","0.0-9.0-2.0-1.30","7197","2","10","Male","approach_avoid_spark_v1","""event"",""trial"",""time""
""fullscreenenter"",""1"",""4238""
","
","
","""event"",""trial"",""time""
""fullscreenenter"",""1"",""4238""
","
","","","","","","1194.2999999523163","images/table6.png","","","learning","5","-5","end","","table","furniture","2","0","","good","[5]"
"html-keyboard-response","134","523758","0.0-9.0-2.0-0.31","7197","2","10","Male","approach_avoid_spark_v1","""event"",""trial"",""time""
""fullscreenenter"",""1"",""4238""
","
","
","""event"",""trial"",""time""
""fullscreenenter"",""1"",""4238""
","
","","","","","","null","<div style=""font-size:60px;"">+</div>","null","","fixation","","","","","","","","","","",""
"aa-learning-trial","135","526762","0.0-9.0-2.0-1.31","7197","2","10","Male","approach_avoid_spark_v1","""event"",""trial"",""time""
""fullscreenenter"",""1"",""4238""
","
","
","""event"",""trial"",""time""
""fullscreenenter"",""1"",""4238""
","
","","","","","","848.5","images/table4.png","","","learning","-5","-5","end","","table","furniture","2","0","","good","[5]"
"html-keyboard-response","136","527263","0.0-9.0-2.0-0.32","7197","2","10","Male","approach_avoid_spark_v1","""event"",""trial"",""time""
""fullscreenenter"",""1"",""4238""
","
","
","""event"",""trial"",""time""
""fullscreenenter"",""1"",""4238""
","
","","","","","","null","<div style=""font-size:60px;"">+</div>","null","","fixation","","","","","","","","","","",""
"aa-learning-trial","137","530265","0.0-9.0-2.0-1.32","7197","2","10","Male","approach_avoid_spark_v1","""event"",""trial"",""time""
""fullscreenenter"",""1"",""4238""
","
","
","""event"",""trial"",""time""
""fullscreenenter"",""1"",""4238""
","
","","","","","","1489.1999999284744","images/table8.png","","","learning","1","-5","insert","","table","furniture","2","0","","good","[5]"
"html-keyboard-response","138","530767","0.0-9.0-2.0-0.33","7197","2","10","Male","approach_avoid_spark_v1","""event"",""trial"",""time""
""fullscreenenter"",""1"",""4238""
","
","
","""event"",""trial"",""time""
""fullscreenenter"",""1"",""4238""
","
","","","","","","null","<div style=""font-size:60px;"">+</div>","null","","fixation","","","","","","","","","","",""
"aa-learning-trial","139","533770","0.0-9.0-2.0-1.33","7197","2","10","Male","approach_avoid_spark_v1","""event"",""trial"",""time""
""fullscreenenter"",""1"",""4238""
","
","
","""event"",""trial"",""time""
""fullscreenenter"",""1"",""4238""
","
","","","","","","1615.7000000476837","images/table8.png","","","learning","1","-5","insert","","table","furniture","2","0","","good","[5]"
"html-keyboard-response","140","534272","0.0-9.0-2.0-0.34","7197","2","10","Male","approach_avoid_spark_v1","""event"",""trial"",""time""
""fullscreenenter"",""1"",""4238""
","
","
","""event"",""trial"",""time""
""fullscreenenter"",""1"",""4238""
","
","","","","","","null","<div style=""font-size:60px;"">+</div>","null","","fixation","","","","","","","","","","",""
"aa-learning-trial","141","537275","0.0-9.0-2.0-1.34","7197","2","10","Male","approach_avoid_spark_v1","""event"",""trial"",""time""
""fullscreenenter"",""1"",""4238""
","
","
","""event"",""trial"",""time""
""fullscreenenter"",""1"",""4238""
","
","","","","","","527","images/bed7.png","","","learning","-9","-5","end","","bed","furniture","2","0","","neutral","0"
"html-keyboard-response","142","537777","0.0-9.0-2.0-0.35","7197","2","10","Male","approach_avoid_spark_v1","""event"",""trial"",""time""
""fullscreenenter"",""1"",""4238""
","
","
","""event"",""trial"",""time""
""fullscreenenter"",""1"",""4238""
","
","","","","","","null","<div style=""font-size:60px;"">+</div>","null","","fixation","","","","","","","","","","",""
"aa-learning-trial","143","540780","0.0-9.0-2.0-1.35","7197","2","10","Male","approach_avoid_spark_v1","""event"",""trial"",""time""
""fullscreenenter"",""1"",""4238""
","
","
","""event"",""trial"",""time""
""fullscreenenter"",""1"",""4238""
","
","","","","","","725.8999999761581","images/sofa8.png","","","learning","-1","-5","insert","","sofa","furniture","2","0","","bad","[-5]"
"html-keyboard-response","144","541281","0.0-9.0-2.0-0.36","7197","2","10","Male","approach_avoid_spark_v1","""event"",""trial"",""time""
""fullscreenenter"",""1"",""4238""
","
","
","""event"",""trial"",""time""
""fullscreenenter"",""1"",""4238""
","
","","","","","","null","<div style=""font-size:60px;"">+</div>","null","","fixation","","","","","","","","","","",""
"aa-learning-trial","145","544283","0.0-9.0-2.0-1.36","7197","2","10","Male","approach_avoid_spark_v1","""event"",""trial"",""time""
""fullscreenenter"",""1"",""4238""
","
","
","""event"",""trial"",""time""
""fullscreenenter"",""1"",""4238""
","
","","","","","","982.7000000476837","images/sofa8.png","","","learning","-1","-5","end","","sofa","furniture","2","0","","bad","[-5]"
"html-keyboard-response","146","544786","0.0-9.0-2.0-0.37","7197","2","10","Male","approach_avoid_spark_v1","""event"",""trial"",""time""
""fullscreenenter"",""1"",""4238""
","
","
","""event"",""trial"",""time""
""fullscreenenter"",""1"",""4238""
","
","","","","","","null","<div style=""font-size:60px;"">+</div>","null","","fixation","","","","","","","","","","",""
"aa-learning-trial","147","547790","0.0-9.0-2.0-1.37","7197","2","10","Male","approach_avoid_spark_v1","""event"",""trial"",""time""
""fullscreenenter"",""1"",""4238""
","
","
","""event"",""trial"",""time""
""fullscreenenter"",""1"",""4238""
","
","","","","","","1165.2999999523163","images/bed4.png","","","learning","2","-5","insert","","bed","furniture","2","0","","neutral","0"
"html-keyboard-response","148","548292","0.0-9.0-2.0-0.38","7197","2","10","Male","approach_avoid_spark_v1","""event"",""trial"",""time""
""fullscreenenter"",""1"",""4238""
","
","
","""event"",""trial"",""time""
""fullscreenenter"",""1"",""4238""
","
","","","","","","null","<div style=""font-size:60px;"">+</div>","null","","fixation","","","","","","","","","","",""
"aa-learning-trial","149","551295","0.0-9.0-2.0-1.38","7197","2","10","Male","approach_avoid_spark_v1","""event"",""trial"",""time""
""fullscreenenter"",""1"",""4238""
","
","
","""event"",""trial"",""time""
""fullscreenenter"",""1"",""4238""
","
","","","","","","1075.3999999761581","images/table4.png","","","learning","-5","-5","end","","table","furniture","2","0","","good","[5]"
"html-keyboard-response","150","551797","0.0-9.0-2.0-0.39","7197","2","10","Male","approach_avoid_spark_v1","""event"",""trial"",""time""
""fullscreenenter"",""1"",""4238""
","
","
","""event"",""trial"",""time""
""fullscreenenter"",""1"",""4238""
","
","","","","","","null","<div style=""font-size:60px;"">+</div>","null","","fixation","","","","","","","","","","",""
"aa-learning-trial","151","554800","0.0-9.0-2.0-1.39","7197","2","10","Male","approach_avoid_spark_v1","""event"",""trial"",""time""
""fullscreenenter"",""1"",""4238""
","
","
","""event"",""trial"",""time""
""fullscreenenter"",""1"",""4238""
","
","","","","","","643.3999999761581","images/table6.png","","","learning","5","-5","insert","","table","furniture","2","0","","good","[5]"
"html-keyboard-response","152","555302","0.0-9.0-2.0-0.40","7197","2","10","Male","approach_avoid_spark_v1","""event"",""trial"",""time""
""fullscreenenter"",""1"",""4238""
","
","
","""event"",""trial"",""time""
""fullscreenenter"",""1"",""4238""
","
","","","","","","null","<div style=""font-size:60px;"">+</div>","null","","fixation","","","","","","","","","","",""
"aa-learning-trial","153","558305","0.0-9.0-2.0-1.40","7197","2","10","Male","approach_avoid_spark_v1","""event"",""trial"",""time""
""fullscreenenter"",""1"",""4238""
","
","
","""event"",""trial"",""time""
""fullscreenenter"",""1"",""4238""
","
","","","","","","817.9000000953674","images/sofa7.png","","","learning","6","-5","end","","sofa","furniture","2","0","","bad","[-5]"
"html-keyboard-response","154","558806","0.0-9.0-2.0-0.41","7197","2","10","Male","approach_avoid_spark_v1","""event"",""trial"",""time""
""fullscreenenter"",""1"",""4238""
","
","
","""event"",""trial"",""time""
""fullscreenenter"",""1"",""4238""
","
","","","","","","null","<div style=""font-size:60px;"">+</div>","null","","fixation","","","","","","","","","","",""
"aa-learning-trial","155","561810","0.0-9.0-2.0-1.41","7197","2","10","Male","approach_avoid_spark_v1","""event"",""trial"",""time""
""fullscreenenter"",""1"",""4238""
","
","
","""event"",""trial"",""time""
""fullscreenenter"",""1"",""4238""
","
","","","","","","1225","images/table6.png","","","learning","5","-5","end","","table","furniture","2","0","","good","[5]"
"html-keyboard-response","156","562312","0.0-9.0-2.0-0.42","7197","2","10","Male","approach_avoid_spark_v1","""event"",""trial"",""time""
""fullscreenenter"",""1"",""4238""
","
","
","""event"",""trial"",""time""
""fullscreenenter"",""1"",""4238""
","
","","","","","","null","<div style=""font-size:60px;"">+</div>","null","","fixation","","","","","","","","","","",""
"aa-learning-trial","157","565315","0.0-9.0-2.0-1.42","7197","2","10","Male","approach_avoid_spark_v1","""event"",""trial"",""time""
""fullscreenenter"",""1"",""4238""
","
","
","""event"",""trial"",""time""
""fullscreenenter"",""1"",""4238""
","
","","","","","","1000.4000000953674","images/sofa3.png","","","learning","3","-5","insert","","sofa","furniture","2","0","","bad","[-5]"
"html-keyboard-response","158","565817","0.0-9.0-2.0-0.43","7197","2","10","Male","approach_avoid_spark_v1","""event"",""trial"",""time""
""fullscreenenter"",""1"",""4238""
","
","
","""event"",""trial"",""time""
""fullscreenenter"",""1"",""4238""
","
","","","","","","null","<div style=""font-size:60px;"">+</div>","null","","fixation","","","","","","","","","","",""
"aa-learning-trial","159","568820","0.0-9.0-2.0-1.43","7197","2","10","Male","approach_avoid_spark_v1","""event"",""trial"",""time""
""fullscreenenter"",""1"",""4238""
","
","
","""event"",""trial"",""time""
""fullscreenenter"",""1"",""4238""
","
","","","","","","871.3999999761581","images/bed4.png","","","learning","2","-5","end","","bed","furniture","2","0","","neutral","0"
"html-keyboard-response","160","569321","0.0-9.0-2.0-0.44","7197","2","10","Male","approach_avoid_spark_v1","""event"",""trial"",""time""
""fullscreenenter"",""1"",""4238""
","
","
","""event"",""trial"",""time""
""fullscreenenter"",""1"",""4238""
","
","","","","","","null","<div style=""font-size:60px;"">+</div>","null","","fixation","","","","","","","","","","",""
"aa-learning-trial","161","572324","0.0-9.0-2.0-1.44","7197","2","10","Male","approach_avoid_spark_v1","""event"",""trial"",""time""
""fullscreenenter"",""1"",""4238""
","
","
","""event"",""trial"",""time""
""fullscreenenter"",""1"",""4238""
","
","","","","","","1111","images/bed8.png","","","learning","-3","-5","insert","","bed","furniture","2","0","","neutral","0"
"html-keyboard-response","162","572826","0.0-9.0-2.0-0.45","7197","2","10","Male","approach_avoid_spark_v1","""event"",""trial"",""time""
""fullscreenenter"",""1"",""4238""
","
","
","""event"",""trial"",""time""
""fullscreenenter"",""1"",""4238""
","
","","","","","","null","<div style=""font-size:60px;"">+</div>","null","","fixation","","","","","","","","","","",""
"aa-learning-trial","163","575829","0.0-9.0-2.0-1.45","7197","2","10","Male","approach_avoid_spark_v1","""event"",""trial"",""time""
""fullscreenenter"",""1"",""4238""
","
","
","""event"",""trial"",""time""
""fullscreenenter"",""1"",""4238""
","
","","","","","","855.1000000238419","images/bed4.png","","","learning","2","-5","end","","bed","furniture","2","0","","neutral","0"
"html-keyboard-response","164","576331","0.0-9.0-2.0-0.46","7197","2","10","Male","approach_avoid_spark_v1","""event"",""trial"",""time""
""fullscreenenter"",""1"",""4238""
","
","
","""event"",""trial"",""time""
""fullscreenenter"",""1"",""4238""
","
","","","","","","null","<div style=""font-size:60px;"">+</div>","null","","fixation","","","","","","","","","","",""
"aa-learning-trial","165","579344","0.0-9.0-2.0-1.46","7197","2","10","Male","approach_avoid_spark_v1","""event"",""trial"",""time""
""fullscreenenter"",""1"",""4238""
","
","
","""event"",""trial"",""time""
""fullscreenenter"",""1"",""4238""
","
","","","","","","1012.7999999523163","images/table4.png","","","learning","-5","-5","insert","","table","furniture","2","0","","good","[5]"
"html-keyboard-response","166","579846","0.0-9.0-2.0-0.47","7197","2","10","Male","approach_avoid_spark_v1","""event"",""trial"",""time""
""fullscreenenter"",""1"",""4238""
","
","
","""event"",""trial"",""time""
""fullscreenenter"",""1"",""4238""
","
","","","","","","null","<div style=""font-size:60px;"">+</div>","null","","fixation","","","","","","","","","","",""
"aa-learning-trial","167","582862","0.0-9.0-2.0-1.47","7197","2","10","Male","approach_avoid_spark_v1","""event"",""trial"",""time""
""fullscreenenter"",""1"",""4238""
","
","
","""event"",""trial"",""time""
""fullscreenenter"",""1"",""4238""
","
","","","","","","1049.3999999761581","images/sofa4.png","","","learning","-4","-5","end","","sofa","furniture","2","0","","bad","[-5]"
"html-keyboard-response","168","583364","0.0-9.0-2.0-0.48","7197","2","10","Male","approach_avoid_spark_v1","""event"",""trial"",""time""
""fullscreenenter"",""1"",""4238""
","
","
","""event"",""trial"",""time""
""fullscreenenter"",""1"",""4238""
","
","","","","","","null","<div style=""font-size:60px;"">+</div>","null","","fixation","","","","","","","","","","",""
"aa-learning-trial","169","586366","0.0-9.0-2.0-1.48","7197","2","10","Male","approach_avoid_spark_v1","""event"",""trial"",""time""
""fullscreenenter"",""1"",""4238""
","
","
","""event"",""trial"",""time""
""fullscreenenter"",""1"",""4238""
","
","","","","","","2021","images/sofa8.png","","","learning","-1","-5","insert","","sofa","furniture","2","0","","bad","[-5]"
"html-keyboard-response","170","586867","0.0-9.0-2.0-0.49","7197","2","10","Male","approach_avoid_spark_v1","""event"",""trial"",""time""
""fullscreenenter"",""1"",""4238""
","
","
","""event"",""trial"",""time""
""fullscreenenter"",""1"",""4238""
","
","","","","","","null","<div style=""font-size:60px;"">+</div>","null","","fixation","","","","","","","","","","",""
"aa-learning-trial","171","589878","0.0-9.0-2.0-1.49","7197","2","10","Male","approach_avoid_spark_v1","""event"",""trial"",""time""
""fullscreenenter"",""1"",""4238""
","
","
","""event"",""trial"",""time""
""fullscreenenter"",""1"",""4238""
","
","","","","","","1532.3000000715256","images/bed6.png","","","learning","4","-5","end","","bed","furniture","2","0","","neutral","0"
"html-keyboard-response","172","590379","0.0-9.0-2.0-0.50","7197","2","10","Male","approach_avoid_spark_v1","""event"",""trial"",""time""
""fullscreenenter"",""1"",""4238""
","
","
","""event"",""trial"",""time""
""fullscreenenter"",""1"",""4238""
","
","","","","","","null","<div style=""font-size:60px;"">+</div>","null","","fixation","","","","","","","","","","",""
"aa-learning-trial","173","593382","0.0-9.0-2.0-1.50","7197","2","10","Male","approach_avoid_spark_v1","""event"",""trial"",""time""
""fullscreenenter"",""1"",""4238""
","
","
","""event"",""trial"",""time""
""fullscreenenter"",""1"",""4238""
","
","","","","","","1708.5","images/sofa4.png","","","learning","-4","-5","end","","sofa","furniture","2","0","","bad","[-5]"
"html-button-response","174","605778","0.0-9.0-3.0","7197","2","10","Male","approach_avoid_spark_v1","""event"",""trial"",""time""
""fullscreenenter"",""1"",""4238""
","
","
","""event"",""trial"",""time""
""fullscreenenter"",""1"",""4238""
","
","","","","","","12393.899999976158","<p> You have completed the round! <p> In this round, you earned -255 points! </p>","0","","break","","","","","","","","","","",""
"html-button-response","175","607392","0.0-10.0","7197","2","10","Male","approach_avoid_spark_v1","""event"",""trial"",""time""
""fullscreenenter"",""1"",""4238""
","
","
","""event"",""trial"",""time""
""fullscreenenter"",""1"",""4238""
","
","","","","","","1613.1000000238419","<p> Now it's time to play another round. </p>","0","","transition_screen","","","","","","","","","","",""
"preload","176","607522","0.0-11.0-0.0","7197","2","10","Male","approach_avoid_spark_v1","""event"",""trial"",""time""
""fullscreenenter"",""1"",""4238""
","
","
","""event"",""trial"",""time""
""fullscreenenter"",""1"",""4238""
","
","true","false","[]","[]","[]","","","","","","","","","","","","","","","",""
"learning-instructions","177","615102","0.0-11.0-1.0-0.0","7197","2","10","Male","approach_avoid_spark_v1","""event"",""trial"",""time""
""fullscreenenter"",""1"",""4238""
","
","
","""event"",""trial"",""time""
""fullscreenenter"",""1"",""4238""
","
","","","","","","2207.2999999523163","<p> Your goal in this round is to sell different plants to a picky customer. </p></div>","","0","instructions","","","","","","","","","","",""
"learning-instructions","178","625423","0.0-11.0-1.0-0.1","7197","2","10","Male","approach_avoid_spark_v1","""event"",""trial"",""time""
""fullscreenenter"",""1"",""4238""
","
","
","""event"",""trial"",""time""
""fullscreenenter"",""1"",""4238""
","
","","","","","","1047.6000000238419","<p> The customer likes some plants and dislikes others.  </p><p> On each turn, you will see a plant.   </p><p> You need to decide whether to offer it to the customer or not.  </p>","","0","instructions","","","","","","","","","","",""
"learning-instructions","179","635609","0.0-11.0-1.0-0.2","7197","2","10","Male","approach_avoid_spark_v1","""event"",""trial"",""time""
""fullscreenenter"",""1"",""4238""
","
","
","""event"",""trial"",""time""
""fullscreenenter"",""1"",""4238""
","
","","","","","","4602.5","<p> You can offer the plant by pressing 1 and decide to not offer it by pressing 0. </p><br><div class=""choice-instructions-grid""> <div class=""choice-option""><img src=""images/approach.png"" class=""choice-option-img"" stage=""instructions"" position=""0"" ><div class=""choice-option-text""> Press ""1."" </div></div><div class=""choice-option""><img src=""images/avoid.png"" class=""choice-option-img"" stage=""instructions"" position=""1"" ><div class=""choice-option-text""> Press ""0."" </div></div>","","0","instructions","","","","","","","","","","",""
"learning-instructions","180","646655","0.0-11.0-1.0-0.3","7197","2","10","Male","approach_avoid_spark_v1","""event"",""trial"",""time""
""fullscreenenter"",""1"",""4238""
","
","
","""event"",""trial"",""time""
""fullscreenenter"",""1"",""4238""
","
","","","","","","2149.2999999523163","<p> If you offer a plant to the customer that she likes, she will be very pleased! </p><p> But if you offer a plant that she does NOT like, she will be annoyed. </p>","","0","instructions","","","","","","","","","","",""
"learning-instructions","181","660185","0.0-11.0-1.0-0.4","7197","2","10","Male","approach_avoid_spark_v1","""event"",""trial"",""time""
""fullscreenenter"",""1"",""4238""
","
","
","""event"",""trial"",""time""
""fullscreenenter"",""1"",""4238""
","
","","","","","","1158.6000000238419","<p> You will earn points based on how you made the customer feel. </p><p> If you made her pleased, you will WIN anywhere from 1 - 9 points, </p><p> but if you made her annoyed, you will LOSE anywhere from 1 - 9 points. </p>","","0","instructions","","","","","","","","","","",""
"learning-instructions","182","669533","0.0-11.0-1.0-0.5","7197","2","10","Male","approach_avoid_spark_v1","""event"",""trial"",""time""
""fullscreenenter"",""1"",""4238""
","
","
","""event"",""trial"",""time""
""fullscreenenter"",""1"",""4238""
","
","","","","","","2698","<p> You will see how many points you won or lost in the center of the screen. </p><p> Here is what you would see if you won 5 points: </p><p style=""color:green;font-size:50px;font-weight:bolder"">5</p>","","0","instructions","","","","","","","","","","",""
"learning-instructions","183","673965","0.0-11.0-1.0-0.6","7197","2","10","Male","approach_avoid_spark_v1","""event"",""trial"",""time""
""fullscreenenter"",""1"",""4238""
","
","
","""event"",""trial"",""time""
""fullscreenenter"",""1"",""4238""
","
","","","","","","1589.7999999523163","<p> And here is what you would see if you lost 3 points: </p><p style=""color:red;font-size:50px;font-weight:bolder"">-3</p>","","0","instructions","","","","","","","","","","",""
"learning-instructions","184","689216","0.0-11.0-1.0-0.7","7197","2","10","Male","approach_avoid_spark_v1","""event"",""trial"",""time""
""fullscreenenter"",""1"",""4238""
","
","
","""event"",""trial"",""time""
""fullscreenenter"",""1"",""4238""
","
","","","","","","620","<p> Some plants will make the customer VERY pleased or annoyed. </p><p> These plants will make you win or lose LOTS of points. </p><p> The customer will have less strong feelings about other plants. </p><p> These plants will make you win or lose small amounts of points. </p>","","0","instructions","","","","","","","","","","",""
"learning-instructions","185","703749","0.0-11.0-1.0-0.8","7197","2","10","Male","approach_avoid_spark_v1","""event"",""trial"",""time""
""fullscreenenter"",""1"",""4238""
","
","
","""event"",""trial"",""time""
""fullscreenenter"",""1"",""4238""
","
","","","","","","2052.899999976158","<p> If you choose to not offer the plant to the customer, you will not win or lose any points. </p><p>  However, in the center of the screen, you will see the number of points you WOULD HAVE won or lost if you had offered the plant. </p>","","0","instructions","","","","","","","","","","",""
"learning-instructions","186","719015","0.0-11.0-1.0-0.9","7197","2","10","Male","approach_avoid_spark_v1","""event"",""trial"",""time""
""fullscreenenter"",""1"",""4238""
","
","
","""event"",""trial"",""time""
""fullscreenenter"",""1"",""4238""
","
","","","","","","3879.7999999523163","<p> Here is what you might see if you did not offer the plant but the customer would have liked it: </p><p style=""color:grey; font-size:50px; display: inline-block; border-spacing: 15px; border-width:3px; border-style:solid; border-color:red"">  &nbsp; 6 &nbsp; </p><p> Remember, in this case, you would not win or lose ANY points because you did not offer the plant.  </p>","","0","instructions","","","","","","","","","","",""
"learning-instructions","187","727549","0.0-11.0-1.0-0.10","7197","2","10","Male","approach_avoid_spark_v1","""event"",""trial"",""time""
""fullscreenenter"",""1"",""4238""
","
","
","""event"",""trial"",""time""
""fullscreenenter"",""1"",""4238""
","
","","","","","","933.2999999523163","<p> Try to make the best choice for each plant because </p><p> at the end of the game, you will earn bonus money based on how many points you earned. </p>","","0","instructions","","","","","","","","","","",""
"learning-instructions","188","742082","0.0-11.0-1.0-0.11","7197","2","10","Male","approach_avoid_spark_v1","""event"",""trial"",""time""
""fullscreenenter"",""1"",""4238""
","
","
","""event"",""trial"",""time""
""fullscreenenter"",""1"",""4238""
","
","","","","","","6336.899999976158","<p> You will have 3 seconds to make each choice. Try to respond before time runs out! </p><p> You will lose 5 points each time you do not make a response. </p>","","0","instructions","","","","","","","","","","",""
"html-keyboard-response","189","742695","0.0-11.0-2.0-0.0","7197","2","10","Male","approach_avoid_spark_v1","""event"",""trial"",""time""
""fullscreenenter"",""1"",""4238""
","
","
","""event"",""trial"",""time""
""fullscreenenter"",""1"",""4238""
","
","","","","","","null","<div style=""font-size:60px;"">+</div>","null","","fixation","","","","","","","","","","",""
"aa-learning-trial","190","745707","0.0-11.0-2.0-1.0","7197","2","10","Male","approach_avoid_spark_v1","""event"",""trial"",""time""
""fullscreenenter"",""1"",""4238""
","
","
","""event"",""trial"",""time""
""fullscreenenter"",""1"",""4238""
","
","","","","","","1135.3999999761581","images/tree8.png","","","learning","8","-5","insert","","tree","plants","1","1","","good","[5]"
"html-keyboard-response","191","746209","0.0-11.0-2.0-0.1","7197","2","10","Male","approach_avoid_spark_v1","""event"",""trial"",""time""
""fullscreenenter"",""1"",""4238""
","
","
","""event"",""trial"",""time""
""fullscreenenter"",""1"",""4238""
","
","","","","","","null","<div style=""font-size:60px;"">+</div>","null","","fixation","","","","","","","","","","",""
"aa-learning-trial","192","749221","0.0-11.0-2.0-1.1","7197","2","10","Male","approach_avoid_spark_v1","""event"",""trial"",""time""
""fullscreenenter"",""1"",""4238""
","
","
","""event"",""trial"",""time""
""fullscreenenter"",""1"",""4238""
","
","","","","","","1197.6999999284744","images/bush7.png","","","learning","-6","-5","end","","bush","plants","1","1","","bad","[-6]"
"html-keyboard-response","193","749735","0.0-11.0-2.0-0.2","7197","2","10","Male","approach_avoid_spark_v1","""event"",""trial"",""time""
""fullscreenenter"",""1"",""4238""
","
","
","""event"",""trial"",""time""
""fullscreenenter"",""1"",""4238""
","
","","","","","","null","<div style=""font-size:60px;"">+</div>","null","","fixation","","","","","","","","","","",""
"aa-learning-trial","194","752743","0.0-11.0-2.0-1.2","7197","2","10","Male","approach_avoid_spark_v1","""event"",""trial"",""time""
""fullscreenenter"",""1"",""4238""
","
","
","""event"",""trial"",""time""
""fullscreenenter"",""1"",""4238""
","
","","","","","","616","images/bush2.png","","","learning","-7","-5","insert","","bush","plants","1","1","","bad","[-6]"
"html-keyboard-response","195","753260","0.0-11.0-2.0-0.3","7197","2","10","Male","approach_avoid_spark_v1","""event"",""trial"",""time""
""fullscreenenter"",""1"",""4238""
","
","
","""event"",""trial"",""time""
""fullscreenenter"",""1"",""4238""
","
","","","","","","null","<div style=""font-size:60px;"">+</div>","null","","fixation","","","","","","","","","","",""
"aa-learning-trial","196","756277","0.0-11.0-2.0-1.3","7197","2","10","Male","approach_avoid_spark_v1","""event"",""trial"",""time""
""fullscreenenter"",""1"",""4238""
","
","
","""event"",""trial"",""time""
""fullscreenenter"",""1"",""4238""
","
","","","","","","932.1000000238419","images/flower8.png","","","learning","[-1]","-5","end","","flower","plants","1","1","","neutral","0"
"html-keyboard-response","197","756793","0.0-11.0-2.0-0.4","7197","2","10","Male","approach_avoid_spark_v1","""event"",""trial"",""time""
""fullscreenenter"",""1"",""4238""
","
","
","""event"",""trial"",""time""
""fullscreenenter"",""1"",""4238""
","
","","","","","","null","<div style=""font-size:60px;"">+</div>","null","","fixation","","","","","","","","","","",""
"aa-learning-trial","198","759804","0.0-11.0-2.0-1.4","7197","2","10","Male","approach_avoid_spark_v1","""event"",""trial"",""time""
""fullscreenenter"",""1"",""4238""
","
","
","""event"",""trial"",""time""
""fullscreenenter"",""1"",""4238""
","
","","","","","","621.1000000238419","images/flower6.png","","","learning","[-1]","-5","end","","flower","plants","1","1","","neutral","0"
"html-keyboard-response","199","760320","0.0-11.0-2.0-0.5","7197","2","10","Male","approach_avoid_spark_v1","""event"",""trial"",""time""
""fullscreenenter"",""1"",""4238""
","
","
","""event"",""trial"",""time""
""fullscreenenter"",""1"",""4238""
","
","","","","","","null","<div style=""font-size:60px;"">+</div>","null","","fixation","","","","","","","","","","",""
"aa-learning-trial","200","763335","0.0-11.0-2.0-1.5","7197","2","10","Male","approach_avoid_spark_v1","""event"",""trial"",""time""
""fullscreenenter"",""1"",""4238""
","
","
","""event"",""trial"",""time""
""fullscreenenter"",""1"",""4238""
","
","","","","","","446.5","images/flower3.png","","","learning","-2","-5","insert","","flower","plants","1","1","","neutral","0"
"html-keyboard-response","201","763848","0.0-11.0-2.0-0.6","7197","2","10","Male","approach_avoid_spark_v1","""event"",""trial"",""time""
""fullscreenenter"",""1"",""4238""
","
","
","""event"",""trial"",""time""
""fullscreenenter"",""1"",""4238""
","
","","","","","","null","<div style=""font-size:60px;"">+</div>","null","","fixation","","","","","","","","","","",""
"aa-learning-trial","202","766854","0.0-11.0-2.0-1.6","7197","2","10","Male","approach_avoid_spark_v1","""event"",""trial"",""time""
""fullscreenenter"",""1"",""4238""
","
","
","""event"",""trial"",""time""
""fullscreenenter"",""1"",""4238""
","
","","","","","","663.1999999284744","images/tree7.png","","","learning","8","-5","end","","tree","plants","1","1","","good","[5]"
"html-keyboard-response","203","767357","0.0-11.0-2.0-0.7","7197","2","10","Male","approach_avoid_spark_v1","""event"",""trial"",""time""
""fullscreenenter"",""1"",""4238""
","
","
","""event"",""trial"",""time""
""fullscreenenter"",""1"",""4238""
","
","","","","","","null","<div style=""font-size:60px;"">+</div>","null","","fixation","","","","","","","","","","",""
"aa-learning-trial","204","770360","0.0-11.0-2.0-1.7","7197","2","10","Male","approach_avoid_spark_v1","""event"",""trial"",""time""
""fullscreenenter"",""1"",""4238""
","
","
","""event"",""trial"",""time""
""fullscreenenter"",""1"",""4238""
","
","","","","","","1122.0999999046326","images/bush2.png","","","learning","-7","-5","insert","","bush","plants","1","1","","bad","[-6]"
"html-keyboard-response","205","770861","0.0-11.0-2.0-0.8","7197","2","10","Male","approach_avoid_spark_v1","""event"",""trial"",""time""
""fullscreenenter"",""1"",""4238""
","
","
","""event"",""trial"",""time""
""fullscreenenter"",""1"",""4238""
","
","","","","","","null","<div style=""font-size:60px;"">+</div>","null","","fixation","","","","","","","","","","",""
"aa-learning-trial","206","773867","0.0-11.0-2.0-1.8","7197","2","10","Male","approach_avoid_spark_v1","""event"",""trial"",""time""
""fullscreenenter"",""1"",""4238""
","
","
","""event"",""trial"",""time""
""fullscreenenter"",""1"",""4238""
","
","","","","","","1537.6000000238419","images/flower6.png","","","learning","-1","-5","insert","","flower","plants","1","1","","neutral","0"
"html-keyboard-response","207","774368","0.0-11.0-2.0-0.9","7197","2","10","Male","approach_avoid_spark_v1","""event"",""trial"",""time""
""fullscreenenter"",""1"",""4238""
","
","
","""event"",""trial"",""time""
""fullscreenenter"",""1"",""4238""
","
","","","","","","null","<div style=""font-size:60px;"">+</div>","null","","fixation","","","","","","","","","","",""
"aa-learning-trial","208","777371","0.0-11.0-2.0-1.9","7197","2","10","Male","approach_avoid_spark_v1","""event"",""trial"",""time""
""fullscreenenter"",""1"",""4238""
","
","
","""event"",""trial"",""time""
""fullscreenenter"",""1"",""4238""
","
","","","","","","551.9000000953674","images/bush7.png","","","learning","-5","-5","insert","","bush","plants","1","1","","bad","[-6]"
"html-keyboard-response","209","777873","0.0-11.0-2.0-0.10","7197","2","10","Male","approach_avoid_spark_v1","""event"",""trial"",""time""
""fullscreenenter"",""1"",""4238""
","
","
","""event"",""trial"",""time""
""fullscreenenter"",""1"",""4238""
","
","","","","","","null","<div style=""font-size:60px;"">+</div>","null","","fixation","","","","","","","","","","",""
"aa-learning-trial","210","780876","0.0-11.0-2.0-1.10","7197","2","10","Male","approach_avoid_spark_v1","""event"",""trial"",""time""
""fullscreenenter"",""1"",""4238""
","
","
","""event"",""trial"",""time""
""fullscreenenter"",""1"",""4238""
","
","","","","","","885.4000000953674","images/flower8.png","","","learning","1","-5","insert","","flower","plants","1","1","","neutral","0"
"html-keyboard-response","211","781378","0.0-11.0-2.0-0.11","7197","2","10","Male","approach_avoid_spark_v1","""event"",""trial"",""time""
""fullscreenenter"",""1"",""4238""
","
","
","""event"",""trial"",""time""
""fullscreenenter"",""1"",""4238""
","
","","","","","","null","<div style=""font-size:60px;"">+</div>","null","","fixation","","","","","","","","","","",""
"aa-learning-trial","212","784381","0.0-11.0-2.0-1.11","7197","2","10","Male","approach_avoid_spark_v1","""event"",""trial"",""time""
""fullscreenenter"",""1"",""4238""
","
","
","""event"",""trial"",""time""
""fullscreenenter"",""1"",""4238""
","
","","","","","","1141","images/tree1.png","","","learning","5","-5","end","","tree","plants","1","1","","good","[5]"
"html-keyboard-response","213","784883","0.0-11.0-2.0-0.12","7197","2","10","Male","approach_avoid_spark_v1","""event"",""trial"",""time""
""fullscreenenter"",""1"",""4238""
","
","
","""event"",""trial"",""time""
""fullscreenenter"",""1"",""4238""
","
","","","","","","null","<div style=""font-size:60px;"">+</div>","null","","fixation","","","","","","","","","","",""
"aa-learning-trial","214","787886","0.0-11.0-2.0-1.12","7197","2","10","Male","approach_avoid_spark_v1","""event"",""trial"",""time""
""fullscreenenter"",""1"",""4238""
","
","
","""event"",""trial"",""time""
""fullscreenenter"",""1"",""4238""
","
","","","","","","468.7000000476837","images/tree1.png","","","learning","4","-5","end","","tree","plants","1","1","","good","[5]"
"html-keyboard-response","215","788388","0.0-11.0-2.0-0.13","7197","2","10","Male","approach_avoid_spark_v1","""event"",""trial"",""time""
""fullscreenenter"",""1"",""4238""
","
","
","""event"",""trial"",""time""
""fullscreenenter"",""1"",""4238""
","
","","","","","","null","<div style=""font-size:60px;"">+</div>","null","","fixation","","","","","","","","","","",""
"aa-learning-trial","216","791391","0.0-11.0-2.0-1.13","7197","2","10","Male","approach_avoid_spark_v1","""event"",""trial"",""time""
""fullscreenenter"",""1"",""4238""
","
","
","""event"",""trial"",""time""
""fullscreenenter"",""1"",""4238""
","
","","","","","","467.2000000476837","images/tree7.png","","","learning","4","-5","end","","tree","plants","1","1","","good","[5]"
"html-keyboard-response","217","791893","0.0-11.0-2.0-0.14","7197","2","10","Male","approach_avoid_spark_v1","""event"",""trial"",""time""
""fullscreenenter"",""1"",""4238""
","
","
","""event"",""trial"",""time""
""fullscreenenter"",""1"",""4238""
","
","","","","","","null","<div style=""font-size:60px;"">+</div>","null","","fixation","","","","","","","","","","",""
"aa-learning-trial","218","794896","0.0-11.0-2.0-1.14","7197","2","10","Male","approach_avoid_spark_v1","""event"",""trial"",""time""
""fullscreenenter"",""1"",""4238""
","
","
","""event"",""trial"",""time""
""fullscreenenter"",""1"",""4238""
","
","","","","","","920.8999999761581","images/bush1.png","","","learning","-4","-5","insert","","bush","plants","1","1","","bad","[-6]"
"html-keyboard-response","219","795397","0.0-11.0-2.0-0.15","7197","2","10","Male","approach_avoid_spark_v1","""event"",""trial"",""time""
""fullscreenenter"",""1"",""4238""
","
","
","""event"",""trial"",""time""
""fullscreenenter"",""1"",""4238""
","
","","","","","","null","<div style=""font-size:60px;"">+</div>","null","","fixation","","","","","","","","","","",""
"aa-learning-trial","220","798401","0.0-11.0-2.0-1.15","7197","2","10","Male","approach_avoid_spark_v1","""event"",""trial"",""time""
""fullscreenenter"",""1"",""4238""
","
","
","""event"",""trial"",""time""
""fullscreenenter"",""1"",""4238""
","
","","","","","","890.6000000238419","images/flower6.png","","","learning","2","-5","insert","","flower","plants","1","1","","neutral","0"
"html-keyboard-response","221","798903","0.0-11.0-2.0-0.16","7197","2","10","Male","approach_avoid_spark_v1","""event"",""trial"",""time""
""fullscreenenter"",""1"",""4238""
","
","
","""event"",""trial"",""time""
""fullscreenenter"",""1"",""4238""
","
","","","","","","null","<div style=""font-size:60px;"">+</div>","null","","fixation","","","","","","","","","","",""
"aa-learning-trial","222","801906","0.0-11.0-2.0-1.16","7197","2","10","Male","approach_avoid_spark_v1","""event"",""trial"",""time""
""fullscreenenter"",""1"",""4238""
","
","
","""event"",""trial"",""time""
""fullscreenenter"",""1"",""4238""
","
","","","","","","920","images/flower1.png","","","learning","-1","-5","insert","","flower","plants","1","1","","neutral","0"
"html-keyboard-response","223","802408","0.0-11.0-2.0-0.17","7197","2","10","Male","approach_avoid_spark_v1","""event"",""trial"",""time""
""fullscreenenter"",""1"",""4238""
","
","
","""event"",""trial"",""time""
""fullscreenenter"",""1"",""4238""
","
","","","","","","null","<div style=""font-size:60px;"">+</div>","null","","fixation","","","","","","","","","","",""
"aa-learning-trial","224","805411","0.0-11.0-2.0-1.17","7197","2","10","Male","approach_avoid_spark_v1","""event"",""trial"",""time""
""fullscreenenter"",""1"",""4238""
","
","
","""event"",""trial"",""time""
""fullscreenenter"",""1"",""4238""
","
","","","","","","767.2000000476837","images/tree1.png","","","learning","6","-5","insert","","tree","plants","1","1","","good","[5]"
"html-keyboard-response","225","805913","0.0-11.0-2.0-0.18","7197","2","10","Male","approach_avoid_spark_v1","""event"",""trial"",""time""
""fullscreenenter"",""1"",""4238""
","
","
","""event"",""trial"",""time""
""fullscreenenter"",""1"",""4238""
","
","","","","","","null","<div style=""font-size:60px;"">+</div>","null","","fixation","","","","","","","","","","",""
"aa-learning-trial","226","808916","0.0-11.0-2.0-1.18","7197","2","10","Male","approach_avoid_spark_v1","""event"",""trial"",""time""
""fullscreenenter"",""1"",""4238""
","
","
","""event"",""trial"",""time""
""fullscreenenter"",""1"",""4238""
","
","","","","","","719","images/tree8.png","","","learning","4","-5","end","","tree","plants","1","1","","good","[5]"
"html-keyboard-response","227","809418","0.0-11.0-2.0-0.19","7197","2","10","Male","approach_avoid_spark_v1","""event"",""trial"",""time""
""fullscreenenter"",""1"",""4238""
","
","
","""event"",""trial"",""time""
""fullscreenenter"",""1"",""4238""
","
","","","","","","null","<div style=""font-size:60px;"">+</div>","null","","fixation","","","","","","","","","","",""
"aa-learning-trial","228","812422","0.0-11.0-2.0-1.19","7197","2","10","Male","approach_avoid_spark_v1","""event"",""trial"",""time""
""fullscreenenter"",""1"",""4238""
","
","
","""event"",""trial"",""time""
""fullscreenenter"",""1"",""4238""
","
","","","","","","917.3000000715256","images/flower8.png","","","learning","[1]","-5","insert","","flower","plants","1","1","","neutral","0"
"html-keyboard-response","229","812923","0.0-11.0-2.0-0.20","7197","2","10","Male","approach_avoid_spark_v1","""event"",""trial"",""time""
""fullscreenenter"",""1"",""4238""
","
","
","""event"",""trial"",""time""
""fullscreenenter"",""1"",""4238""
","
","","","","","","null","<div style=""font-size:60px;"">+</div>","null","","fixation","","","","","","","","","","",""
"aa-learning-trial","230","815925","0.0-11.0-2.0-1.20","7197","2","10","Male","approach_avoid_spark_v1","""event"",""trial"",""time""
""fullscreenenter"",""1"",""4238""
","
","
","""event"",""trial"",""time""
""fullscreenenter"",""1"",""4238""
","
","","","","","","932.6000000238419","images/tree1.png","","","learning","4","-5","end","","tree","plants","1","1","","good","[5]"
"html-keyboard-response","231","816426","0.0-11.0-2.0-0.21","7197","2","10","Male","approach_avoid_spark_v1","""event"",""trial"",""time""
""fullscreenenter"",""1"",""4238""
","
","
","""event"",""trial"",""time""
""fullscreenenter"",""1"",""4238""
","
","","","","","","null","<div style=""font-size:60px;"">+</div>","null","","fixation","","","","","","","","","","",""
"aa-learning-trial","232","819429","0.0-11.0-2.0-1.21","7197","2","10","Male","approach_avoid_spark_v1","""event"",""trial"",""time""
""fullscreenenter"",""1"",""4238""
","
","
","""event"",""trial"",""time""
""fullscreenenter"",""1"",""4238""
","
","","","","","","766.1999999284744","images/tree7.png","","","learning","7","-5","end","","tree","plants","1","1","","good","[5]"
"html-keyboard-response","233","819931","0.0-11.0-2.0-0.22","7197","2","10","Male","approach_avoid_spark_v1","""event"",""trial"",""time""
""fullscreenenter"",""1"",""4238""
","
","
","""event"",""trial"",""time""
""fullscreenenter"",""1"",""4238""
","
","","","","","","null","<div style=""font-size:60px;"">+</div>","null","","fixation","","","","","","","","","","",""
"aa-learning-trial","234","822934","0.0-11.0-2.0-1.22","7197","2","10","Male","approach_avoid_spark_v1","""event"",""trial"",""time""
""fullscreenenter"",""1"",""4238""
","
","
","""event"",""trial"",""time""
""fullscreenenter"",""1"",""4238""
","
","","","","","","1084.3999999761581","images/bush7.png","","","learning","-9","-5","insert","","bush","plants","1","1","","bad","[-6]"
"html-keyboard-response","235","823436","0.0-11.0-2.0-0.23","7197","2","10","Male","approach_avoid_spark_v1","""event"",""trial"",""time""
""fullscreenenter"",""1"",""4238""
","
","
","""event"",""trial"",""time""
""fullscreenenter"",""1"",""4238""
","
","","","","","","null","<div style=""font-size:60px;"">+</div>","null","","fixation","","","","","","","","","","",""
"aa-learning-trial","236","826439","0.0-11.0-2.0-1.23","7197","2","10","Male","approach_avoid_spark_v1","""event"",""trial"",""time""
""fullscreenenter"",""1"",""4238""
","
","
","""event"",""trial"",""time""
""fullscreenenter"",""1"",""4238""
","
