"trial_type","trial_index","time_elapsed","internal_node_id","subject_id","task_condition","age","gender","task_version","interactions","blur_events","focus_events","fullscreenenter_events","fullscreenexit_events","success","timeout","failed_images","failed_audio","failed_video","rt","stimulus","response","button_pressed","task_part","approach_reward","points","key_press","option_selected","stim_cat","task_block","block_condition","block_number","correct","cat_type","mean_cat_reward"
"pavlovia","0","6","0.0-0.0","6294","1","25","Female","approach_avoid_spark_v1","""event"",""trial"",""time""
""fullscreenenter"",""1"",""2234""
","
","
","""event"",""trial"",""time""
""fullscreenenter"",""1"",""2234""
","
","","","","","","","","","","","","","","","","","","","","",""
"fullscreen","1","3184","0.0-1.0","6294","1","25","Female","approach_avoid_spark_v1","""event"",""trial"",""time""
""fullscreenenter"",""1"",""2234""
","
","
","""event"",""trial"",""time""
""fullscreenenter"",""1"",""2234""
","
","true","","","","","","","","","","","","","","","","","","","",""
"preload","2","9581","0.0-2.0","6294","1","25","Female","approach_avoid_spark_v1","""event"",""trial"",""time""
""fullscreenenter"",""1"",""2234""
","
","
","""event"",""trial"",""time""
""fullscreenenter"",""1"",""2234""
","
","true","false","[]","[]","[]","","","","","","","","","","","","","","","",""
"audio-keyboard-response","3","12222","0.0-3.0","6294","1","25","Female","approach_avoid_spark_v1","""event"",""trial"",""time""
""fullscreenenter"",""1"",""2234""
","
","
","""event"",""trial"",""time""
""fullscreenenter"",""1"",""2234""
","
","","","","","","2639.9999999999986","audio/beep_loop.wav"," ","","","","","","","","","","","","",""
"audio-button-response","4","14581","0.0-4.0","6294","1","25","Female","approach_avoid_spark_v1","""event"",""trial"",""time""
""fullscreenenter"",""1"",""2234""
","
","
","""event"",""trial"",""time""
""fullscreenenter"",""1"",""2234""
","
","","","","","","2352","audio/shark.wav","4","","","","","","","","","","","","",""
"audio-button-response","5","17561","0.0-5.0","6294","1","25","Female","approach_avoid_spark_v1","""event"",""trial"",""time""
""fullscreenenter"",""1"",""2234""
","
","
","""event"",""trial"",""time""
""fullscreenenter"",""1"",""2234""
","
","","","","","","1971","audio/turtle.wav","1","","","","","","","","","","","","",""
"preload","6","20637","0.0-6.0","6294","1","25","Female","approach_avoid_spark_v1","""event"",""trial"",""time""
""fullscreenenter"",""1"",""2234""
","
","
","""event"",""trial"",""time""
""fullscreenenter"",""1"",""2234""
","
","true","false","[]","[]","[]","","","","","","","","","","","","","","","",""
"html-keyboard-response","7","23068","0.0-7.0","6294","1","25","Female","approach_avoid_spark_v1","""event"",""trial"",""time""
""fullscreenenter"",""1"",""2234""
","
","
","""event"",""trial"",""time""
""fullscreenenter"",""1"",""2234""
","
","","","","","","2427.7000007629395","Welcome to the experiment. Press any key to begin and to advance the instructions."," ","","","","","","","","","","","","",""
"learning-instructions","8","31681","0.0-8.0-0.0-0.0","6294","1","25","Female","approach_avoid_spark_v1","""event"",""trial"",""time""
""fullscreenenter"",""1"",""2234""
","
","
","""event"",""trial"",""time""
""fullscreenenter"",""1"",""2234""
","
","","","","","","1650.8999996185303","<p> Welcome! Today you are going to play 6 different rounds of a decision-making game. </p><p> Use the mouse to click next to continue. </p>","","0","instructions","","","","","","","","","","",""
"learning-instructions","9","38453","0.0-8.0-0.0-0.1","6294","1","25","Female","approach_avoid_spark_v1","""event"",""trial"",""time""
""fullscreenenter"",""1"",""2234""
","
","
","""event"",""trial"",""time""
""fullscreenenter"",""1"",""2234""
","
","","","","","","4034.3999996185303","<p> You will start with a practice round to learn the rules. </p>","","0","instructions","","","","","","","","","","",""
"learning-instructions","10","43347","0.0-8.0-0.0-0.2","6294","1","25","Female","approach_avoid_spark_v1","""event"",""trial"",""time""
""fullscreenenter"",""1"",""2234""
","
","
","""event"",""trial"",""time""
""fullscreenenter"",""1"",""2234""
","
","","","","","","1427.099998474121","<p> Your goal in this round is to give out sports equipment to kids. </p></div>","","0","instructions","","","","","","","","","","",""
"learning-instructions","11","53831","0.0-8.0-0.0-0.3","6294","1","25","Female","approach_avoid_spark_v1","""event"",""trial"",""time""
""fullscreenenter"",""1"",""2234""
","
","
","""event"",""trial"",""time""
""fullscreenenter"",""1"",""2234""
","
","","","","","","2921.300001144409","<p> The kids only like some of the equipment.  </p><p> On each turn, you will see a piece of sports equipment.   </p><p> You need to decide whether to give it to the kids or not.  </p>","","0","instructions","","","","","","","","","","",""
"learning-instructions","12","59650","0.0-8.0-0.0-0.4","6294","1","25","Female","approach_avoid_spark_v1","""event"",""trial"",""time""
""fullscreenenter"",""1"",""2234""
","
","
","""event"",""trial"",""time""
""fullscreenenter"",""1"",""2234""
","
","","","","","","1061.2999992370605","<p> You can give them the equipment by pressing 1 and choose not to give it to them by pressing 0. </p><br><div class=""choice-instructions-grid""> <div class=""choice-option""><img src=""images/approach.png"" class=""choice-option-img"" stage=""instructions"" position=""0"" ><div class=""choice-option-text""> Press ""1."" </div></div><div class=""choice-option""><img src=""images/avoid.png"" class=""choice-option-img"" stage=""instructions"" position=""1"" ><div class=""choice-option-text""> Press ""0."" </div></div>","","0","instructions","","","","","","","","","","",""
"learning-instructions","13","68261","0.0-8.0-0.0-0.5","6294","1","25","Female","approach_avoid_spark_v1","""event"",""trial"",""time""
""fullscreenenter"",""1"",""2234""
","
","
","""event"",""trial"",""time""
""fullscreenenter"",""1"",""2234""
","
","","","","","","1221.1999988555908","<p> If you give them a piece of equipment they like, they will be happy! </p><p> But if you give them a piece of equipment they do not like, they will be sad. </p>","","0","instructions","","","","","","","","","","",""
"learning-instructions","14","79596","0.0-8.0-0.0-0.6","6294","1","25","Female","approach_avoid_spark_v1","""event"",""trial"",""time""
""fullscreenenter"",""1"",""2234""
","
","
","""event"",""trial"",""time""
""fullscreenenter"",""1"",""2234""
","
","","","","","","816","<p> You will earn points based on how you make kids feel. </p><p> If you make them happy, you will WIN anywhere from 1 - 9 points, </p><p> but if you make them sad, you will LOSE anywhere from 1 - 9 points. </p>","","0","instructions","","","","","","","","","","",""
"learning-instructions","15","89775","0.0-8.0-0.0-0.7","6294","1","25","Female","approach_avoid_spark_v1","""event"",""trial"",""time""
""fullscreenenter"",""1"",""2234""
","
","
","""event"",""trial"",""time""
""fullscreenenter"",""1"",""2234""
","
","","","","","","614.3000011444092","<p> You will see how many points you won or lost in the center of the screen. </p><p> Here is what you would see if you won 6 points: </p><p style=""color:green;font-size:50px;font-weight:bolder"">6</p><p style=""color:green"">The text is GREEN because you WON points.</p>","","0","instructions","","","","","","","","","","",""
"learning-instructions","16","95928","0.0-8.0-0.0-0.8","6294","1","25","Female","approach_avoid_spark_v1","""event"",""trial"",""time""
""fullscreenenter"",""1"",""2234""
","
","
","""event"",""trial"",""time""
""fullscreenenter"",""1"",""2234""
","
","","","","","","646.8000011444092","<p> And here is what you would see if you lost 4 points: </p><p style=""color:red;font-size:50px;font-weight:bolder"">-4</p><p style=""color:red"">The text is RED because you LOST points. </p>","","0","instructions","","","","","","","","","","",""
"learning-instructions","17","111048","0.0-8.0-0.0-0.9","6294","1","25","Female","approach_avoid_spark_v1","""event"",""trial"",""time""
""fullscreenenter"",""1"",""2234""
","
","
","""event"",""trial"",""time""
""fullscreenenter"",""1"",""2234""
","
","","","","","","407.5","<p> Some of the equipment will make the kids VERY happy or sad. </p><p> These pieces of equipment will make you win or lose LOTS of points. </p><p> Other pieces of equipment will only make the kids a little happy or sad. </p><p> These pieces of equipment will make you win or lose small amounts of points. </p>","","0","instructions","","","","","","","","","","",""
"learning-instructions","18","124505","0.0-8.0-0.0-0.10","6294","1","25","Female","approach_avoid_spark_v1","""event"",""trial"",""time""
""fullscreenenter"",""1"",""2234""
","
","
","""event"",""trial"",""time""
""fullscreenenter"",""1"",""2234""
","
","","","","","","2824.300001144409","<p> If you choose not to give them the equipment, you will not win or lose any points. </p><p>  However, in the center of the screen, you will see the number of points you WOULD HAVE won or lost if you had given them the equipment. </p>","","0","instructions","","","","","","","","","","",""
"learning-instructions","19","146503","0.0-8.0-0.0-0.11","6294","1","25","Female","approach_avoid_spark_v1","""event"",""trial"",""time""
""fullscreenenter"",""1"",""2234""
","
","
","""event"",""trial"",""time""
""fullscreenenter"",""1"",""2234""
","
","","","","","","452.1999988555908","<p> Here is what you might see if you did not give the equipment to the kids but it would have made them happy: </p><p style=""color:grey; font-size:50px; display: inline-block; border-spacing: 15px; border-width:3px; border-style:solid; border-color:red"">  &nbsp; 7 &nbsp; </p><p> Remember, in this case, you would not win or lose ANY points because you did not give them the equipment.  </p><p style=""color:grey"">The text is GREY because you earned ZERO points. </p><p style=""color:red"">However, choosing to give the kids the equipment would have made you win points. The box around the text is RED because you chose the worse option. </p>","","0","instructions","","","","","","","","","","",""
"learning-instructions","20","168001","0.0-8.0-0.0-0.12","6294","1","25","Female","approach_avoid_spark_v1","""event"",""trial"",""time""
""fullscreenenter"",""1"",""2234""
","
","
","""event"",""trial"",""time""
""fullscreenenter"",""1"",""2234""
","
","","","","","","429.20000076293945","<p> Here is what you might see if you did not give the equipment to the kids but it would have made them sad: </p><p style=""color:grey;font-size:50px; display: inline-block; border-spacing: 15px; border-width:3px; border-style:solid; border-color:green"">  &nbsp; -8 &nbsp; </p><p> Remember, in this case, you would not win or lose ANY points because you did not give them the equipment.  </p><p style=""color:grey"">The text is GREY because you earned ZERO points. </p><p  style=""color:green""> Choosing to give the kids the equipment would have made you lose points. The box around the text is GREEN because you chose the better option.</p>","","0","instructions","","","","","","","","","","",""
"learning-instructions","21","179628","0.0-8.0-0.0-0.13","6294","1","25","Female","approach_avoid_spark_v1","""event"",""trial"",""time""
""fullscreenenter"",""1"",""2234""
","
","
","""event"",""trial"",""time""
""fullscreenenter"",""1"",""2234""
","
","","","","","","2276.7999992370605","<p> You will have 3 seconds to make each choice. Try to respond before time runs out! </p><p> You will lose 5 points each time you do not make a response. </p>","","0","instructions","","","","","","","","","","",""
"learning-instructions","22","186400","0.0-8.0-0.0-0.14","6294","1","25","Female","approach_avoid_spark_v1","""event"",""trial"",""time""
""fullscreenenter"",""1"",""2234""
","
","
","""event"",""trial"",""time""
""fullscreenenter"",""1"",""2234""
","
","","","","","","1348.3000011444092","<p> This is just a practice round, but in the real game, your bonus payment will depend on your total number of points.","","0","instructions","","","","","","","","","","",""
"learning-instructions","23","192764","0.0-8.0-0.0-0.15","6294","1","25","Female","approach_avoid_spark_v1","""event"",""trial"",""time""
""fullscreenenter"",""1"",""2234""
","
","
","""event"",""trial"",""time""
""fullscreenenter"",""1"",""2234""
","
","","","","","","592.6000003814697","<p> Remember, you can give them the equipment by pressing 1 and choose not to give it to them by pressing 0. </p><br><div class=""choice-instructions-grid""> <div class=""choice-option""><img src=""images/approach.png"" class=""choice-option-img"" stage=""instructions"" position=""0"" ><div class=""choice-option-text""> Press ""1."" </div></div><div class=""choice-option""><img src=""images/avoid.png"" class=""choice-option-img"" stage=""instructions"" position=""1"" ><div class=""choice-option-text""> Press ""0."" </div></div>","","0","instructions","","","","","","","","","","",""
"html-button-response","24","195270","0.0-8.0-1.0","6294","1","25","Female","approach_avoid_spark_v1","""event"",""trial"",""time""
""fullscreenenter"",""1"",""2234""
","
","
","""event"",""trial"",""time""
""fullscreenenter"",""1"",""2234""
","
","","","","","","2390.599998474121","<p> Ready to practice? </p>","0","","","","","","","","","","","","",""
"html-keyboard-response","25","195881","0.0-8.0-2.0-0.0","6294","1","25","Female","approach_avoid_spark_v1","""event"",""trial"",""time""
""fullscreenenter"",""1"",""2234""
","
","
","""event"",""trial"",""time""
""fullscreenenter"",""1"",""2234""
","
","","","","","","null","<div style=""font-size:60px;"">+</div>","null","","fixation","","","","","","","","","","",""
"aa-learning-trial","26","198900","0.0-8.0-2.0-1.0","6294","1","25","Female","approach_avoid_spark_v1","""event"",""trial"",""time""
""fullscreenenter"",""1"",""2234""
","
","
","""event"",""trial"",""time""
""fullscreenenter"",""1"",""2234""
","
","","","","","","null","images/racket4.png","","","learning","2","-5","","null","practice","practice","practice","-1","","",""
"html-keyboard-response","27","199409","0.0-8.0-2.0-0.1","6294","1","25","Female","approach_avoid_spark_v1","""event"",""trial"",""time""
""fullscreenenter"",""1"",""2234""
","
","
","""event"",""trial"",""time""
""fullscreenenter"",""1"",""2234""
","
","","","","","","null","<div style=""font-size:60px;"">+</div>","null","","fixation","","","","","","","","","","",""
"aa-learning-trial","28","202429","0.0-8.0-2.0-1.1","6294","1","25","Female","approach_avoid_spark_v1","""event"",""trial"",""time""
""fullscreenenter"",""1"",""2234""
","
","
","""event"",""trial"",""time""
""fullscreenenter"",""1"",""2234""
","
","","","","","","1125.2999992370605","images/ball3.png","","","learning","7","7","1","1","practice","practice","practice","-1","","",""
"html-keyboard-response","29","202939","0.0-8.0-2.0-0.2","6294","1","25","Female","approach_avoid_spark_v1","""event"",""trial"",""time""
""fullscreenenter"",""1"",""2234""
","
","
","""event"",""trial"",""time""
""fullscreenenter"",""1"",""2234""
","
","","","","","","null","<div style=""font-size:60px;"">+</div>","null","","fixation","","","","","","","","","","",""
"aa-learning-trial","30","205948","0.0-8.0-2.0-1.2","6294","1","25","Female","approach_avoid_spark_v1","""event"",""trial"",""time""
""fullscreenenter"",""1"",""2234""
","
","
","""event"",""trial"",""time""
""fullscreenenter"",""1"",""2234""
","
","","","","","","1010.2999992370605","images/racket1.png","","","learning","5","5","1","1","practice","practice","practice","-1","","",""
"html-keyboard-response","31","206465","0.0-8.0-2.0-0.3","6294","1","25","Female","approach_avoid_spark_v1","""event"",""trial"",""time""
""fullscreenenter"",""1"",""2234""
","
","
","""event"",""trial"",""time""
""fullscreenenter"",""1"",""2234""
","
","","","","","","null","<div style=""font-size:60px;"">+</div>","null","","fixation","","","","","","","","","","",""
"aa-learning-trial","32","209471","0.0-8.0-2.0-1.3","6294","1","25","Female","approach_avoid_spark_v1","""event"",""trial"",""time""
""fullscreenenter"",""1"",""2234""
","
","
","""event"",""trial"",""time""
""fullscreenenter"",""1"",""2234""
","
","","","","","","823.8999996185303","images/racket3.png","","","learning","-3","0","0","0","practice","practice","practice","-1","","",""
"html-keyboard-response","33","209979","0.0-8.0-2.0-0.4","6294","1","25","Female","approach_avoid_spark_v1","""event"",""trial"",""time""
""fullscreenenter"",""1"",""2234""
","
","
","""event"",""trial"",""time""
""fullscreenenter"",""1"",""2234""
","
","","","","","","null","<div style=""font-size:60px;"">+</div>","null","","fixation","","","","","","","","","","",""
"aa-learning-trial","34","212989","0.0-8.0-2.0-1.4","6294","1","25","Female","approach_avoid_spark_v1","""event"",""trial"",""time""
""fullscreenenter"",""1"",""2234""
","
","
","""event"",""trial"",""time""
""fullscreenenter"",""1"",""2234""
","
","","","","","","699.5","images/racket3.png","","","learning","-5","0","0","0","practice","practice","practice","-1","","",""
"html-keyboard-response","35","213498","0.0-8.0-2.0-0.5","6294","1","25","Female","approach_avoid_spark_v1","""event"",""trial"",""time""
""fullscreenenter"",""1"",""2234""
","
","
","""event"",""trial"",""time""
""fullscreenenter"",""1"",""2234""
","
","","","","","","null","<div style=""font-size:60px;"">+</div>","null","","fixation","","","","","","","","","","",""
"aa-learning-trial","36","216509","0.0-8.0-2.0-1.5","6294","1","25","Female","approach_avoid_spark_v1","""event"",""trial"",""time""
""fullscreenenter"",""1"",""2234""
","
","
","""event"",""trial"",""time""
""fullscreenenter"",""1"",""2234""
","
","","","","","","913.8000011444092","images/racket2.png","","","learning","9","9","1","1","practice","practice","practice","-1","","",""
"html-keyboard-response","37","217017","0.0-8.0-2.0-0.6","6294","1","25","Female","approach_avoid_spark_v1","""event"",""trial"",""time""
""fullscreenenter"",""1"",""2234""
","
","
","""event"",""trial"",""time""
""fullscreenenter"",""1"",""2234""
","
","","","","","","null","<div style=""font-size:60px;"">+</div>","null","","fixation","","","","","","","","","","",""
"aa-learning-trial","38","220025","0.0-8.0-2.0-1.6","6294","1","25","Female","approach_avoid_spark_v1","""event"",""trial"",""time""
""fullscreenenter"",""1"",""2234""
","
","
","""event"",""trial"",""time""
""fullscreenenter"",""1"",""2234""
","
","","","","","","504.3999996185303","images/racket1.png","","","learning","-8","-8","1","1","practice","practice","practice","-1","","",""
"html-keyboard-response","39","220538","0.0-8.0-2.0-0.7","6294","1","25","Female","approach_avoid_spark_v1","""event"",""trial"",""time""
""fullscreenenter"",""1"",""2234""
","
","
","""event"",""trial"",""time""
""fullscreenenter"",""1"",""2234""
","
","","","","","","null","<div style=""font-size:60px;"">+</div>","null","","fixation","","","","","","","","","","",""
"aa-learning-trial","40","223546","0.0-8.0-2.0-1.7","6294","1","25","Female","approach_avoid_spark_v1","""event"",""trial"",""time""
""fullscreenenter"",""1"",""2234""
","
","
","""event"",""trial"",""time""
""fullscreenenter"",""1"",""2234""
","
","","","","","","808.5","images/ball2.png","","","learning","-2","-2","1","1","practice","practice","practice","-1","","",""
"html-keyboard-response","41","224055","0.0-8.0-2.0-0.8","6294","1","25","Female","approach_avoid_spark_v1","""event"",""trial"",""time""
""fullscreenenter"",""1"",""2234""
","
","
","""event"",""trial"",""time""
""fullscreenenter"",""1"",""2234""
","
","","","","","","null","<div style=""font-size:60px;"">+</div>","null","","fixation","","","","","","","","","","",""
"aa-learning-trial","42","227069","0.0-8.0-2.0-1.8","6294","1","25","Female","approach_avoid_spark_v1","""event"",""trial"",""time""
""fullscreenenter"",""1"",""2234""
","
","
","""event"",""trial"",""time""
""fullscreenenter"",""1"",""2234""
","
","","","","","","632.8999996185303","images/ball4.png","","","learning","3","3","1","1","practice","practice","practice","-1","","",""
"html-keyboard-response","43","227584","0.0-8.0-2.0-0.9","6294","1","25","Female","approach_avoid_spark_v1","""event"",""trial"",""time""
""fullscreenenter"",""1"",""2234""
","
","
","""event"",""trial"",""time""
""fullscreenenter"",""1"",""2234""
","
","","","","","","null","<div style=""font-size:60px;"">+</div>","null","","fixation","","","","","","","","","","",""
"aa-learning-trial","44","230590","0.0-8.0-2.0-1.9","6294","1","25","Female","approach_avoid_spark_v1","""event"",""trial"",""time""
""fullscreenenter"",""1"",""2234""
","
","
","""event"",""trial"",""time""
""fullscreenenter"",""1"",""2234""
","
","","","","","","1209.1999988555908","images/racket2.png","","","learning","4","0","0","0","practice","practice","practice","-1","","",""
"html-keyboard-response","45","231094","0.0-8.0-2.0-0.10","6294","1","25","Female","approach_avoid_spark_v1","""event"",""trial"",""time""
""fullscreenenter"",""1"",""2234""
","
","
","""event"",""trial"",""time""
""fullscreenenter"",""1"",""2234""
","
","","","","","","null","<div style=""font-size:60px;"">+</div>","null","","fixation","","","","","","","","","","",""
"aa-learning-trial","46","234098","0.0-8.0-2.0-1.10","6294","1","25","Female","approach_avoid_spark_v1","""event"",""trial"",""time""
""fullscreenenter"",""1"",""2234""
","
","
","""event"",""trial"",""time""
""fullscreenenter"",""1"",""2234""
","
","","","","","","1065.5","images/ball3.png","","","learning","9","9","1","1","practice","practice","practice","-1","","",""
"html-keyboard-response","47","234606","0.0-8.0-2.0-0.11","6294","1","25","Female","approach_avoid_spark_v1","""event"",""trial"",""time""
""fullscreenenter"",""1"",""2234""
","
","
","""event"",""trial"",""time""
""fullscreenenter"",""1"",""2234""
","
","","","","","","null","<div style=""font-size:60px;"">+</div>","null","","fixation","","","","","","","","","","",""
"aa-learning-trial","48","237612","0.0-8.0-2.0-1.11","6294","1","25","Female","approach_avoid_spark_v1","""event"",""trial"",""time""
""fullscreenenter"",""1"",""2234""
","
","
","""event"",""trial"",""time""
""fullscreenenter"",""1"",""2234""
","
","","","","","","1080.1999988555908","images/ball2.png","","","learning","8","8","1","1","practice","practice","practice","-1","","",""
"html-button-response","49","239670","0.0-8.0-3.0","6294","1","25","Female","approach_avoid_spark_v1","""event"",""trial"",""time""
""fullscreenenter"",""1"",""2234""
","
","
","""event"",""trial"",""time""
""fullscreenenter"",""1"",""2234""
","
","","","","","","2054.7000007629395","<p> You earned 26 points in the practice round! </p>","0","","break","","","","","","","","","","",""
"learning-instructions","50","247685","0.0-8.0-4.0-0.0","6294","1","25","Female","approach_avoid_spark_v1","""event"",""trial"",""time""
""fullscreenenter"",""1"",""2234""
","
","
","""event"",""trial"",""time""
""fullscreenenter"",""1"",""2234""
","
","","","","","","1653.1999988555908","<p> It's almost time to start the real game. </p><p> Before you start, we're going to ask you a few questions about how the game works. </p>","","0","instructions","","","","","","","","","","",""
"preload","51","249531","0.0-8.0-5.0","6294","1","25","Female","approach_avoid_spark_v1","""event"",""trial"",""time""
""fullscreenenter"",""1"",""2234""
","
","
","""event"",""trial"",""time""
""fullscreenenter"",""1"",""2234""
","
","true","false","[]","[]","[]","","","","","","","","","","","","","","","",""
"comp-q","52","255860","0.0-8.0-6.0-0.0","6294","1","25","Female","approach_avoid_spark_v1","""event"",""trial"",""time""
""fullscreenenter"",""1"",""2234""
","
","
","""event"",""trial"",""time""
""fullscreenenter"",""1"",""2234""
","
","","","","","","1328.900001525879","<p> <b> True or False? </b> </p><p> If you see a number in GREY, that means you earned that many points. </p>","","1","comp_question","","","","","","","","","true","",""
"comp-q","53","265957","0.0-8.0-6.0-1.0","6294","1","25","Female","approach_avoid_spark_v1","""event"",""trial"",""time""
""fullscreenenter"",""1"",""2234""
","
","
","""event"",""trial"",""time""
""fullscreenenter"",""1"",""2234""
","
","","","","","","1725.3999996185303","<p><b> That's right! </b> If you see a grey number, it means you earned ZERO points. <br> The grey numbers show the points you WOULD HAVE earned if you had made the other choice. </p>","","0","comp_answer","","","","","","","","","","",""
"comp-q","54","271321","0.0-8.0-7.0-0.0","6294","1","25","Female","approach_avoid_spark_v1","""event"",""trial"",""time""
""fullscreenenter"",""1"",""2234""
","
","
","""event"",""trial"",""time""
""fullscreenenter"",""1"",""2234""
","
","","","","","","669.2000007629395","<p> <b> True or False? </b> </p><p> You will have as much time as you want to make each choice. </p>","","1","comp_question","","","","","","","","","true","",""
"comp-q","55","278643","0.0-8.0-7.0-1.0","6294","1","25","Female","approach_avoid_spark_v1","""event"",""trial"",""time""
""fullscreenenter"",""1"",""2234""
","
","
","""event"",""trial"",""time""
""fullscreenenter"",""1"",""2234""
","
","","","","","","3270.6000003814697","<p> <b> That's right! </b> You will only have 3 seconds to make each choice. </p>","","0","comp_answer","","","","","","","","","","",""
"comp-q","56","284938","0.0-8.0-8.0-0.0","6294","1","25","Female","approach_avoid_spark_v1","""event"",""trial"",""time""
""fullscreenenter"",""1"",""2234""
","
","
","""event"",""trial"",""time""
""fullscreenenter"",""1"",""2234""
","
","","","","","","1636.900001525879","<p> <b> True or False? </b> </p><p> You should use the '1' and '0' keys to make your choices. </p>","","0","comp_question","","","","","","","","","true","",""
"comp-q","57","291161","0.0-8.0-8.0-1.0","6294","1","25","Female","approach_avoid_spark_v1","""event"",""trial"",""time""
""fullscreenenter"",""1"",""2234""
","
","
","""event"",""trial"",""time""
""fullscreenenter"",""1"",""2234""
","
","","","","","","1609.400001525879","<p> <b> That's right! </b> You should use the '1' and '0' keys to make each choice. </p>","","0","comp_answer","","","","","","","","","","",""
"learning-instructions","58","299151","0.0-8.0-9.0-0.0","6294","1","25","Female","approach_avoid_spark_v1","""event"",""trial"",""time""
""fullscreenenter"",""1"",""2234""
","
","
","""event"",""trial"",""time""
""fullscreenenter"",""1"",""2234""
","
","","","","","","1720.5","<p> It's now time to start the real game. </p>Do your best, because the points you earn in the next rounds will influence your bonus payment. </p>","","0","instructions","","","","","","","","","","",""
"preload","59","299300","0.0-9.0-0.0","6294","1","25","Female","approach_avoid_spark_v1","""event"",""trial"",""time""
""fullscreenenter"",""1"",""2234""
","
","
","""event"",""trial"",""time""
""fullscreenenter"",""1"",""2234""
","
","true","false","[]","[]","[]","","","","","","","","","","","","","","","",""
"learning-instructions","60","306301","0.0-9.0-1.0-0.0","6294","1","25","Female","approach_avoid_spark_v1","""event"",""trial"",""time""
""fullscreenenter"",""1"",""2234""
","
","
","""event"",""trial"",""time""
""fullscreenenter"",""1"",""2234""
","
","","","","","","1578.6999988555908","<p> Your goal in this round is to take your friend for rides in different vehicles. </p></div>","","0","instructions","","","","","","","","","","",""
"learning-instructions","61","318067","0.0-9.0-1.0-0.1","6294","1","25","Female","approach_avoid_spark_v1","""event"",""trial"",""time""
""fullscreenenter"",""1"",""2234""
","
","
","""event"",""trial"",""time""
""fullscreenenter"",""1"",""2234""
","
","","","","","","1304.6000003814697","<p> Your friend enjoys riding in some vehicles but not in others.  </p><p> On each turn, you will see a vehicle.   </p><p> You need to decide whether to take your friend for a ride or not.  </p>","","0","instructions","","","","","","","","","","",""
"learning-instructions","62","325379","0.0-9.0-1.0-0.2","6294","1","25","Female","approach_avoid_spark_v1","""event"",""trial"",""time""
""fullscreenenter"",""1"",""2234""
","
","
","""event"",""trial"",""time""
""fullscreenenter"",""1"",""2234""
","
","","","","","","727.5","<p> You can take your friend for a ride in the vehicle by pressing 1 and skip the ride by pressing 0. </p><br><div class=""choice-instructions-grid""> <div class=""choice-option""><img src=""images/approach.png"" class=""choice-option-img"" stage=""instructions"" position=""0"" ><div class=""choice-option-text""> Press ""1."" </div></div><div class=""choice-option""><img src=""images/avoid.png"" class=""choice-option-img"" stage=""instructions"" position=""1"" ><div class=""choice-option-text""> Press ""0."" </div></div>","","0","instructions","","","","","","","","","","",""
"learning-instructions","63","334828","0.0-9.0-1.0-0.3","6294","1","25","Female","approach_avoid_spark_v1","""event"",""trial"",""time""
""fullscreenenter"",""1"",""2234""
","
","
","""event"",""trial"",""time""
""fullscreenenter"",""1"",""2234""
","
","","","","","","547.1999988555908","<p> If you take them for a ride in a vehicle they like, they will be thrilled! </p><p> But if you take them for a ride in a vehicle they do not like, they will be upset. </p>","","0","instructions","","","","","","","","","","",""
"learning-instructions","64","347927","0.0-9.0-1.0-0.4","6294","1","25","Female","approach_avoid_spark_v1","""event"",""trial"",""time""
""fullscreenenter"",""1"",""2234""
","
","
","""event"",""trial"",""time""
""fullscreenenter"",""1"",""2234""
","
","","","","","","1025.6999988555908","<p> You will earn points based on how you made your friend feel. </p><p> If you made him thrilled, you will WIN anywhere from 1 - 9 points, </p><p> but if you made him upset, you will LOSE anywhere from 1 - 9 points. </p>","","0","instructions","","","","","","","","","","",""
"learning-instructions","65","356046","0.0-9.0-1.0-0.5","6294","1","25","Female","approach_avoid_spark_v1","""event"",""trial"",""time""
""fullscreenenter"",""1"",""2234""
","
","
","""event"",""trial"",""time""
""fullscreenenter"",""1"",""2234""
","
","","","","","","344.5","<p> You will see how many points you won or lost in the center of the screen. </p><p> Here is what you would see if you won 5 points: </p><p style=""color:green;font-size:50px;font-weight:bolder"">5</p>","","0","instructions","","","","","","","","","","",""
"learning-instructions","66","359996","0.0-9.0-1.0-0.6","6294","1","25","Female","approach_avoid_spark_v1","""event"",""trial"",""time""
""fullscreenenter"",""1"",""2234""
","
","
","""event"",""trial"",""time""
""fullscreenenter"",""1"",""2234""
","
","","","","","","405.3999996185303","<p> And here is what you would see if you lost 3 points: </p><p style=""color:red;font-size:50px;font-weight:bolder"">-3</p>","","0","instructions","","","","","","","","","","",""
"learning-instructions","67","375978","0.0-9.0-1.0-0.7","6294","1","25","Female","approach_avoid_spark_v1","""event"",""trial"",""time""
""fullscreenenter"",""1"",""2234""
","
","
","""event"",""trial"",""time""
""fullscreenenter"",""1"",""2234""
","
","","","","","","436.6999988555908","<p> Some vehicles will make your friend REALLY thrilled or upset. </p><p> These vehicles will make you win or lose LOTS of points. </p><p> Other vehicles will only make him feel a little thrilled or upset. </p><p> These vehicles will make you win or lose small amounts of points. </p>","","0","instructions","","","","","","","","","","",""
"learning-instructions","68","389017","0.0-9.0-1.0-0.8","6294","1","25","Female","approach_avoid_spark_v1","""event"",""trial"",""time""
""fullscreenenter"",""1"",""2234""
","
","
","""event"",""trial"",""time""
""fullscreenenter"",""1"",""2234""
","
","","","","","","486.1999988555908","<p> If you choose to skip the ride, you will not win or lose any points. </p><p>  However, in the center of the screen, you will see the number of points you WOULD HAVE won or lost if you had taken your friend for a ride. </p>","","0","instructions","","","","","","","","","","",""
"learning-instructions","69","400420","0.0-9.0-1.0-0.9","6294","1","25","Female","approach_avoid_spark_v1","""event"",""trial"",""time""
""fullscreenenter"",""1"",""2234""
","
","
","""event"",""trial"",""time""
""fullscreenenter"",""1"",""2234""
","
","","","","","","397.8999996185303","<p> Here is what you might see if you did not take your friend for a ride but he would have enjoyed it: </p><p style=""color:grey; font-size:50px; display: inline-block; border-spacing: 15px; border-width:3px; border-style:solid; border-color:red"">  &nbsp; 6 &nbsp; </p><p> Remember, in this case, you would not win or lose ANY points because you skipped the ride.  </p>","","0","instructions","","","","","","","","","","",""
"learning-instructions","70","409189","0.0-9.0-1.0-0.10","6294","1","25","Female","approach_avoid_spark_v1","""event"",""trial"",""time""
""fullscreenenter"",""1"",""2234""
","
","
","""event"",""trial"",""time""
""fullscreenenter"",""1"",""2234""
","
","","","","","","796.3999996185303","<p> Try to make the best choice for each vehicle because </p><p> at the end of the game, you will earn bonus money based on how many points you earned. </p>","","0","instructions","","","","","","","","","","",""
"learning-instructions","71","417708","0.0-9.0-1.0-0.11","6294","1","25","Female","approach_avoid_spark_v1","""event"",""trial"",""time""
""fullscreenenter"",""1"",""2234""
","
","
","""event"",""trial"",""time""
""fullscreenenter"",""1"",""2234""
","
","","","","","","326.3000011444092","<p> You will have 3 seconds to make each choice. Try to respond before time runs out! </p><p> You will lose 5 points each time you do not make a response. </p>","","0","instructions","","","","","","","","","","",""
"html-keyboard-response","72","418330","0.0-9.0-2.0-0.0","6294","1","25","Female","approach_avoid_spark_v1","""event"",""trial"",""time""
""fullscreenenter"",""1"",""2234""
","
","
","""event"",""trial"",""time""
""fullscreenenter"",""1"",""2234""
","
","","","","","","null","<div style=""font-size:60px;"">+</div>","null","","fixation","","","","","","","","","","",""
"aa-learning-trial","73","421338","0.0-9.0-2.0-1.0","6294","1","25","Female","approach_avoid_spark_v1","""event"",""trial"",""time""
""fullscreenenter"",""1"",""2234""
","
","
","""event"",""trial"",""time""
""fullscreenenter"",""1"",""2234""
","
","","","","","","1031.6000003814697","images/boat1.png","","","learning","4","4","1","1","boat","vehicles","1","0","","good","[6]"
"html-keyboard-response","74","421853","0.0-9.0-2.0-0.1","6294","1","25","Female","approach_avoid_spark_v1","""event"",""trial"",""time""
""fullscreenenter"",""1"",""2234""
","
","
","""event"",""trial"",""time""
""fullscreenenter"",""1"",""2234""
","
","","","","","","null","<div style=""font-size:60px;"">+</div>","null","","fixation","","","","","","","","","","",""
"aa-learning-trial","75","424870","0.0-9.0-2.0-1.1","6294","1","25","Female","approach_avoid_spark_v1","""event"",""trial"",""time""
""fullscreenenter"",""1"",""2234""
","
","
","""event"",""trial"",""time""
""fullscreenenter"",""1"",""2234""
","
","","","","","","716.8999996185303","images/boat7.png","","","learning","5","5","1","1","boat","vehicles","1","0","","good","[6]"
"html-keyboard-response","76","425390","0.0-9.0-2.0-0.2","6294","1","25","Female","approach_avoid_spark_v1","""event"",""trial"",""time""
""fullscreenenter"",""1"",""2234""
","
","
","""event"",""trial"",""time""
""fullscreenenter"",""1"",""2234""
","
","","","","","","null","<div style=""font-size:60px;"">+</div>","null","","fixation","","","","","","","","","","",""
"aa-learning-trial","77","428411","0.0-9.0-2.0-1.2","6294","1","25","Female","approach_avoid_spark_v1","""event"",""trial"",""time""
""fullscreenenter"",""1"",""2234""
","
","
","""event"",""trial"",""time""
""fullscreenenter"",""1"",""2234""
","
","","","","","","873.7000007629395","images/truck2.png","","","learning","[1]","0","0","0","truck","vehicles","1","0","","neutral","0"
"html-keyboard-response","78","428913","0.0-9.0-2.0-0.3","6294","1","25","Female","approach_avoid_spark_v1","""event"",""trial"",""time""
""fullscreenenter"",""1"",""2234""
","
","
","""event"",""trial"",""time""
""fullscreenenter"",""1"",""2234""
","
","","","","","","null","<div style=""font-size:60px;"">+</div>","null","","fixation","","","","","","","","","","",""
"aa-learning-trial","79","431920","0.0-9.0-2.0-1.3","6294","1","25","Female","approach_avoid_spark_v1","""event"",""trial"",""time""
""fullscreenenter"",""1"",""2234""
","
","
","""event"",""trial"",""time""
""fullscreenenter"",""1"",""2234""
","
","","","","","","1148.8000011444092","images/train5.png","","","learning","-5","0","0","0","train","vehicles","1","0","","bad","[-4]"
"html-keyboard-response","80","432440","0.0-9.0-2.0-0.4","6294","1","25","Female","approach_avoid_spark_v1","""event"",""trial"",""time""
""fullscreenenter"",""1"",""2234""
","
","
","""event"",""trial"",""time""
""fullscreenenter"",""1"",""2234""
","
","","","","","","null","<div style=""font-size:60px;"">+</div>","null","","fixation","","","","","","","","","","",""
"aa-learning-trial","81","435450","0.0-9.0-2.0-1.4","6294","1","25","Female","approach_avoid_spark_v1","""event"",""trial"",""time""
""fullscreenenter"",""1"",""2234""
","
","
","""event"",""trial"",""time""
""fullscreenenter"",""1"",""2234""
","
","","","","","","499.1000003814697","images/train5.png","","","learning","-4","0","0","0","train","vehicles","1","0","","bad","[-4]"
"html-keyboard-response","82","435960","0.0-9.0-2.0-0.5","6294","1","25","Female","approach_avoid_spark_v1","""event"",""trial"",""time""
""fullscreenenter"",""1"",""2234""
","
","
","""event"",""trial"",""time""
""fullscreenenter"",""1"",""2234""
","
","","","","","","null","<div style=""font-size:60px;"">+</div>","null","","fixation","","","","","","","","","","",""
"aa-learning-trial","83","438979","0.0-9.0-2.0-1.5","6294","1","25","Female","approach_avoid_spark_v1","""event"",""trial"",""time""
""fullscreenenter"",""1"",""2234""
","
","
","""event"",""trial"",""time""
""fullscreenenter"",""1"",""2234""
","
","","","","","","548.6000003814697","images/boat1.png","","","learning","5","5","1","1","boat","vehicles","1","0","","good","[6]"
"html-keyboard-response","84","439500","0.0-9.0-2.0-0.6","6294","1","25","Female","approach_avoid_spark_v1","""event"",""trial"",""time""
""fullscreenenter"",""1"",""2234""
","
","
","""event"",""trial"",""time""
""fullscreenenter"",""1"",""2234""
","
","","","","","","null","<div style=""font-size:60px;"">+</div>","null","","fixation","","","","","","","","","","",""
"aa-learning-trial","85","442510","0.0-9.0-2.0-1.6","6294","1","25","Female","approach_avoid_spark_v1","""event"",""trial"",""time""
""fullscreenenter"",""1"",""2234""
","
","
","""event"",""trial"",""time""
""fullscreenenter"",""1"",""2234""
","
","","","","","","890.3999996185303","images/truck8.png","","","learning","1","1","1","1","truck","vehicles","1","0","","neutral","0"
"html-keyboard-response","86","443014","0.0-9.0-2.0-0.7","6294","1","25","Female","approach_avoid_spark_v1","""event"",""trial"",""time""
""fullscreenenter"",""1"",""2234""
","
","
","""event"",""trial"",""time""
""fullscreenenter"",""1"",""2234""
","
","","","","","","null","<div style=""font-size:60px;"">+</div>","null","","fixation","","","","","","","","","","",""
"aa-learning-trial","87","446021","0.0-9.0-2.0-1.7","6294","1","25","Female","approach_avoid_spark_v1","""event"",""trial"",""time""
""fullscreenenter"",""1"",""2234""
","
","
","""event"",""trial"",""time""
""fullscreenenter"",""1"",""2234""
","
","","","","","","629","images/boat7.png","","","learning","9","9","1","1","boat","vehicles","1","0","","good","[6]"
"html-keyboard-response","88","446527","0.0-9.0-2.0-0.8","6294","1","25","Female","approach_avoid_spark_v1","""event"",""trial"",""time""
""fullscreenenter"",""1"",""2234""
","
","
","""event"",""trial"",""time""
""fullscreenenter"",""1"",""2234""
","
","","","","","","null","<div style=""font-size:60px;"">+</div>","null","","fixation","","","","","","","","","","",""
"aa-learning-trial","89","449536","0.0-9.0-2.0-1.8","6294","1","25","Female","approach_avoid_spark_v1","""event"",""trial"",""time""
""fullscreenenter"",""1"",""2234""
","
","
","""event"",""trial"",""time""
""fullscreenenter"",""1"",""2234""
","
","","","","","","597.2000007629395","images/truck8.png","","","learning","2","2","1","1","truck","vehicles","1","0","","neutral","0"
"html-keyboard-response","90","450051","0.0-9.0-2.0-0.9","6294","1","25","Female","approach_avoid_spark_v1","""event"",""trial"",""time""
""fullscreenenter"",""1"",""2234""
","
","
","""event"",""trial"",""time""
""fullscreenenter"",""1"",""2234""
","
","","","","","","null","<div style=""font-size:60px;"">+</div>","null","","fixation","","","","","","","","","","",""
"aa-learning-trial","91","453059","0.0-9.0-2.0-1.9","6294","1","25","Female","approach_avoid_spark_v1","""event"",""trial"",""time""
""fullscreenenter"",""1"",""2234""
","
","
","""event"",""trial"",""time""
""fullscreenenter"",""1"",""2234""
","
","","","","","","1017","images/truck5.png","","","learning","-1","0","0","0","truck","vehicles","1","0","","neutral","0"
"html-keyboard-response","92","453562","0.0-9.0-2.0-0.10","6294","1","25","Female","approach_avoid_spark_v1","""event"",""trial"",""time""
""fullscreenenter"",""1"",""2234""
","
","
","""event"",""trial"",""time""
""fullscreenenter"",""1"",""2234""
","
","","","","","","null","<div style=""font-size:60px;"">+</div>","null","","fixation","","","","","","","","","","",""
"aa-learning-trial","93","456571","0.0-9.0-2.0-1.10","6294","1","25","Female","approach_avoid_spark_v1","""event"",""trial"",""time""
""fullscreenenter"",""1"",""2234""
","
","
","""event"",""trial"",""time""
""fullscreenenter"",""1"",""2234""
","
","","","","","","1287.2000007629395","images/train4.png","","","learning","-1","0","0","0","train","vehicles","1","0","","bad","[-4]"
"html-keyboard-response","94","457080","0.0-9.0-2.0-0.11","6294","1","25","Female","approach_avoid_spark_v1","""event"",""trial"",""time""
""fullscreenenter"",""1"",""2234""
","
","
","""event"",""trial"",""time""
""fullscreenenter"",""1"",""2234""
","
","","","","","","null","<div style=""font-size:60px;"">+</div>","null","","fixation","","","","","","","","","","",""
"aa-learning-trial","95","460092","0.0-9.0-2.0-1.11","6294","1","25","Female","approach_avoid_spark_v1","""event"",""trial"",""time""
""fullscreenenter"",""1"",""2234""
","
","
","""event"",""trial"",""time""
""fullscreenenter"",""1"",""2234""
","
","","","","","","1329.6000003814697","images/truck5.png","","","learning","-3","0","0","0","truck","vehicles","1","0","","neutral","0"
"html-keyboard-response","96","460603","0.0-9.0-2.0-0.12","6294","1","25","Female","approach_avoid_spark_v1","""event"",""trial"",""time""
""fullscreenenter"",""1"",""2234""
","
","
","""event"",""trial"",""time""
""fullscreenenter"",""1"",""2234""
","
","","","","","","null","<div style=""font-size:60px;"">+</div>","null","","fixation","","","","","","","","","","",""
"aa-learning-trial","97","463614","0.0-9.0-2.0-1.12","6294","1","25","Female","approach_avoid_spark_v1","""event"",""trial"",""time""
""fullscreenenter"",""1"",""2234""
","
","
","""event"",""trial"",""time""
""fullscreenenter"",""1"",""2234""
","
","","","","","","591.5","images/boat6.png","","","learning","6","6","1","1","boat","vehicles","1","0","","good","[6]"
"html-keyboard-response","98","464117","0.0-9.0-2.0-0.13","6294","1","25","Female","approach_avoid_spark_v1","""event"",""trial"",""time""
""fullscreenenter"",""1"",""2234""
","
","
","""event"",""trial"",""time""
""fullscreenenter"",""1"",""2234""
","
","","","","","","null","<div style=""font-size:60px;"">+</div>","null","","fixation","","","","","","","","","","",""
"aa-learning-trial","99","467123","0.0-9.0-2.0-1.13","6294","1","25","Female","approach_avoid_spark_v1","""event"",""trial"",""time""
""fullscreenenter"",""1"",""2234""
","
","
","""event"",""trial"",""time""
""fullscreenenter"",""1"",""2234""
","
","","","","","","945.1000003814697","images/train6.png","","","learning","-1","0","0","0","train","vehicles","1","0","","bad","[-4]"
"html-keyboard-response","100","467631","0.0-9.0-2.0-0.14","6294","1","25","Female","approach_avoid_spark_v1","""event"",""trial"",""time""
""fullscreenenter"",""1"",""2234""
","
","
","""event"",""trial"",""time""
""fullscreenenter"",""1"",""2234""
","
","","","","","","null","<div style=""font-size:60px;"">+</div>","null","","fixation","","","","","","","","","","",""
"aa-learning-trial","101","470642","0.0-9.0-2.0-1.14","6294","1","25","Female","approach_avoid_spark_v1","""event"",""trial"",""time""
""fullscreenenter"",""1"",""2234""
","
","
","""event"",""trial"",""time""
""fullscreenenter"",""1"",""2234""
","
","","","","","","714","images/train4.png","","","learning","-3","0","0","0","train","vehicles","1","0","","bad","[-4]"
"html-keyboard-response","102","471151","0.0-9.0-2.0-0.15","6294","1","25","Female","approach_avoid_spark_v1","""event"",""trial"",""time""
""fullscreenenter"",""1"",""2234""
","
","
","""event"",""trial"",""time""
""fullscreenenter"",""1"",""2234""
","
","","","","","","null","<div style=""font-size:60px;"">+</div>","null","","fixation","","","","","","","","","","",""
"aa-learning-trial","103","474156","0.0-9.0-2.0-1.15","6294","1","25","Female","approach_avoid_spark_v1","""event"",""trial"",""time""
""fullscreenenter"",""1"",""2234""
","
","
","""event"",""trial"",""time""
""fullscreenenter"",""1"",""2234""
","
","","","","","","730.5","images/train2.png","","","learning","-3","0","0","0","train","vehicles","1","0","","bad","[-4]"
"html-keyboard-response","104","474668","0.0-9.0-2.0-0.16","6294","1","25","Female","approach_avoid_spark_v1","""event"",""trial"",""time""
""fullscreenenter"",""1"",""2234""
","
","
","""event"",""trial"",""time""
""fullscreenenter"",""1"",""2234""
","
","","","","","","null","<div style=""font-size:60px;"">+</div>","null","","fixation","","","","","","","","","","",""
"aa-learning-trial","105","477678","0.0-9.0-2.0-1.16","6294","1","25","Female","approach_avoid_spark_v1","""event"",""trial"",""time""
""fullscreenenter"",""1"",""2234""
","
","
","""event"",""trial"",""time""
""fullscreenenter"",""1"",""2234""
","
","","","","","","1099","images/boat7.png","","","learning","6","6","1","1","boat","vehicles","1","0","","good","[6]"
"html-keyboard-response","106","478196","0.0-9.0-2.0-0.17","6294","1","25","Female","approach_avoid_spark_v1","""event"",""trial"",""time""
""fullscreenenter"",""1"",""2234""
","
","
","""event"",""trial"",""time""
""fullscreenenter"",""1"",""2234""
","
","","","","","","null","<div style=""font-size:60px;"">+</div>","null","","fixation","","","","","","","","","","",""
"aa-learning-trial","107","481206","0.0-9.0-2.0-1.17","6294","1","25","Female","approach_avoid_spark_v1","""event"",""trial"",""time""
""fullscreenenter"",""1"",""2234""
","
","
","""event"",""trial"",""time""
""fullscreenenter"",""1"",""2234""
","
","","","","","","589.7999992370605","images/boat2.png","","","learning","4","4","1","1","boat","vehicles","1","0","","good","[6]"
"html-keyboard-response","108","481711","0.0-9.0-2.0-0.18","6294","1","25","Female","approach_avoid_spark_v1","""event"",""trial"",""time""
""fullscreenenter"",""1"",""2234""
","
","
","""event"",""trial"",""time""
""fullscreenenter"",""1"",""2234""
","
","","","","","","null","<div style=""font-size:60px;"">+</div>","null","","fixation","","","","","","","","","","",""
"aa-learning-trial","109","484722","0.0-9.0-2.0-1.18","6294","1","25","Female","approach_avoid_spark_v1","""event"",""trial"",""time""
""fullscreenenter"",""1"",""2234""
","
","
","""event"",""trial"",""time""
""fullscreenenter"",""1"",""2234""
","
","","","","","","816.6999988555908","images/train5.png","","","learning","-4","0","0","0","train","vehicles","1","0","","bad","[-4]"
"html-keyboard-response","110","485231","0.0-9.0-2.0-0.19","6294","1","25","Female","approach_avoid_spark_v1","""event"",""trial"",""time""
""fullscreenenter"",""1"",""2234""
","
","
","""event"",""trial"",""time""
""fullscreenenter"",""1"",""2234""
","
","","","","","","null","<div style=""font-size:60px;"">+</div>","null","","fixation","","","","","","","","","","",""
"aa-learning-trial","111","488244","0.0-9.0-2.0-1.19","6294","1","25","Female","approach_avoid_spark_v1","""event"",""trial"",""time""
""fullscreenenter"",""1"",""2234""
","
","
","""event"",""trial"",""time""
""fullscreenenter"",""1"",""2234""
","
","","","","","","633.2000007629395","images/truck2.png","","","learning","-1","-1","1","1","truck","vehicles","1","0","","neutral","0"
"html-keyboard-response","112","488753","0.0-9.0-2.0-0.20","6294","1","25","Female","approach_avoid_spark_v1","""event"",""trial"",""time""
""fullscreenenter"",""1"",""2234""
","
","
","""event"",""trial"",""time""
""fullscreenenter"",""1"",""2234""
","
","","","","","","null","<div style=""font-size:60px;"">+</div>","null","","fixation","","","","","","","","","","",""
"aa-learning-trial","113","491760","0.0-9.0-2.0-1.20","6294","1","25","Female","approach_avoid_spark_v1","""event"",""trial"",""time""
""fullscreenenter"",""1"",""2234""
","
","
","""event"",""trial"",""time""
""fullscreenenter"",""1"",""2234""
","
","","","","","","773.7999992370605","images/truck5.png","","","learning","[1]","1","1","1","truck","vehicles","1","0","","neutral","0"
"html-keyboard-response","114","492277","0.0-9.0-2.0-0.21","6294","1","25","Female","approach_avoid_spark_v1","""event"",""trial"",""time""
""fullscreenenter"",""1"",""2234""
","
","
","""event"",""trial"",""time""
""fullscreenenter"",""1"",""2234""
","
","","","","","","null","<div style=""font-size:60px;"">+</div>","null","","fixation","","","","","","","","","","",""
"aa-learning-trial","115","495295","0.0-9.0-2.0-1.21","6294","1","25","Female","approach_avoid_spark_v1","""event"",""trial"",""time""
""fullscreenenter"",""1"",""2234""
","
","
","""event"",""trial"",""time""
""fullscreenenter"",""1"",""2234""
","
","","","","","","725.2999992370605","images/train6.png","","","learning","-2","0","0","0","train","vehicles","1","0","","bad","[-4]"
"html-keyboard-response","116","495803","0.0-9.0-2.0-0.22","6294","1","25","Female","approach_avoid_spark_v1","""event"",""trial"",""time""
""fullscreenenter"",""1"",""2234""
","
","
","""event"",""trial"",""time""
""fullscreenenter"",""1"",""2234""
","
","","","","","","null","<div style=""font-size:60px;"">+</div>","null","","fixation","","","","","","","","","","",""
"aa-learning-trial","117","498815","0.0-9.0-2.0-1.22","6294","1","25","Female","approach_avoid_spark_v1","""event"",""trial"",""time""
""fullscreenenter"",""1"",""2234""
","
","
","""event"",""trial"",""time""
""fullscreenenter"",""1"",""2234""
","
","","","","","","1205.3999996185303","images/truck5.png","","","learning","-3","0","0","0","truck","vehicles","1","0","","neutral","0"
"html-keyboard-response","118","499320","0.0-9.0-2.0-0.23","6294","1","25","Female","approach_avoid_spark_v1","""event"",""trial"",""time""
""fullscreenenter"",""1"",""2234""
","
","
","""event"",""trial"",""time""
""fullscreenenter"",""1"",""2234""
","
","","","","","","null","<div style=""font-size:60px;"">+</div>","null","","fixation","","","","","","","","","","",""
"aa-learning-trial","119","502333","0.0-9.0-2.0-1.23","6294","1","25","Female","approach_avoid_spark_v1","""event"",""trial"",""time""
""fullscreenenter"",""1"",""2234""
","
","
","""event"",""trial"",""time""
""fullscreenenter"",""1"",""2234""
","
","","","","","","628.7999992370605","images/truck5.png","","","learning","-1","0","0","0","truck","vehicles","1","0","","neutral","0"
"html-keyboard-response","120","502851","0.0-9.0-2.0-0.24","6294","1","25","Female","approach_avoid_spark_v1","""event"",""trial"",""time""
""fullscreenenter"",""1"",""2234""
","
","
","""event"",""trial"",""time""
""fullscreenenter"",""1"",""2234""
","
","","","","","","null","<div style=""font-size:60px;"">+</div>","null","","fixation","","","","","","","","","","",""
"aa-learning-trial","121","505862","0.0-9.0-2.0-1.24","6294","1","25","Female","approach_avoid_spark_v1","""event"",""trial"",""time""
""fullscreenenter"",""1"",""2234""
","
","
","""event"",""trial"",""time""
""fullscreenenter"",""1"",""2234""
","
","","","","","","804.2000007629395","images/train6.png","","","learning","-3","0","0","0","train","vehicles","1","0","","bad","[-4]"
"html-keyboard-response","122","506370","0.0-9.0-2.0-0.25","6294","1","25","Female","approach_avoid_spark_v1","""event"",""trial"",""time""
""fullscreenenter"",""1"",""2234""
","
","
","""event"",""trial"",""time""
""fullscreenenter"",""1"",""2234""
","
","","","","","","null","<div style=""font-size:60px;"">+</div>","null","","fixation","","","","","","","","","","",""
"aa-learning-trial","123","509378","0.0-9.0-2.0-1.25","6294","1","25","Female","approach_avoid_spark_v1","""event"",""trial"",""time""
""fullscreenenter"",""1"",""2234""
","
","
","""event"",""trial"",""time""
""fullscreenenter"",""1"",""2234""
","
","","","","","","717.5","images/boat7.png","","","learning","6","6","1","1","boat","vehicles","1","0","","good","[6]"
"html-keyboard-response","124","509882","0.0-9.0-2.0-0.26","6294","1","25","Female","approach_avoid_spark_v1","""event"",""trial"",""time""
""fullscreenenter"",""1"",""2234""
","
","
","""event"",""trial"",""time""
""fullscreenenter"",""1"",""2234""
","
","","","","","","null","<div style=""font-size:60px;"">+</div>","null","","fixation","","","","","","","","","","",""
"aa-learning-trial","125","512889","0.0-9.0-2.0-1.26","6294","1","25","Female","approach_avoid_spark_v1","""event"",""trial"",""time""
""fullscreenenter"",""1"",""2234""
","
","
","""event"",""trial"",""time""
""fullscreenenter"",""1"",""2234""
","
","","","","","","552.1999988555908","images/boat7.png","","","learning","7","7","1","1","boat","vehicles","1","0","","good","[6]"
"html-keyboard-response","126","513397","0.0-9.0-2.0-0.27","6294","1","25","Female","approach_avoid_spark_v1","""event"",""trial"",""time""
""fullscreenenter"",""1"",""2234""
","
","
","""event"",""trial"",""time""
""fullscreenenter"",""1"",""2234""
","
","","","","","","null","<div style=""font-size:60px;"">+</div>","null","","fixation","","","","","","","","","","",""
"aa-learning-trial","127","516409","0.0-9.0-2.0-1.27","6294","1","25","Female","approach_avoid_spark_v1","""event"",""trial"",""time""
""fullscreenenter"",""1"",""2234""
","
","
","""event"",""trial"",""time""
""fullscreenenter"",""1"",""2234""
","
","","","","","","620.8000011444092","images/boat1.png","","","learning","5","5","1","1","boat","vehicles","1","0","","good","[6]"
"html-keyboard-response","128","516925","0.0-9.0-2.0-0.28","6294","1","25","Female","approach_avoid_spark_v1","""event"",""trial"",""time""
""fullscreenenter"",""1"",""2234""
","
","
","""event"",""trial"",""time""
""fullscreenenter"",""1"",""2234""
","
","","","","","","null","<div style=""font-size:60px;"">+</div>","null","","fixation","","","","","","","","","","",""
"aa-learning-trial","129","519935","0.0-9.0-2.0-1.28","6294","1","25","Female","approach_avoid_spark_v1","""event"",""trial"",""time""
""fullscreenenter"",""1"",""2234""
","
","
","""event"",""trial"",""time""
""fullscreenenter"",""1"",""2234""
","
","","","","","","853.1999988555908","images/train7.png","","","learning","-5","0","0","0","train","vehicles","1","0","","bad","[-4]"
"html-keyboard-response","130","520438","0.0-9.0-2.0-0.29","6294","1","25","Female","approach_avoid_spark_v1","""event"",""trial"",""time""
""fullscreenenter"",""1"",""2234""
","
","
","""event"",""trial"",""time""
""fullscreenenter"",""1"",""2234""
","
","","","","","","null","<div style=""font-size:60px;"">+</div>","null","","fixation","","","","","","","","","","",""
"aa-learning-trial","131","523444","0.0-9.0-2.0-1.29","6294","1","25","Female","approach_avoid_spark_v1","""event"",""trial"",""time""
""fullscreenenter"",""1"",""2234""
","
","
","""event"",""trial"",""time""
""fullscreenenter"",""1"",""2234""
","
","","","","","","696.2000007629395","images/boat6.png","","","learning","6","6","1","1","boat","vehicles","1","0","","good","[6]"
"html-keyboard-response","132","523947","0.0-9.0-2.0-0.30","6294","1","25","Female","approach_avoid_spark_v1","""event"",""trial"",""time""
""fullscreenenter"",""1"",""2234""
","
","
","""event"",""trial"",""time""
""fullscreenenter"",""1"",""2234""
","
","","","","","","null","<div style=""font-size:60px;"">+</div>","null","","fixation","","","","","","","","","","",""
"aa-learning-trial","133","526959","0.0-9.0-2.0-1.30","6294","1","25","Female","approach_avoid_spark_v1","""event"",""trial"",""time""
""fullscreenenter"",""1"",""2234""
","
","
","""event"",""trial"",""time""
""fullscreenenter"",""1"",""2234""
","
","","","","","","556.1999988555908","images/boat1.png","","","learning","7","7","1","1","boat","vehicles","1","0","","good","[6]"
"html-keyboard-response","134","527462","0.0-9.0-2.0-0.31","6294","1","25","Female","approach_avoid_spark_v1","""event"",""trial"",""time""
""fullscreenenter"",""1"",""2234""
","
","
","""event"",""trial"",""time""
""fullscreenenter"",""1"",""2234""
","
","","","","","","null","<div style=""font-size:60px;"">+</div>","null","","fixation","","","","","","","","","","",""
"aa-learning-trial","135","530467","0.0-9.0-2.0-1.31","6294","1","25","Female","approach_avoid_spark_v1","""event"",""trial"",""time""
""fullscreenenter"",""1"",""2234""
","
","
","""event"",""trial"",""time""
""fullscreenenter"",""1"",""2234""
","
","","","","","","1251.1000003814697","images/truck8.png","","","learning","1","1","1","1","truck","vehicles","1","0","","neutral","0"
"html-keyboard-response","136","530974","0.0-9.0-2.0-0.32","6294","1","25","Female","approach_avoid_spark_v1","""event"",""trial"",""time""
""fullscreenenter"",""1"",""2234""
","
","
","""event"",""trial"",""time""
""fullscreenenter"",""1"",""2234""
","
","","","","","","null","<div style=""font-size:60px;"">+</div>","null","","fixation","","","","","","","","","","",""
"aa-learning-trial","137","533986","0.0-9.0-2.0-1.32","6294","1","25","Female","approach_avoid_spark_v1","""event"",""trial"",""time""
""fullscreenenter"",""1"",""2234""
","
","
","""event"",""trial"",""time""
""fullscreenenter"",""1"",""2234""
","
","","","","","","658.5","images/boat1.png","","","learning","6","6","1","1","boat","vehicles","1","0","","good","[6]"
"html-keyboard-response","138","534493","0.0-9.0-2.0-0.33","6294","1","25","Female","approach_avoid_spark_v1","""event"",""trial"",""time""
""fullscreenenter"",""1"",""2234""
","
","
","""event"",""trial"",""time""
""fullscreenenter"",""1"",""2234""
","
","","","","","","null","<div style=""font-size:60px;"">+</div>","null","","fixation","","","","","","","","","","",""
"aa-learning-trial","139","537503","0.0-9.0-2.0-1.33","6294","1","25","Female","approach_avoid_spark_v1","""event"",""trial"",""time""
""fullscreenenter"",""1"",""2234""
","
","
","""event"",""trial"",""time""
""fullscreenenter"",""1"",""2234""
","
","","","","","","1178.7000007629395","images/truck2.png","","","learning","-3","0","0","0","truck","vehicles","1","0","","neutral","0"
"html-keyboard-response","140","538012","0.0-9.0-2.0-0.34","6294","1","25","Female","approach_avoid_spark_v1","""event"",""trial"",""time""
""fullscreenenter"",""1"",""2234""
","
","
","""event"",""trial"",""time""
""fullscreenenter"",""1"",""2234""
","
","","","","","","null","<div style=""font-size:60px;"">+</div>","null","","fixation","","","","","","","","","","",""
"aa-learning-trial","141","541024","0.0-9.0-2.0-1.34","6294","1","25","Female","approach_avoid_spark_v1","""event"",""trial"",""time""
""fullscreenenter"",""1"",""2234""
","
","
","""event"",""trial"",""time""
""fullscreenenter"",""1"",""2234""
","
","","","","","","728.8999996185303","images/train5.png","","","learning","-3","0","0","0","train","vehicles","1","0","","bad","[-4]"
"html-keyboard-response","142","541536","0.0-9.0-2.0-0.35","6294","1","25","Female","approach_avoid_spark_v1","""event"",""trial"",""time""
""fullscreenenter"",""1"",""2234""
","
","
","""event"",""trial"",""time""
""fullscreenenter"",""1"",""2234""
","
","","","","","","null","<div style=""font-size:60px;"">+</div>","null","","fixation","","","","","","","","","","",""
"aa-learning-trial","143","544541","0.0-9.0-2.0-1.35","6294","1","25","Female","approach_avoid_spark_v1","""event"",""trial"",""time""
""fullscreenenter"",""1"",""2234""
","
","
","""event"",""trial"",""time""
""fullscreenenter"",""1"",""2234""
","
","","","","","","1394.099998474121","images/truck8.png","","","learning","-4","-4","1","1","truck","vehicles","1","0","","neutral","0"
"html-keyboard-response","144","545057","0.0-9.0-2.0-0.36","6294","1","25","Female","approach_avoid_spark_v1","""event"",""trial"",""time""
""fullscreenenter"",""1"",""2234""
","
","
","""event"",""trial"",""time""
""fullscreenenter"",""1"",""2234""
","
","","","","","","null","<div style=""font-size:60px;"">+</div>","null","","fixation","","","","","","","","","","",""
"aa-learning-trial","145","548063","0.0-9.0-2.0-1.36","6294","1","25","Female","approach_avoid_spark_v1","""event"",""trial"",""time""
""fullscreenenter"",""1"",""2234""
","
","
","""event"",""trial"",""time""
""fullscreenenter"",""1"",""2234""
","
","","","","","","915.6000003814697","images/train4.png","","","learning","-5","0","0","0","train","vehicles","1","0","","bad","[-4]"
"html-keyboard-response","146","548577","0.0-9.0-2.0-0.37","6294","1","25","Female","approach_avoid_spark_v1","""event"",""trial"",""time""
""fullscreenenter"",""1"",""2234""
","
","
","""event"",""trial"",""time""
""fullscreenenter"",""1"",""2234""
","
","","","","","","null","<div style=""font-size:60px;"">+</div>","null","","fixation","","","","","","","","","","",""
"aa-learning-trial","147","551585","0.0-9.0-2.0-1.37","6294","1","25","Female","approach_avoid_spark_v1","""event"",""trial"",""time""
""fullscreenenter"",""1"",""2234""
","
","
","""event"",""trial"",""time""
""fullscreenenter"",""1"",""2234""
","
","","","","","","1515.6999988555908","images/truck7.png","","","learning","-1","0","0","0","truck","vehicles","1","0","","neutral","0"
"html-keyboard-response","148","552091","0.0-9.0-2.0-0.38","6294","1","25","Female","approach_avoid_spark_v1","""event"",""trial"",""time""
""fullscreenenter"",""1"",""2234""
","
","
","""event"",""trial"",""time""
""fullscreenenter"",""1"",""2234""
","
","","","","","","null","<div style=""font-size:60px;"">+</div>","null","","fixation","","","","","","","","","","",""
"aa-learning-trial","149","555097","0.0-9.0-2.0-1.38","6294","1","25","Female","approach_avoid_spark_v1","""event"",""trial"",""time""
""fullscreenenter"",""1"",""2234""
","
","
","""event"",""trial"",""time""
""fullscreenenter"",""1"",""2234""
","
","","","","","","680","images/train4.png","","","learning","-5","0","0","0","train","vehicles","1","0","","bad","[-4]"
"html-keyboard-response","150","555602","0.0-9.0-2.0-0.39","6294","1","25","Female","approach_avoid_spark_v1","""event"",""trial"",""time""
""fullscreenenter"",""1"",""2234""
","
","
","""event"",""trial"",""time""
""fullscreenenter"",""1"",""2234""
","
","","","","","","null","<div style=""font-size:60px;"">+</div>","null","","fixation","","","","","","","","","","",""
"aa-learning-trial","151","558609","0.0-9.0-2.0-1.39","6294","1","25","Female","approach_avoid_spark_v1","""event"",""trial"",""time""
""fullscreenenter"",""1"",""2234""
","
","
","""event"",""trial"",""time""
""fullscreenenter"",""1"",""2234""
","
","","","","","","675.3999996185303","images/boat1.png","","","learning","5","5","1","1","boat","vehicles","1","0","","good","[6]"
"html-keyboard-response","152","559112","0.0-9.0-2.0-0.40","6294","1","25","Female","approach_avoid_spark_v1","""event"",""trial"",""time""
""fullscreenenter"",""1"",""2234""
","
","
","""event"",""trial"",""time""
""fullscreenenter"",""1"",""2234""
","
","","","","","","null","<div style=""font-size:60px;"">+</div>","null","","fixation","","","","","","","","","","",""
"aa-learning-trial","153","562117","0.0-9.0-2.0-1.40","6294","1","25","Female","approach_avoid_spark_v1","""event"",""trial"",""time""
""fullscreenenter"",""1"",""2234""
","
","
","""event"",""trial"",""time""
""fullscreenenter"",""1"",""2234""
","
","","","","","","656.9000015258789","images/train5.png","","","learning","-5","0","0","0","train","vehicles","1","0","","bad","[-4]"
"html-keyboard-response","154","562635","0.0-9.0-2.0-0.41","6294","1","25","Female","approach_avoid_spark_v1","""event"",""trial"",""time""
""fullscreenenter"",""1"",""2234""
","
","
","""event"",""trial"",""time""
""fullscreenenter"",""1"",""2234""
","
","","","","","","null","<div style=""font-size:60px;"">+</div>","null","","fixation","","","","","","","","","","",""
"aa-learning-trial","155","565642","0.0-9.0-2.0-1.41","6294","1","25","Female","approach_avoid_spark_v1","""event"",""trial"",""time""
""fullscreenenter"",""1"",""2234""
","
","
","""event"",""trial"",""time""
""fullscreenenter"",""1"",""2234""
","
","","","","","","1652.3999996185303","images/truck8.png","","","learning","1","1","1","1","truck","vehicles","1","0","","neutral","0"
"html-keyboard-response","156","566147","0.0-9.0-2.0-0.42","6294","1","25","Female","approach_avoid_spark_v1","""event"",""trial"",""time""
""fullscreenenter"",""1"",""2234""
","
","
","""event"",""trial"",""time""
""fullscreenenter"",""1"",""2234""
","
","","","","","","null","<div style=""font-size:60px;"">+</div>","null","","fixation","","","","","","","","","","",""
"aa-learning-trial","157","569157","0.0-9.0-2.0-1.42","6294","1","25","Female","approach_avoid_spark_v1","""event"",""trial"",""time""
""fullscreenenter"",""1"",""2234""
","
","
","""event"",""trial"",""time""
""fullscreenenter"",""1"",""2234""
","
","","","","","","639.9000015258789","images/train4.png","","","learning","-4","0","0","0","train","vehicles","1","0","","bad","[-4]"
"html-keyboard-response","158","569662","0.0-9.0-2.0-0.43","6294","1","25","Female","approach_avoid_spark_v1","""event"",""trial"",""time""
""fullscreenenter"",""1"",""2234""
","
","
","""event"",""trial"",""time""
""fullscreenenter"",""1"",""2234""
","
","","","","","","null","<div style=""font-size:60px;"">+</div>","null","","fixation","","","","","","","","","","",""
"aa-learning-trial","159","572671","0.0-9.0-2.0-1.43","6294","1","25","Female","approach_avoid_spark_v1","""event"",""trial"",""time""
""fullscreenenter"",""1"",""2234""
","
","
","""event"",""trial"",""time""
""fullscreenenter"",""1"",""2234""
","
","","","","","","712.8000011444092","images/boat7.png","","","learning","5","5","1","1","boat","vehicles","1","0","","good","[6]"
"html-keyboard-response","160","573177","0.0-9.0-2.0-0.44","6294","1","25","Female","approach_avoid_spark_v1","""event"",""trial"",""time""
""fullscreenenter"",""1"",""2234""
","
","
","""event"",""trial"",""time""
""fullscreenenter"",""1"",""2234""
","
","","","","","","null","<div style=""font-size:60px;"">+</div>","null","","fixation","","","","","","","","","","",""
"aa-learning-trial","161","576188","0.0-9.0-2.0-1.44","6294","1","25","Female","approach_avoid_spark_v1","""event"",""trial"",""time""
""fullscreenenter"",""1"",""2234""
","
","
","""event"",""trial"",""time""
""fullscreenenter"",""1"",""2234""
","
","","","","","","1598","images/truck3.png","","","learning","1","0","0","0","truck","vehicles","1","0","","neutral","0"
"html-keyboard-response","162","576693","0.0-9.0-2.0-0.45","6294","1","25","Female","approach_avoid_spark_v1","""event"",""trial"",""time""
""fullscreenenter"",""1"",""2234""
","
","
","""event"",""trial"",""time""
""fullscreenenter"",""1"",""2234""
","
","","","","","","null","<div style=""font-size:60px;"">+</div>","null","","fixation","","","","","","","","","","",""
"aa-learning-trial","163","579702","0.0-9.0-2.0-1.45","6294","1","25","Female","approach_avoid_spark_v1","""event"",""trial"",""time""
""fullscreenenter"",""1"",""2234""
","
","
","""event"",""trial"",""time""
""fullscreenenter"",""1"",""2234""
","
","","","","","","1039.1999988555908","images/truck8.png","","","learning","1","1","1","1","truck","vehicles","1","0","","neutral","0"
"html-keyboard-response","164","580212","0.0-9.0-2.0-0.46","6294","1","25","Female","approach_avoid_spark_v1","""event"",""trial"",""time""
""fullscreenenter"",""1"",""2234""
","
","
","""event"",""trial"",""time""
""fullscreenenter"",""1"",""2234""
","
","","","","","","null","<div style=""font-size:60px;"">+</div>","null","","fixation","","","","","","","","","","",""
"aa-learning-trial","165","583233","0.0-9.0-2.0-1.46","6294","1","25","Female","approach_avoid_spark_v1","""event"",""trial"",""time""
""fullscreenenter"",""1"",""2234""
","
","
","""event"",""trial"",""time""
""fullscreenenter"",""1"",""2234""
","
","","","","","","737.7000007629395","images/train4.png","","","learning","-2","0","0","0","train","vehicles","1","0","","bad","[-4]"
"html-keyboard-response","166","583748","0.0-9.0-2.0-0.47","6294","1","25","Female","approach_avoid_spark_v1","""event"",""trial"",""time""
""fullscreenenter"",""1"",""2234""
","
","
","""event"",""trial"",""time""
""fullscreenenter"",""1"",""2234""
","
","","","","","","null","<div style=""font-size:60px;"">+</div>","null","","fixation","","","","","","","","","","",""
"aa-learning-trial","167","586759","0.0-9.0-2.0-1.47","6294","1","25","Female","approach_avoid_spark_v1","""event"",""trial"",""time""
""fullscreenenter"",""1"",""2234""
","
","
","""event"",""trial"",""time""
""fullscreenenter"",""1"",""2234""
","
","","","","","","1422.900001525879","images/truck5.png","","","learning","-2","-2","1","1","truck","vehicles","1","0","","neutral","0"
"html-keyboard-response","168","587272","0.0-9.0-2.0-0.48","6294","1","25","Female","approach_avoid_spark_v1","""event"",""trial"",""time""
""fullscreenenter"",""1"",""2234""
","
","
","""event"",""trial"",""time""
""fullscreenenter"",""1"",""2234""
","
","","","","","","null","<div style=""font-size:60px;"">+</div>","null","","fixation","","","","","","","","","","",""
"aa-learning-trial","169","590279","0.0-9.0-2.0-1.48","6294","1","25","Female","approach_avoid_spark_v1","""event"",""trial"",""time""
""fullscreenenter"",""1"",""2234""
","
","
","""event"",""trial"",""time""
""fullscreenenter"",""1"",""2234""
","
","","","","","","651.6000003814697","images/boat8.png","","","learning","7","7","1","1","boat","vehicles","1","0","","good","[6]"
"html-keyboard-response","170","590786","0.0-9.0-2.0-0.49","6294","1","25","Female","approach_avoid_spark_v1","""event"",""trial"",""time""
""fullscreenenter"",""1"",""2234""
","
","
","""event"",""trial"",""time""
""fullscreenenter"",""1"",""2234""
","
","","","","","","null","<div style=""font-size:60px;"">+</div>","null","","fixation","","","","","","","","","","",""
"aa-learning-trial","171","593793","0.0-9.0-2.0-1.49","6294","1","25","Female","approach_avoid_spark_v1","""event"",""trial"",""time""
""fullscreenenter"",""1"",""2234""
","
","
","""event"",""trial"",""time""
""fullscreenenter"",""1"",""2234""
","
","","","","","","578.3999996185303","images/boat6.png","","","learning","6","6","1","1","boat","vehicles","1","0","","good","[6]"
"html-keyboard-response","172","594303","0.0-9.0-2.0-0.50","6294","1","25","Female","approach_avoid_spark_v1","""event"",""trial"",""time""
""fullscreenenter"",""1"",""2234""
","
","
","""event"",""trial"",""time""
""fullscreenenter"",""1"",""2234""
","
","","","","","","null","<div style=""font-size:60px;"">+</div>","null","","fixation","","","","","","","","","","",""
"aa-learning-trial","173","597320","0.0-9.0-2.0-1.50","6294","1","25","Female","approach_avoid_spark_v1","""event"",""trial"",""time""
""fullscreenenter"",""1"",""2234""
","
","
","""event"",""trial"",""time""
""fullscreenenter"",""1"",""2234""
","
","","","","","","574","images/train5.png","","","learning","-3","0","0","0","train","vehicles","1","0","","bad","[-4]"
"html-button-response","174","599345","0.0-9.0-3.0","6294","1","25","Female","approach_avoid_spark_v1","""event"",""trial"",""time""
""fullscreenenter"",""1"",""2234""
","
","
","""event"",""trial"",""time""
""fullscreenenter"",""1"",""2234""
","
","","","","","","2022.3000011444092","<p> You have completed the round! <p> In this round, you earned 99 points! </p>","0","","break","","","","","","","","","","",""
"html-button-response","175","600320","0.0-10.0","6294","1","25","Female","approach_avoid_spark_v1","""event"",""trial"",""time""
""fullscreenenter"",""1"",""2234""
","
","
","""event"",""trial"",""time""
""fullscreenenter"",""1"",""2234""
","
","","","","","","974","<p> Now it's time to play another round. </p>","0","","transition_screen","","","","","","","","","","",""
"preload","176","600452","0.0-11.0-0.0","6294","1","25","Female","approach_avoid_spark_v1","""event"",""trial"",""time""
""fullscreenenter"",""1"",""2234""
","
","
","""event"",""trial"",""time""
""fullscreenenter"",""1"",""2234""
","
","true","false","[]","[]","[]","","","","","","","","","","","","","","","",""
"learning-instructions","177","606607","0.0-11.0-1.0-0.0","6294","1","25","Female","approach_avoid_spark_v1","""event"",""trial"",""time""
""fullscreenenter"",""1"",""2234""
","
","
","""event"",""trial"",""time""
""fullscreenenter"",""1"",""2234""
","
","","","","","","1982.900001525879","<p> Your goal in this round is to eat tasty fruit. </p></div>","","0","instructions","","","","","","","","","","",""
"learning-instructions","178","617231","0.0-11.0-1.0-0.1","6294","1","25","Female","approach_avoid_spark_v1","""event"",""trial"",""time""
""fullscreenenter"",""1"",""2234""
","
","
","""event"",""trial"",""time""
""fullscreenenter"",""1"",""2234""
","
","","","","","","446.5","<p> Some of the fruits you will see are tasty. Others are rotten on the inside.  </p><p> On each turn, you will see a fruit.   </p><p> You need to decide whether to eat it or not.  </p>","","0","instructions","","","","","","","","","","",""
"learning-instructions","179","622733","0.0-11.0-1.0-0.2","6294","1","25","Female","approach_avoid_spark_v1","""event"",""trial"",""time""
""fullscreenenter"",""1"",""2234""
","
","
","""event"",""trial"",""time""
""fullscreenenter"",""1"",""2234""
","
","","","","","","737.9000015258789","<p> You can eat the fruit by pressing 1 and choose not to eat it by pressing 0. </p><br><div class=""choice-instructions-grid""> <div class=""choice-option""><img src=""images/approach.png"" class=""choice-option-img"" stage=""instructions"" position=""0"" ><div class=""choice-option-text""> Press ""1."" </div></div><div class=""choice-option""><img src=""images/avoid.png"" class=""choice-option-img"" stage=""instructions"" position=""1"" ><div class=""choice-option-text""> Press ""0."" </div></div>","","0","instructions","","","","","","","","","","",""
"learning-instructions","180","630668","0.0-11.0-1.0-0.3","6294","1","25","Female","approach_avoid_spark_v1","""event"",""trial"",""time""
""fullscreenenter"",""1"",""2234""
","
","
","""event"",""trial"",""time""
""fullscreenenter"",""1"",""2234""
","
","","","","","","563.7999992370605","<p> If you eat the fruit and it was tasty, you will win points! </p><p> But if you eat the fruit and it was rotten, you will lose points. </p>","","0","instructions","","","","","","","","","","",""
"learning-instructions","181","642769","0.0-11.0-1.0-0.4","6294","1","25","Female","approach_avoid_spark_v1","""event"",""trial"",""time""
""fullscreenenter"",""1"",""2234""
","
","
","""event"",""trial"",""time""
""fullscreenenter"",""1"",""2234""
","
","","","","","","755.7999992370605","<p> You will earn points based on how tasty or rotten the fruit was. </p><p> If it was tasty, you will WIN anywhere from 1 - 9 points, </p><p> but if it was rotten, you will LOSE anywhere from 1 - 9 points. </p>","","0","instructions","","","","","","","","","","",""
"learning-instructions","182","649824","0.0-11.0-1.0-0.5","6294","1","25","Female","approach_avoid_spark_v1","""event"",""trial"",""time""
""fullscreenenter"",""1"",""2234""
","
","
","""event"",""trial"",""time""
""fullscreenenter"",""1"",""2234""
","
","","","","","","401.29999923706055","<p> You will see how many points you won or lost in the center of the screen. </p><p> Here is what you would see if you earned 5 points: </p><p style=""color:green;font-size:50px;font-weight:bolder"">5</p>","","0","instructions","","","","","","","","","","",""
"learning-instructions","183","653087","0.0-11.0-1.0-0.6","6294","1","25","Female","approach_avoid_spark_v1","""event"",""trial"",""time""
""fullscreenenter"",""1"",""2234""
","
","
","""event"",""trial"",""time""
""fullscreenenter"",""1"",""2234""
","
","","","","","","414.6000003814697","<p> And here is what you would see if you lost 3 points: </p><p style=""color:red;font-size:50px;font-weight:bolder"">-3</p>","","0","instructions","","","","","","","","","","",""
"learning-instructions","184","667279","0.0-11.0-1.0-0.7","6294","1","25","Female","approach_avoid_spark_v1","""event"",""trial"",""time""
""fullscreenenter"",""1"",""2234""
","
","
","""event"",""trial"",""time""
""fullscreenenter"",""1"",""2234""
","
","","","","","","435.5","<p> Some fruit is very tasty or very rotten. </p><p> These fruits will make you win or lose LOTS of points. </p><p> Other fruits are only kind of tasty or kind of rotten. </p><p> These fruits will make you win or lose small amounts of points. </p>","","0","instructions","","","","","","","","","","",""
"learning-instructions","185","678125","0.0-11.0-1.0-0.8","6294","1","25","Female","approach_avoid_spark_v1","""event"",""trial"",""time""
""fullscreenenter"",""1"",""2234""
","
","
","""event"",""trial"",""time""
""fullscreenenter"",""1"",""2234""
","
","","","","","","422.3999996185303","<p> If you choose to not eat the fruit, you will not win or lose any points. </p><p>  However, in the center of the screen, you will see the number of points you WOULD HAVE earned if you had eaten the fruit. </p>","","0","instructions","","","","","","","","","","",""
"learning-instructions","186","688547","0.0-11.0-1.0-0.9","6294","1","25","Female","approach_avoid_spark_v1","""event"",""trial"",""time""
""fullscreenenter"",""1"",""2234""
","
","
","""event"",""trial"",""time""
""fullscreenenter"",""1"",""2234""
","
","","","","","","444","<p> Here is what you might see if you did not eat the fruit but the fruit was tasty: </p><p style=""color:grey; font-size:50px; display: inline-block; border-spacing: 15px; border-width:3px; border-style:solid; border-color:red"">  &nbsp; 6 &nbsp; </p><p> Remember, in this case, you would not win or lose ANY points because you did not eat the fruit.  </p>","","0","instructions","","","","","","","","","","",""
"learning-instructions","187","697032","0.0-11.0-1.0-0.10","6294","1","25","Female","approach_avoid_spark_v1","""event"",""trial"",""time""
""fullscreenenter"",""1"",""2234""
","
","
","""event"",""trial"",""time""
""fullscreenenter"",""1"",""2234""
","
","","","","","","388.5999984741211","<p> Try to make the best choice for each fruit because </p><p> at the end of the game, you will earn bonus money based on how many points you earned. </p>","","0","instructions","","","","","","","","","","",""
"learning-instructions","188","706306","0.0-11.0-1.0-0.11","6294","1","25","Female","approach_avoid_spark_v1","""event"",""trial"",""time""
""fullscreenenter"",""1"",""2234""
","
","
","""event"",""trial"",""time""
""fullscreenenter"",""1"",""2234""
","
","","","","","","1075.3000011444092","<p> You will have 3 seconds to make each choice. Try to respond before time runs out! </p><p> You will lose 5 points each time you do not make a response. </p>","","0","instructions","","","","","","","","","","",""
"html-keyboard-response","189","706937","0.0-11.0-2.0-0.0","6294","1","25","Female","approach_avoid_spark_v1","""event"",""trial"",""time""
""fullscreenenter"",""1"",""2234""
","
","
","""event"",""trial"",""time""
""fullscreenenter"",""1"",""2234""
","
","","","","","","null","<div style=""font-size:60px;"">+</div>","null","","fixation","","","","","","","","","","",""
"aa-learning-trial","190","709945","0.0-11.0-2.0-1.0","6294","1","25","Female","approach_avoid_spark_v1","""event"",""trial"",""time""
""fullscreenenter"",""1"",""2234""
","
","
","""event"",""trial"",""time""
""fullscreenenter"",""1"",""2234""
","
","","","","","","1140.6000003814697","images/banana6.png","","","learning","3","3","1","1","banana","fruit","2","1","","bad","[-6]"
"html-keyboard-response","191","710457","0.0-11.0-2.0-0.1","6294","1","25","Female","approach_avoid_spark_v1","""event"",""trial"",""time""
""fullscreenenter"",""1"",""2234""
","
","
","""event"",""trial"",""time""
""fullscreenenter"",""1"",""2234""
","
","","","","","","null","<div style=""font-size:60px;"">+</div>","null","","fixation","","","","","","","","","","",""
"aa-learning-trial","192","713468","0.0-11.0-2.0-1.1","6294","1","25","Female","approach_avoid_spark_v1","""event"",""trial"",""time""
""fullscreenenter"",""1"",""2234""
","
","
","""event"",""trial"",""time""
""fullscreenenter"",""1"",""2234""
","
","","","","","","1151","images/straw3.png","","","learning","-4","-4","1","1","straw","fruit","2","1","","good","[5]"
"html-keyboard-response","193","713988","0.0-11.0-2.0-0.2","6294","1","25","Female","approach_avoid_spark_v1","""event"",""trial"",""time""
""fullscreenenter"",""1"",""2234""
","
","
","""event"",""trial"",""time""
""fullscreenenter"",""1"",""2234""
","
","","","","","","null","<div style=""font-size:60px;"">+</div>","null","","fixation","","","","","","","","","","",""
"aa-learning-trial","194","717008","0.0-11.0-2.0-1.2","6294","1","25","Female","approach_avoid_spark_v1","""event"",""trial"",""time""
""fullscreenenter"",""1"",""2234""
","
","
","""event"",""trial"",""time""
""fullscreenenter"",""1"",""2234""
","
","","","","","","994.7999992370605","images/straw1.png","","","learning","-1","-1","1","1","straw","fruit","2","1","","good","[5]"
"html-keyboard-response","195","717527","0.0-11.0-2.0-0.3","6294","1","25","Female","approach_avoid_spark_v1","""event"",""trial"",""time""
""fullscreenenter"",""1"",""2234""
","
","
","""event"",""trial"",""time""
""fullscreenenter"",""1"",""2234""
","
","","","","","","null","<div style=""font-size:60px;"">+</div>","null","","fixation","","","","","","","","","","",""
"aa-learning-trial","196","720537","0.0-11.0-2.0-1.3","6294","1","25","Female","approach_avoid_spark_v1","""event"",""trial"",""time""
""fullscreenenter"",""1"",""2234""
","
","
","""event"",""trial"",""time""
""fullscreenenter"",""1"",""2234""
","
","","","","","","678.7000007629395","images/banana6.png","","","learning","3","3","1","1","banana","fruit","2","1","","bad","[-6]"
"html-keyboard-response","197","721058","0.0-11.0-2.0-0.4","6294","1","25","Female","approach_avoid_spark_v1","""event"",""trial"",""time""
""fullscreenenter"",""1"",""2234""
","
","
","""event"",""trial"",""time""
""fullscreenenter"",""1"",""2234""
","
","","","","","","null","<div style=""font-size:60px;"">+</div>","null","","fixation","","","","","","","","","","",""
"aa-learning-trial","198","724078","0.0-11.0-2.0-1.4","6294","1","25","Female","approach_avoid_spark_v1","""event"",""trial"",""time""
""fullscreenenter"",""1"",""2234""
","
","
","""event"",""trial"",""time""
""fullscreenenter"",""1"",""2234""
","
","","","","","","842.5","images/banana2.png","","","learning","-6","-6","1","1","banana","fruit","2","1","","bad","[-6]"
"html-keyboard-response","199","724597","0.0-11.0-2.0-0.5","6294","1","25","Female","approach_avoid_spark_v1","""event"",""trial"",""time""
""fullscreenenter"",""1"",""2234""
","
","
","""event"",""trial"",""time""
""fullscreenenter"",""1"",""2234""
","
","","","","","","null","<div style=""font-size:60px;"">+</div>","null","","fixation","","","","","","","","","","",""
"aa-learning-trial","200","727608","0.0-11.0-2.0-1.5","6294","1","25","Female","approach_avoid_spark_v1","""event"",""trial"",""time""
""fullscreenenter"",""1"",""2234""
","
","
","""event"",""trial"",""time""
""fullscreenenter"",""1"",""2234""
","
","","","","","","916.5","images/apple4.png","","","learning","2","2","1","1","apple","fruit","2","1","","neutral","0"
"html-keyboard-response","201","728113","0.0-11.0-2.0-0.6","6294","1","25","Female","approach_avoid_spark_v1","""event"",""trial"",""time""
""fullscreenenter"",""1"",""2234""
","
","
","""event"",""trial"",""time""
""fullscreenenter"",""1"",""2234""
","
","","","","","","null","<div style=""font-size:60px;"">+</div>","null","","fixation","","","","","","","","","","",""
"aa-learning-trial","202","731132","0.0-11.0-2.0-1.6","6294","1","25","Female","approach_avoid_spark_v1","""event"",""trial"",""time""
""fullscreenenter"",""1"",""2234""
","
","
","""event"",""trial"",""time""
""fullscreenenter"",""1"",""2234""
","
","","","","","","678.5","images/apple5.png","","","learning","-7","-7","1","1","apple","fruit","2","1","","neutral","0"
"html-keyboard-response","203","731649","0.0-11.0-2.0-0.7","6294","1","25","Female","approach_avoid_spark_v1","""event"",""trial"",""time""
""fullscreenenter"",""1"",""2234""
","
","
","""event"",""trial"",""time""
""fullscreenenter"",""1"",""2234""
","
","","","","","","null","<div style=""font-size:60px;"">+</div>","null","","fixation","","","","","","","","","","",""
"aa-learning-trial","204","734653","0.0-11.0-2.0-1.7","6294","1","25","Female","approach_avoid_spark_v1","""event"",""trial"",""time""
""fullscreenenter"",""1"",""2234""
","
","
","""event"",""trial"",""time""
""fullscreenenter"",""1"",""2234""
","
","","","","","","676.1999988555908","images/straw3.png","","","learning","-4","0","0","0","straw","fruit","2","1","","good","[5]"
"html-keyboard-response","205","735169","0.0-11.0-2.0-0.8","6294","1","25","Female","approach_avoid_spark_v1","""event"",""trial"",""time""
""fullscreenenter"",""1"",""2234""
","
","
","""event"",""trial"",""time""
""fullscreenenter"",""1"",""2234""
","
","","","","","","null","<div style=""font-size:60px;"">+</div>","null","","fixation","","","","","","","","","","",""
"aa-learning-trial","206","738176","0.0-11.0-2.0-1.8","6294","1","25","Female","approach_avoid_spark_v1","""event"",""trial"",""time""
""fullscreenenter"",""1"",""2234""
","
","
","""event"",""trial"",""time""
""fullscreenenter"",""1"",""2234""
","
","","","","","","858.9000015258789","images/banana2.png","","","learning","-6","0","0","0","banana","fruit","2","1","","bad","[-6]"
"html-keyboard-response","207","738681","0.0-11.0-2.0-0.9","6294","1","25","Female","approach_avoid_spark_v1","""event"",""trial"",""time""
""fullscreenenter"",""1"",""2234""
","
","
","""event"",""trial"",""time""
""fullscreenenter"",""1"",""2234""
","
","","","","","","null","<div style=""font-size:60px;"">+</div>","null","","fixation","","","","","","","","","","",""
"aa-learning-trial","208","741687","0.0-11.0-2.0-1.9","6294","1","25","Female","approach_avoid_spark_v1","""event"",""trial"",""time""
""fullscreenenter"",""1"",""2234""
","
","
","""event"",""trial"",""time""
""fullscreenenter"",""1"",""2234""
","
","","","","","","674.0999984741211","images/apple5.png","","","learning","-7","0","0","0","apple","fruit","2","1","","neutral","0"
"html-keyboard-response","209","742190","0.0-11.0-2.0-0.10","6294","1","25","Female","approach_avoid_spark_v1","""event"",""trial"",""time""
""fullscreenenter"",""1"",""2234""
","
","
","""event"",""trial"",""time""
""fullscreenenter"",""1"",""2234""
","
","","","","","","null","<div style=""font-size:60px;"">+</div>","null","","fixation","","","","","","","","","","",""
"aa-learning-trial","210","745205","0.0-11.0-2.0-1.10","6294","1","25","Female","approach_avoid_spark_v1","""event"",""trial"",""time""
""fullscreenenter"",""1"",""2234""
","
","
","""event"",""trial"",""time""
""fullscreenenter"",""1"",""2234""
","
","","","","","","815.5","images/apple2.png","","","learning","4","4","1","1","apple","fruit","2","1","","neutral","0"
"html-keyboard-response","211","745712","0.0-11.0-2.0-0.11","6294","1","25","Female","approach_avoid_spark_v1","""event"",""trial"",""time""
""fullscreenenter"",""1"",""2234""
","
","
","""event"",""trial"",""time""
""fullscreenenter"",""1"",""2234""
","
","","","","","","null","<div style=""font-size:60px;"">+</div>","null","","fixation","","","","","","","","","","",""
"aa-learning-trial","212","748720","0.0-11.0-2.0-1.11","6294","1","25","Female","approach_avoid_spark_v1","""event"",""trial"",""time""
""fullscreenenter"",""1"",""2234""
","
","
","""event"",""trial"",""time""
""fullscreenenter"",""1"",""2234""
","
","","","","","","1232.8999996185303","images/banana4.png","","","learning","8","8","1","1","banana","fruit","2","1","","bad","[-6]"
"html-keyboard-response","213","749233","0.0-11.0-2.0-0.12","6294","1","25","Female","approach_avoid_spark_v1","""event"",""trial"",""time""
""fullscreenenter"",""1"",""2234""
","
","
","""event"",""trial"",""time""
""fullscreenenter"",""1"",""2234""
","
","","","","","","null","<div style=""font-size:60px;"">+</div>","null","","fixation","","","","","","","","","","",""
"aa-learning-trial","214","752238","0.0-11.0-2.0-1.12","6294","1","25","Female","approach_avoid_spark_v1","""event"",""trial"",""time""
""fullscreenenter"",""1"",""2234""
","
","
","""event"",""trial"",""time""
""fullscreenenter"",""1"",""2234""
","
","","","","","","896.5","images/straw6.png","","","learning","9","0","0","0","straw","fruit","2","1","","good","[5]"
"html-keyboard-response","215","752756","0.0-11.0-2.0-0.13","6294","1","25","Female","approach_avoid_spark_v1","""event"",""trial"",""time""
""fullscreenenter"",""1"",""2234""
","
","
","""event"",""trial"",""time""
""fullscreenenter"",""1"",""2234""
","
","","","","","","null","<div style=""font-size:60px;"">+</div>","null","","fixation","","","","","","","","","","",""
"aa-learning-trial","216","755764","0.0-11.0-2.0-1.13","6294","1","25","Female","approach_avoid_spark_v1","""event"",""trial"",""time""
""fullscreenenter"",""1"",""2234""
","
","
","""event"",""trial"",""time""
""fullscreenenter"",""1"",""2234""
","
","","","","","","591","images/apple2.png","","","learning","4","4","1","1","apple","fruit","2","1","","neutral","0"
"html-keyboard-response","217","756270","0.0-11.0-2.0-0.14","6294","1","25","Female","approach_avoid_spark_v1","""event"",""trial"",""time""
""fullscreenenter"",""1"",""2234""
","
","
","""event"",""trial"",""time""
""fullscreenenter"",""1"",""2234""
","
","","","","","","null","<div style=""font-size:60px;"">+</div>","null","","fixation","","","","","","","","","","",""
"aa-learning-trial","218","759275","0.0-11.0-2.0-1.14","6294","1","25","Female","approach_avoid_spark_v1","""event"",""trial"",""time""
""fullscreenenter"",""1"",""2234""
","
","
","""event"",""trial"",""time""
""fullscreenenter"",""1"",""2234""
","
","","","","","","537.8999996185303","images/straw6.png","","","learning","9","9","1","1","straw","fruit","2","1","","good","[5]"
"html-keyboard-response","219","759782","0.0-11.0-2.0-0.15","6294","1","25","Female","approach_avoid_spark_v1","""event"",""trial"",""time""
""fullscreenenter"",""1"",""2234""
","
","
","""event"",""trial"",""time""
""fullscreenenter"",""1"",""2234""
","
","","","","","","null","<div style=""font-size:60px;"">+</div>","null","","fixation","","","","","","","","","","",""
"aa-learning-trial","220","762788","0.0-11.0-2.0-1.15","6294","1","25","Female","approach_avoid_spark_v1","""event"",""trial"",""time""
""fullscreenenter"",""1"",""2234""
","
","
","""event"",""trial"",""time""
""fullscreenenter"",""1"",""2234""
","
","","","","","","930.1000003814697","images/apple1.png","","","learning","7","7","1","1","apple","fruit","2","1","","neutral","0"
"html-keyboard-response","221","763297","0.0-11.0-2.0-0.16","6294","1","25","Female","approach_avoid_spark_v1","""event"",""trial"",""time""
""fullscreenenter"",""1"",""2234""
","
","
","""event"",""trial"",""time""
""fullscreenenter"",""1"",""2234""
","
","","","","","","null","<div style=""font-size:60px;"">+</div>","null","","fixation","","","","","","","","","","",""
"aa-learning-trial","222","766315","0.0-11.0-2.0-1.16","6294","1","25","Female","approach_avoid_spark_v1","""event"",""trial"",""time""
""fullscreenenter"",""1"",""2234""
","
","
","""event"",""trial"",""time""
""fullscreenenter"",""1"",""2234""
","
","","","","","","882.3000011444092","images/banana3.png","","","learning","-5","0","0","0","banana","fruit","2","1","","bad","[-6]"
"html-keyboard-response","223","766821","0.0-11.0-2.0-0.17","6294","1","25","Female","approach_avoid_spark_v1","""event"",""trial"",""time""
""fullscreenenter"",""1"",""2234""
","
","
","""event"",""trial"",""time""
""fullscreenenter"",""1"",""2234""
","
","","","","","","null","<div style=""font-size:60px;"">+</div>","null","","fixation","","","","","","","","","","",""
"aa-learning-trial","224","769832","0.0-11.0-2.0-1.17","6294","1","25","Female","approach_avoid_spark_v1","""event"",""trial"",""time""
""fullscreenenter"",""1"",""2234""
","
","
","""event"",""trial"",""time""
""fullscreenenter"",""1"",""2234""
","
","","","","","","943.5999984741211","images/straw5.png","","","learning","-9","-9","1","1","straw","fruit","2","1","","good","[5]"
"html-keyboard-response","225","770336","0.0-11.0-2.0-0.18","6294","1","25","Female","approach_avoid_spark_v1","""event"",""trial"",""time""
""fullscreenenter"",""1"",""2234""
","
","
","""event"",""trial"",""time""
""fullscreenenter"",""1"",""2234""
","
","","","","","","null","<div style=""font-size:60px;"">+</div>","null","","fixation","","","","","","","","","","",""
"aa-learning-trial","226","773345","0.0-11.0-2.0-1.18","6294","1","25","Female","approach_avoid_spark_v1","""event"",""trial"",""time""
""fullscreenenter"",""1"",""2234""
","
","
","""event"",""trial"",""time""
""fullscreenenter"",""1"",""2234""
","
","","","","","","667.6999988555908","images/straw6.png","","","learning","9","9","1","1","straw","fruit","2","1","","good","[5]"
"html-keyboard-response","227","773851","0.0-11.0-2.0-0.19","6294","1","25","Female","approach_avoid_spark_v1","""event"",""trial"",""time""
""fullscreenenter"",""1"",""2234""
","
","
","""event"",""trial"",""time""
""fullscreenenter"",""1"",""2234""
","
","","","","","","null","<div style=""font-size:60px;"">+</div>","null","","fixation","","","","","","","","","","",""
"aa-learning-trial","228","776861","0.0-11.0-2.0-1.19","6294","1","25","Female","approach_avoid_spark_v1","""event"",""trial"",""time""
""fullscreenenter"",""1"",""2234""
","
","
","""event"",""trial"",""time""
""fullscreenenter"",""1"",""2234""
","
","","","","","","1675.1000003814697","images/straw3.png","","","learning","-4","0","0","0","straw","fruit","2","1","","good","[5]"
"html-keyboard-response","229","777367","0.0-11.0-2.0-0.20","6294","1","25","Female","approach_avoid_spark_v1","""event"",""trial"",""time""
""fullscreenenter"",""1"",""2234""
","
","
","""event"",""trial"",""time""
""fullscreenenter"",""1"",""2234""
","
","","","","","","null","<div style=""font-size:60px;"">+</div>","null","","fixation","","","","","","","","","","",""
"aa-learning-trial","230","780386","0.0-11.0-2.0-1.20","6294","1","25","Female","approach_avoid_spark_v1","""event"",""trial"",""time""
""fullscreenenter"",""1"",""2234""
","
","
","""event"",""trial"",""time""
""fullscreenenter"",""1"",""2234""
","
","","","","","","569.7000007629395","images/straw6.png","","","learning","9","9","1","1","straw","fruit","2","1","","good","[5]"
"html-keyboard-response","231","780890","0.0-11.0-2.0-0.21","6294","1","25","Female","approach_avoid_spark_v1","""event"",""trial"",""time""
""fullscreenenter"",""1"",""2234""
","
","
","""event"",""trial"",""time""
""fullscreenenter"",""1"",""2234""
","
","","","","","","null","<div style=""font-size:60px;"">+</div>","null","","fixation","","","","","","","","","","",""
"aa-learning-trial","232","783898","0.0-11.0-2.0-1.21","6294","1","25","Female","approach_avoid_spark_v1","""event"",""trial"",""time""
""fullscreenenter"",""1"",""2234""
","
","
","""event"",""trial"",""time""
""fullscreenenter"",""1"",""2234""
","
","","","","","","1044.2000007629395","images/banana6.png","","","learning","3","3","1","1","banana","fruit","2","1","","bad","[-6]"
"html-keyboard-response","233","784409","0.0-11.0-2.0-0.22","6294","1","25","Female","approach_avoid_spark_v1","""event"",""trial"",""time""
""fullscreenenter"",""1"",""2234""
","
","
","""event"",""trial"",""time""
""fullscreenenter"",""1"",""2234""
","
","","","","","","null","<div style=""font-size:60px;"">+</div>","null","","fixation","","","","","","","","","","",""
"aa-learning-trial","234","787416","0.0-11.0-2.0-1.22","6294","1","25","Female","approach_avoid_spark_v1","""event"",""trial"",""time""
""fullscreenenter"",""1"",""2234""
","
","
","""event"",""trial"",""time""
""fullscreenenter"",""1"",""2234""
","
","","","","","","800.2000007629395","images/apple5.png","","","learning","-7","0","0","0","apple","fruit","2","1","","neutral","0"
"html-keyboard-response","235","787918","0.0-11.0-2.0-0.23","6294","1","25","Female","approach_avoid_spark_v1","""event"",""trial"",""time""
""fullscreenenter"",""1"",""2234""
","
","
","""event"",""trial"",""time""
""fullscreenenter"",""1"",""2234""
","
","","","","","","null","<div style=""font-size:60px;"">+</div>","null","","fixation","","","","","","","","","","",""
"aa-learning-trial","236","790936","0.0-11.0-2.0-1.23","6294","1","25","Female","approach_avoid_spark_v1","""event"",""trial"",""time""
""fullscreenenter"",""1"",""2234""
","
","
","""event"",""trial"",""time""
""fullscreenenter"",""1"",""2234""
","
