"trial_type","trial_index","time_elapsed","internal_node_id","subject_id","task_condition","age","gender","task_version","interactions","blur_events","focus_events","fullscreenenter_events","fullscreenexit_events","success","timeout","failed_images","failed_audio","failed_video","rt","stimulus","response","button_pressed","task_part","approach_reward","points","key_press","option_selected","stim_cat","task_block","block_condition","block_number","correct","cat_type","mean_cat_reward"
"pavlovia","0","7","0.0-0.0","3821","1","12","Male","approach_avoid_spark_v1","""event"",""trial"",""time""
""fullscreenenter"",""1"",""11701""
","
","
","""event"",""trial"",""time""
""fullscreenenter"",""1"",""11701""
","
","","","","","","","","","","","","","","","","","","","","",""
"fullscreen","1","12671","0.0-1.0","3821","1","12","Male","approach_avoid_spark_v1","""event"",""trial"",""time""
""fullscreenenter"",""1"",""11701""
","
","
","""event"",""trial"",""time""
""fullscreenenter"",""1"",""11701""
","
","true","","","","","","","","","","","","","","","","","","","",""
"preload","2","22035","0.0-2.0","3821","1","12","Male","approach_avoid_spark_v1","""event"",""trial"",""time""
""fullscreenenter"",""1"",""11701""
","
","
","""event"",""trial"",""time""
""fullscreenenter"",""1"",""11701""
","
","true","false","[]","[]","[]","","","","","","","","","","","","","","","",""
"audio-keyboard-response","3","39741","0.0-3.0","3821","1","12","Male","approach_avoid_spark_v1","""event"",""trial"",""time""
""fullscreenenter"",""1"",""11701""
","
","
","""event"",""trial"",""time""
""fullscreenenter"",""1"",""11701""
","
","","","","","","17712","audio/beep_loop.wav"," ","","","","","","","","","","","","",""
"audio-button-response","4","44003","0.0-4.0","3821","1","12","Male","approach_avoid_spark_v1","""event"",""trial"",""time""
""fullscreenenter"",""1"",""11701""
","
","
","""event"",""trial"",""time""
""fullscreenenter"",""1"",""11701""
","
","","","","","","4259","audio/shark.wav","0","","","","","","","","","","","","",""
"audio-button-response","5","49715","0.0-5.0","3821","1","12","Male","approach_avoid_spark_v1","""event"",""trial"",""time""
""fullscreenenter"",""1"",""11701""
","
","
","""event"",""trial"",""time""
""fullscreenenter"",""1"",""11701""
","
","","","","","","4699","audio/turtle.wav","0","","","","","","","","","","","","",""
"preload","6","53434","0.0-6.0","3821","1","12","Male","approach_avoid_spark_v1","""event"",""trial"",""time""
""fullscreenenter"",""1"",""11701""
","
","
","""event"",""trial"",""time""
""fullscreenenter"",""1"",""11701""
","
","true","false","[]","[]","[]","","","","","","","","","","","","","","","",""
"html-keyboard-response","7","54017","0.0-7.0","3821","1","12","Male","approach_avoid_spark_v1","""event"",""trial"",""time""
""fullscreenenter"",""1"",""11701""
","
","
","""event"",""trial"",""time""
""fullscreenenter"",""1"",""11701""
","
","","","","","","579.6999999999534","Welcome to the experiment. Press any key to begin and to advance the instructions.","audiovolumedown","","","","","","","","","","","","",""
"learning-instructions","8","62763","0.0-8.0-0.0-0.0","3821","1","12","Male","approach_avoid_spark_v1","""event"",""trial"",""time""
""fullscreenenter"",""1"",""11701""
","
","
","""event"",""trial"",""time""
""fullscreenenter"",""1"",""11701""
","
","","","","","","1791.6000000000931","<p> Welcome! Today you are going to play 6 different rounds of a decision-making game. </p><p> Use the mouse to click next to continue. </p>","","0","instructions","","","","","","","","","","",""
"learning-instructions","9","67180","0.0-8.0-0.0-0.1","3821","1","12","Male","approach_avoid_spark_v1","""event"",""trial"",""time""
""fullscreenenter"",""1"",""11701""
","
","
","""event"",""trial"",""time""
""fullscreenenter"",""1"",""11701""
","
","","","","","","1678.7000000000698","<p> You will start with a practice round to learn the rules. </p>","","0","instructions","","","","","","","","","","",""
"learning-instructions","10","71856","0.0-8.0-0.0-0.2","3821","1","12","Male","approach_avoid_spark_v1","""event"",""trial"",""time""
""fullscreenenter"",""1"",""11701""
","
","
","""event"",""trial"",""time""
""fullscreenenter"",""1"",""11701""
","
","","","","","","1213.2999999999302","<p> Your goal in this round is to give out sports equipment to kids. </p></div>","","0","instructions","","","","","","","","","","",""
"learning-instructions","11","81344","0.0-8.0-0.0-0.3","3821","1","12","Male","approach_avoid_spark_v1","""event"",""trial"",""time""
""fullscreenenter"",""1"",""11701""
","
","
","""event"",""trial"",""time""
""fullscreenenter"",""1"",""11701""
","
","","","","","","1923","<p> The kids only like some of the equipment.  </p><p> On each turn, you will see a piece of sports equipment.   </p><p> You need to decide whether to give it to the kids or not.  </p>","","0","instructions","","","","","","","","","","",""
"learning-instructions","12","93935","0.0-8.0-0.0-0.4","3821","1","12","Male","approach_avoid_spark_v1","""event"",""trial"",""time""
""fullscreenenter"",""1"",""11701""
","
","
","""event"",""trial"",""time""
""fullscreenenter"",""1"",""11701""
","
","","","","","","7832","<p> You can give them the equipment by pressing 1 and choose not to give it to them by pressing 0. </p><br><div class=""choice-instructions-grid""> <div class=""choice-option""><img src=""images/approach.png"" class=""choice-option-img"" stage=""instructions"" position=""0"" ><div class=""choice-option-text""> Press ""1."" </div></div><div class=""choice-option""><img src=""images/avoid.png"" class=""choice-option-img"" stage=""instructions"" position=""1"" ><div class=""choice-option-text""> Press ""0."" </div></div>","","0","instructions","","","","","","","","","","",""
"learning-instructions","13","103411","0.0-8.0-0.0-0.5","3821","1","12","Male","approach_avoid_spark_v1","""event"",""trial"",""time""
""fullscreenenter"",""1"",""11701""
","
","
","""event"",""trial"",""time""
""fullscreenenter"",""1"",""11701""
","
","","","","","","2089.8000000000466","<p> If you give them a piece of equipment they like, they will be happy! </p><p> But if you give them a piece of equipment they do not like, they will be sad. </p>","","0","instructions","","","","","","","","","","",""
"learning-instructions","14","115307","0.0-8.0-0.0-0.6","3821","1","12","Male","approach_avoid_spark_v1","""event"",""trial"",""time""
""fullscreenenter"",""1"",""11701""
","
","
","""event"",""trial"",""time""
""fullscreenenter"",""1"",""11701""
","
","","","","","","1374.9000000000233","<p> You will earn points based on how you make kids feel. </p><p> If you make them happy, you will WIN anywhere from 1 - 9 points, </p><p> but if you make them sad, you will LOSE anywhere from 1 - 9 points. </p>","","0","instructions","","","","","","","","","","",""
"learning-instructions","15","151292","0.0-8.0-0.0-0.7","3821","1","12","Male","approach_avoid_spark_v1","""event"",""trial"",""time""
""fullscreenenter"",""1"",""11701""
","
","
","""event"",""trial"",""time""
""fullscreenenter"",""1"",""11701""
","
","","","","","","26410.400000000023","<p> You will see how many points you won or lost in the center of the screen. </p><p> Here is what you would see if you won 6 points: </p><p style=""color:green;font-size:50px;font-weight:bolder"">6</p><p style=""color:green"">The text is GREEN because you WON points.</p>","","0","instructions","","","","","","","","","","",""
"learning-instructions","16","158112","0.0-8.0-0.0-0.8","3821","1","12","Male","approach_avoid_spark_v1","""event"",""trial"",""time""
""fullscreenenter"",""1"",""11701""
","
","
","""event"",""trial"",""time""
""fullscreenenter"",""1"",""11701""
","
","","","","","","1290.5","<p> And here is what you would see if you lost 4 points: </p><p style=""color:red;font-size:50px;font-weight:bolder"">-4</p><p style=""color:red"">The text is RED because you LOST points. </p>","","0","instructions","","","","","","","","","","",""
"learning-instructions","17","176340","0.0-8.0-0.0-0.9","3821","1","12","Male","approach_avoid_spark_v1","""event"",""trial"",""time""
""fullscreenenter"",""1"",""11701""
","
","
","""event"",""trial"",""time""
""fullscreenenter"",""1"",""11701""
","
","","","","","","3498.100000000093","<p> Some of the equipment will make the kids VERY happy or sad. </p><p> These pieces of equipment will make you win or lose LOTS of points. </p><p> Other pieces of equipment will only make the kids a little happy or sad. </p><p> These pieces of equipment will make you win or lose small amounts of points. </p>","","0","instructions","","","","","","","","","","",""
"learning-instructions","18","187093","0.0-8.0-0.0-0.10","3821","1","12","Male","approach_avoid_spark_v1","""event"",""trial"",""time""
""fullscreenenter"",""1"",""11701""
","
","
","""event"",""trial"",""time""
""fullscreenenter"",""1"",""11701""
","
","","","","","","121.89999999990687","<p> If you choose not to give them the equipment, you will not win or lose any points. </p><p>  However, in the center of the screen, you will see the number of points you WOULD HAVE won or lost if you had given them the equipment. </p>","","0","instructions","","","","","","","","","","",""
"learning-instructions","19","210154","0.0-8.0-0.0-0.11","3821","1","12","Male","approach_avoid_spark_v1","""event"",""trial"",""time""
""fullscreenenter"",""1"",""11701""
","
","
","""event"",""trial"",""time""
""fullscreenenter"",""1"",""11701""
","
","","","","","","1512.2000000001863","<p> Here is what you might see if you did not give the equipment to the kids but it would have made them happy: </p><p style=""color:grey; font-size:50px; display: inline-block; border-spacing: 15px; border-width:3px; border-style:solid; border-color:red"">  &nbsp; 7 &nbsp; </p><p> Remember, in this case, you would not win or lose ANY points because you did not give them the equipment.  </p><p style=""color:grey"">The text is GREY because you earned ZERO points. </p><p style=""color:red"">However, choosing to give the kids the equipment would have made you win points. The box around the text is RED because you chose the worse option. </p>","","0","instructions","","","","","","","","","","",""
"learning-instructions","20","232671","0.0-8.0-0.0-0.12","3821","1","12","Male","approach_avoid_spark_v1","""event"",""trial"",""time""
""fullscreenenter"",""1"",""11701""
","
","
","""event"",""trial"",""time""
""fullscreenenter"",""1"",""11701""
","
","","","","","","1439.5999999998603","<p> Here is what you might see if you did not give the equipment to the kids but it would have made them sad: </p><p style=""color:grey;font-size:50px; display: inline-block; border-spacing: 15px; border-width:3px; border-style:solid; border-color:green"">  &nbsp; -8 &nbsp; </p><p> Remember, in this case, you would not win or lose ANY points because you did not give them the equipment.  </p><p style=""color:grey"">The text is GREY because you earned ZERO points. </p><p  style=""color:green""> Choosing to give the kids the equipment would have made you lose points. The box around the text is GREEN because you chose the better option.</p>","","0","instructions","","","","","","","","","","",""
"learning-instructions","21","243629","0.0-8.0-0.0-0.13","3821","1","12","Male","approach_avoid_spark_v1","""event"",""trial"",""time""
""fullscreenenter"",""1"",""11701""
","
","
","""event"",""trial"",""time""
""fullscreenenter"",""1"",""11701""
","
","","","","","","1387.1999999999534","<p> You will have 3 seconds to make each choice. Try to respond before time runs out! </p><p> You will lose 5 points each time you do not make a response. </p>","","0","instructions","","","","","","","","","","",""
"learning-instructions","22","250317","0.0-8.0-0.0-0.14","3821","1","12","Male","approach_avoid_spark_v1","""event"",""trial"",""time""
""fullscreenenter"",""1"",""11701""
","
","
","""event"",""trial"",""time""
""fullscreenenter"",""1"",""11701""
","
","","","","","","1255.1000000000931","<p> This is just a practice round, but in the real game, your bonus payment will depend on your total number of points.","","0","instructions","","","","","","","","","","",""
"learning-instructions","23","257871","0.0-8.0-0.0-0.15","3821","1","12","Male","approach_avoid_spark_v1","""event"",""trial"",""time""
""fullscreenenter"",""1"",""11701""
","
","
","""event"",""trial"",""time""
""fullscreenenter"",""1"",""11701""
","
","","","","","","1778.8999999999069","<p> Remember, you can give them the equipment by pressing 1 and choose not to give it to them by pressing 0. </p><br><div class=""choice-instructions-grid""> <div class=""choice-option""><img src=""images/approach.png"" class=""choice-option-img"" stage=""instructions"" position=""0"" ><div class=""choice-option-text""> Press ""1."" </div></div><div class=""choice-option""><img src=""images/avoid.png"" class=""choice-option-img"" stage=""instructions"" position=""1"" ><div class=""choice-option-text""> Press ""0."" </div></div>","","0","instructions","","","","","","","","","","",""
"html-button-response","24","261637","0.0-8.0-1.0","3821","1","12","Male","approach_avoid_spark_v1","""event"",""trial"",""time""
""fullscreenenter"",""1"",""11701""
","
","
","""event"",""trial"",""time""
""fullscreenenter"",""1"",""11701""
","
","","","","","","3648.600000000093","<p> Ready to practice? </p>","0","","","","","","","","","","","","",""
"html-keyboard-response","25","262280","0.0-8.0-2.0-0.0","3821","1","12","Male","approach_avoid_spark_v1","""event"",""trial"",""time""
""fullscreenenter"",""1"",""11701""
","
","
","""event"",""trial"",""time""
""fullscreenenter"",""1"",""11701""
","
","","","","","","null","<div style=""font-size:60px;"">+</div>","null","","fixation","","","","","","","","","","",""
"aa-learning-trial","26","265300","0.0-8.0-2.0-1.0","3821","1","12","Male","approach_avoid_spark_v1","""event"",""trial"",""time""
""fullscreenenter"",""1"",""11701""
","
","
","""event"",""trial"",""time""
""fullscreenenter"",""1"",""11701""
","
","","","","","","1727.6000000000931","images/ball3.png","","","learning","-8","-8","1","1","practice","practice","practice","-1","","",""
"html-keyboard-response","27","265808","0.0-8.0-2.0-0.1","3821","1","12","Male","approach_avoid_spark_v1","""event"",""trial"",""time""
""fullscreenenter"",""1"",""11701""
","
","
","""event"",""trial"",""time""
""fullscreenenter"",""1"",""11701""
","
","","","","","","null","<div style=""font-size:60px;"">+</div>","null","","fixation","","","","","","","","","","",""
"aa-learning-trial","28","268830","0.0-8.0-2.0-1.1","3821","1","12","Male","approach_avoid_spark_v1","""event"",""trial"",""time""
""fullscreenenter"",""1"",""11701""
","
","
","""event"",""trial"",""time""
""fullscreenenter"",""1"",""11701""
","
","","","","","","1276.8999999999069","images/ball3.png","","","learning","8","0","0","0","practice","practice","practice","-1","","",""
"html-keyboard-response","29","269340","0.0-8.0-2.0-0.2","3821","1","12","Male","approach_avoid_spark_v1","""event"",""trial"",""time""
""fullscreenenter"",""1"",""11701""
","
","
","""event"",""trial"",""time""
""fullscreenenter"",""1"",""11701""
","
","","","","","","null","<div style=""font-size:60px;"">+</div>","null","","fixation","","","","","","","","","","",""
"aa-learning-trial","30","272347","0.0-8.0-2.0-1.2","3821","1","12","Male","approach_avoid_spark_v1","""event"",""trial"",""time""
""fullscreenenter"",""1"",""11701""
","
","
","""event"",""trial"",""time""
""fullscreenenter"",""1"",""11701""
","
","","","","","","1988.7999999998137","images/ball4.png","","","learning","3","3","1","1","practice","practice","practice","-1","","",""
"html-keyboard-response","31","272860","0.0-8.0-2.0-0.3","3821","1","12","Male","approach_avoid_spark_v1","""event"",""trial"",""time""
""fullscreenenter"",""1"",""11701""
","
","
","""event"",""trial"",""time""
""fullscreenenter"",""1"",""11701""
","
","","","","","","null","<div style=""font-size:60px;"">+</div>","null","","fixation","","","","","","","","","","",""
"aa-learning-trial","32","275871","0.0-8.0-2.0-1.3","3821","1","12","Male","approach_avoid_spark_v1","""event"",""trial"",""time""
""fullscreenenter"",""1"",""11701""
","
","
","""event"",""trial"",""time""
""fullscreenenter"",""1"",""11701""
","
","","","","","","null","images/racket2.png","","","learning","-9","-5","","null","practice","practice","practice","-1","","",""
"html-keyboard-response","33","276380","0.0-8.0-2.0-0.4","3821","1","12","Male","approach_avoid_spark_v1","""event"",""trial"",""time""
""fullscreenenter"",""1"",""11701""
","
","
","""event"",""trial"",""time""
""fullscreenenter"",""1"",""11701""
","
","","","","","","null","<div style=""font-size:60px;"">+</div>","null","","fixation","","","","","","","","","","",""
"aa-learning-trial","34","279397","0.0-8.0-2.0-1.4","3821","1","12","Male","approach_avoid_spark_v1","""event"",""trial"",""time""
""fullscreenenter"",""1"",""11701""
","
","
","""event"",""trial"",""time""
""fullscreenenter"",""1"",""11701""
","
","","","","","","2171.6999999999534","images/ball2.png","","","learning","-5","-5","1","1","practice","practice","practice","-1","","",""
"html-keyboard-response","35","279920","0.0-8.0-2.0-0.5","3821","1","12","Male","approach_avoid_spark_v1","""event"",""trial"",""time""
""fullscreenenter"",""1"",""11701""
","
","
","""event"",""trial"",""time""
""fullscreenenter"",""1"",""11701""
","
","","","","","","null","<div style=""font-size:60px;"">+</div>","null","","fixation","","","","","","","","","","",""
"aa-learning-trial","36","282930","0.0-8.0-2.0-1.5","3821","1","12","Male","approach_avoid_spark_v1","""event"",""trial"",""time""
""fullscreenenter"",""1"",""11701""
","
","
","""event"",""trial"",""time""
""fullscreenenter"",""1"",""11701""
","
","","","","","","866.5999999998603","images/ball1.png","","","learning","3","0","0","0","practice","practice","practice","-1","","",""
"html-keyboard-response","37","283440","0.0-8.0-2.0-0.6","3821","1","12","Male","approach_avoid_spark_v1","""event"",""trial"",""time""
""fullscreenenter"",""1"",""11701""
","
","
","""event"",""trial"",""time""
""fullscreenenter"",""1"",""11701""
","
","","","","","","null","<div style=""font-size:60px;"">+</div>","null","","fixation","","","","","","","","","","",""
"aa-learning-trial","38","286448","0.0-8.0-2.0-1.6","3821","1","12","Male","approach_avoid_spark_v1","""event"",""trial"",""time""
""fullscreenenter"",""1"",""11701""
","
","
","""event"",""trial"",""time""
""fullscreenenter"",""1"",""11701""
","
","","","","","","1460.9000000001397","images/racket4.png","","","learning","-4","-4","1","1","practice","practice","practice","-1","","",""
"html-keyboard-response","39","286952","0.0-8.0-2.0-0.7","3821","1","12","Male","approach_avoid_spark_v1","""event"",""trial"",""time""
""fullscreenenter"",""1"",""11701""
","
","
","""event"",""trial"",""time""
""fullscreenenter"",""1"",""11701""
","
","","","","","","null","<div style=""font-size:60px;"">+</div>","null","","fixation","","","","","","","","","","",""
"aa-learning-trial","40","289960","0.0-8.0-2.0-1.7","3821","1","12","Male","approach_avoid_spark_v1","""event"",""trial"",""time""
""fullscreenenter"",""1"",""11701""
","
","
","""event"",""trial"",""time""
""fullscreenenter"",""1"",""11701""
","
","","","","","","1070.3999999999069","images/ball3.png","","","learning","-8","0","0","0","practice","practice","practice","-1","","",""
"html-keyboard-response","41","290464","0.0-8.0-2.0-0.8","3821","1","12","Male","approach_avoid_spark_v1","""event"",""trial"",""time""
""fullscreenenter"",""1"",""11701""
","
","
","""event"",""trial"",""time""
""fullscreenenter"",""1"",""11701""
","
","","","","","","null","<div style=""font-size:60px;"">+</div>","null","","fixation","","","","","","","","","","",""
"aa-learning-trial","42","293472","0.0-8.0-2.0-1.8","3821","1","12","Male","approach_avoid_spark_v1","""event"",""trial"",""time""
""fullscreenenter"",""1"",""11701""
","
","
","""event"",""trial"",""time""
""fullscreenenter"",""1"",""11701""
","
","","","","","","925.6999999999534","images/racket3.png","","","learning","4","4","1","1","practice","practice","practice","-1","","",""
"html-keyboard-response","43","293978","0.0-8.0-2.0-0.9","3821","1","12","Male","approach_avoid_spark_v1","""event"",""trial"",""time""
""fullscreenenter"",""1"",""11701""
","
","
","""event"",""trial"",""time""
""fullscreenenter"",""1"",""11701""
","
","","","","","","null","<div style=""font-size:60px;"">+</div>","null","","fixation","","","","","","","","","","",""
"aa-learning-trial","44","296984","0.0-8.0-2.0-1.9","3821","1","12","Male","approach_avoid_spark_v1","""event"",""trial"",""time""
""fullscreenenter"",""1"",""11701""
","
","
","""event"",""trial"",""time""
""fullscreenenter"",""1"",""11701""
","
","","","","","","639.8000000000466","images/ball1.png","","","learning","-8","-8","1","1","practice","practice","practice","-1","","",""
"html-keyboard-response","45","297488","0.0-8.0-2.0-0.10","3821","1","12","Male","approach_avoid_spark_v1","""event"",""trial"",""time""
""fullscreenenter"",""1"",""11701""
","
","
","""event"",""trial"",""time""
""fullscreenenter"",""1"",""11701""
","
","","","","","","null","<div style=""font-size:60px;"">+</div>","null","","fixation","","","","","","","","","","",""
"aa-learning-trial","46","300497","0.0-8.0-2.0-1.10","3821","1","12","Male","approach_avoid_spark_v1","""event"",""trial"",""time""
""fullscreenenter"",""1"",""11701""
","
","
","""event"",""trial"",""time""
""fullscreenenter"",""1"",""11701""
","
","","","","","","2806.4000000001397","images/racket1.png","","","learning","8","0","0","0","practice","practice","practice","-1","","",""
"html-keyboard-response","47","301001","0.0-8.0-2.0-0.11","3821","1","12","Male","approach_avoid_spark_v1","""event"",""trial"",""time""
""fullscreenenter"",""1"",""11701""
","
","
","""event"",""trial"",""time""
""fullscreenenter"",""1"",""11701""
","
","","","","","","null","<div style=""font-size:60px;"">+</div>","null","","fixation","","","","","","","","","","",""
"aa-learning-trial","48","304010","0.0-8.0-2.0-1.11","3821","1","12","Male","approach_avoid_spark_v1","""event"",""trial"",""time""
""fullscreenenter"",""1"",""11701""
","
","
","""event"",""trial"",""time""
""fullscreenenter"",""1"",""11701""
","
","","","","","","1706.6000000000931","images/racket2.png","","","learning","-1","-1","1","1","practice","practice","practice","-1","","",""
"html-button-response","49","307515","0.0-8.0-3.0","3821","1","12","Male","approach_avoid_spark_v1","""event"",""trial"",""time""
""fullscreenenter"",""1"",""11701""
","
","
","""event"",""trial"",""time""
""fullscreenenter"",""1"",""11701""
","
","","","","","","3500.600000000093","<p> You earned -24 points in the practice round! </p>","0","","break","","","","","","","","","","",""
"learning-instructions","50","315433","0.0-8.0-4.0-0.0","3821","1","12","Male","approach_avoid_spark_v1","""event"",""trial"",""time""
""fullscreenenter"",""1"",""11701""
","
","
","""event"",""trial"",""time""
""fullscreenenter"",""1"",""11701""
","
","","","","","","1194.5","<p> It's almost time to start the real game. </p><p> Before you start, we're going to ask you a few questions about how the game works. </p>","","0","instructions","","","","","","","","","","",""
"preload","51","317223","0.0-8.0-5.0","3821","1","12","Male","approach_avoid_spark_v1","""event"",""trial"",""time""
""fullscreenenter"",""1"",""11701""
","
","
","""event"",""trial"",""time""
""fullscreenenter"",""1"",""11701""
","
","true","false","[]","[]","[]","","","","","","","","","","","","","","","",""
"comp-q","52","323360","0.0-8.0-6.0-0.0","3821","1","12","Male","approach_avoid_spark_v1","""event"",""trial"",""time""
""fullscreenenter"",""1"",""11701""
","
","
","""event"",""trial"",""time""
""fullscreenenter"",""1"",""11701""
","
","","","","","","1142.1000000000931","<p> <b> True or False? </b> </p><p> If you see a number in GREY, that means you earned that many points. </p>","","1","comp_question","","","","","","","","","true","",""
"comp-q","53","332841","0.0-8.0-6.0-1.0","3821","1","12","Male","approach_avoid_spark_v1","""event"",""trial"",""time""
""fullscreenenter"",""1"",""11701""
","
","
","""event"",""trial"",""time""
""fullscreenenter"",""1"",""11701""
","
","","","","","","1102.3000000000466","<p><b> That's right! </b> If you see a grey number, it means you earned ZERO points. <br> The grey numbers show the points you WOULD HAVE earned if you had made the other choice. </p>","","0","comp_answer","","","","","","","","","","",""
"comp-q","54","339380","0.0-8.0-7.0-0.0","3821","1","12","Male","approach_avoid_spark_v1","""event"",""trial"",""time""
""fullscreenenter"",""1"",""11701""
","
","
","""event"",""trial"",""time""
""fullscreenenter"",""1"",""11701""
","
","","","","","","1831.6999999999534","<p> <b> True or False? </b> </p><p> You will have as much time as you want to make each choice. </p>","","1","comp_question","","","","","","","","","true","",""
"comp-q","55","344367","0.0-8.0-7.0-1.0","3821","1","12","Male","approach_avoid_spark_v1","""event"",""trial"",""time""
""fullscreenenter"",""1"",""11701""
","
","
","""event"",""trial"",""time""
""fullscreenenter"",""1"",""11701""
","
","","","","","","918.8000000000466","<p> <b> That's right! </b> You will only have 3 seconds to make each choice. </p>","","0","comp_answer","","","","","","","","","","",""
"comp-q","56","349585","0.0-8.0-8.0-0.0","3821","1","12","Male","approach_avoid_spark_v1","""event"",""trial"",""time""
""fullscreenenter"",""1"",""11701""
","
","
","""event"",""trial"",""time""
""fullscreenenter"",""1"",""11701""
","
","","","","","","557","<p> <b> True or False? </b> </p><p> You should use the '1' and '0' keys to make your choices. </p>","","1","comp_question","","","","","","","","","false","",""
"comp-q","57","354913","0.0-8.0-8.0-1.0","3821","1","12","Male","approach_avoid_spark_v1","""event"",""trial"",""time""
""fullscreenenter"",""1"",""11701""
","
","
","""event"",""trial"",""time""
""fullscreenenter"",""1"",""11701""
","
","","","","","","775","<p> <b>Incorrect.</b> You <i>should</i> use the '1' and '0' keys to make each choice. </p>","","0","comp_answer","","","","","","","","","","",""
"comp-q","58","360290","0.0-8.0-8.1-0.1","3821","1","12","Male","approach_avoid_spark_v1","""event"",""trial"",""time""
""fullscreenenter"",""1"",""11701""
","
","
","""event"",""trial"",""time""
""fullscreenenter"",""1"",""11701""
","
","","","","","","701.6999999999534","<p> <b> True or False? </b> </p><p> You should use the '1' and '0' keys to make your choices. </p>","","0","comp_question","","","","","","","","","true","",""
"comp-q","59","365807","0.0-8.0-8.1-1.1","3821","1","12","Male","approach_avoid_spark_v1","""event"",""trial"",""time""
""fullscreenenter"",""1"",""11701""
","
","
","""event"",""trial"",""time""
""fullscreenenter"",""1"",""11701""
","
","","","","","","889.2000000001863","<p> <b> That's right! </b> You should use the '1' and '0' keys to make each choice. </p>","","0","comp_answer","","","","","","","","","","",""
"learning-instructions","60","373086","0.0-8.0-9.0-0.0","3821","1","12","Male","approach_avoid_spark_v1","""event"",""trial"",""time""
""fullscreenenter"",""1"",""11701""
","
","
","""event"",""trial"",""time""
""fullscreenenter"",""1"",""11701""
","
","","","","","","998.3999999999069","<p> It's now time to start the real game. </p>Do your best, because the points you earn in the next rounds will influence your bonus payment. </p>","","0","instructions","","","","","","","","","","",""
"preload","61","373242","0.0-9.0-0.0","3821","1","12","Male","approach_avoid_spark_v1","""event"",""trial"",""time""
""fullscreenenter"",""1"",""11701""
","
","
","""event"",""trial"",""time""
""fullscreenenter"",""1"",""11701""
","
","true","false","[]","[]","[]","","","","","","","","","","","","","","","",""
"learning-instructions","62","379431","0.0-9.0-1.0-0.0","3821","1","12","Male","approach_avoid_spark_v1","""event"",""trial"",""time""
""fullscreenenter"",""1"",""11701""
","
","
","""event"",""trial"",""time""
""fullscreenenter"",""1"",""11701""
","
","","","","","","843.5999999998603","<p> Your goal in this round is to sell different plants to a picky customer. </p></div>","","0","instructions","","","","","","","","","","",""
"learning-instructions","63","390792","0.0-9.0-1.0-0.1","3821","1","12","Male","approach_avoid_spark_v1","""event"",""trial"",""time""
""fullscreenenter"",""1"",""11701""
","
","
","""event"",""trial"",""time""
""fullscreenenter"",""1"",""11701""
","
","","","","","","1322.5999999998603","<p> The customer likes some plants and dislikes others.  </p><p> On each turn, you will see a plant.   </p><p> You need to decide whether to offer it to the customer or not.  </p>","","0","instructions","","","","","","","","","","",""
"learning-instructions","64","398809","0.0-9.0-1.0-0.2","3821","1","12","Male","approach_avoid_spark_v1","""event"",""trial"",""time""
""fullscreenenter"",""1"",""11701""
","
","
","""event"",""trial"",""time""
""fullscreenenter"",""1"",""11701""
","
","","","","","","2080.100000000093","<p> You can offer the plant by pressing 1 and decide to not offer it by pressing 0. </p><br><div class=""choice-instructions-grid""> <div class=""choice-option""><img src=""images/approach.png"" class=""choice-option-img"" stage=""instructions"" position=""0"" ><div class=""choice-option-text""> Press ""1."" </div></div><div class=""choice-option""><img src=""images/avoid.png"" class=""choice-option-img"" stage=""instructions"" position=""1"" ><div class=""choice-option-text""> Press ""0."" </div></div>","","0","instructions","","","","","","","","","","",""
"learning-instructions","65","409350","0.0-9.0-1.0-0.3","3821","1","12","Male","approach_avoid_spark_v1","""event"",""trial"",""time""
""fullscreenenter"",""1"",""11701""
","
","
","""event"",""trial"",""time""
""fullscreenenter"",""1"",""11701""
","
","","","","","","1111.9000000001397","<p> If you offer a plant to the customer that she likes, she will be very pleased! </p><p> But if you offer a plant that she does NOT like, she will be annoyed. </p>","","0","instructions","","","","","","","","","","",""
"learning-instructions","66","423819","0.0-9.0-1.0-0.4","3821","1","12","Male","approach_avoid_spark_v1","""event"",""trial"",""time""
""fullscreenenter"",""1"",""11701""
","
","
","""event"",""trial"",""time""
""fullscreenenter"",""1"",""11701""
","
","","","","","","1741.6000000000931","<p> You will earn points based on how you made the customer feel. </p><p> If you made her pleased, you will WIN anywhere from 1 - 9 points, </p><p> but if you made her annoyed, you will LOSE anywhere from 1 - 9 points. </p>","","0","instructions","","","","","","","","","","",""
"learning-instructions","67","435890","0.0-9.0-1.0-0.5","3821","1","12","Male","approach_avoid_spark_v1","""event"",""trial"",""time""
""fullscreenenter"",""1"",""11701""
","
","
","""event"",""trial"",""time""
""fullscreenenter"",""1"",""11701""
","
","","","","","","4152.399999999907","<p> You will see how many points you won or lost in the center of the screen. </p><p> Here is what you would see if you won 5 points: </p><p style=""color:green;font-size:50px;font-weight:bolder"">5</p>","","0","instructions","","","","","","","","","","",""
"learning-instructions","68","442202","0.0-9.0-1.0-0.6","3821","1","12","Male","approach_avoid_spark_v1","""event"",""trial"",""time""
""fullscreenenter"",""1"",""11701""
","
","
","""event"",""trial"",""time""
""fullscreenenter"",""1"",""11701""
","
","","","","","","2514.5999999998603","<p> And here is what you would see if you lost 3 points: </p><p style=""color:red;font-size:50px;font-weight:bolder"">-3</p>","","0","instructions","","","","","","","","","","",""
"learning-instructions","69","457995","0.0-9.0-1.0-0.7","3821","1","12","Male","approach_avoid_spark_v1","""event"",""trial"",""time""
""fullscreenenter"",""1"",""11701""
","
","
","""event"",""trial"",""time""
""fullscreenenter"",""1"",""11701""
","
","","","","","","1126.8000000000466","<p> Some plants will make the customer VERY pleased or annoyed. </p><p> These plants will make you win or lose LOTS of points. </p><p> The customer will have less strong feelings about other plants. </p><p> These plants will make you win or lose small amounts of points. </p>","","0","instructions","","","","","","","","","","",""
"learning-instructions","70","473850","0.0-9.0-1.0-0.8","3821","1","12","Male","approach_avoid_spark_v1","""event"",""trial"",""time""
""fullscreenenter"",""1"",""11701""
","
","
","""event"",""trial"",""time""
""fullscreenenter"",""1"",""11701""
","
","","","","","","2692.8000000000466","<p> If you choose to not offer the plant to the customer, you will not win or lose any points. </p><p>  However, in the center of the screen, you will see the number of points you WOULD HAVE won or lost if you had offered the plant. </p>","","0","instructions","","","","","","","","","","",""
"learning-instructions","71","485894","0.0-9.0-1.0-0.9","3821","1","12","Male","approach_avoid_spark_v1","""event"",""trial"",""time""
""fullscreenenter"",""1"",""11701""
","
","
","""event"",""trial"",""time""
""fullscreenenter"",""1"",""11701""
","
","","","","","","195.9000000001397","<p> Here is what you might see if you did not offer the plant but the customer would have liked it: </p><p style=""color:grey; font-size:50px; display: inline-block; border-spacing: 15px; border-width:3px; border-style:solid; border-color:red"">  &nbsp; 6 &nbsp; </p><p> Remember, in this case, you would not win or lose ANY points because you did not offer the plant.  </p>","","0","instructions","","","","","","","","","","",""
"learning-instructions","72","494893","0.0-9.0-1.0-0.10","3821","1","12","Male","approach_avoid_spark_v1","""event"",""trial"",""time""
""fullscreenenter"",""1"",""11701""
","
","
","""event"",""trial"",""time""
""fullscreenenter"",""1"",""11701""
","
","","","","","","1035.2999999998137","<p> Try to make the best choice for each plant because </p><p> at the end of the game, you will earn bonus money based on how many points you earned. </p>","","0","instructions","","","","","","","","","","",""
"learning-instructions","73","504040","0.0-9.0-1.0-0.11","3821","1","12","Male","approach_avoid_spark_v1","""event"",""trial"",""time""
""fullscreenenter"",""1"",""11701""
","
","
","""event"",""trial"",""time""
""fullscreenenter"",""1"",""11701""
","
","","","","","","932.2999999998137","<p> You will have 3 seconds to make each choice. Try to respond before time runs out! </p><p> You will lose 5 points each time you do not make a response. </p>","","0","instructions","","","","","","","","","","",""
"html-keyboard-response","74","504647","0.0-9.0-2.0-0.0","3821","1","12","Male","approach_avoid_spark_v1","""event"",""trial"",""time""
""fullscreenenter"",""1"",""11701""
","
","
","""event"",""trial"",""time""
""fullscreenenter"",""1"",""11701""
","
","","","","","","null","<div style=""font-size:60px;"">+</div>","null","","fixation","","","","","","","","","","",""
"aa-learning-trial","75","507657","0.0-9.0-2.0-1.0","3821","1","12","Male","approach_avoid_spark_v1","""event"",""trial"",""time""
""fullscreenenter"",""1"",""11701""
","
","
","""event"",""trial"",""time""
""fullscreenenter"",""1"",""11701""
","
","","","","","","1418.8999999999069","images/flower4.png","","","learning","[-1]","0","0","0","flower","plants","1","0","","neutral","0"
"html-keyboard-response","76","508166","0.0-9.0-2.0-0.1","3821","1","12","Male","approach_avoid_spark_v1","""event"",""trial"",""time""
""fullscreenenter"",""1"",""11701""
","
","
","""event"",""trial"",""time""
""fullscreenenter"",""1"",""11701""
","
","","","","","","null","<div style=""font-size:60px;"">+</div>","null","","fixation","","","","","","","","","","",""
"aa-learning-trial","77","511187","0.0-9.0-2.0-1.1","3821","1","12","Male","approach_avoid_spark_v1","""event"",""trial"",""time""
""fullscreenenter"",""1"",""11701""
","
","
","""event"",""trial"",""time""
""fullscreenenter"",""1"",""11701""
","
","","","","","","753.4000000001397","images/bush4.png","","","learning","5","5","1","1","bush","plants","1","0","","good","[5]"
"html-keyboard-response","78","511696","0.0-9.0-2.0-0.2","3821","1","12","Male","approach_avoid_spark_v1","""event"",""trial"",""time""
""fullscreenenter"",""1"",""11701""
","
","
","""event"",""trial"",""time""
""fullscreenenter"",""1"",""11701""
","
","","","","","","null","<div style=""font-size:60px;"">+</div>","null","","fixation","","","","","","","","","","",""
"aa-learning-trial","79","514707","0.0-9.0-2.0-1.2","3821","1","12","Male","approach_avoid_spark_v1","""event"",""trial"",""time""
""fullscreenenter"",""1"",""11701""
","
","
","""event"",""trial"",""time""
""fullscreenenter"",""1"",""11701""
","
","","","","","","1038.8999999999069","images/bush4.png","","","learning","6","6","1","1","bush","plants","1","0","","good","[5]"
"html-keyboard-response","80","515217","0.0-9.0-2.0-0.3","3821","1","12","Male","approach_avoid_spark_v1","""event"",""trial"",""time""
""fullscreenenter"",""1"",""11701""
","
","
","""event"",""trial"",""time""
""fullscreenenter"",""1"",""11701""
","
","","","","","","null","<div style=""font-size:60px;"">+</div>","null","","fixation","","","","","","","","","","",""
"aa-learning-trial","81","518236","0.0-9.0-2.0-1.3","3821","1","12","Male","approach_avoid_spark_v1","""event"",""trial"",""time""
""fullscreenenter"",""1"",""11701""
","
","
","""event"",""trial"",""time""
""fullscreenenter"",""1"",""11701""
","
","","","","","","1261.8999999999069","images/tree7.png","","","learning","-6","0","0","0","tree","plants","1","0","","bad","[-6]"
"html-keyboard-response","82","518746","0.0-9.0-2.0-0.4","3821","1","12","Male","approach_avoid_spark_v1","""event"",""trial"",""time""
""fullscreenenter"",""1"",""11701""
","
","
","""event"",""trial"",""time""
""fullscreenenter"",""1"",""11701""
","
","","","","","","null","<div style=""font-size:60px;"">+</div>","null","","fixation","","","","","","","","","","",""
"aa-learning-trial","83","521767","0.0-9.0-2.0-1.4","3821","1","12","Male","approach_avoid_spark_v1","""event"",""trial"",""time""
""fullscreenenter"",""1"",""11701""
","
","
","""event"",""trial"",""time""
""fullscreenenter"",""1"",""11701""
","
","","","","","","1392.6999999999534","images/flower4.png","","","learning","-2","-2","1","1","flower","plants","1","0","","neutral","0"
"html-keyboard-response","84","522276","0.0-9.0-2.0-0.5","3821","1","12","Male","approach_avoid_spark_v1","""event"",""trial"",""time""
""fullscreenenter"",""1"",""11701""
","
","
","""event"",""trial"",""time""
""fullscreenenter"",""1"",""11701""
","
","","","","","","null","<div style=""font-size:60px;"">+</div>","null","","fixation","","","","","","","","","","",""
"aa-learning-trial","85","525297","0.0-9.0-2.0-1.5","3821","1","12","Male","approach_avoid_spark_v1","""event"",""trial"",""time""
""fullscreenenter"",""1"",""11701""
","
","
","""event"",""trial"",""time""
""fullscreenenter"",""1"",""11701""
","
","","","","","","829.2000000001863","images/bush5.png","","","learning","3","0","0","0","bush","plants","1","0","","good","[5]"
"html-keyboard-response","86","525816","0.0-9.0-2.0-0.6","3821","1","12","Male","approach_avoid_spark_v1","""event"",""trial"",""time""
""fullscreenenter"",""1"",""11701""
","
","
","""event"",""trial"",""time""
""fullscreenenter"",""1"",""11701""
","
","","","","","","null","<div style=""font-size:60px;"">+</div>","null","","fixation","","","","","","","","","","",""
"aa-learning-trial","87","528837","0.0-9.0-2.0-1.6","3821","1","12","Male","approach_avoid_spark_v1","""event"",""trial"",""time""
""fullscreenenter"",""1"",""11701""
","
","
","""event"",""trial"",""time""
""fullscreenenter"",""1"",""11701""
","
","","","","","","1062.6999999999534","images/tree5.png","","","learning","-5","-5","1","1","tree","plants","1","0","","bad","[-6]"
"html-keyboard-response","88","529356","0.0-9.0-2.0-0.7","3821","1","12","Male","approach_avoid_spark_v1","""event"",""trial"",""time""
""fullscreenenter"",""1"",""11701""
","
","
","""event"",""trial"",""time""
""fullscreenenter"",""1"",""11701""
","
","","","","","","null","<div style=""font-size:60px;"">+</div>","null","","fixation","","","","","","","","","","",""
"aa-learning-trial","89","532369","0.0-9.0-2.0-1.7","3821","1","12","Male","approach_avoid_spark_v1","""event"",""trial"",""time""
""fullscreenenter"",""1"",""11701""
","
","
","""event"",""trial"",""time""
""fullscreenenter"",""1"",""11701""
","
","","","","","","1951","images/bush8.png","","","learning","6","6","1","1","bush","plants","1","0","","good","[5]"
"html-keyboard-response","90","532877","0.0-9.0-2.0-0.8","3821","1","12","Male","approach_avoid_spark_v1","""event"",""trial"",""time""
""fullscreenenter"",""1"",""11701""
","
","
","""event"",""trial"",""time""
""fullscreenenter"",""1"",""11701""
","
","","","","","","null","<div style=""font-size:60px;"">+</div>","null","","fixation","","","","","","","","","","",""
"aa-learning-trial","91","535880","0.0-9.0-2.0-1.8","3821","1","12","Male","approach_avoid_spark_v1","""event"",""trial"",""time""
""fullscreenenter"",""1"",""11701""
","
","
","""event"",""trial"",""time""
""fullscreenenter"",""1"",""11701""
","
","","","","","","1910.7000000001863","images/tree3.png","","","learning","-8","0","0","0","tree","plants","1","0","","bad","[-6]"
"html-keyboard-response","92","536386","0.0-9.0-2.0-0.9","3821","1","12","Male","approach_avoid_spark_v1","""event"",""trial"",""time""
""fullscreenenter"",""1"",""11701""
","
","
","""event"",""trial"",""time""
""fullscreenenter"",""1"",""11701""
","
","","","","","","null","<div style=""font-size:60px;"">+</div>","null","","fixation","","","","","","","","","","",""
"aa-learning-trial","93","539393","0.0-9.0-2.0-1.9","3821","1","12","Male","approach_avoid_spark_v1","""event"",""trial"",""time""
""fullscreenenter"",""1"",""11701""
","
","
","""event"",""trial"",""time""
""fullscreenenter"",""1"",""11701""
","
","","","","","","1345.3000000000466","images/flower2.png","","","learning","-1","-1","1","1","flower","plants","1","0","","neutral","0"
"html-keyboard-response","94","539897","0.0-9.0-2.0-0.10","3821","1","12","Male","approach_avoid_spark_v1","""event"",""trial"",""time""
""fullscreenenter"",""1"",""11701""
","
","
","""event"",""trial"",""time""
""fullscreenenter"",""1"",""11701""
","
","","","","","","null","<div style=""font-size:60px;"">+</div>","null","","fixation","","","","","","","","","","",""
"aa-learning-trial","95","542904","0.0-9.0-2.0-1.10","3821","1","12","Male","approach_avoid_spark_v1","""event"",""trial"",""time""
""fullscreenenter"",""1"",""11701""
","
","
","""event"",""trial"",""time""
""fullscreenenter"",""1"",""11701""
","
","","","","","","1687.9000000001397","images/bush5.png","","","learning","5","0","0","0","bush","plants","1","0","","good","[5]"
"html-keyboard-response","96","543408","0.0-9.0-2.0-0.11","3821","1","12","Male","approach_avoid_spark_v1","""event"",""trial"",""time""
""fullscreenenter"",""1"",""11701""
","
","
","""event"",""trial"",""time""
""fullscreenenter"",""1"",""11701""
","
","","","","","","null","<div style=""font-size:60px;"">+</div>","null","","fixation","","","","","","","","","","",""
"aa-learning-trial","97","546417","0.0-9.0-2.0-1.11","3821","1","12","Male","approach_avoid_spark_v1","""event"",""trial"",""time""
""fullscreenenter"",""1"",""11701""
","
","
","""event"",""trial"",""time""
""fullscreenenter"",""1"",""11701""
","
","","","","","","856.2999999998137","images/tree3.png","","","learning","-7","0","0","0","tree","plants","1","0","","bad","[-6]"
"html-keyboard-response","98","546920","0.0-9.0-2.0-0.12","3821","1","12","Male","approach_avoid_spark_v1","""event"",""trial"",""time""
""fullscreenenter"",""1"",""11701""
","
","
","""event"",""trial"",""time""
""fullscreenenter"",""1"",""11701""
","
","","","","","","null","<div style=""font-size:60px;"">+</div>","null","","fixation","","","","","","","","","","",""
"aa-learning-trial","99","549928","0.0-9.0-2.0-1.12","3821","1","12","Male","approach_avoid_spark_v1","""event"",""trial"",""time""
""fullscreenenter"",""1"",""11701""
","
","
","""event"",""trial"",""time""
""fullscreenenter"",""1"",""11701""
","
","","","","","","544.8000000000466","images/flower2.png","","","learning","[-1]","-1","1","1","flower","plants","1","0","","neutral","0"
"html-keyboard-response","100","550434","0.0-9.0-2.0-0.13","3821","1","12","Male","approach_avoid_spark_v1","""event"",""trial"",""time""
""fullscreenenter"",""1"",""11701""
","
","
","""event"",""trial"",""time""
""fullscreenenter"",""1"",""11701""
","
","","","","","","null","<div style=""font-size:60px;"">+</div>","null","","fixation","","","","","","","","","","",""
"aa-learning-trial","101","553442","0.0-9.0-2.0-1.13","3821","1","12","Male","approach_avoid_spark_v1","""event"",""trial"",""time""
""fullscreenenter"",""1"",""11701""
","
","
","""event"",""trial"",""time""
""fullscreenenter"",""1"",""11701""
","
","","","","","","1108.1000000000931","images/flower6.png","","","learning","[1]","0","0","0","flower","plants","1","0","","neutral","0"
"html-keyboard-response","102","553944","0.0-9.0-2.0-0.14","3821","1","12","Male","approach_avoid_spark_v1","""event"",""trial"",""time""
""fullscreenenter"",""1"",""11701""
","
","
","""event"",""trial"",""time""
""fullscreenenter"",""1"",""11701""
","
","","","","","","null","<div style=""font-size:60px;"">+</div>","null","","fixation","","","","","","","","","","",""
"aa-learning-trial","103","556953","0.0-9.0-2.0-1.14","3821","1","12","Male","approach_avoid_spark_v1","""event"",""trial"",""time""
""fullscreenenter"",""1"",""11701""
","
","
","""event"",""trial"",""time""
""fullscreenenter"",""1"",""11701""
","
","","","","","","1254.8999999999069","images/tree5.png","","","learning","-6","-6","1","1","tree","plants","1","0","","bad","[-6]"
"html-keyboard-response","104","557456","0.0-9.0-2.0-0.15","3821","1","12","Male","approach_avoid_spark_v1","""event"",""trial"",""time""
""fullscreenenter"",""1"",""11701""
","
","
","""event"",""trial"",""time""
""fullscreenenter"",""1"",""11701""
","
","","","","","","null","<div style=""font-size:60px;"">+</div>","null","","fixation","","","","","","","","","","",""
"aa-learning-trial","105","560465","0.0-9.0-2.0-1.15","3821","1","12","Male","approach_avoid_spark_v1","""event"",""trial"",""time""
""fullscreenenter"",""1"",""11701""
","
","
","""event"",""trial"",""time""
""fullscreenenter"",""1"",""11701""
","
","","","","","","1247.1000000000931","images/bush5.png","","","learning","2","0","0","0","bush","plants","1","0","","good","[5]"
"html-keyboard-response","106","560968","0.0-9.0-2.0-0.16","3821","1","12","Male","approach_avoid_spark_v1","""event"",""trial"",""time""
""fullscreenenter"",""1"",""11701""
","
","
","""event"",""trial"",""time""
""fullscreenenter"",""1"",""11701""
","
","","","","","","null","<div style=""font-size:60px;"">+</div>","null","","fixation","","","","","","","","","","",""
"aa-learning-trial","107","563976","0.0-9.0-2.0-1.16","3821","1","12","Male","approach_avoid_spark_v1","""event"",""trial"",""time""
""fullscreenenter"",""1"",""11701""
","
","
","""event"",""trial"",""time""
""fullscreenenter"",""1"",""11701""
","
","","","","","","1359.1000000000931","images/flower4.png","","","learning","1","1","1","1","flower","plants","1","0","","neutral","0"
"html-keyboard-response","108","564480","0.0-9.0-2.0-0.17","3821","1","12","Male","approach_avoid_spark_v1","""event"",""trial"",""time""
""fullscreenenter"",""1"",""11701""
","
","
","""event"",""trial"",""time""
""fullscreenenter"",""1"",""11701""
","
","","","","","","null","<div style=""font-size:60px;"">+</div>","null","","fixation","","","","","","","","","","",""
"aa-learning-trial","109","567484","0.0-9.0-2.0-1.17","3821","1","12","Male","approach_avoid_spark_v1","""event"",""trial"",""time""
""fullscreenenter"",""1"",""11701""
","
","
","""event"",""trial"",""time""
""fullscreenenter"",""1"",""11701""
","
","","","","","","2201","images/flower4.png","","","learning","-2","-2","1","1","flower","plants","1","0","","neutral","0"
"html-keyboard-response","110","567993","0.0-9.0-2.0-0.18","3821","1","12","Male","approach_avoid_spark_v1","""event"",""trial"",""time""
""fullscreenenter"",""1"",""11701""
","
","
","""event"",""trial"",""time""
""fullscreenenter"",""1"",""11701""
","
","","","","","","null","<div style=""font-size:60px;"">+</div>","null","","fixation","","","","","","","","","","",""
"aa-learning-trial","111","571000","0.0-9.0-2.0-1.18","3821","1","12","Male","approach_avoid_spark_v1","""event"",""trial"",""time""
""fullscreenenter"",""1"",""11701""
","
","
","""event"",""trial"",""time""
""fullscreenenter"",""1"",""11701""
","
","","","","","","1888.1000000000931","images/bush4.png","","","learning","3","0","0","0","bush","plants","1","0","","good","[5]"
"html-keyboard-response","112","571504","0.0-9.0-2.0-0.19","3821","1","12","Male","approach_avoid_spark_v1","""event"",""trial"",""time""
""fullscreenenter"",""1"",""11701""
","
","
","""event"",""trial"",""time""
""fullscreenenter"",""1"",""11701""
","
","","","","","","null","<div style=""font-size:60px;"">+</div>","null","","fixation","","","","","","","","","","",""
"aa-learning-trial","113","574512","0.0-9.0-2.0-1.19","3821","1","12","Male","approach_avoid_spark_v1","""event"",""trial"",""time""
""fullscreenenter"",""1"",""11701""
","
","
","""event"",""trial"",""time""
""fullscreenenter"",""1"",""11701""
","
","","","","","","1859.1999999999534","images/flower1.png","","","learning","-4","-4","1","1","flower","plants","1","0","","neutral","0"
"html-keyboard-response","114","575016","0.0-9.0-2.0-0.20","3821","1","12","Male","approach_avoid_spark_v1","""event"",""trial"",""time""
""fullscreenenter"",""1"",""11701""
","
","
","""event"",""trial"",""time""
""fullscreenenter"",""1"",""11701""
","
","","","","","","null","<div style=""font-size:60px;"">+</div>","null","","fixation","","","","","","","","","","",""
"aa-learning-trial","115","578024","0.0-9.0-2.0-1.20","3821","1","12","Male","approach_avoid_spark_v1","""event"",""trial"",""time""
""fullscreenenter"",""1"",""11701""
","
","
","""event"",""trial"",""time""
""fullscreenenter"",""1"",""11701""
","
","","","","","","1649.2000000001863","images/tree5.png","","","learning","-6","0","0","0","tree","plants","1","0","","bad","[-6]"
"html-keyboard-response","116","578528","0.0-9.0-2.0-0.21","3821","1","12","Male","approach_avoid_spark_v1","""event"",""trial"",""time""
""fullscreenenter"",""1"",""11701""
","
","
","""event"",""trial"",""time""
""fullscreenenter"",""1"",""11701""
","
","","","","","","null","<div style=""font-size:60px;"">+</div>","null","","fixation","","","","","","","","","","",""
"aa-learning-trial","117","581536","0.0-9.0-2.0-1.21","3821","1","12","Male","approach_avoid_spark_v1","""event"",""trial"",""time""
""fullscreenenter"",""1"",""11701""
","
","
","""event"",""trial"",""time""
""fullscreenenter"",""1"",""11701""
","
","","","","","","null","images/tree1.png","","","learning","-6","-5","","null","tree","plants","1","0","","bad","[-6]"
"html-keyboard-response","118","582041","0.0-9.0-2.0-0.22","3821","1","12","Male","approach_avoid_spark_v1","""event"",""trial"",""time""
""fullscreenenter"",""1"",""11701""
","
","
","""event"",""trial"",""time""
""fullscreenenter"",""1"",""11701""
","
","","","","","","null","<div style=""font-size:60px;"">+</div>","null","","fixation","","","","","","","","","","",""
"aa-learning-trial","119","585050","0.0-9.0-2.0-1.22","3821","1","12","Male","approach_avoid_spark_v1","""event"",""trial"",""time""
""fullscreenenter"",""1"",""11701""
","
","
","""event"",""trial"",""time""
""fullscreenenter"",""1"",""11701""
","
","","","","","","1599.1999999999534","images/bush4.png","","","learning","5","5","1","1","bush","plants","1","0","","good","[5]"
"html-keyboard-response","120","585554","0.0-9.0-2.0-0.23","3821","1","12","Male","approach_avoid_spark_v1","""event"",""trial"",""time""
""fullscreenenter"",""1"",""11701""
","
","
","""event"",""trial"",""time""
""fullscreenenter"",""1"",""11701""
","
","","","","","","null","<div style=""font-size:60px;"">+</div>","null","","fixation","","","","","","","","","","",""
"aa-learning-trial","121","588561","0.0-9.0-2.0-1.23","3821","1","12","Male","approach_avoid_spark_v1","""event"",""trial"",""time""
""fullscreenenter"",""1"",""11701""
","
","
","""event"",""trial"",""time""
""fullscreenenter"",""1"",""11701""
","
","","","","","","1872.6999999999534","images/tree3.png","","","learning","-4","0","0","0","tree","plants","1","0","","bad","[-6]"
"html-keyboard-response","122","589064","0.0-9.0-2.0-0.24","3821","1","12","Male","approach_avoid_spark_v1","""event"",""trial"",""time""
""fullscreenenter"",""1"",""11701""
","
","
","""event"",""trial"",""time""
""fullscreenenter"",""1"",""11701""
","
","","","","","","null","<div style=""font-size:60px;"">+</div>","null","","fixation","","","","","","","","","","",""
"aa-learning-trial","123","592073","0.0-9.0-2.0-1.24","3821","1","12","Male","approach_avoid_spark_v1","""event"",""trial"",""time""
""fullscreenenter"",""1"",""11701""
","
","
","""event"",""trial"",""time""
""fullscreenenter"",""1"",""11701""
","
","","","","","","1141.8999999999069","images/tree3.png","","","learning","-6","-6","1","1","tree","plants","1","0","","bad","[-6]"
"html-keyboard-response","124","592577","0.0-9.0-2.0-0.25","3821","1","12","Male","approach_avoid_spark_v1","""event"",""trial"",""time""
""fullscreenenter"",""1"",""11701""
","
","
","""event"",""trial"",""time""
""fullscreenenter"",""1"",""11701""
","
","","","","","","null","<div style=""font-size:60px;"">+</div>","null","","fixation","","","","","","","","","","",""
"aa-learning-trial","125","595584","0.0-9.0-2.0-1.25","3821","1","12","Male","approach_avoid_spark_v1","""event"",""trial"",""time""
""fullscreenenter"",""1"",""11701""
","
","
","""event"",""trial"",""time""
""fullscreenenter"",""1"",""11701""
","
","","","","","","939.4000000001397","images/flower4.png","","","learning","1","1","1","1","flower","plants","1","0","","neutral","0"
"html-keyboard-response","126","596088","0.0-9.0-2.0-0.26","3821","1","12","Male","approach_avoid_spark_v1","""event"",""trial"",""time""
""fullscreenenter"",""1"",""11701""
","
","
","""event"",""trial"",""time""
""fullscreenenter"",""1"",""11701""
","
","","","","","","null","<div style=""font-size:60px;"">+</div>","null","","fixation","","","","","","","","","","",""
"aa-learning-trial","127","599096","0.0-9.0-2.0-1.26","3821","1","12","Male","approach_avoid_spark_v1","""event"",""trial"",""time""
""fullscreenenter"",""1"",""11701""
","
","
","""event"",""trial"",""time""
""fullscreenenter"",""1"",""11701""
","
","","","","","","1255.1999999999534","images/tree5.png","","","learning","-6","0","0","0","tree","plants","1","0","","bad","[-6]"
"html-keyboard-response","128","599601","0.0-9.0-2.0-0.27","3821","1","12","Male","approach_avoid_spark_v1","""event"",""trial"",""time""
""fullscreenenter"",""1"",""11701""
","
","
","""event"",""trial"",""time""
""fullscreenenter"",""1"",""11701""
","
","","","","","","null","<div style=""font-size:60px;"">+</div>","null","","fixation","","","","","","","","","","",""
"aa-learning-trial","129","602609","0.0-9.0-2.0-1.27","3821","1","12","Male","approach_avoid_spark_v1","""event"",""trial"",""time""
""fullscreenenter"",""1"",""11701""
","
","
","""event"",""trial"",""time""
""fullscreenenter"",""1"",""11701""
","
","","","","","","2301","images/tree7.png","","","learning","-7","-7","1","1","tree","plants","1","0","","bad","[-6]"
"html-keyboard-response","130","603114","0.0-9.0-2.0-0.28","3821","1","12","Male","approach_avoid_spark_v1","""event"",""trial"",""time""
""fullscreenenter"",""1"",""11701""
","
","
","""event"",""trial"",""time""
""fullscreenenter"",""1"",""11701""
","
","","","","","","null","<div style=""font-size:60px;"">+</div>","null","","fixation","","","","","","","","","","",""
"aa-learning-trial","131","606120","0.0-9.0-2.0-1.28","3821","1","12","Male","approach_avoid_spark_v1","""event"",""trial"",""time""
""fullscreenenter"",""1"",""11701""
","
","
","""event"",""trial"",""time""
""fullscreenenter"",""1"",""11701""
","
","","","","","","1076.5","images/tree7.png","","","learning","-6","0","0","0","tree","plants","1","0","","bad","[-6]"
"html-keyboard-response","132","606624","0.0-9.0-2.0-0.29","3821","1","12","Male","approach_avoid_spark_v1","""event"",""trial"",""time""
""fullscreenenter"",""1"",""11701""
","
","
","""event"",""trial"",""time""
""fullscreenenter"",""1"",""11701""
","
","","","","","","null","<div style=""font-size:60px;"">+</div>","null","","fixation","","","","","","","","","","",""
"aa-learning-trial","133","609632","0.0-9.0-2.0-1.29","3821","1","12","Male","approach_avoid_spark_v1","""event"",""trial"",""time""
""fullscreenenter"",""1"",""11701""
","
","
","""event"",""trial"",""time""
""fullscreenenter"",""1"",""11701""
","
","","","","","","1957.1000000000931","images/flower6.png","","","learning","[1]","1","1","1","flower","plants","1","0","","neutral","0"
"html-keyboard-response","134","610136","0.0-9.0-2.0-0.30","3821","1","12","Male","approach_avoid_spark_v1","""event"",""trial"",""time""
""fullscreenenter"",""1"",""11701""
","
","
","""event"",""trial"",""time""
""fullscreenenter"",""1"",""11701""
","
","","","","","","null","<div style=""font-size:60px;"">+</div>","null","","fixation","","","","","","","","","","",""
"aa-learning-trial","135","613156","0.0-9.0-2.0-1.30","3821","1","12","Male","approach_avoid_spark_v1","""event"",""trial"",""time""
""fullscreenenter"",""1"",""11701""
","
","
","""event"",""trial"",""time""
""fullscreenenter"",""1"",""11701""
","
","","","","","","1696.1000000000931","images/tree5.png","","","learning","-5","0","0","0","tree","plants","1","0","","bad","[-6]"
"html-keyboard-response","136","613664","0.0-9.0-2.0-0.31","3821","1","12","Male","approach_avoid_spark_v1","""event"",""trial"",""time""
""fullscreenenter"",""1"",""11701""
","
","
","""event"",""trial"",""time""
""fullscreenenter"",""1"",""11701""
","
","","","","","","null","<div style=""font-size:60px;"">+</div>","null","","fixation","","","","","","","","","","",""
"aa-learning-trial","137","616673","0.0-9.0-2.0-1.31","3821","1","12","Male","approach_avoid_spark_v1","""event"",""trial"",""time""
""fullscreenenter"",""1"",""11701""
","
","
","""event"",""trial"",""time""
""fullscreenenter"",""1"",""11701""
","
","","","","","","1170.8000000000466","images/tree3.png","","","learning","-6","-6","1","1","tree","plants","1","0","","bad","[-6]"
"html-keyboard-response","138","617176","0.0-9.0-2.0-0.32","3821","1","12","Male","approach_avoid_spark_v1","""event"",""trial"",""time""
""fullscreenenter"",""1"",""11701""
","
","
","""event"",""trial"",""time""
""fullscreenenter"",""1"",""11701""
","
","","","","","","null","<div style=""font-size:60px;"">+</div>","null","","fixation","","","","","","","","","","",""
"aa-learning-trial","139","620184","0.0-9.0-2.0-1.32","3821","1","12","Male","approach_avoid_spark_v1","""event"",""trial"",""time""
""fullscreenenter"",""1"",""11701""
","
","
","""event"",""trial"",""time""
""fullscreenenter"",""1"",""11701""
","
","","","","","","772.8000000000466","images/bush8.png","","","learning","7","0","0","0","bush","plants","1","0","","good","[5]"
"html-keyboard-response","140","620688","0.0-9.0-2.0-0.33","3821","1","12","Male","approach_avoid_spark_v1","""event"",""trial"",""time""
""fullscreenenter"",""1"",""11701""
","
","
","""event"",""trial"",""time""
""fullscreenenter"",""1"",""11701""
","
","","","","","","null","<div style=""font-size:60px;"">+</div>","null","","fixation","","","","","","","","","","",""
"aa-learning-trial","141","623698","0.0-9.0-2.0-1.33","3821","1","12","Male","approach_avoid_spark_v1","""event"",""trial"",""time""
""fullscreenenter"",""1"",""11701""
","
","
","""event"",""trial"",""time""
""fullscreenenter"",""1"",""11701""
","
","","","","","","883.8000000000466","images/flower2.png","","","learning","[-1]","-1","1","1","flower","plants","1","0","","neutral","0"
"html-keyboard-response","142","624200","0.0-9.0-2.0-0.34","3821","1","12","Male","approach_avoid_spark_v1","""event"",""trial"",""time""
""fullscreenenter"",""1"",""11701""
","
","
","""event"",""trial"",""time""
""fullscreenenter"",""1"",""11701""
","
","","","","","","null","<div style=""font-size:60px;"">+</div>","null","","fixation","","","","","","","","","","",""
"aa-learning-trial","143","627209","0.0-9.0-2.0-1.34","3821","1","12","Male","approach_avoid_spark_v1","""event"",""trial"",""time""
""fullscreenenter"",""1"",""11701""
","
","
","""event"",""trial"",""time""
""fullscreenenter"",""1"",""11701""
","
","","","","","","536.1999999999534","images/bush8.png","","","learning","7","0","0","0","bush","plants","1","0","","good","[5]"
"html-keyboard-response","144","627712","0.0-9.0-2.0-0.35","3821","1","12","Male","approach_avoid_spark_v1","""event"",""trial"",""time""
""fullscreenenter"",""1"",""11701""
","
","
","""event"",""trial"",""time""
""fullscreenenter"",""1"",""11701""
","
","","","","","","null","<div style=""font-size:60px;"">+</div>","null","","fixation","","","","","","","","","","",""
"aa-learning-trial","145","630721","0.0-9.0-2.0-1.35","3821","1","12","Male","approach_avoid_spark_v1","""event"",""trial"",""time""
""fullscreenenter"",""1"",""11701""
","
","
","""event"",""trial"",""time""
""fullscreenenter"",""1"",""11701""
","
","","","","","","480","images/tree5.png","","","learning","-5","-5","1","1","tree","plants","1","0","","bad","[-6]"
"html-keyboard-response","146","631225","0.0-9.0-2.0-0.36","3821","1","12","Male","approach_avoid_spark_v1","""event"",""trial"",""time""
""fullscreenenter"",""1"",""11701""
","
","
","""event"",""trial"",""time""
""fullscreenenter"",""1"",""11701""
","
","","","","","","null","<div style=""font-size:60px;"">+</div>","null","","fixation","","","","","","","","","","",""
"aa-learning-trial","147","634232","0.0-9.0-2.0-1.36","3821","1","12","Male","approach_avoid_spark_v1","""event"",""trial"",""time""
""fullscreenenter"",""1"",""11701""
","
","
","""event"",""trial"",""time""
""fullscreenenter"",""1"",""11701""
","
","","","","","","1179.8999999999069","images/flower7.png","","","learning","[-1]","0","0","0","flower","plants","1","0","","neutral","0"
"html-keyboard-response","148","634736","0.0-9.0-2.0-0.37","3821","1","12","Male","approach_avoid_spark_v1","""event"",""trial"",""time""
""fullscreenenter"",""1"",""11701""
","
","
","""event"",""trial"",""time""
""fullscreenenter"",""1"",""11701""
","
","","","","","","null","<div style=""font-size:60px;"">+</div>","null","","fixation","","","","","","","","","","",""
"aa-learning-trial","149","637744","0.0-9.0-2.0-1.37","3821","1","12","Male","approach_avoid_spark_v1","""event"",""trial"",""time""
""fullscreenenter"",""1"",""11701""
","
","
","""event"",""trial"",""time""
""fullscreenenter"",""1"",""11701""
","
","","","","","","1364.5999999998603","images/bush4.png","","","learning","3","3","1","1","bush","plants","1","0","","good","[5]"
"html-keyboard-response","150","638248","0.0-9.0-2.0-0.38","3821","1","12","Male","approach_avoid_spark_v1","""event"",""trial"",""time""
""fullscreenenter"",""1"",""11701""
","
","
","""event"",""trial"",""time""
""fullscreenenter"",""1"",""11701""
","
","","","","","","null","<div style=""font-size:60px;"">+</div>","null","","fixation","","","","","","","","","","",""
"aa-learning-trial","151","641256","0.0-9.0-2.0-1.38","3821","1","12","Male","approach_avoid_spark_v1","""event"",""trial"",""time""
""fullscreenenter"",""1"",""11701""
","
","
","""event"",""trial"",""time""
""fullscreenenter"",""1"",""11701""
","
","","","","","","894.7999999998137","images/bush4.png","","","learning","6","6","1","1","bush","plants","1","0","","good","[5]"
"html-keyboard-response","152","641762","0.0-9.0-2.0-0.39","3821","1","12","Male","approach_avoid_spark_v1","""event"",""trial"",""time""
""fullscreenenter"",""1"",""11701""
","
","
","""event"",""trial"",""time""
""fullscreenenter"",""1"",""11701""
","
","","","","","","null","<div style=""font-size:60px;"">+</div>","null","","fixation","","","","","","","","","","",""
"aa-learning-trial","153","644769","0.0-9.0-2.0-1.39","3821","1","12","Male","approach_avoid_spark_v1","""event"",""trial"",""time""
""fullscreenenter"",""1"",""11701""
","
","
","""event"",""trial"",""time""
""fullscreenenter"",""1"",""11701""
","
","","","","","","816.5","images/flower2.png","","","learning","[1]","0","0","0","flower","plants","1","0","","neutral","0"
"html-keyboard-response","154","645272","0.0-9.0-2.0-0.40","3821","1","12","Male","approach_avoid_spark_v1","""event"",""trial"",""time""
""fullscreenenter"",""1"",""11701""
""blur"",""155"",""647871""
","""event"",""trial"",""time""
""blur"",""155"",""647871""
","
","""event"",""trial"",""time""
""fullscreenenter"",""1"",""11701""
","
","","","","","","null","<div style=""font-size:60px;"">+</div>","null","","fixation","","","","","","","","","","",""
"aa-learning-trial","155","648347","0.0-9.0-2.0-1.40","3821","1","12","Male","approach_avoid_spark_v1","""event"",""trial"",""time""
""fullscreenenter"",""1"",""11701""
""blur"",""155"",""647871""
","""event"",""trial"",""time""
""blur"",""155"",""647871""
","
","""event"",""trial"",""time""
""fullscreenenter"",""1"",""11701""
","
","","","","","","1220.1999999999534","images/bush2.png","","","learning","5","-5","meta","","bush","plants","1","0","","good","[5]"
"html-keyboard-response","156","648856","0.0-9.0-2.0-0.41","3821","1","12","Male","approach_avoid_spark_v1","""event"",""trial"",""time""
""fullscreenenter"",""1"",""11701""
""blur"",""155"",""647871""
""focus"",""157"",""649523""
","""event"",""trial"",""time""
""blur"",""155"",""647871""
","""event"",""trial"",""time""
""focus"",""157"",""649523""
","""event"",""trial"",""time""
""fullscreenenter"",""1"",""11701""
","
","","","","","","null","<div style=""font-size:60px;"">+</div>","null","","fixation","","","","","","","","","","",""
"aa-learning-trial","157","651863","0.0-9.0-2.0-1.41","3821","1","12","Male","approach_avoid_spark_v1","""event"",""trial"",""time""
""fullscreenenter"",""1"",""11701""
""blur"",""155"",""647871""
""focus"",""157"",""649523""
","""event"",""trial"",""time""
""blur"",""155"",""647871""
","""event"",""trial"",""time""
""focus"",""157"",""649523""
","""event"",""trial"",""time""
""fullscreenenter"",""1"",""11701""
","
","","","","","","1939.3000000000466","images/flower2.png","","","learning","[-1]","-1","1","1","flower","plants","1","0","","neutral","0"
"html-keyboard-response","158","652369","0.0-9.0-2.0-0.42","3821","1","12","Male","approach_avoid_spark_v1","""event"",""trial"",""time""
""fullscreenenter"",""1"",""11701""
""blur"",""155"",""647871""
""focus"",""157"",""649523""
","""event"",""trial"",""time""
""blur"",""155"",""647871""
","""event"",""trial"",""time""
""focus"",""157"",""649523""
","""event"",""trial"",""time""
""fullscreenenter"",""1"",""11701""
","
","","","","","","null","<div style=""font-size:60px;"">+</div>","null","","fixation","","","","","","","","","","",""
"aa-learning-trial","159","655376","0.0-9.0-2.0-1.42","3821","1","12","Male","approach_avoid_spark_v1","""event"",""trial"",""time""
""fullscreenenter"",""1"",""11701""
""blur"",""155"",""647871""
""focus"",""157"",""649523""
","""event"",""trial"",""time""
""blur"",""155"",""647871""
","""event"",""trial"",""time""
""focus"",""157"",""649523""
","""event"",""trial"",""time""
""fullscreenenter"",""1"",""11701""
","
","","","","","","335","images/bush5.png","","","learning","5","5","1","1","bush","plants","1","0","","good","[5]"
"html-keyboard-response","160","655881","0.0-9.0-2.0-0.43","3821","1","12","Male","approach_avoid_spark_v1","""event"",""trial"",""time""
""fullscreenenter"",""1"",""11701""
""blur"",""155"",""647871""
""focus"",""157"",""649523""
","""event"",""trial"",""time""
""blur"",""155"",""647871""
","""event"",""trial"",""time""
""focus"",""157"",""649523""
","""event"",""trial"",""time""
""fullscreenenter"",""1"",""11701""
","
","","","","","","null","<div style=""font-size:60px;"">+</div>","null","","fixation","","","","","","","","","","",""
"aa-learning-trial","161","658888","0.0-9.0-2.0-1.43","3821","1","12","Male","approach_avoid_spark_v1","""event"",""trial"",""time""
""fullscreenenter"",""1"",""11701""
""blur"",""155"",""647871""
""focus"",""157"",""649523""
","""event"",""trial"",""time""
""blur"",""155"",""647871""
","""event"",""trial"",""time""
""focus"",""157"",""649523""
","""event"",""trial"",""time""
""fullscreenenter"",""1"",""11701""
","
","","","","","","819.3000000000466","images/flower4.png","","","learning","[-1]","0","0","0","flower","plants","1","0","","neutral","0"
"html-keyboard-response","162","659392","0.0-9.0-2.0-0.44","3821","1","12","Male","approach_avoid_spark_v1","""event"",""trial"",""time""
""fullscreenenter"",""1"",""11701""
""blur"",""155"",""647871""
""focus"",""157"",""649523""
","""event"",""trial"",""time""
""blur"",""155"",""647871""
","""event"",""trial"",""time""
""focus"",""157"",""649523""
","""event"",""trial"",""time""
""fullscreenenter"",""1"",""11701""
","
","","","","","","null","<div style=""font-size:60px;"">+</div>","null","","fixation","","","","","","","","","","",""
"aa-learning-trial","163","662400","0.0-9.0-2.0-1.44","3821","1","12","Male","approach_avoid_spark_v1","""event"",""trial"",""time""
""fullscreenenter"",""1"",""11701""
""blur"",""155"",""647871""
""focus"",""157"",""649523""
","""event"",""trial"",""time""
""blur"",""155"",""647871""
","""event"",""trial"",""time""
""focus"",""157"",""649523""
","""event"",""trial"",""time""
""fullscreenenter"",""1"",""11701""
","
","","","","","","349.5","images/bush5.png","","","learning","7","7","1","1","bush","plants","1","0","","good","[5]"
"html-keyboard-response","164","662904","0.0-9.0-2.0-0.45","3821","1","12","Male","approach_avoid_spark_v1","""event"",""trial"",""time""
""fullscreenenter"",""1"",""11701""
""blur"",""155"",""647871""
""focus"",""157"",""649523""
","""event"",""trial"",""time""
""blur"",""155"",""647871""
","""event"",""trial"",""time""
""focus"",""157"",""649523""
","""event"",""trial"",""time""
""fullscreenenter"",""1"",""11701""
","
","","","","","","null","<div style=""font-size:60px;"">+</div>","null","","fixation","","","","","","","","","","",""
"aa-learning-trial","165","665913","0.0-9.0-2.0-1.45","3821","1","12","Male","approach_avoid_spark_v1","""event"",""trial"",""time""
""fullscreenenter"",""1"",""11701""
""blur"",""155"",""647871""
""focus"",""157"",""649523""
","""event"",""trial"",""time""
""blur"",""155"",""647871""
","""event"",""trial"",""time""
""focus"",""157"",""649523""
","""event"",""trial"",""time""
""fullscreenenter"",""1"",""11701""
","
","","","","","","1629.3000000000466","images/bush5.png","","","learning","3","0","0","0","bush","plants","1","0","","good","[5]"
"html-keyboard-response","166","666416","0.0-9.0-2.0-0.46","3821","1","12","Male","approach_avoid_spark_v1","""event"",""trial"",""time""
""fullscreenenter"",""1"",""11701""
""blur"",""155"",""647871""
""focus"",""157"",""649523""
","""event"",""trial"",""time""
""blur"",""155"",""647871""
","""event"",""trial"",""time""
""focus"",""157"",""649523""
","""event"",""trial"",""time""
""fullscreenenter"",""1"",""11701""
","
","","","","","","null","<div style=""font-size:60px;"">+</div>","null","","fixation","","","","","","","","","","",""
"aa-learning-trial","167","669424","0.0-9.0-2.0-1.46","3821","1","12","Male","approach_avoid_spark_v1","""event"",""trial"",""time""
""fullscreenenter"",""1"",""11701""
""blur"",""155"",""647871""
""focus"",""157"",""649523""
","""event"",""trial"",""time""
""blur"",""155"",""647871""
","""event"",""trial"",""time""
""focus"",""157"",""649523""
","""event"",""trial"",""time""
""fullscreenenter"",""1"",""11701""
","
","","","","","","2053.4000000001397","images/bush7.png","","","learning","6","6","1","1","bush","plants","1","0","","good","[5]"
"html-keyboard-response","168","669928","0.0-9.0-2.0-0.47","3821","1","12","Male","approach_avoid_spark_v1","""event"",""trial"",""time""
""fullscreenenter"",""1"",""11701""
""blur"",""155"",""647871""
""focus"",""157"",""649523""
","""event"",""trial"",""time""
""blur"",""155"",""647871""
","""event"",""trial"",""time""
""focus"",""157"",""649523""
","""event"",""trial"",""time""
""fullscreenenter"",""1"",""11701""
","
","","","","","","null","<div style=""font-size:60px;"">+</div>","null","","fixation","","","","","","","","","","",""
"aa-learning-trial","169","672936","0.0-9.0-2.0-1.47","3821","1","12","Male","approach_avoid_spark_v1","""event"",""trial"",""time""
""fullscreenenter"",""1"",""11701""
""blur"",""155"",""647871""
""focus"",""157"",""649523""
","""event"",""trial"",""time""
""blur"",""155"",""647871""
","""event"",""trial"",""time""
""focus"",""157"",""649523""
","""event"",""trial"",""time""
""fullscreenenter"",""1"",""11701""
","
","","","","","","932.3000000000466","images/flower2.png","","","learning","2","2","1","1","flower","plants","1","0","","neutral","0"
"html-keyboard-response","170","673440","0.0-9.0-2.0-0.48","3821","1","12","Male","approach_avoid_spark_v1","""event"",""trial"",""time""
""fullscreenenter"",""1"",""11701""
""blur"",""155"",""647871""
""focus"",""157"",""649523""
","""event"",""trial"",""time""
""blur"",""155"",""647871""
","""event"",""trial"",""time""
""focus"",""157"",""649523""
","""event"",""trial"",""time""
""fullscreenenter"",""1"",""11701""
","
","","","","","","null","<div style=""font-size:60px;"">+</div>","null","","fixation","","","","","","","","","","",""
"aa-learning-trial","171","676449","0.0-9.0-2.0-1.48","3821","1","12","Male","approach_avoid_spark_v1","""event"",""trial"",""time""
""fullscreenenter"",""1"",""11701""
""blur"",""155"",""647871""
""focus"",""157"",""649523""
","""event"",""trial"",""time""
""blur"",""155"",""647871""
","""event"",""trial"",""time""
""focus"",""157"",""649523""
","""event"",""trial"",""time""
""fullscreenenter"",""1"",""11701""
","
","","","","","","1845.4000000001397","images/flower6.png","","","learning","[1]","0","0","0","flower","plants","1","0","","neutral","0"
"html-keyboard-response","172","676952","0.0-9.0-2.0-0.49","3821","1","12","Male","approach_avoid_spark_v1","""event"",""trial"",""time""
""fullscreenenter"",""1"",""11701""
""blur"",""155"",""647871""
""focus"",""157"",""649523""
","""event"",""trial"",""time""
""blur"",""155"",""647871""
","""event"",""trial"",""time""
""focus"",""157"",""649523""
","""event"",""trial"",""time""
""fullscreenenter"",""1"",""11701""
","
","","","","","","null","<div style=""font-size:60px;"">+</div>","null","","fixation","","","","","","","","","","",""
"aa-learning-trial","173","679960","0.0-9.0-2.0-1.49","3821","1","12","Male","approach_avoid_spark_v1","""event"",""trial"",""time""
""fullscreenenter"",""1"",""11701""
""blur"",""155"",""647871""
""focus"",""157"",""649523""
","""event"",""trial"",""time""
""blur"",""155"",""647871""
","""event"",""trial"",""time""
""focus"",""157"",""649523""
","""event"",""trial"",""time""
""fullscreenenter"",""1"",""11701""
","
","","","","","","1362.6000000000931","images/tree2.png","","","learning","-6","-6","1","1","tree","plants","1","0","","bad","[-6]"
"html-keyboard-response","174","680465","0.0-9.0-2.0-0.50","3821","1","12","Male","approach_avoid_spark_v1","""event"",""trial"",""time""
""fullscreenenter"",""1"",""11701""
""blur"",""155"",""647871""
""focus"",""157"",""649523""
","""event"",""trial"",""time""
""blur"",""155"",""647871""
","""event"",""trial"",""time""
""focus"",""157"",""649523""
","""event"",""trial"",""time""
""fullscreenenter"",""1"",""11701""
","
","","","","","","null","<div style=""font-size:60px;"">+</div>","null","","fixation","","","","","","","","","","",""
"aa-learning-trial","175","683472","0.0-9.0-2.0-1.50","3821","1","12","Male","approach_avoid_spark_v1","""event"",""trial"",""time""
""fullscreenenter"",""1"",""11701""
""blur"",""155"",""647871""
""focus"",""157"",""649523""
","""event"",""trial"",""time""
""blur"",""155"",""647871""
","""event"",""trial"",""time""
""focus"",""157"",""649523""
","""event"",""trial"",""time""
""fullscreenenter"",""1"",""11701""
","
","","","","","","427.60000000009313","images/tree3.png","","","learning","-11","0","0","0","tree","plants","1","0","","bad","[-6]"
"html-button-response","176","687245","0.0-9.0-3.0","3821","1","12","Male","approach_avoid_spark_v1","""event"",""trial"",""time""
""fullscreenenter"",""1"",""11701""
""blur"",""155"",""647871""
""focus"",""157"",""649523""
","""event"",""trial"",""time""
""blur"",""155"",""647871""
","""event"",""trial"",""time""
""focus"",""157"",""649523""
","""event"",""trial"",""time""
""fullscreenenter"",""1"",""11701""
","
","","","","","","3771.3000000000466","<p> You have completed the round! <p> In this round, you earned -9 points! </p>","0","","break","","","","","","","","","","",""
"html-button-response","177","688371","0.0-10.0","3821","1","12","Male","approach_avoid_spark_v1","""event"",""trial"",""time""
""fullscreenenter"",""1"",""11701""
""blur"",""155"",""647871""
""focus"",""157"",""649523""
","""event"",""trial"",""time""
""blur"",""155"",""647871""
","""event"",""trial"",""time""
""focus"",""157"",""649523""
","""event"",""trial"",""time""
""fullscreenenter"",""1"",""11701""
","
","","","","","","1123.3000000000466","<p> Now it's time to play another round. </p>","0","","transition_screen","","","","","","","","","","",""
"preload","178","688505","0.0-11.0-0.0","3821","1","12","Male","approach_avoid_spark_v1","""event"",""trial"",""time""
""fullscreenenter"",""1"",""11701""
""blur"",""155"",""647871""
""focus"",""157"",""649523""
","""event"",""trial"",""time""
""blur"",""155"",""647871""
","""event"",""trial"",""time""
""focus"",""157"",""649523""
","""event"",""trial"",""time""
""fullscreenenter"",""1"",""11701""
","
","true","false","[]","[]","[]","","","","","","","","","","","","","","","",""
"learning-instructions","179","694450","0.0-11.0-1.0-0.0","3821","1","12","Male","approach_avoid_spark_v1","""event"",""trial"",""time""
""fullscreenenter"",""1"",""11701""
""blur"",""155"",""647871""
""focus"",""157"",""649523""
","""event"",""trial"",""time""
""blur"",""155"",""647871""
","""event"",""trial"",""time""
""focus"",""157"",""649523""
","""event"",""trial"",""time""
""fullscreenenter"",""1"",""11701""
","
","","","","","","1549","<p> Your goal in this round is to eat tasty fruit. </p></div>","","0","instructions","","","","","","","","","","",""
"learning-instructions","180","710534","0.0-11.0-1.0-0.1","3821","1","12","Male","approach_avoid_spark_v1","""event"",""trial"",""time""
""fullscreenenter"",""1"",""11701""
""blur"",""155"",""647871""
""focus"",""157"",""649523""
","""event"",""trial"",""time""
""blur"",""155"",""647871""
","""event"",""trial"",""time""
""focus"",""157"",""649523""
","""event"",""trial"",""time""
""fullscreenenter"",""1"",""11701""
","
","","","","","","5983.600000000093","<p> Some of the fruits you will see are tasty. Others are rotten on the inside.  </p><p> On each turn, you will see a fruit.   </p><p> You need to decide whether to eat it or not.  </p>","","0","instructions","","","","","","","","","","",""
"learning-instructions","181","716859","0.0-11.0-1.0-0.2","3821","1","12","Male","approach_avoid_spark_v1","""event"",""trial"",""time""
""fullscreenenter"",""1"",""11701""
""blur"",""155"",""647871""
""focus"",""157"",""649523""
","""event"",""trial"",""time""
""blur"",""155"",""647871""
","""event"",""trial"",""time""
""focus"",""157"",""649523""
","""event"",""trial"",""time""
""fullscreenenter"",""1"",""11701""
","
","","","","","","1126.8999999999069","<p> You can eat the fruit by pressing 1 and choose not to eat it by pressing 0. </p><br><div class=""choice-instructions-grid""> <div class=""choice-option""><img src=""images/approach.png"" class=""choice-option-img"" stage=""instructions"" position=""0"" ><div class=""choice-option-text""> Press ""1."" </div></div><div class=""choice-option""><img src=""images/avoid.png"" class=""choice-option-img"" stage=""instructions"" position=""1"" ><div class=""choice-option-text""> Press ""0."" </div></div>","","0","instructions","","","","","","","","","","",""
"learning-instructions","182","731037","0.0-11.0-1.0-0.3","3821","1","12","Male","approach_avoid_spark_v1","""event"",""trial"",""time""
""fullscreenenter"",""1"",""11701""
""blur"",""155"",""647871""
""focus"",""157"",""649523""
","""event"",""trial"",""time""
""blur"",""155"",""647871""
","""event"",""trial"",""time""
""focus"",""157"",""649523""
","""event"",""trial"",""time""
""fullscreenenter"",""1"",""11701""
","
","","","","","","6607.100000000093","<p> If you eat the fruit and it was tasty, you will win points! </p><p> But if you eat the fruit and it was rotten, you will lose points. </p>","","0","instructions","","","","","","","","","","",""
"learning-instructions","183","743390","0.0-11.0-1.0-0.4","3821","1","12","Male","approach_avoid_spark_v1","""event"",""trial"",""time""
""fullscreenenter"",""1"",""11701""
""blur"",""155"",""647871""
""focus"",""157"",""649523""
","""event"",""trial"",""time""
""blur"",""155"",""647871""
","""event"",""trial"",""time""
""focus"",""157"",""649523""
","""event"",""trial"",""time""
""fullscreenenter"",""1"",""11701""
","
","","","","","","839","<p> You will earn points based on how tasty or rotten the fruit was. </p><p> If it was tasty, you will WIN anywhere from 1 - 9 points, </p><p> but if it was rotten, you will LOSE anywhere from 1 - 9 points. </p>","","0","instructions","","","","","","","","","","",""
"learning-instructions","184","750590","0.0-11.0-1.0-0.5","3821","1","12","Male","approach_avoid_spark_v1","""event"",""trial"",""time""
""fullscreenenter"",""1"",""11701""
""blur"",""155"",""647871""
""focus"",""157"",""649523""
","""event"",""trial"",""time""
""blur"",""155"",""647871""
","""event"",""trial"",""time""
""focus"",""157"",""649523""
","""event"",""trial"",""time""
""fullscreenenter"",""1"",""11701""
","
","","","","","","537.8999999999069","<p> You will see how many points you won or lost in the center of the screen. </p><p> Here is what you would see if you earned 5 points: </p><p style=""color:green;font-size:50px;font-weight:bolder"">5</p>","","0","instructions","","","","","","","","","","",""
"learning-instructions","185","754226","0.0-11.0-1.0-0.6","3821","1","12","Male","approach_avoid_spark_v1","""event"",""trial"",""time""
""fullscreenenter"",""1"",""11701""
""blur"",""155"",""647871""
""focus"",""157"",""649523""
","""event"",""trial"",""time""
""blur"",""155"",""647871""
","""event"",""trial"",""time""
""focus"",""157"",""649523""
","""event"",""trial"",""time""
""fullscreenenter"",""1"",""11701""
","
","","","","","","804.7999999998137","<p> And here is what you would see if you lost 3 points: </p><p style=""color:red;font-size:50px;font-weight:bolder"">-3</p>","","0","instructions","","","","","","","","","","",""
"learning-instructions","186","768947","0.0-11.0-1.0-0.7","3821","1","12","Male","approach_avoid_spark_v1","""event"",""trial"",""time""
""fullscreenenter"",""1"",""11701""
""blur"",""155"",""647871""
""focus"",""157"",""649523""
","""event"",""trial"",""time""
""blur"",""155"",""647871""
","""event"",""trial"",""time""
""focus"",""157"",""649523""
","""event"",""trial"",""time""
""fullscreenenter"",""1"",""11701""
","
","","","","","","535.3000000000466","<p> Some fruit is very tasty or very rotten. </p><p> These fruits will make you win or lose LOTS of points. </p><p> Other fruits are only kind of tasty or kind of rotten. </p><p> These fruits will make you win or lose small amounts of points. </p>","","0","instructions","","","","","","","","","","",""
"learning-instructions","187","782247","0.0-11.0-1.0-0.8","3821","1","12","Male","approach_avoid_spark_v1","""event"",""trial"",""time""
""fullscreenenter"",""1"",""11701""
""blur"",""155"",""647871""
""focus"",""157"",""649523""
","""event"",""trial"",""time""
""blur"",""155"",""647871""
","""event"",""trial"",""time""
""focus"",""157"",""649523""
","""event"",""trial"",""time""
""fullscreenenter"",""1"",""11701""
","
","","","","","","2664.9000000001397","<p> If you choose to not eat the fruit, you will not win or lose any points. </p><p>  However, in the center of the screen, you will see the number of points you WOULD HAVE earned if you had eaten the fruit. </p>","","0","instructions","","","","","","","","","","",""
"learning-instructions","188","793933","0.0-11.0-1.0-0.9","3821","1","12","Male","approach_avoid_spark_v1","""event"",""trial"",""time""
""fullscreenenter"",""1"",""11701""
""blur"",""155"",""647871""
""focus"",""157"",""649523""
","""event"",""trial"",""time""
""blur"",""155"",""647871""
","""event"",""trial"",""time""
""focus"",""157"",""649523""
","""event"",""trial"",""time""
""fullscreenenter"",""1"",""11701""
","
","","","","","","1501.3999999999069","<p> Here is what you might see if you did not eat the fruit but the fruit was tasty: </p><p style=""color:grey; font-size:50px; display: inline-block; border-spacing: 15px; border-width:3px; border-style:solid; border-color:red"">  &nbsp; 6 &nbsp; </p><p> Remember, in this case, you would not win or lose ANY points because you did not eat the fruit.  </p>","","0","instructions","","","","","","","","","","",""
"learning-instructions","189","802878","0.0-11.0-1.0-0.10","3821","1","12","Male","approach_avoid_spark_v1","""event"",""trial"",""time""
""fullscreenenter"",""1"",""11701""
""blur"",""155"",""647871""
""focus"",""157"",""649523""
","""event"",""trial"",""time""
""blur"",""155"",""647871""
","""event"",""trial"",""time""
""focus"",""157"",""649523""
","""event"",""trial"",""time""
""fullscreenenter"",""1"",""11701""
","
","","","","","","747.3000000000466","<p> Try to make the best choice for each fruit because </p><p> at the end of the game, you will earn bonus money based on how many points you earned. </p>","","0","instructions","","","","","","","","","","",""
"learning-instructions","190","811943","0.0-11.0-1.0-0.11","3821","1","12","Male","approach_avoid_spark_v1","""event"",""trial"",""time""
""fullscreenenter"",""1"",""11701""
""blur"",""155"",""647871""
""focus"",""157"",""649523""
","""event"",""trial"",""time""
""blur"",""155"",""647871""
","""event"",""trial"",""time""
""focus"",""157"",""649523""
","""event"",""trial"",""time""
""fullscreenenter"",""1"",""11701""
","
","","","","","","862.0999999998603","<p> You will have 3 seconds to make each choice. Try to respond before time runs out! </p><p> You will lose 5 points each time you do not make a response. </p>","","0","instructions","","","","","","","","","","",""
"html-keyboard-response","191","812553","0.0-11.0-2.0-0.0","3821","1","12","Male","approach_avoid_spark_v1","""event"",""trial"",""time""
""fullscreenenter"",""1"",""11701""
""blur"",""155"",""647871""
""focus"",""157"",""649523""
","""event"",""trial"",""time""
""blur"",""155"",""647871""
","""event"",""trial"",""time""
""focus"",""157"",""649523""
","""event"",""trial"",""time""
""fullscreenenter"",""1"",""11701""
","
","","","","","","null","<div style=""font-size:60px;"">+</div>","null","","fixation","","","","","","","","","","",""
"aa-learning-trial","192","815565","0.0-11.0-2.0-1.0","3821","1","12","Male","approach_avoid_spark_v1","""event"",""trial"",""time""
""fullscreenenter"",""1"",""11701""
""blur"",""155"",""647871""
""focus"",""157"",""649523""
","""event"",""trial"",""time""
""blur"",""155"",""647871""
","""event"",""trial"",""time""
""focus"",""157"",""649523""
","""event"",""trial"",""time""
""fullscreenenter"",""1"",""11701""
","
","","","","","","1655.8000000000466","images/apple2.png","","","learning","1","1","1","1","apple","fruit","2","1","","good","[5]"
"html-keyboard-response","193","816080","0.0-11.0-2.0-0.1","3821","1","12","Male","approach_avoid_spark_v1","""event"",""trial"",""time""
""fullscreenenter"",""1"",""11701""
""blur"",""155"",""647871""
""focus"",""157"",""649523""
","""event"",""trial"",""time""
""blur"",""155"",""647871""
","""event"",""trial"",""time""
""focus"",""157"",""649523""
","""event"",""trial"",""time""
""fullscreenenter"",""1"",""11701""
","
","","","","","","null","<div style=""font-size:60px;"">+</div>","null","","fixation","","","","","","","","","","",""
"aa-learning-trial","194","819100","0.0-11.0-2.0-1.1","3821","1","12","Male","approach_avoid_spark_v1","""event"",""trial"",""time""
""fullscreenenter"",""1"",""11701""
""blur"",""155"",""647871""
""focus"",""157"",""649523""
","""event"",""trial"",""time""
""blur"",""155"",""647871""
","""event"",""trial"",""time""
""focus"",""157"",""649523""
","""event"",""trial"",""time""
""fullscreenenter"",""1"",""11701""
","
","","","","","","1475","images/orange6.png","","","learning","-3","0","0","0","orange","fruit","2","1","","bad","[-3]"
"html-keyboard-response","195","819619","0.0-11.0-2.0-0.2","3821","1","12","Male","approach_avoid_spark_v1","""event"",""trial"",""time""
""fullscreenenter"",""1"",""11701""
""blur"",""155"",""647871""
""focus"",""157"",""649523""
","""event"",""trial"",""time""
""blur"",""155"",""647871""
","""event"",""trial"",""time""
""focus"",""157"",""649523""
","""event"",""trial"",""time""
""fullscreenenter"",""1"",""11701""
","
","","","","","","null","<div style=""font-size:60px;"">+</div>","null","","fixation","","","","","","","","","","",""
"aa-learning-trial","196","822639","0.0-11.0-2.0-1.2","3821","1","12","Male","approach_avoid_spark_v1","""event"",""trial"",""time""
""fullscreenenter"",""1"",""11701""
""blur"",""155"",""647871""
""focus"",""157"",""649523""
","""event"",""trial"",""time""
""blur"",""155"",""647871""
","""event"",""trial"",""time""
""focus"",""157"",""649523""
","""event"",""trial"",""time""
""fullscreenenter"",""1"",""11701""
","
","","","","","","1428.6999999999534","images/apple3.png","","","learning","8","0","0","0","apple","fruit","2","1","","good","[5]"
"html-keyboard-response","197","823149","0.0-11.0-2.0-0.3","3821","1","12","Male","approach_avoid_spark_v1","""event"",""trial"",""time""
""fullscreenenter"",""1"",""11701""
""blur"",""155"",""647871""
""focus"",""157"",""649523""
","""event"",""trial"",""time""
""blur"",""155"",""647871""
","""event"",""trial"",""time""
""focus"",""157"",""649523""
","""event"",""trial"",""time""
""fullscreenenter"",""1"",""11701""
","
","","","","","","null","<div style=""font-size:60px;"">+</div>","null","","fixation","","","","","","","","","","",""
"aa-learning-trial","198","826160","0.0-11.0-2.0-1.3","3821","1","12","Male","approach_avoid_spark_v1","""event"",""trial"",""time""
""fullscreenenter"",""1"",""11701""
""blur"",""155"",""647871""
""focus"",""157"",""649523""
","""event"",""trial"",""time""
""blur"",""155"",""647871""
","""event"",""trial"",""time""
""focus"",""157"",""649523""
","""event"",""trial"",""time""
""fullscreenenter"",""1"",""11701""
","
","","","","","","798.3999999999069","images/straw4.png","","","learning","-1","-1","1","1","straw","fruit","2","1","","neutral","0"
"html-keyboard-response","199","826679","0.0-11.0-2.0-0.4","3821","1","12","Male","approach_avoid_spark_v1","""event"",""trial"",""time""
""fullscreenenter"",""1"",""11701""
""blur"",""155"",""647871""
""focus"",""157"",""649523""
","""event"",""trial"",""time""
""blur"",""155"",""647871""
","""event"",""trial"",""time""
""focus"",""157"",""649523""
","""event"",""trial"",""time""
""fullscreenenter"",""1"",""11701""
","
","","","","","","null","<div style=""font-size:60px;"">+</div>","null","","fixation","","","","","","","","","","",""
"aa-learning-trial","200","829699","0.0-11.0-2.0-1.4","3821","1","12","Male","approach_avoid_spark_v1","""event"",""trial"",""time""
""fullscreenenter"",""1"",""11701""
""blur"",""155"",""647871""
""focus"",""157"",""649523""
","""event"",""trial"",""time""
""blur"",""155"",""647871""
","""event"",""trial"",""time""
""focus"",""157"",""649523""
","""event"",""trial"",""time""
""fullscreenenter"",""1"",""11701""
","
","","","","","","1020.1000000000931","images/apple3.png","","","learning","8","0","0","0","apple","fruit","2","1","","good","[5]"
"html-keyboard-response","201","830220","0.0-11.0-2.0-0.5","3821","1","12","Male","approach_avoid_spark_v1","""event"",""trial"",""time""
""fullscreenenter"",""1"",""11701""
""blur"",""155"",""647871""
""focus"",""157"",""649523""
","""event"",""trial"",""time""
""blur"",""155"",""647871""
","""event"",""trial"",""time""
""focus"",""157"",""649523""
","""event"",""trial"",""time""
""fullscreenenter"",""1"",""11701""
","
","","","","","","null","<div style=""font-size:60px;"">+</div>","null","","fixation","","","","","","","","","","",""
"aa-learning-trial","202","833230","0.0-11.0-2.0-1.5","3821","1","12","Male","approach_avoid_spark_v1","""event"",""trial"",""time""
""fullscreenenter"",""1"",""11701""
""blur"",""155"",""647871""
""focus"",""157"",""649523""
","""event"",""trial"",""time""
""blur"",""155"",""647871""
","""event"",""trial"",""time""
""focus"",""157"",""649523""
","""event"",""trial"",""time""
""fullscreenenter"",""1"",""11701""
","
","","","","","","799.5","images/orange7.png","","","learning","2","2","1","1","orange","fruit","2","1","","bad","[-3]"
"html-keyboard-response","203","833749","0.0-11.0-2.0-0.6","3821","1","12","Male","approach_avoid_spark_v1","""event"",""trial"",""time""
""fullscreenenter"",""1"",""11701""
""blur"",""155"",""647871""
""focus"",""157"",""649523""
","""event"",""trial"",""time""
""blur"",""155"",""647871""
","""event"",""trial"",""time""
""focus"",""157"",""649523""
","""event"",""trial"",""time""
""fullscreenenter"",""1"",""11701""
","
","","","","","","null","<div style=""font-size:60px;"">+</div>","null","","fixation","","","","","","","","","","",""
"aa-learning-trial","204","836769","0.0-11.0-2.0-1.6","3821","1","12","Male","approach_avoid_spark_v1","""event"",""trial"",""time""
""fullscreenenter"",""1"",""11701""
""blur"",""155"",""647871""
""focus"",""157"",""649523""
","""event"",""trial"",""time""
""blur"",""155"",""647871""
","""event"",""trial"",""time""
""focus"",""157"",""649523""
","""event"",""trial"",""time""
""fullscreenenter"",""1"",""11701""
","
","","","","","","676.3000000000466","images/orange7.png","","","learning","2","2","1","1","orange","fruit","2","1","","bad","[-3]"
"html-keyboard-response","205","837279","0.0-11.0-2.0-0.7","3821","1","12","Male","approach_avoid_spark_v1","""event"",""trial"",""time""
""fullscreenenter"",""1"",""11701""
""blur"",""155"",""647871""
""focus"",""157"",""649523""
","""event"",""trial"",""time""
""blur"",""155"",""647871""
","""event"",""trial"",""time""
""focus"",""157"",""649523""
","""event"",""trial"",""time""
""fullscreenenter"",""1"",""11701""
","
","","","","","","null","<div style=""font-size:60px;"">+</div>","null","","fixation","","","","","","","","","","",""
"aa-learning-trial","206","840300","0.0-11.0-2.0-1.7","3821","1","12","Male","approach_avoid_spark_v1","""event"",""trial"",""time""
""fullscreenenter"",""1"",""11701""
""blur"",""155"",""647871""
""focus"",""157"",""649523""
","""event"",""trial"",""time""
""blur"",""155"",""647871""
","""event"",""trial"",""time""
""focus"",""157"",""649523""
","""event"",""trial"",""time""
""fullscreenenter"",""1"",""11701""
","
","","","","","","1184.2000000001863","images/straw7.png","","","learning","7","0","0","0","straw","fruit","2","1","","neutral","0"
"html-keyboard-response","207","840820","0.0-11.0-2.0-0.8","3821","1","12","Male","approach_avoid_spark_v1","""event"",""trial"",""time""
""fullscreenenter"",""1"",""11701""
""blur"",""155"",""647871""
""focus"",""157"",""649523""
","""event"",""trial"",""time""
""blur"",""155"",""647871""
","""event"",""trial"",""time""
""focus"",""157"",""649523""
","""event"",""trial"",""time""
""fullscreenenter"",""1"",""11701""
","
","","","","","","null","<div style=""font-size:60px;"">+</div>","null","","fixation","","","","","","","","","","",""
"aa-learning-trial","208","843824","0.0-11.0-2.0-1.8","3821","1","12","Male","approach_avoid_spark_v1","""event"",""trial"",""time""
""fullscreenenter"",""1"",""11701""
""blur"",""155"",""647871""
""focus"",""157"",""649523""
","""event"",""trial"",""time""
""blur"",""155"",""647871""
","""event"",""trial"",""time""
""focus"",""157"",""649523""
","""event"",""trial"",""time""
""fullscreenenter"",""1"",""11701""
","
","","","","","","627.3000000000466","images/straw7.png","","","learning","7","0","0","0","straw","fruit","2","1","","neutral","0"
"html-keyboard-response","209","844328","0.0-11.0-2.0-0.9","3821","1","12","Male","approach_avoid_spark_v1","""event"",""trial"",""time""
""fullscreenenter"",""1"",""11701""
""blur"",""155"",""647871""
""focus"",""157"",""649523""
","""event"",""trial"",""time""
""blur"",""155"",""647871""
","""event"",""trial"",""time""
""focus"",""157"",""649523""
","""event"",""trial"",""time""
""fullscreenenter"",""1"",""11701""
","
","","","","","","null","<div style=""font-size:60px;"">+</div>","null","","fixation","","","","","","","","","","",""
"aa-learning-trial","210","847338","0.0-11.0-2.0-1.9","3821","1","12","Male","approach_avoid_spark_v1","""event"",""trial"",""time""
""fullscreenenter"",""1"",""11701""
""blur"",""155"",""647871""
""focus"",""157"",""649523""
","""event"",""trial"",""time""
""blur"",""155"",""647871""
","""event"",""trial"",""time""
""focus"",""157"",""649523""
","""event"",""trial"",""time""
""fullscreenenter"",""1"",""11701""
","
","","","","","","633.4000000001397","images/orange1.png","","","learning","9","9","1","1","orange","fruit","2","1","","bad","[-3]"
