"trial_type","trial_index","time_elapsed","internal_node_id","subject_id","task_condition","age","gender","task_version","interactions","blur_events","focus_events","fullscreenenter_events","fullscreenexit_events","success","timeout","failed_images","failed_audio","failed_video","rt","stimulus","response","button_pressed","task_part","approach_reward","points","key_press","option_selected","stim_cat","task_block","block_condition","block_number","correct","cat_type","mean_cat_reward"
"pavlovia","0","9","0.0-0.0","5887","2","14","Male","approach_avoid_spark_v1","""event"",""trial"",""time""
""fullscreenenter"",""1"",""2121""
","
","
","""event"",""trial"",""time""
""fullscreenenter"",""1"",""2121""
","
","","","","","","","","","","","","","","","","","","","","",""
"fullscreen","1","3102","0.0-1.0","5887","2","14","Male","approach_avoid_spark_v1","""event"",""trial"",""time""
""fullscreenenter"",""1"",""2121""
","
","
","""event"",""trial"",""time""
""fullscreenenter"",""1"",""2121""
","
","true","","","","","","","","","","","","","","","","","","","",""
"preload","2","10440","0.0-2.0","5887","2","14","Male","approach_avoid_spark_v1","""event"",""trial"",""time""
""fullscreenenter"",""1"",""2121""
","
","
","""event"",""trial"",""time""
""fullscreenenter"",""1"",""2121""
","
","true","false","[]","[]","[]","","","","","","","","","","","","","","","",""
"audio-keyboard-response","3","13265","0.0-3.0","5887","2","14","Male","approach_avoid_spark_v1","""event"",""trial"",""time""
""fullscreenenter"",""1"",""2121""
","
","
","""event"",""trial"",""time""
""fullscreenenter"",""1"",""2121""
","
","","","","","","2826.666666666666","audio/beep_loop.wav"," ","","","","","","","","","","","","",""
"audio-button-response","4","16024","0.0-4.0","5887","2","14","Male","approach_avoid_spark_v1","""event"",""trial"",""time""
""fullscreenenter"",""1"",""2121""
","
","
","""event"",""trial"",""time""
""fullscreenenter"",""1"",""2121""
","
","","","","","","2752","audio/shark.wav","1","","","","","","","","","","","","",""
"audio-button-response","5","18601","0.0-5.0","5887","2","14","Male","approach_avoid_spark_v1","""event"",""trial"",""time""
""fullscreenenter"",""1"",""2121""
","
","
","""event"",""trial"",""time""
""fullscreenenter"",""1"",""2121""
","
","","","","","","1568","audio/turtle.wav","1","","","","","","","","","","","","",""
"preload","6","22106","0.0-6.0","5887","2","14","Male","approach_avoid_spark_v1","""event"",""trial"",""time""
""fullscreenenter"",""1"",""2121""
","
","
","""event"",""trial"",""time""
""fullscreenenter"",""1"",""2121""
","
","true","false","[]","[]","[]","","","","","","","","","","","","","","","",""
"html-keyboard-response","7","25696","0.0-7.0","5887","2","14","Male","approach_avoid_spark_v1","""event"",""trial"",""time""
""fullscreenenter"",""1"",""2121""
","
","
","""event"",""trial"",""time""
""fullscreenenter"",""1"",""2121""
","
","","","","","","3588.2999999998137","Welcome to the experiment. Press any key to begin and to advance the instructions."," ","","","","","","","","","","","","",""
"learning-instructions","8","33824","0.0-8.0-0.0-0.0","5887","2","14","Male","approach_avoid_spark_v1","""event"",""trial"",""time""
""fullscreenenter"",""1"",""2121""
","
","
","""event"",""trial"",""time""
""fullscreenenter"",""1"",""2121""
","
","","","","","","1167.0999999998603","<p> Welcome! Today you are going to play 6 different rounds of a decision-making game. </p><p> Use the mouse to click next to continue. </p>","","0","instructions","","","","","","","","","","",""
"learning-instructions","9","37179","0.0-8.0-0.0-0.1","5887","2","14","Male","approach_avoid_spark_v1","""event"",""trial"",""time""
""fullscreenenter"",""1"",""2121""
","
","
","""event"",""trial"",""time""
""fullscreenenter"",""1"",""2121""
","
","","","","","","627.3999999999069","<p> You will start with a practice round to learn the rules. </p>","","0","instructions","","","","","","","","","","",""
"learning-instructions","10","41147","0.0-8.0-0.0-0.2","5887","2","14","Male","approach_avoid_spark_v1","""event"",""trial"",""time""
""fullscreenenter"",""1"",""2121""
","
","
","""event"",""trial"",""time""
""fullscreenenter"",""1"",""2121""
","
","","","","","","508.19999999995343","<p> Your goal in this round is to give out sports equipment to kids. </p></div>","","0","instructions","","","","","","","","","","",""
"learning-instructions","11","49144","0.0-8.0-0.0-0.3","5887","2","14","Male","approach_avoid_spark_v1","""event"",""trial"",""time""
""fullscreenenter"",""1"",""2121""
","
","
","""event"",""trial"",""time""
""fullscreenenter"",""1"",""2121""
","
","","","","","","447.69999999995343","<p> The kids only like some of the equipment.  </p><p> On each turn, you will see a piece of sports equipment.   </p><p> You need to decide whether to give it to the kids or not.  </p>","","0","instructions","","","","","","","","","","",""
"learning-instructions","12","54240","0.0-8.0-0.0-0.4","5887","2","14","Male","approach_avoid_spark_v1","""event"",""trial"",""time""
""fullscreenenter"",""1"",""2121""
","
","
","""event"",""trial"",""time""
""fullscreenenter"",""1"",""2121""
","
","","","","","","346.39999999990687","<p> You can give them the equipment by pressing 1 and choose not to give it to them by pressing 0. </p><br><div class=""choice-instructions-grid""> <div class=""choice-option""><img src=""images/approach.png"" class=""choice-option-img"" stage=""instructions"" position=""0"" ><div class=""choice-option-text""> Press ""1."" </div></div><div class=""choice-option""><img src=""images/avoid.png"" class=""choice-option-img"" stage=""instructions"" position=""1"" ><div class=""choice-option-text""> Press ""0."" </div></div>","","0","instructions","","","","","","","","","","",""
"learning-instructions","13","62033","0.0-8.0-0.0-0.5","5887","2","14","Male","approach_avoid_spark_v1","""event"",""trial"",""time""
""fullscreenenter"",""1"",""2121""
","
","
","""event"",""trial"",""time""
""fullscreenenter"",""1"",""2121""
","
","","","","","","402.20000000018626","<p> If you give them a piece of equipment they like, they will be happy! </p><p> But if you give them a piece of equipment they do not like, they will be sad. </p>","","0","instructions","","","","","","","","","","",""
"learning-instructions","14","72916","0.0-8.0-0.0-0.6","5887","2","14","Male","approach_avoid_spark_v1","""event"",""trial"",""time""
""fullscreenenter"",""1"",""2121""
","
","
","""event"",""trial"",""time""
""fullscreenenter"",""1"",""2121""
","
","","","","","","367.80000000004657","<p> You will earn points based on how you make kids feel. </p><p> If you make them happy, you will WIN anywhere from 1 - 9 points, </p><p> but if you make them sad, you will LOSE anywhere from 1 - 9 points. </p>","","0","instructions","","","","","","","","","","",""
"learning-instructions","15","82934","0.0-8.0-0.0-0.7","5887","2","14","Male","approach_avoid_spark_v1","""event"",""trial"",""time""
""fullscreenenter"",""1"",""2121""
","
","
","""event"",""trial"",""time""
""fullscreenenter"",""1"",""2121""
","
","","","","","","458.89999999990687","<p> You will see how many points you won or lost in the center of the screen. </p><p> Here is what you would see if you won 6 points: </p><p style=""color:green;font-size:50px;font-weight:bolder"">6</p><p style=""color:green"">The text is GREEN because you WON points.</p>","","0","instructions","","","","","","","","","","",""
"learning-instructions","16","88924","0.0-8.0-0.0-0.8","5887","2","14","Male","approach_avoid_spark_v1","""event"",""trial"",""time""
""fullscreenenter"",""1"",""2121""
","
","
","""event"",""trial"",""time""
""fullscreenenter"",""1"",""2121""
","
","","","","","","474.0999999998603","<p> And here is what you would see if you lost 4 points: </p><p style=""color:red;font-size:50px;font-weight:bolder"">-4</p><p style=""color:red"">The text is RED because you LOST points. </p>","","0","instructions","","","","","","","","","","",""
"learning-instructions","17","104020","0.0-8.0-0.0-0.9","5887","2","14","Male","approach_avoid_spark_v1","""event"",""trial"",""time""
""fullscreenenter"",""1"",""2121""
","
","
","""event"",""trial"",""time""
""fullscreenenter"",""1"",""2121""
","
","","","","","","373.69999999995343","<p> Some of the equipment will make the kids VERY happy or sad. </p><p> These pieces of equipment will make you win or lose LOTS of points. </p><p> Other pieces of equipment will only make the kids a little happy or sad. </p><p> These pieces of equipment will make you win or lose small amounts of points. </p>","","0","instructions","","","","","","","","","","",""
"learning-instructions","18","115060","0.0-8.0-0.0-0.10","5887","2","14","Male","approach_avoid_spark_v1","""event"",""trial"",""time""
""fullscreenenter"",""1"",""2121""
","
","
","""event"",""trial"",""time""
""fullscreenenter"",""1"",""2121""
","
","","","","","","400","<p> If you choose not to give them the equipment, you will not win or lose any points. </p><p>  However, in the center of the screen, you will see the number of points you WOULD HAVE won or lost if you had given them the equipment. </p>","","0","instructions","","","","","","","","","","",""
"learning-instructions","19","138297","0.0-8.0-0.0-0.11","5887","2","14","Male","approach_avoid_spark_v1","""event"",""trial"",""time""
""fullscreenenter"",""1"",""2121""
","
","
","""event"",""trial"",""time""
""fullscreenenter"",""1"",""2121""
","
","","","","","","1696.0999999998603","<p> Here is what you might see if you did not give the equipment to the kids but it would have made them happy: </p><p style=""color:grey; font-size:50px; display: inline-block; border-spacing: 15px; border-width:3px; border-style:solid; border-color:red"">  &nbsp; 7 &nbsp; </p><p> Remember, in this case, you would not win or lose ANY points because you did not give them the equipment.  </p><p style=""color:grey"">The text is GREY because you earned ZERO points. </p><p style=""color:red"">However, choosing to give the kids the equipment would have made you win points. The box around the text is RED because you chose the worse option. </p>","","0","instructions","","","","","","","","","","",""
"learning-instructions","20","159841","0.0-8.0-0.0-0.12","5887","2","14","Male","approach_avoid_spark_v1","""event"",""trial"",""time""
""fullscreenenter"",""1"",""2121""
","
","
","""event"",""trial"",""time""
""fullscreenenter"",""1"",""2121""
","
","","","","","","465.39999999990687","<p> Here is what you might see if you did not give the equipment to the kids but it would have made them sad: </p><p style=""color:grey;font-size:50px; display: inline-block; border-spacing: 15px; border-width:3px; border-style:solid; border-color:green"">  &nbsp; -8 &nbsp; </p><p> Remember, in this case, you would not win or lose ANY points because you did not give them the equipment.  </p><p style=""color:grey"">The text is GREY because you earned ZERO points. </p><p  style=""color:green""> Choosing to give the kids the equipment would have made you lose points. The box around the text is GREEN because you chose the better option.</p>","","0","instructions","","","","","","","","","","",""
"learning-instructions","21","169742","0.0-8.0-0.0-0.13","5887","2","14","Male","approach_avoid_spark_v1","""event"",""trial"",""time""
""fullscreenenter"",""1"",""2121""
","
","
","""event"",""trial"",""time""
""fullscreenenter"",""1"",""2121""
","
","","","","","","1103.3000000000466","<p> You will have 3 seconds to make each choice. Try to respond before time runs out! </p><p> You will lose 5 points each time you do not make a response. </p>","","0","instructions","","","","","","","","","","",""
"learning-instructions","22","175550","0.0-8.0-0.0-0.14","5887","2","14","Male","approach_avoid_spark_v1","""event"",""trial"",""time""
""fullscreenenter"",""1"",""2121""
","
","
","""event"",""trial"",""time""
""fullscreenenter"",""1"",""2121""
","
","","","","","","390.80000000004657","<p> This is just a practice round, but in the real game, your bonus payment will depend on your total number of points.","","0","instructions","","","","","","","","","","",""
"learning-instructions","23","182784","0.0-8.0-0.0-0.15","5887","2","14","Male","approach_avoid_spark_v1","""event"",""trial"",""time""
""fullscreenenter"",""1"",""2121""
","
","
","""event"",""trial"",""time""
""fullscreenenter"",""1"",""2121""
","
","","","","","","1466.9000000001397","<p> Remember, you can give them the equipment by pressing 1 and choose not to give it to them by pressing 0. </p><br><div class=""choice-instructions-grid""> <div class=""choice-option""><img src=""images/approach.png"" class=""choice-option-img"" stage=""instructions"" position=""0"" ><div class=""choice-option-text""> Press ""1."" </div></div><div class=""choice-option""><img src=""images/avoid.png"" class=""choice-option-img"" stage=""instructions"" position=""1"" ><div class=""choice-option-text""> Press ""0."" </div></div>","","0","instructions","","","","","","","","","","",""
"html-button-response","24","184644","0.0-8.0-1.0","5887","2","14","Male","approach_avoid_spark_v1","""event"",""trial"",""time""
""fullscreenenter"",""1"",""2121""
","
","
","""event"",""trial"",""time""
""fullscreenenter"",""1"",""2121""
","
","","","","","","1754.5","<p> Ready to practice? </p>","0","","","","","","","","","","","","",""
"html-keyboard-response","25","185254","0.0-8.0-2.0-0.0","5887","2","14","Male","approach_avoid_spark_v1","""event"",""trial"",""time""
""fullscreenenter"",""1"",""2121""
","
","
","""event"",""trial"",""time""
""fullscreenenter"",""1"",""2121""
","
","","","","","","null","<div style=""font-size:60px;"">+</div>","null","","fixation","","","","","","","","","","",""
"aa-learning-trial","26","188263","0.0-8.0-2.0-1.0","5887","2","14","Male","approach_avoid_spark_v1","""event"",""trial"",""time""
""fullscreenenter"",""1"",""2121""
","
","
","""event"",""trial"",""time""
""fullscreenenter"",""1"",""2121""
","
","","","","","","2602.3000000000466","images/ball3.png","","","learning","-8","-8","1","1","practice","practice","practice","-1","","",""
"html-keyboard-response","27","188766","0.0-8.0-2.0-0.1","5887","2","14","Male","approach_avoid_spark_v1","""event"",""trial"",""time""
""fullscreenenter"",""1"",""2121""
","
","
","""event"",""trial"",""time""
""fullscreenenter"",""1"",""2121""
","
","","","","","","null","<div style=""font-size:60px;"">+</div>","null","","fixation","","","","","","","","","","",""
"aa-learning-trial","28","191775","0.0-8.0-2.0-1.1","5887","2","14","Male","approach_avoid_spark_v1","""event"",""trial"",""time""
""fullscreenenter"",""1"",""2121""
","
","
","""event"",""trial"",""time""
""fullscreenenter"",""1"",""2121""
","
","","","","","","1316.6000000000931","images/racket2.png","","","learning","-1","-1","1","1","practice","practice","practice","-1","","",""
"html-keyboard-response","29","192279","0.0-8.0-2.0-0.2","5887","2","14","Male","approach_avoid_spark_v1","""event"",""trial"",""time""
""fullscreenenter"",""1"",""2121""
","
","
","""event"",""trial"",""time""
""fullscreenenter"",""1"",""2121""
","
","","","","","","null","<div style=""font-size:60px;"">+</div>","null","","fixation","","","","","","","","","","",""
"aa-learning-trial","30","195287","0.0-8.0-2.0-1.2","5887","2","14","Male","approach_avoid_spark_v1","""event"",""trial"",""time""
""fullscreenenter"",""1"",""2121""
","
","
","""event"",""trial"",""time""
""fullscreenenter"",""1"",""2121""
","
","","","","","","2362.600000000093","images/racket3.png","","","learning","-1","0","0","0","practice","practice","practice","-1","","",""
"html-keyboard-response","31","195790","0.0-8.0-2.0-0.3","5887","2","14","Male","approach_avoid_spark_v1","""event"",""trial"",""time""
""fullscreenenter"",""1"",""2121""
","
","
","""event"",""trial"",""time""
""fullscreenenter"",""1"",""2121""
","
","","","","","","null","<div style=""font-size:60px;"">+</div>","null","","fixation","","","","","","","","","","",""
"aa-learning-trial","32","198799","0.0-8.0-2.0-1.3","5887","2","14","Male","approach_avoid_spark_v1","""event"",""trial"",""time""
""fullscreenenter"",""1"",""2121""
","
","
","""event"",""trial"",""time""
""fullscreenenter"",""1"",""2121""
","
","","","","","","1164.9000000001397","images/racket2.png","","","learning","4","0","0","0","practice","practice","practice","-1","","",""
"html-keyboard-response","33","199302","0.0-8.0-2.0-0.4","5887","2","14","Male","approach_avoid_spark_v1","""event"",""trial"",""time""
""fullscreenenter"",""1"",""2121""
","
","
","""event"",""trial"",""time""
""fullscreenenter"",""1"",""2121""
","
","","","","","","null","<div style=""font-size:60px;"">+</div>","null","","fixation","","","","","","","","","","",""
"aa-learning-trial","34","202311","0.0-8.0-2.0-1.4","5887","2","14","Male","approach_avoid_spark_v1","""event"",""trial"",""time""
""fullscreenenter"",""1"",""2121""
","
","
","""event"",""trial"",""time""
""fullscreenenter"",""1"",""2121""
","
","","","","","","null","images/ball4.png","","","learning","7","-5","","null","practice","practice","practice","-1","","",""
"html-keyboard-response","35","202814","0.0-8.0-2.0-0.5","5887","2","14","Male","approach_avoid_spark_v1","""event"",""trial"",""time""
""fullscreenenter"",""1"",""2121""
","
","
","""event"",""trial"",""time""
""fullscreenenter"",""1"",""2121""
","
","","","","","","null","<div style=""font-size:60px;"">+</div>","null","","fixation","","","","","","","","","","",""
"aa-learning-trial","36","205823","0.0-8.0-2.0-1.5","5887","2","14","Male","approach_avoid_spark_v1","""event"",""trial"",""time""
""fullscreenenter"",""1"",""2121""
","
","
","""event"",""trial"",""time""
""fullscreenenter"",""1"",""2121""
","
","","","","","","975","images/ball3.png","","","learning","-5","-5","1","1","practice","practice","practice","-1","","",""
"html-keyboard-response","37","206327","0.0-8.0-2.0-0.6","5887","2","14","Male","approach_avoid_spark_v1","""event"",""trial"",""time""
""fullscreenenter"",""1"",""2121""
","
","
","""event"",""trial"",""time""
""fullscreenenter"",""1"",""2121""
","
","","","","","","null","<div style=""font-size:60px;"">+</div>","null","","fixation","","","","","","","","","","",""
"aa-learning-trial","38","209335","0.0-8.0-2.0-1.6","5887","2","14","Male","approach_avoid_spark_v1","""event"",""trial"",""time""
""fullscreenenter"",""1"",""2121""
","
","
","""event"",""trial"",""time""
""fullscreenenter"",""1"",""2121""
","
","","","","","","1743.1000000000931","images/racket3.png","","","learning","1","0","0","0","practice","practice","practice","-1","","",""
"html-keyboard-response","39","209838","0.0-8.0-2.0-0.7","5887","2","14","Male","approach_avoid_spark_v1","""event"",""trial"",""time""
""fullscreenenter"",""1"",""2121""
","
","
","""event"",""trial"",""time""
""fullscreenenter"",""1"",""2121""
","
","","","","","","null","<div style=""font-size:60px;"">+</div>","null","","fixation","","","","","","","","","","",""
"aa-learning-trial","40","212847","0.0-8.0-2.0-1.7","5887","2","14","Male","approach_avoid_spark_v1","""event"",""trial"",""time""
""fullscreenenter"",""1"",""2121""
","
","
","""event"",""trial"",""time""
""fullscreenenter"",""1"",""2121""
","
","","","","","","1659.3999999999069","images/ball3.png","","","learning","5","5","1","1","practice","practice","practice","-1","","",""
"html-keyboard-response","41","213351","0.0-8.0-2.0-0.8","5887","2","14","Male","approach_avoid_spark_v1","""event"",""trial"",""time""
""fullscreenenter"",""1"",""2121""
","
","
","""event"",""trial"",""time""
""fullscreenenter"",""1"",""2121""
","
","","","","","","null","<div style=""font-size:60px;"">+</div>","null","","fixation","","","","","","","","","","",""
"aa-learning-trial","42","216359","0.0-8.0-2.0-1.8","5887","2","14","Male","approach_avoid_spark_v1","""event"",""trial"",""time""
""fullscreenenter"",""1"",""2121""
","
","
","""event"",""trial"",""time""
""fullscreenenter"",""1"",""2121""
","
","","","","","","1115.5999999998603","images/racket2.png","","","learning","-5","0","0","0","practice","practice","practice","-1","","",""
"html-keyboard-response","43","216862","0.0-8.0-2.0-0.9","5887","2","14","Male","approach_avoid_spark_v1","""event"",""trial"",""time""
""fullscreenenter"",""1"",""2121""
","
","
","""event"",""trial"",""time""
""fullscreenenter"",""1"",""2121""
","
","","","","","","null","<div style=""font-size:60px;"">+</div>","null","","fixation","","","","","","","","","","",""
"aa-learning-trial","44","219871","0.0-8.0-2.0-1.9","5887","2","14","Male","approach_avoid_spark_v1","""event"",""trial"",""time""
""fullscreenenter"",""1"",""2121""
","
","
","""event"",""trial"",""time""
""fullscreenenter"",""1"",""2121""
","
","","","","","","1396","images/racket2.png","","","learning","2","0","0","0","practice","practice","practice","-1","","",""
"html-keyboard-response","45","220374","0.0-8.0-2.0-0.10","5887","2","14","Male","approach_avoid_spark_v1","""event"",""trial"",""time""
""fullscreenenter"",""1"",""2121""
","
","
","""event"",""trial"",""time""
""fullscreenenter"",""1"",""2121""
","
","","","","","","null","<div style=""font-size:60px;"">+</div>","null","","fixation","","","","","","","","","","",""
"aa-learning-trial","46","223383","0.0-8.0-2.0-1.10","5887","2","14","Male","approach_avoid_spark_v1","""event"",""trial"",""time""
""fullscreenenter"",""1"",""2121""
","
","
","""event"",""trial"",""time""
""fullscreenenter"",""1"",""2121""
","
","","","","","","991.8999999999069","images/racket2.png","","","learning","-7","-7","1","1","practice","practice","practice","-1","","",""
"html-keyboard-response","47","223886","0.0-8.0-2.0-0.11","5887","2","14","Male","approach_avoid_spark_v1","""event"",""trial"",""time""
""fullscreenenter"",""1"",""2121""
","
","
","""event"",""trial"",""time""
""fullscreenenter"",""1"",""2121""
","
","","","","","","null","<div style=""font-size:60px;"">+</div>","null","","fixation","","","","","","","","","","",""
"aa-learning-trial","48","226895","0.0-8.0-2.0-1.11","5887","2","14","Male","approach_avoid_spark_v1","""event"",""trial"",""time""
""fullscreenenter"",""1"",""2121""
","
","
","""event"",""trial"",""time""
""fullscreenenter"",""1"",""2121""
","
","","","","","","1667.1000000000931","images/racket2.png","","","learning","-6","0","0","0","practice","practice","practice","-1","","",""
"html-button-response","49","229537","0.0-8.0-3.0","5887","2","14","Male","approach_avoid_spark_v1","""event"",""trial"",""time""
""fullscreenenter"",""1"",""2121""
","
","
","""event"",""trial"",""time""
""fullscreenenter"",""1"",""2121""
","
","","","","","","2636","<p> You earned -21 points in the practice round! </p>","0","","break","","","","","","","","","","",""
"learning-instructions","50","236386","0.0-8.0-4.0-0.0","5887","2","14","Male","approach_avoid_spark_v1","""event"",""trial"",""time""
""fullscreenenter"",""1"",""2121""
","
","
","""event"",""trial"",""time""
""fullscreenenter"",""1"",""2121""
","
","","","","","","798.4000000001397","<p> It's almost time to start the real game. </p><p> Before you start, we're going to ask you a few questions about how the game works. </p>","","0","instructions","","","","","","","","","","",""
"preload","51","237756","0.0-8.0-5.0","5887","2","14","Male","approach_avoid_spark_v1","""event"",""trial"",""time""
""fullscreenenter"",""1"",""2121""
","
","
","""event"",""trial"",""time""
""fullscreenenter"",""1"",""2121""
","
","true","false","[]","[]","[]","","","","","","","","","","","","","","","",""
"comp-q","52","243973","0.0-8.0-6.0-0.0","5887","2","14","Male","approach_avoid_spark_v1","""event"",""trial"",""time""
""fullscreenenter"",""1"",""2121""
","
","
","""event"",""trial"",""time""
""fullscreenenter"",""1"",""2121""
","
","","","","","","1213.4000000001397","<p> <b> True or False? </b> </p><p> If you see a number in GREY, that means you earned that many points. </p>","","1","comp_question","","","","","","","","","true","",""
"comp-q","53","254218","0.0-8.0-6.0-1.0","5887","2","14","Male","approach_avoid_spark_v1","""event"",""trial"",""time""
""fullscreenenter"",""1"",""2121""
","
","
","""event"",""trial"",""time""
""fullscreenenter"",""1"",""2121""
","
","","","","","","1876","<p><b> That's right! </b> If you see a grey number, it means you earned ZERO points. <br> The grey numbers show the points you WOULD HAVE earned if you had made the other choice. </p>","","0","comp_answer","","","","","","","","","","",""
"comp-q","54","259630","0.0-8.0-7.0-0.0","5887","2","14","Male","approach_avoid_spark_v1","""event"",""trial"",""time""
""fullscreenenter"",""1"",""2121""
","
","
","""event"",""trial"",""time""
""fullscreenenter"",""1"",""2121""
","
","","","","","","713.5999999998603","<p> <b> True or False? </b> </p><p> You will have as much time as you want to make each choice. </p>","","1","comp_question","","","","","","","","","true","",""
"comp-q","55","264816","0.0-8.0-7.0-1.0","5887","2","14","Male","approach_avoid_spark_v1","""event"",""trial"",""time""
""fullscreenenter"",""1"",""2121""
","
","
","""event"",""trial"",""time""
""fullscreenenter"",""1"",""2121""
","
","","","","","","1140.3999999999069","<p> <b> That's right! </b> You will only have 3 seconds to make each choice. </p>","","0","comp_answer","","","","","","","","","","",""
"comp-q","56","270240","0.0-8.0-8.0-0.0","5887","2","14","Male","approach_avoid_spark_v1","""event"",""trial"",""time""
""fullscreenenter"",""1"",""2121""
","
","
","""event"",""trial"",""time""
""fullscreenenter"",""1"",""2121""
","
","","","","","","769.1999999999534","<p> <b> True or False? </b> </p><p> You should use the '1' and '0' keys to make your choices. </p>","","0","comp_question","","","","","","","","","true","",""
"comp-q","57","277492","0.0-8.0-8.0-1.0","5887","2","14","Male","approach_avoid_spark_v1","""event"",""trial"",""time""
""fullscreenenter"",""1"",""2121""
""fullscreenexit"",""58"",""284446""
","
","
","""event"",""trial"",""time""
""fullscreenenter"",""1"",""2121""
","""event"",""trial"",""time""
""fullscreenexit"",""58"",""284446""
","","","","","","2643.0999999998603","<p> <b> That's right! </b> You should use the '1' and '0' keys to make each choice. </p>","","0","comp_answer","","","","","","","","","","",""
"learning-instructions","58","287953","0.0-8.0-9.0-0.0","5887","2","14","Male","approach_avoid_spark_v1","""event"",""trial"",""time""
""fullscreenenter"",""1"",""2121""
""fullscreenexit"",""58"",""284446""
","
","
","""event"",""trial"",""time""
""fullscreenenter"",""1"",""2121""
","""event"",""trial"",""time""
""fullscreenexit"",""58"",""284446""
","","","","","","4192.300000000047","<p> It's now time to start the real game. </p>Do your best, because the points you earn in the next rounds will influence your bonus payment. </p>","","0","instructions","","","","","","","","","","",""
"preload","59","288083","0.0-9.0-0.0","5887","2","14","Male","approach_avoid_spark_v1","""event"",""trial"",""time""
""fullscreenenter"",""1"",""2121""
""fullscreenexit"",""58"",""284446""
","
","
","""event"",""trial"",""time""
""fullscreenenter"",""1"",""2121""
","""event"",""trial"",""time""
""fullscreenexit"",""58"",""284446""
","true","false","[]","[]","[]","","","","","","","","","","","","","","","",""
"learning-instructions","60","293148","0.0-9.0-1.0-0.0","5887","2","14","Male","approach_avoid_spark_v1","""event"",""trial"",""time""
""fullscreenenter"",""1"",""2121""
""fullscreenexit"",""58"",""284446""
","
","
","""event"",""trial"",""time""
""fullscreenenter"",""1"",""2121""
","""event"",""trial"",""time""
""fullscreenexit"",""58"",""284446""
","","","","","","1053.3000000000466","<p> Your goal in this round is to take care of lots of farm animals. </p></div>","","0","instructions","","","","","","","","","","",""
"learning-instructions","61","303323","0.0-9.0-1.0-0.1","5887","2","14","Male","approach_avoid_spark_v1","""event"",""trial"",""time""
""fullscreenenter"",""1"",""2121""
""fullscreenexit"",""58"",""284446""
","
","
","""event"",""trial"",""time""
""fullscreenenter"",""1"",""2121""
","""event"",""trial"",""time""
""fullscreenexit"",""58"",""284446""
","","","","","","577.7000000001863","<p> Some farm animals are hungry, while other farm animals are already full.  </p><p> On each turn, you will see a farm animal.   </p><p> You need to decide whether to feed it or not.  </p>","","0","instructions","","","","","","","","","","",""
"learning-instructions","62","309435","0.0-9.0-1.0-0.2","5887","2","14","Male","approach_avoid_spark_v1","""event"",""trial"",""time""
""fullscreenenter"",""1"",""2121""
""fullscreenexit"",""58"",""284446""
","
","
","""event"",""trial"",""time""
""fullscreenenter"",""1"",""2121""
","""event"",""trial"",""time""
""fullscreenexit"",""58"",""284446""
","","","","","","488.80000000004657","<p> You can feed the farm animal by pressing 1 and leave the farm animal alone by pressing 0. </p><br><div class=""choice-instructions-grid""> <div class=""choice-option""><img src=""images/approach.png"" class=""choice-option-img"" stage=""instructions"" position=""0"" ><div class=""choice-option-text""> Press ""1."" </div></div><div class=""choice-option""><img src=""images/avoid.png"" class=""choice-option-img"" stage=""instructions"" position=""1"" ><div class=""choice-option-text""> Press ""0."" </div></div>","","0","instructions","","","","","","","","","","",""
"learning-instructions","63","319621","0.0-9.0-1.0-0.3","5887","2","14","Male","approach_avoid_spark_v1","""event"",""trial"",""time""
""fullscreenenter"",""1"",""2121""
""fullscreenexit"",""58"",""284446""
","
","
","""event"",""trial"",""time""
""fullscreenenter"",""1"",""2121""
","""event"",""trial"",""time""
""fullscreenexit"",""58"",""284446""
","","","","","","942.0999999998603","<p> If you feed a hungry farm animal, you will make it feel satisfied! </p><p> But if you feed the farm animal and it was already full, you will make it feel sick. </p>","","0","instructions","","","","","","","","","","",""
"learning-instructions","64","331986","0.0-9.0-1.0-0.4","5887","2","14","Male","approach_avoid_spark_v1","""event"",""trial"",""time""
""fullscreenenter"",""1"",""2121""
""fullscreenexit"",""58"",""284446""
","
","
","""event"",""trial"",""time""
""fullscreenenter"",""1"",""2121""
","""event"",""trial"",""time""
""fullscreenexit"",""58"",""284446""
","","","","","","371.70000000018626","<p> You will earn points based on how you made the farm animal feel. </p><p> If you made it satisfied, you will WIN anywhere from 1 - 9 points, </p><p> but if you made it sick, you will LOSE anywhere from 1 - 9 points. </p>","","0","instructions","","","","","","","","","","",""
"learning-instructions","65","339673","0.0-9.0-1.0-0.5","5887","2","14","Male","approach_avoid_spark_v1","""event"",""trial"",""time""
""fullscreenenter"",""1"",""2121""
""fullscreenexit"",""58"",""284446""
","
","
","""event"",""trial"",""time""
""fullscreenenter"",""1"",""2121""
","""event"",""trial"",""time""
""fullscreenexit"",""58"",""284446""
","","","","","","428.69999999995343","<p> You will see how many points you won or lost in the center of the screen. </p><p> Here is what you would see if you won 5 points: </p><p style=""color:green;font-size:50px;font-weight:bolder"">5</p>","","0","instructions","","","","","","","","","","",""
"learning-instructions","66","343374","0.0-9.0-1.0-0.6","5887","2","14","Male","approach_avoid_spark_v1","""event"",""trial"",""time""
""fullscreenenter"",""1"",""2121""
""fullscreenexit"",""58"",""284446""
","
","
","""event"",""trial"",""time""
""fullscreenenter"",""1"",""2121""
","""event"",""trial"",""time""
""fullscreenexit"",""58"",""284446""
","","","","","","469.80000000004657","<p> And here is what you would see if you lost 3 points: </p><p style=""color:red;font-size:50px;font-weight:bolder"">-3</p>","","0","instructions","","","","","","","","","","",""
"learning-instructions","67","358955","0.0-9.0-1.0-0.7","5887","2","14","Male","approach_avoid_spark_v1","""event"",""trial"",""time""
""fullscreenenter"",""1"",""2121""
""fullscreenexit"",""58"",""284446""
","
","
","""event"",""trial"",""time""
""fullscreenenter"",""1"",""2121""
","""event"",""trial"",""time""
""fullscreenexit"",""58"",""284446""
","","","","","","458.19999999995343","<p> Some farm animals will become very satisfied or very sick. </p><p> These farm animals will make you win or lose LOTS of points. </p><p> Other farm animals have less strong feelings. </p><p> These farm animals will make you win or lose small amounts of points. </p>","","0","instructions","","","","","","","","","","",""
"learning-instructions","68","371081","0.0-9.0-1.0-0.8","5887","2","14","Male","approach_avoid_spark_v1","""event"",""trial"",""time""
""fullscreenenter"",""1"",""2121""
""fullscreenexit"",""58"",""284446""
","
","
","""event"",""trial"",""time""
""fullscreenenter"",""1"",""2121""
","""event"",""trial"",""time""
""fullscreenexit"",""58"",""284446""
","","","","","","418.29999999981374","<p> If you choose to leave the farm animal alone, you will not win or lose any points. </p><p>  However, in the center of the screen, you will see the number of points you WOULD HAVE won or lost if you had fed the farm animal. </p>","","0","instructions","","","","","","","","","","",""
"learning-instructions","69","382340","0.0-9.0-1.0-0.9","5887","2","14","Male","approach_avoid_spark_v1","""event"",""trial"",""time""
""fullscreenenter"",""1"",""2121""
""fullscreenexit"",""58"",""284446""
","
","
","""event"",""trial"",""time""
""fullscreenenter"",""1"",""2121""
","""event"",""trial"",""time""
""fullscreenexit"",""58"",""284446""
","","","","","","215.5","<p> Here is what you might see if you did not feed the farm animal but the animal was hungry: </p><p style=""color:grey; font-size:50px; display: inline-block; border-spacing: 15px; border-width:3px; border-style:solid; border-color:red"">  &nbsp; 6 &nbsp; </p><p> Remember, in this case, you would not win or lose ANY points because you did not feed the farm animal.  </p>","","0","instructions","","","","","","","","","","",""
"learning-instructions","70","390352","0.0-9.0-1.0-0.10","5887","2","14","Male","approach_avoid_spark_v1","""event"",""trial"",""time""
""fullscreenenter"",""1"",""2121""
""fullscreenexit"",""58"",""284446""
","
","
","""event"",""trial"",""time""
""fullscreenenter"",""1"",""2121""
","""event"",""trial"",""time""
""fullscreenexit"",""58"",""284446""
","","","","","","490.89999999990687","<p> Try to make the best choice for each farm animal because </p><p> at the end of the game, you will earn bonus money based on how many points you earned. </p>","","0","instructions","","","","","","","","","","",""
"learning-instructions","71","398973","0.0-9.0-1.0-0.11","5887","2","14","Male","approach_avoid_spark_v1","""event"",""trial"",""time""
""fullscreenenter"",""1"",""2121""
""fullscreenexit"",""58"",""284446""
","
","
","""event"",""trial"",""time""
""fullscreenenter"",""1"",""2121""
","""event"",""trial"",""time""
""fullscreenexit"",""58"",""284446""
","","","","","","424.19999999995343","<p> You will have 3 seconds to make each choice. Try to respond before time runs out! </p><p> You will lose 5 points each time you do not make a response. </p>","","0","instructions","","","","","","","","","","",""
"html-keyboard-response","72","399583","0.0-9.0-2.0-0.0","5887","2","14","Male","approach_avoid_spark_v1","""event"",""trial"",""time""
""fullscreenenter"",""1"",""2121""
""fullscreenexit"",""58"",""284446""
","
","
","""event"",""trial"",""time""
""fullscreenenter"",""1"",""2121""
","""event"",""trial"",""time""
""fullscreenexit"",""58"",""284446""
","","","","","","null","<div style=""font-size:60px;"">+</div>","null","","fixation","","","","","","","","","","",""
"aa-learning-trial","73","402590","0.0-9.0-2.0-1.0","5887","2","14","Male","approach_avoid_spark_v1","""event"",""trial"",""time""
""fullscreenenter"",""1"",""2121""
""fullscreenexit"",""58"",""284446""
","
","
","""event"",""trial"",""time""
""fullscreenenter"",""1"",""2121""
","""event"",""trial"",""time""
""fullscreenexit"",""58"",""284446""
","","","","","","1737.8000000000466","images/sheep5.png","","","learning","8","8","1","1","sheep","animals","2","0","","neutral","0"
"html-keyboard-response","74","403094","0.0-9.0-2.0-0.1","5887","2","14","Male","approach_avoid_spark_v1","""event"",""trial"",""time""
""fullscreenenter"",""1"",""2121""
""fullscreenexit"",""58"",""284446""
","
","
","""event"",""trial"",""time""
""fullscreenenter"",""1"",""2121""
","""event"",""trial"",""time""
""fullscreenexit"",""58"",""284446""
","","","","","","null","<div style=""font-size:60px;"">+</div>","null","","fixation","","","","","","","","","","",""
"aa-learning-trial","75","406103","0.0-9.0-2.0-1.1","5887","2","14","Male","approach_avoid_spark_v1","""event"",""trial"",""time""
""fullscreenenter"",""1"",""2121""
""fullscreenexit"",""58"",""284446""
","
","
","""event"",""trial"",""time""
""fullscreenenter"",""1"",""2121""
","""event"",""trial"",""time""
""fullscreenexit"",""58"",""284446""
","","","","","","2084.1999999999534","images/sheep8.png","","","learning","-6","-6","1","1","sheep","animals","2","0","","neutral","0"
"html-keyboard-response","76","406606","0.0-9.0-2.0-0.2","5887","2","14","Male","approach_avoid_spark_v1","""event"",""trial"",""time""
""fullscreenenter"",""1"",""2121""
""fullscreenexit"",""58"",""284446""
","
","
","""event"",""trial"",""time""
""fullscreenenter"",""1"",""2121""
","""event"",""trial"",""time""
""fullscreenexit"",""58"",""284446""
","","","","","","null","<div style=""font-size:60px;"">+</div>","null","","fixation","","","","","","","","","","",""
"aa-learning-trial","77","409615","0.0-9.0-2.0-1.2","5887","2","14","Male","approach_avoid_spark_v1","""event"",""trial"",""time""
""fullscreenenter"",""1"",""2121""
""fullscreenexit"",""58"",""284446""
","
","
","""event"",""trial"",""time""
""fullscreenenter"",""1"",""2121""
","""event"",""trial"",""time""
""fullscreenexit"",""58"",""284446""
","","","","","","1284.6999999999534","images/cow6.png","","","learning","3","3","1","1","cow","animals","2","0","","good","[3]"
"html-keyboard-response","78","410118","0.0-9.0-2.0-0.3","5887","2","14","Male","approach_avoid_spark_v1","""event"",""trial"",""time""
""fullscreenenter"",""1"",""2121""
""fullscreenexit"",""58"",""284446""
","
","
","""event"",""trial"",""time""
""fullscreenenter"",""1"",""2121""
","""event"",""trial"",""time""
""fullscreenexit"",""58"",""284446""
","","","","","","null","<div style=""font-size:60px;"">+</div>","null","","fixation","","","","","","","","","","",""
"aa-learning-trial","79","413127","0.0-9.0-2.0-1.3","5887","2","14","Male","approach_avoid_spark_v1","""event"",""trial"",""time""
""fullscreenenter"",""1"",""2121""
""fullscreenexit"",""58"",""284446""
","
","
","""event"",""trial"",""time""
""fullscreenenter"",""1"",""2121""
","""event"",""trial"",""time""
""fullscreenexit"",""58"",""284446""
","","","","","","1445.3000000000466","images/sheep7.png","","","learning","5","0","0","0","sheep","animals","2","0","","neutral","0"
"html-keyboard-response","80","413634","0.0-9.0-2.0-0.4","5887","2","14","Male","approach_avoid_spark_v1","""event"",""trial"",""time""
""fullscreenenter"",""1"",""2121""
""fullscreenexit"",""58"",""284446""
","
","
","""event"",""trial"",""time""
""fullscreenenter"",""1"",""2121""
","""event"",""trial"",""time""
""fullscreenexit"",""58"",""284446""
","","","","","","null","<div style=""font-size:60px;"">+</div>","null","","fixation","","","","","","","","","","",""
"aa-learning-trial","81","416638","0.0-9.0-2.0-1.4","5887","2","14","Male","approach_avoid_spark_v1","""event"",""trial"",""time""
""fullscreenenter"",""1"",""2121""
""fullscreenexit"",""58"",""284446""
","
","
","""event"",""trial"",""time""
""fullscreenenter"",""1"",""2121""
","""event"",""trial"",""time""
""fullscreenexit"",""58"",""284446""
","","","","","","1210.5","images/cow7.png","","","learning","6","6","1","1","cow","animals","2","0","","good","[3]"
"html-keyboard-response","82","417142","0.0-9.0-2.0-0.5","5887","2","14","Male","approach_avoid_spark_v1","""event"",""trial"",""time""
""fullscreenenter"",""1"",""2121""
""fullscreenexit"",""58"",""284446""
","
","
","""event"",""trial"",""time""
""fullscreenenter"",""1"",""2121""
","""event"",""trial"",""time""
""fullscreenexit"",""58"",""284446""
","","","","","","null","<div style=""font-size:60px;"">+</div>","null","","fixation","","","","","","","","","","",""
"aa-learning-trial","83","420151","0.0-9.0-2.0-1.5","5887","2","14","Male","approach_avoid_spark_v1","""event"",""trial"",""time""
""fullscreenenter"",""1"",""2121""
""fullscreenexit"",""58"",""284446""
","
","
","""event"",""trial"",""time""
""fullscreenenter"",""1"",""2121""
","""event"",""trial"",""time""
""fullscreenexit"",""58"",""284446""
","","","","","","1129.1000000000931","images/cow7.png","","","learning","6","0","0","0","cow","animals","2","0","","good","[3]"
"html-keyboard-response","84","420654","0.0-9.0-2.0-0.6","5887","2","14","Male","approach_avoid_spark_v1","""event"",""trial"",""time""
""fullscreenenter"",""1"",""2121""
""fullscreenexit"",""58"",""284446""
","
","
","""event"",""trial"",""time""
""fullscreenenter"",""1"",""2121""
","""event"",""trial"",""time""
""fullscreenexit"",""58"",""284446""
","","","","","","null","<div style=""font-size:60px;"">+</div>","null","","fixation","","","","","","","","","","",""
"aa-learning-trial","85","423663","0.0-9.0-2.0-1.6","5887","2","14","Male","approach_avoid_spark_v1","""event"",""trial"",""time""
""fullscreenenter"",""1"",""2121""
""fullscreenexit"",""58"",""284446""
","
","
","""event"",""trial"",""time""
""fullscreenenter"",""1"",""2121""
","""event"",""trial"",""time""
""fullscreenexit"",""58"",""284446""
","","","","","","1155.8999999999069","images/sheep7.png","","","learning","5","5","1","1","sheep","animals","2","0","","neutral","0"
"html-keyboard-response","86","424166","0.0-9.0-2.0-0.7","5887","2","14","Male","approach_avoid_spark_v1","""event"",""trial"",""time""
""fullscreenenter"",""1"",""2121""
""fullscreenexit"",""58"",""284446""
","
","
","""event"",""trial"",""time""
""fullscreenenter"",""1"",""2121""
","""event"",""trial"",""time""
""fullscreenexit"",""58"",""284446""
","","","","","","null","<div style=""font-size:60px;"">+</div>","null","","fixation","","","","","","","","","","",""
"aa-learning-trial","87","427174","0.0-9.0-2.0-1.7","5887","2","14","Male","approach_avoid_spark_v1","""event"",""trial"",""time""
""fullscreenenter"",""1"",""2121""
""fullscreenexit"",""58"",""284446""
","
","
","""event"",""trial"",""time""
""fullscreenenter"",""1"",""2121""
","""event"",""trial"",""time""
""fullscreenexit"",""58"",""284446""
","","","","","","1792.8000000000466","images/goat3.png","","","learning","2","0","0","0","goat","animals","2","0","","bad","[-5]"
"html-keyboard-response","88","427678","0.0-9.0-2.0-0.8","5887","2","14","Male","approach_avoid_spark_v1","""event"",""trial"",""time""
""fullscreenenter"",""1"",""2121""
""fullscreenexit"",""58"",""284446""
","
","
","""event"",""trial"",""time""
""fullscreenenter"",""1"",""2121""
","""event"",""trial"",""time""
""fullscreenexit"",""58"",""284446""
","","","","","","null","<div style=""font-size:60px;"">+</div>","null","","fixation","","","","","","","","","","",""
"aa-learning-trial","89","430686","0.0-9.0-2.0-1.8","5887","2","14","Male","approach_avoid_spark_v1","""event"",""trial"",""time""
""fullscreenenter"",""1"",""2121""
""fullscreenexit"",""58"",""284446""
","
","
","""event"",""trial"",""time""
""fullscreenenter"",""1"",""2121""
","""event"",""trial"",""time""
""fullscreenexit"",""58"",""284446""
","","","","","","1011.9000000001397","images/goat2.png","","","learning","-9","-9","1","1","goat","animals","2","0","","bad","[-5]"
"html-keyboard-response","90","431191","0.0-9.0-2.0-0.9","5887","2","14","Male","approach_avoid_spark_v1","""event"",""trial"",""time""
""fullscreenenter"",""1"",""2121""
""fullscreenexit"",""58"",""284446""
","
","
","""event"",""trial"",""time""
""fullscreenenter"",""1"",""2121""
","""event"",""trial"",""time""
""fullscreenexit"",""58"",""284446""
","","","","","","null","<div style=""font-size:60px;"">+</div>","null","","fixation","","","","","","","","","","",""
"aa-learning-trial","91","434196","0.0-9.0-2.0-1.9","5887","2","14","Male","approach_avoid_spark_v1","""event"",""trial"",""time""
""fullscreenenter"",""1"",""2121""
""fullscreenexit"",""58"",""284446""
","
","
","""event"",""trial"",""time""
""fullscreenenter"",""1"",""2121""
","""event"",""trial"",""time""
""fullscreenexit"",""58"",""284446""
","","","","","","1569.5","images/goat5.png","","","learning","9","9","1","1","goat","animals","2","0","","bad","[-5]"
"html-keyboard-response","92","434702","0.0-9.0-2.0-0.10","5887","2","14","Male","approach_avoid_spark_v1","""event"",""trial"",""time""
""fullscreenenter"",""1"",""2121""
""fullscreenexit"",""58"",""284446""
","
","
","""event"",""trial"",""time""
""fullscreenenter"",""1"",""2121""
","""event"",""trial"",""time""
""fullscreenexit"",""58"",""284446""
","","","","","","null","<div style=""font-size:60px;"">+</div>","null","","fixation","","","","","","","","","","",""
"aa-learning-trial","93","437710","0.0-9.0-2.0-1.10","5887","2","14","Male","approach_avoid_spark_v1","""event"",""trial"",""time""
""fullscreenenter"",""1"",""2121""
""fullscreenexit"",""58"",""284446""
","
","
","""event"",""trial"",""time""
""fullscreenenter"",""1"",""2121""
","""event"",""trial"",""time""
""fullscreenexit"",""58"",""284446""
","","","","","","1210.1999999999534","images/goat5.png","","","learning","9","9","1","1","goat","animals","2","0","","bad","[-5]"
"html-keyboard-response","94","438214","0.0-9.0-2.0-0.11","5887","2","14","Male","approach_avoid_spark_v1","""event"",""trial"",""time""
""fullscreenenter"",""1"",""2121""
""fullscreenexit"",""58"",""284446""
","
","
","""event"",""trial"",""time""
""fullscreenenter"",""1"",""2121""
","""event"",""trial"",""time""
""fullscreenexit"",""58"",""284446""
","","","","","","null","<div style=""font-size:60px;"">+</div>","null","","fixation","","","","","","","","","","",""
"aa-learning-trial","95","441222","0.0-9.0-2.0-1.11","5887","2","14","Male","approach_avoid_spark_v1","""event"",""trial"",""time""
""fullscreenenter"",""1"",""2121""
""fullscreenexit"",""58"",""284446""
","
","
","""event"",""trial"",""time""
""fullscreenenter"",""1"",""2121""
","""event"",""trial"",""time""
""fullscreenexit"",""58"",""284446""
","","","","","","1185.3999999999069","images/goat2.png","","","learning","-9","0","0","0","goat","animals","2","0","","bad","[-5]"
"html-keyboard-response","96","441726","0.0-9.0-2.0-0.12","5887","2","14","Male","approach_avoid_spark_v1","""event"",""trial"",""time""
""fullscreenenter"",""1"",""2121""
""fullscreenexit"",""58"",""284446""
","
","
","""event"",""trial"",""time""
""fullscreenenter"",""1"",""2121""
","""event"",""trial"",""time""
""fullscreenexit"",""58"",""284446""
","","","","","","null","<div style=""font-size:60px;"">+</div>","null","","fixation","","","","","","","","","","",""
"aa-learning-trial","97","444734","0.0-9.0-2.0-1.12","5887","2","14","Male","approach_avoid_spark_v1","""event"",""trial"",""time""
""fullscreenenter"",""1"",""2121""
""fullscreenexit"",""58"",""284446""
","
","
","""event"",""trial"",""time""
""fullscreenenter"",""1"",""2121""
","""event"",""trial"",""time""
""fullscreenexit"",""58"",""284446""
","","","","","","1308.1999999999534","images/cow6.png","","","learning","3","3","1","1","cow","animals","2","0","","good","[3]"
"html-keyboard-response","98","445239","0.0-9.0-2.0-0.13","5887","2","14","Male","approach_avoid_spark_v1","""event"",""trial"",""time""
""fullscreenenter"",""1"",""2121""
""fullscreenexit"",""58"",""284446""
","
","
","""event"",""trial"",""time""
""fullscreenenter"",""1"",""2121""
","""event"",""trial"",""time""
""fullscreenexit"",""58"",""284446""
","","","","","","null","<div style=""font-size:60px;"">+</div>","null","","fixation","","","","","","","","","","",""
"aa-learning-trial","99","448246","0.0-9.0-2.0-1.13","5887","2","14","Male","approach_avoid_spark_v1","""event"",""trial"",""time""
""fullscreenenter"",""1"",""2121""
""fullscreenexit"",""58"",""284446""
","
","
","""event"",""trial"",""time""
""fullscreenenter"",""1"",""2121""
","""event"",""trial"",""time""
""fullscreenexit"",""58"",""284446""
","","","","","","1411.5","images/cow5.png","","","learning","-2","-2","1","1","cow","animals","2","0","","good","[3]"
"html-keyboard-response","100","448750","0.0-9.0-2.0-0.14","5887","2","14","Male","approach_avoid_spark_v1","""event"",""trial"",""time""
""fullscreenenter"",""1"",""2121""
""fullscreenexit"",""58"",""284446""
","
","
","""event"",""trial"",""time""
""fullscreenenter"",""1"",""2121""
","""event"",""trial"",""time""
""fullscreenexit"",""58"",""284446""
","","","","","","null","<div style=""font-size:60px;"">+</div>","null","","fixation","","","","","","","","","","",""
"aa-learning-trial","101","451754","0.0-9.0-2.0-1.14","5887","2","14","Male","approach_avoid_spark_v1","""event"",""trial"",""time""
""fullscreenenter"",""1"",""2121""
""fullscreenexit"",""58"",""284446""
","
","
","""event"",""trial"",""time""
""fullscreenenter"",""1"",""2121""
","""event"",""trial"",""time""
""fullscreenexit"",""58"",""284446""
","","","","","","1558.9000000001397","images/sheep5.png","","","learning","8","8","1","1","sheep","animals","2","0","","neutral","0"
"html-keyboard-response","102","452262","0.0-9.0-2.0-0.15","5887","2","14","Male","approach_avoid_spark_v1","""event"",""trial"",""time""
""fullscreenenter"",""1"",""2121""
""fullscreenexit"",""58"",""284446""
","
","
","""event"",""trial"",""time""
""fullscreenenter"",""1"",""2121""
","""event"",""trial"",""time""
""fullscreenexit"",""58"",""284446""
","","","","","","null","<div style=""font-size:60px;"">+</div>","null","","fixation","","","","","","","","","","",""
"aa-learning-trial","103","455269","0.0-9.0-2.0-1.15","5887","2","14","Male","approach_avoid_spark_v1","""event"",""trial"",""time""
""fullscreenenter"",""1"",""2121""
""fullscreenexit"",""58"",""284446""
","
","
","""event"",""trial"",""time""
""fullscreenenter"",""1"",""2121""
","""event"",""trial"",""time""
""fullscreenexit"",""58"",""284446""
","","","","","","1620","images/cow6.png","","","learning","3","3","1","1","cow","animals","2","0","","good","[3]"
"html-keyboard-response","104","455774","0.0-9.0-2.0-0.16","5887","2","14","Male","approach_avoid_spark_v1","""event"",""trial"",""time""
""fullscreenenter"",""1"",""2121""
""fullscreenexit"",""58"",""284446""
","
","
","""event"",""trial"",""time""
""fullscreenenter"",""1"",""2121""
","""event"",""trial"",""time""
""fullscreenexit"",""58"",""284446""
","","","","","","null","<div style=""font-size:60px;"">+</div>","null","","fixation","","","","","","","","","","",""
"aa-learning-trial","105","458782","0.0-9.0-2.0-1.16","5887","2","14","Male","approach_avoid_spark_v1","""event"",""trial"",""time""
""fullscreenenter"",""1"",""2121""
""fullscreenexit"",""58"",""284446""
","
","
","""event"",""trial"",""time""
""fullscreenenter"",""1"",""2121""
","""event"",""trial"",""time""
""fullscreenexit"",""58"",""284446""
","","","","","","1017.4000000001397","images/sheep5.png","","","learning","8","8","1","1","sheep","animals","2","0","","neutral","0"
"html-keyboard-response","106","459286","0.0-9.0-2.0-0.17","5887","2","14","Male","approach_avoid_spark_v1","""event"",""trial"",""time""
""fullscreenenter"",""1"",""2121""
""fullscreenexit"",""58"",""284446""
","
","
","""event"",""trial"",""time""
""fullscreenenter"",""1"",""2121""
","""event"",""trial"",""time""
""fullscreenexit"",""58"",""284446""
","","","","","","null","<div style=""font-size:60px;"">+</div>","null","","fixation","","","","","","","","","","",""
"aa-learning-trial","107","462294","0.0-9.0-2.0-1.17","5887","2","14","Male","approach_avoid_spark_v1","""event"",""trial"",""time""
""fullscreenenter"",""1"",""2121""
""fullscreenexit"",""58"",""284446""
","
","
","""event"",""trial"",""time""
""fullscreenenter"",""1"",""2121""
","""event"",""trial"",""time""
""fullscreenexit"",""58"",""284446""
","","","","","","662","images/sheep5.png","","","learning","8","8","1","1","sheep","animals","2","0","","neutral","0"
"html-keyboard-response","108","462799","0.0-9.0-2.0-0.18","5887","2","14","Male","approach_avoid_spark_v1","""event"",""trial"",""time""
""fullscreenenter"",""1"",""2121""
""fullscreenexit"",""58"",""284446""
","
","
","""event"",""trial"",""time""
""fullscreenenter"",""1"",""2121""
","""event"",""trial"",""time""
""fullscreenexit"",""58"",""284446""
","","","","","","null","<div style=""font-size:60px;"">+</div>","null","","fixation","","","","","","","","","","",""
"aa-learning-trial","109","465806","0.0-9.0-2.0-1.18","5887","2","14","Male","approach_avoid_spark_v1","""event"",""trial"",""time""
""fullscreenenter"",""1"",""2121""
""fullscreenexit"",""58"",""284446""
","
","
","""event"",""trial"",""time""
""fullscreenenter"",""1"",""2121""
","""event"",""trial"",""time""
""fullscreenexit"",""58"",""284446""
","","","","","","1752.0999999998603","images/sheep2.png","","","learning","-5","0","0","0","sheep","animals","2","0","","neutral","0"
"html-keyboard-response","110","466311","0.0-9.0-2.0-0.19","5887","2","14","Male","approach_avoid_spark_v1","""event"",""trial"",""time""
""fullscreenenter"",""1"",""2121""
""fullscreenexit"",""58"",""284446""
","
","
","""event"",""trial"",""time""
""fullscreenenter"",""1"",""2121""
","""event"",""trial"",""time""
""fullscreenexit"",""58"",""284446""
","","","","","","null","<div style=""font-size:60px;"">+</div>","null","","fixation","","","","","","","","","","",""
"aa-learning-trial","111","469318","0.0-9.0-2.0-1.19","5887","2","14","Male","approach_avoid_spark_v1","""event"",""trial"",""time""
""fullscreenenter"",""1"",""2121""
""fullscreenexit"",""58"",""284446""
","
","
","""event"",""trial"",""time""
""fullscreenenter"",""1"",""2121""
","""event"",""trial"",""time""
""fullscreenexit"",""58"",""284446""
","","","","","","1744.3000000000466","images/sheep8.png","","","learning","-6","0","0","0","sheep","animals","2","0","","neutral","0"
"html-keyboard-response","112","469822","0.0-9.0-2.0-0.20","5887","2","14","Male","approach_avoid_spark_v1","""event"",""trial"",""time""
""fullscreenenter"",""1"",""2121""
""fullscreenexit"",""58"",""284446""
","
","
","""event"",""trial"",""time""
""fullscreenenter"",""1"",""2121""
","""event"",""trial"",""time""
""fullscreenexit"",""58"",""284446""
","","","","","","null","<div style=""font-size:60px;"">+</div>","null","","fixation","","","","","","","","","","",""
"aa-learning-trial","113","472831","0.0-9.0-2.0-1.20","5887","2","14","Male","approach_avoid_spark_v1","""event"",""trial"",""time""
""fullscreenenter"",""1"",""2121""
""fullscreenexit"",""58"",""284446""
","
","
","""event"",""trial"",""time""
""fullscreenenter"",""1"",""2121""
","""event"",""trial"",""time""
""fullscreenexit"",""58"",""284446""
","","","","","","1589.8000000000466","images/goat8.png","","","learning","-4","0","0","0","goat","animals","2","0","","bad","[-5]"
"html-keyboard-response","114","473334","0.0-9.0-2.0-0.21","5887","2","14","Male","approach_avoid_spark_v1","""event"",""trial"",""time""
""fullscreenenter"",""1"",""2121""
""fullscreenexit"",""58"",""284446""
","
","
","""event"",""trial"",""time""
""fullscreenenter"",""1"",""2121""
","""event"",""trial"",""time""
""fullscreenexit"",""58"",""284446""
","","","","","","null","<div style=""font-size:60px;"">+</div>","null","","fixation","","","","","","","","","","",""
"aa-learning-trial","115","476343","0.0-9.0-2.0-1.21","5887","2","14","Male","approach_avoid_spark_v1","""event"",""trial"",""time""
""fullscreenenter"",""1"",""2121""
""fullscreenexit"",""58"",""284446""
","
","
","""event"",""trial"",""time""
""fullscreenenter"",""1"",""2121""
","""event"",""trial"",""time""
""fullscreenexit"",""58"",""284446""
","","","","","","787","images/sheep5.png","","","learning","8","8","1","1","sheep","animals","2","0","","neutral","0"
"html-keyboard-response","116","476846","0.0-9.0-2.0-0.22","5887","2","14","Male","approach_avoid_spark_v1","""event"",""trial"",""time""
""fullscreenenter"",""1"",""2121""
""fullscreenexit"",""58"",""284446""
","
","
","""event"",""trial"",""time""
""fullscreenenter"",""1"",""2121""
","""event"",""trial"",""time""
""fullscreenexit"",""58"",""284446""
","","","","","","null","<div style=""font-size:60px;"">+</div>","null","","fixation","","","","","","","","","","",""
"aa-learning-trial","117","479854","0.0-9.0-2.0-1.22","5887","2","14","Male","approach_avoid_spark_v1","""event"",""trial"",""time""
""fullscreenenter"",""1"",""2121""
""fullscreenexit"",""58"",""284446""
","
","
","""event"",""trial"",""time""
""fullscreenenter"",""1"",""2121""
","""event"",""trial"",""time""
""fullscreenexit"",""58"",""284446""
","","","","","","2966.8000000000466","images/goat5.png","","","learning","9","0","0","0","goat","animals","2","0","","bad","[-5]"
"html-keyboard-response","118","480358","0.0-9.0-2.0-0.23","5887","2","14","Male","approach_avoid_spark_v1","""event"",""trial"",""time""
""fullscreenenter"",""1"",""2121""
""fullscreenexit"",""58"",""284446""
","
","
","""event"",""trial"",""time""
""fullscreenenter"",""1"",""2121""
","""event"",""trial"",""time""
""fullscreenexit"",""58"",""284446""
","","","","","","null","<div style=""font-size:60px;"">+</div>","null","","fixation","","","","","","","","","","",""
"aa-learning-trial","119","483366","0.0-9.0-2.0-1.23","5887","2","14","Male","approach_avoid_spark_v1","""event"",""trial"",""time""
""fullscreenenter"",""1"",""2121""
""fullscreenexit"",""58"",""284446""
","
","
","""event"",""trial"",""time""
""fullscreenenter"",""1"",""2121""
","""event"",""trial"",""time""
""fullscreenexit"",""58"",""284446""
","","","","","","1697.8000000000466","images/sheep7.png","","","learning","5","5","1","1","sheep","animals","2","0","","neutral","0"
"html-keyboard-response","120","483870","0.0-9.0-2.0-0.24","5887","2","14","Male","approach_avoid_spark_v1","""event"",""trial"",""time""
""fullscreenenter"",""1"",""2121""
""fullscreenexit"",""58"",""284446""
","
","
","""event"",""trial"",""time""
""fullscreenenter"",""1"",""2121""
","""event"",""trial"",""time""
""fullscreenexit"",""58"",""284446""
","","","","","","null","<div style=""font-size:60px;"">+</div>","null","","fixation","","","","","","","","","","",""
"aa-learning-trial","121","486879","0.0-9.0-2.0-1.24","5887","2","14","Male","approach_avoid_spark_v1","""event"",""trial"",""time""
""fullscreenenter"",""1"",""2121""
""fullscreenexit"",""58"",""284446""
","
","
","""event"",""trial"",""time""
""fullscreenenter"",""1"",""2121""
","""event"",""trial"",""time""
""fullscreenexit"",""58"",""284446""
","","","","","","1482.8999999999069","images/cow8.png","","","learning","-8","-8","1","1","cow","animals","2","0","","good","[3]"
"html-keyboard-response","122","487383","0.0-9.0-2.0-0.25","5887","2","14","Male","approach_avoid_spark_v1","""event"",""trial"",""time""
""fullscreenenter"",""1"",""2121""
""fullscreenexit"",""58"",""284446""
","
","
","""event"",""trial"",""time""
""fullscreenenter"",""1"",""2121""
","""event"",""trial"",""time""
""fullscreenexit"",""58"",""284446""
","","","","","","null","<div style=""font-size:60px;"">+</div>","null","","fixation","","","","","","","","","","",""
"aa-learning-trial","123","490390","0.0-9.0-2.0-1.25","5887","2","14","Male","approach_avoid_spark_v1","""event"",""trial"",""time""
""fullscreenenter"",""1"",""2121""
""fullscreenexit"",""58"",""284446""
","
","
","""event"",""trial"",""time""
""fullscreenenter"",""1"",""2121""
","""event"",""trial"",""time""
""fullscreenexit"",""58"",""284446""
","","","","","","2300.5","images/goat2.png","","","learning","-9","0","0","0","goat","animals","2","0","","bad","[-5]"
"html-keyboard-response","124","490894","0.0-9.0-2.0-0.26","5887","2","14","Male","approach_avoid_spark_v1","""event"",""trial"",""time""
""fullscreenenter"",""1"",""2121""
""fullscreenexit"",""58"",""284446""
","
","
","""event"",""trial"",""time""
""fullscreenenter"",""1"",""2121""
","""event"",""trial"",""time""
""fullscreenexit"",""58"",""284446""
","","","","","","null","<div style=""font-size:60px;"">+</div>","null","","fixation","","","","","","","","","","",""
"aa-learning-trial","125","493902","0.0-9.0-2.0-1.26","5887","2","14","Male","approach_avoid_spark_v1","""event"",""trial"",""time""
""fullscreenenter"",""1"",""2121""
""fullscreenexit"",""58"",""284446""
","
","
","""event"",""trial"",""time""
""fullscreenenter"",""1"",""2121""
","""event"",""trial"",""time""
""fullscreenexit"",""58"",""284446""
","","","","","","742.0999999998603","images/sheep7.png","","","learning","5","5","1","1","sheep","animals","2","0","","neutral","0"
"html-keyboard-response","126","494406","0.0-9.0-2.0-0.27","5887","2","14","Male","approach_avoid_spark_v1","""event"",""trial"",""time""
""fullscreenenter"",""1"",""2121""
""fullscreenexit"",""58"",""284446""
","
","
","""event"",""trial"",""time""
""fullscreenenter"",""1"",""2121""
","""event"",""trial"",""time""
""fullscreenexit"",""58"",""284446""
","","","","","","null","<div style=""font-size:60px;"">+</div>","null","","fixation","","","","","","","","","","",""
"aa-learning-trial","127","497414","0.0-9.0-2.0-1.27","5887","2","14","Male","approach_avoid_spark_v1","""event"",""trial"",""time""
""fullscreenenter"",""1"",""2121""
""fullscreenexit"",""58"",""284446""
","
","
","""event"",""trial"",""time""
""fullscreenenter"",""1"",""2121""
","""event"",""trial"",""time""
""fullscreenexit"",""58"",""284446""
","","","","","","1558.9000000001397","images/goat4.png","","","learning","4","4","1","1","goat","animals","2","0","","bad","[-5]"
"html-keyboard-response","128","497918","0.0-9.0-2.0-0.28","5887","2","14","Male","approach_avoid_spark_v1","""event"",""trial"",""time""
""fullscreenenter"",""1"",""2121""
""fullscreenexit"",""58"",""284446""
","
","
","""event"",""trial"",""time""
""fullscreenenter"",""1"",""2121""
","""event"",""trial"",""time""
""fullscreenexit"",""58"",""284446""
","","","","","","null","<div style=""font-size:60px;"">+</div>","null","","fixation","","","","","","","","","","",""
"aa-learning-trial","129","500926","0.0-9.0-2.0-1.28","5887","2","14","Male","approach_avoid_spark_v1","""event"",""trial"",""time""
""fullscreenenter"",""1"",""2121""
""fullscreenexit"",""58"",""284446""
","
","
","""event"",""trial"",""time""
""fullscreenenter"",""1"",""2121""
","""event"",""trial"",""time""
""fullscreenexit"",""58"",""284446""
","","","","","","1521.3999999999069","images/goat2.png","","","learning","-9","0","0","0","goat","animals","2","0","","bad","[-5]"
"html-keyboard-response","130","501430","0.0-9.0-2.0-0.29","5887","2","14","Male","approach_avoid_spark_v1","""event"",""trial"",""time""
""fullscreenenter"",""1"",""2121""
""fullscreenexit"",""58"",""284446""
","
","
","""event"",""trial"",""time""
""fullscreenenter"",""1"",""2121""
","""event"",""trial"",""time""
""fullscreenexit"",""58"",""284446""
","","","","","","null","<div style=""font-size:60px;"">+</div>","null","","fixation","","","","","","","","","","",""
"aa-learning-trial","131","504438","0.0-9.0-2.0-1.29","5887","2","14","Male","approach_avoid_spark_v1","""event"",""trial"",""time""
""fullscreenenter"",""1"",""2121""
""fullscreenexit"",""58"",""284446""
","
","
","""event"",""trial"",""time""
""fullscreenenter"",""1"",""2121""
","""event"",""trial"",""time""
""fullscreenexit"",""58"",""284446""
","","","","","","1458.3000000000466","images/cow6.png","","","learning","3","3","1","1","cow","animals","2","0","","good","[3]"
"html-keyboard-response","132","504942","0.0-9.0-2.0-0.30","5887","2","14","Male","approach_avoid_spark_v1","""event"",""trial"",""time""
""fullscreenenter"",""1"",""2121""
""fullscreenexit"",""58"",""284446""
","
","
","""event"",""trial"",""time""
""fullscreenenter"",""1"",""2121""
","""event"",""trial"",""time""
""fullscreenexit"",""58"",""284446""
","","","","","","null","<div style=""font-size:60px;"">+</div>","null","","fixation","","","","","","","","","","",""
"aa-learning-trial","133","507950","0.0-9.0-2.0-1.30","5887","2","14","Male","approach_avoid_spark_v1","""event"",""trial"",""time""
""fullscreenenter"",""1"",""2121""
""fullscreenexit"",""58"",""284446""
","
","
","""event"",""trial"",""time""
""fullscreenenter"",""1"",""2121""
","""event"",""trial"",""time""
""fullscreenexit"",""58"",""284446""
","","","","","","882","images/cow7.png","","","learning","6","6","1","1","cow","animals","2","0","","good","[3]"
"html-keyboard-response","134","508454","0.0-9.0-2.0-0.31","5887","2","14","Male","approach_avoid_spark_v1","""event"",""trial"",""time""
""fullscreenenter"",""1"",""2121""
""fullscreenexit"",""58"",""284446""
","
","
","""event"",""trial"",""time""
""fullscreenenter"",""1"",""2121""
","""event"",""trial"",""time""
""fullscreenexit"",""58"",""284446""
","","","","","","null","<div style=""font-size:60px;"">+</div>","null","","fixation","","","","","","","","","","",""
"aa-learning-trial","135","511462","0.0-9.0-2.0-1.31","5887","2","14","Male","approach_avoid_spark_v1","""event"",""trial"",""time""
""fullscreenenter"",""1"",""2121""
""fullscreenexit"",""58"",""284446""
","
","
","""event"",""trial"",""time""
""fullscreenenter"",""1"",""2121""
","""event"",""trial"",""time""
""fullscreenexit"",""58"",""284446""
","","","","","","911.3000000000466","images/sheep5.png","","","learning","8","8","1","1","sheep","animals","2","0","","neutral","0"
"html-keyboard-response","136","511967","0.0-9.0-2.0-0.32","5887","2","14","Male","approach_avoid_spark_v1","""event"",""trial"",""time""
""fullscreenenter"",""1"",""2121""
""fullscreenexit"",""58"",""284446""
","
","
","""event"",""trial"",""time""
""fullscreenenter"",""1"",""2121""
","""event"",""trial"",""time""
""fullscreenexit"",""58"",""284446""
","","","","","","null","<div style=""font-size:60px;"">+</div>","null","","fixation","","","","","","","","","","",""
"aa-learning-trial","137","514974","0.0-9.0-2.0-1.32","5887","2","14","Male","approach_avoid_spark_v1","""event"",""trial"",""time""
""fullscreenenter"",""1"",""2121""
""fullscreenexit"",""58"",""284446""
","
","
","""event"",""trial"",""time""
""fullscreenenter"",""1"",""2121""
","""event"",""trial"",""time""
""fullscreenexit"",""58"",""284446""
","","","","","","774","images/cow7.png","","","learning","6","6","1","1","cow","animals","2","0","","good","[3]"
"html-keyboard-response","138","515478","0.0-9.0-2.0-0.33","5887","2","14","Male","approach_avoid_spark_v1","""event"",""trial"",""time""
""fullscreenenter"",""1"",""2121""
""fullscreenexit"",""58"",""284446""
","
","
","""event"",""trial"",""time""
""fullscreenenter"",""1"",""2121""
","""event"",""trial"",""time""
""fullscreenexit"",""58"",""284446""
","","","","","","null","<div style=""font-size:60px;"">+</div>","null","","fixation","","","","","","","","","","",""
"aa-learning-trial","139","518487","0.0-9.0-2.0-1.33","5887","2","14","Male","approach_avoid_spark_v1","""event"",""trial"",""time""
""fullscreenenter"",""1"",""2121""
""fullscreenexit"",""58"",""284446""
","
","
","""event"",""trial"",""time""
""fullscreenenter"",""1"",""2121""
","""event"",""trial"",""time""
""fullscreenexit"",""58"",""284446""
","","","","","","764.5","images/cow4.png","","","learning","-3","-3","1","1","cow","animals","2","0","","good","[3]"
"html-keyboard-response","140","518990","0.0-9.0-2.0-0.34","5887","2","14","Male","approach_avoid_spark_v1","""event"",""trial"",""time""
""fullscreenenter"",""1"",""2121""
""fullscreenexit"",""58"",""284446""
","
","
","""event"",""trial"",""time""
""fullscreenenter"",""1"",""2121""
","""event"",""trial"",""time""
""fullscreenexit"",""58"",""284446""
","","","","","","null","<div style=""font-size:60px;"">+</div>","null","","fixation","","","","","","","","","","",""
"aa-learning-trial","141","521999","0.0-9.0-2.0-1.34","5887","2","14","Male","approach_avoid_spark_v1","""event"",""trial"",""time""
""fullscreenenter"",""1"",""2121""
""fullscreenexit"",""58"",""284446""
","
","
","""event"",""trial"",""time""
""fullscreenenter"",""1"",""2121""
","""event"",""trial"",""time""
""fullscreenexit"",""58"",""284446""
","","","","","","792.1999999999534","images/cow7.png","","","learning","6","6","1","1","cow","animals","2","0","","good","[3]"
"html-keyboard-response","142","522502","0.0-9.0-2.0-0.35","5887","2","14","Male","approach_avoid_spark_v1","""event"",""trial"",""time""
""fullscreenenter"",""1"",""2121""
""fullscreenexit"",""58"",""284446""
","
","
","""event"",""trial"",""time""
""fullscreenenter"",""1"",""2121""
","""event"",""trial"",""time""
""fullscreenexit"",""58"",""284446""
","","","","","","null","<div style=""font-size:60px;"">+</div>","null","","fixation","","","","","","","","","","",""
"aa-learning-trial","143","525511","0.0-9.0-2.0-1.35","5887","2","14","Male","approach_avoid_spark_v1","""event"",""trial"",""time""
""fullscreenenter"",""1"",""2121""
""fullscreenexit"",""58"",""284446""
","
","
","""event"",""trial"",""time""
""fullscreenenter"",""1"",""2121""
","""event"",""trial"",""time""
""fullscreenexit"",""58"",""284446""
","","","","","","781.3000000000466","images/sheep7.png","","","learning","5","5","1","1","sheep","animals","2","0","","neutral","0"
"html-keyboard-response","144","526015","0.0-9.0-2.0-0.36","5887","2","14","Male","approach_avoid_spark_v1","""event"",""trial"",""time""
""fullscreenenter"",""1"",""2121""
""fullscreenexit"",""58"",""284446""
","
","
","""event"",""trial"",""time""
""fullscreenenter"",""1"",""2121""
","""event"",""trial"",""time""
""fullscreenexit"",""58"",""284446""
","","","","","","null","<div style=""font-size:60px;"">+</div>","null","","fixation","","","","","","","","","","",""
"aa-learning-trial","145","529022","0.0-9.0-2.0-1.36","5887","2","14","Male","approach_avoid_spark_v1","""event"",""trial"",""time""
""fullscreenenter"",""1"",""2121""
""fullscreenexit"",""58"",""284446""
","
","
","""event"",""trial"",""time""
""fullscreenenter"",""1"",""2121""
","""event"",""trial"",""time""
""fullscreenexit"",""58"",""284446""
","","","","","","1215.8000000000466","images/cow5.png","","","learning","-2","-2","1","1","cow","animals","2","0","","good","[3]"
"html-keyboard-response","146","529526","0.0-9.0-2.0-0.37","5887","2","14","Male","approach_avoid_spark_v1","""event"",""trial"",""time""
""fullscreenenter"",""1"",""2121""
""fullscreenexit"",""58"",""284446""
","
","
","""event"",""trial"",""time""
""fullscreenenter"",""1"",""2121""
","""event"",""trial"",""time""
""fullscreenexit"",""58"",""284446""
","","","","","","null","<div style=""font-size:60px;"">+</div>","null","","fixation","","","","","","","","","","",""
"aa-learning-trial","147","532534","0.0-9.0-2.0-1.37","5887","2","14","Male","approach_avoid_spark_v1","""event"",""trial"",""time""
""fullscreenenter"",""1"",""2121""
""fullscreenexit"",""58"",""284446""
","
","
","""event"",""trial"",""time""
""fullscreenenter"",""1"",""2121""
","""event"",""trial"",""time""
""fullscreenexit"",""58"",""284446""
","","","","","","1107.1999999999534","images/goat5.png","","","learning","9","9","1","1","goat","animals","2","0","","bad","[-5]"
"html-keyboard-response","148","533038","0.0-9.0-2.0-0.38","5887","2","14","Male","approach_avoid_spark_v1","""event"",""trial"",""time""
""fullscreenenter"",""1"",""2121""
""fullscreenexit"",""58"",""284446""
","
","
","""event"",""trial"",""time""
""fullscreenenter"",""1"",""2121""
","""event"",""trial"",""time""
""fullscreenexit"",""58"",""284446""
","","","","","","null","<div style=""font-size:60px;"">+</div>","null","","fixation","","","","","","","","","","",""
"aa-learning-trial","149","536046","0.0-9.0-2.0-1.38","5887","2","14","Male","approach_avoid_spark_v1","""event"",""trial"",""time""
""fullscreenenter"",""1"",""2121""
""fullscreenexit"",""58"",""284446""
","
","
","""event"",""trial"",""time""
""fullscreenenter"",""1"",""2121""
","""event"",""trial"",""time""
""fullscreenexit"",""58"",""284446""
","","","","","","1878.1999999999534","images/cow6.png","","","learning","3","3","1","1","cow","animals","2","0","","good","[3]"
"html-keyboard-response","150","536550","0.0-9.0-2.0-0.39","5887","2","14","Male","approach_avoid_spark_v1","""event"",""trial"",""time""
""fullscreenenter"",""1"",""2121""
""fullscreenexit"",""58"",""284446""
","
","
","""event"",""trial"",""time""
""fullscreenenter"",""1"",""2121""
","""event"",""trial"",""time""
""fullscreenexit"",""58"",""284446""
","","","","","","null","<div style=""font-size:60px;"">+</div>","null","","fixation","","","","","","","","","","",""
"aa-learning-trial","151","539559","0.0-9.0-2.0-1.39","5887","2","14","Male","approach_avoid_spark_v1","""event"",""trial"",""time""
""fullscreenenter"",""1"",""2121""
""fullscreenexit"",""58"",""284446""
","
","
","""event"",""trial"",""time""
""fullscreenenter"",""1"",""2121""
","""event"",""trial"",""time""
""fullscreenexit"",""58"",""284446""
","","","","","","963.5","images/cow5.png","","","learning","-2","0","0","0","cow","animals","2","0","","good","[3]"
"html-keyboard-response","152","540062","0.0-9.0-2.0-0.40","5887","2","14","Male","approach_avoid_spark_v1","""event"",""trial"",""time""
""fullscreenenter"",""1"",""2121""
""fullscreenexit"",""58"",""284446""
","
","
","""event"",""trial"",""time""
""fullscreenenter"",""1"",""2121""
","""event"",""trial"",""time""
""fullscreenexit"",""58"",""284446""
","","","","","","null","<div style=""font-size:60px;"">+</div>","null","","fixation","","","","","","","","","","",""
"aa-learning-trial","153","543071","0.0-9.0-2.0-1.40","5887","2","14","Male","approach_avoid_spark_v1","""event"",""trial"",""time""
""fullscreenenter"",""1"",""2121""
""fullscreenexit"",""58"",""284446""
","
","
","""event"",""trial"",""time""
""fullscreenenter"",""1"",""2121""
","""event"",""trial"",""time""
""fullscreenexit"",""58"",""284446""
","","","","","","666.9000000001397","images/sheep7.png","","","learning","5","5","1","1","sheep","animals","2","0","","neutral","0"
"html-keyboard-response","154","543574","0.0-9.0-2.0-0.41","5887","2","14","Male","approach_avoid_spark_v1","""event"",""trial"",""time""
""fullscreenenter"",""1"",""2121""
""fullscreenexit"",""58"",""284446""
","
","
","""event"",""trial"",""time""
""fullscreenenter"",""1"",""2121""
","""event"",""trial"",""time""
""fullscreenexit"",""58"",""284446""
","","","","","","null","<div style=""font-size:60px;"">+</div>","null","","fixation","","","","","","","","","","",""
"aa-learning-trial","155","546582","0.0-9.0-2.0-1.41","5887","2","14","Male","approach_avoid_spark_v1","""event"",""trial"",""time""
""fullscreenenter"",""1"",""2121""
""fullscreenexit"",""58"",""284446""
","
","
","""event"",""trial"",""time""
""fullscreenenter"",""1"",""2121""
","""event"",""trial"",""time""
""fullscreenexit"",""58"",""284446""
","","","","","","2168.4000000001397","images/cow6.png","","","learning","3","0","0","0","cow","animals","2","0","","good","[3]"
"html-keyboard-response","156","547086","0.0-9.0-2.0-0.42","5887","2","14","Male","approach_avoid_spark_v1","""event"",""trial"",""time""
""fullscreenenter"",""1"",""2121""
""fullscreenexit"",""58"",""284446""
","
","
","""event"",""trial"",""time""
""fullscreenenter"",""1"",""2121""
","""event"",""trial"",""time""
""fullscreenexit"",""58"",""284446""
","","","","","","null","<div style=""font-size:60px;"">+</div>","null","","fixation","","","","","","","","","","",""
"aa-learning-trial","157","550094","0.0-9.0-2.0-1.42","5887","2","14","Male","approach_avoid_spark_v1","""event"",""trial"",""time""
""fullscreenenter"",""1"",""2121""
""fullscreenexit"",""58"",""284446""
","
","
","""event"",""trial"",""time""
""fullscreenenter"",""1"",""2121""
","""event"",""trial"",""time""
""fullscreenexit"",""58"",""284446""
","","","","","","1344.5","images/goat5.png","","","learning","9","9","1","1","goat","animals","2","0","","bad","[-5]"
"html-keyboard-response","158","550598","0.0-9.0-2.0-0.43","5887","2","14","Male","approach_avoid_spark_v1","""event"",""trial"",""time""
""fullscreenenter"",""1"",""2121""
""fullscreenexit"",""58"",""284446""
","
","
","""event"",""trial"",""time""
""fullscreenenter"",""1"",""2121""
","""event"",""trial"",""time""
""fullscreenexit"",""58"",""284446""
","","","","","","null","<div style=""font-size:60px;"">+</div>","null","","fixation","","","","","","","","","","",""
"aa-learning-trial","159","553605","0.0-9.0-2.0-1.43","5887","2","14","Male","approach_avoid_spark_v1","""event"",""trial"",""time""
""fullscreenenter"",""1"",""2121""
""fullscreenexit"",""58"",""284446""
","
","
","""event"",""trial"",""time""
""fullscreenenter"",""1"",""2121""
","""event"",""trial"",""time""
""fullscreenexit"",""58"",""284446""
","","","","","","2592.600000000093","images/sheep1.png","","","learning","-1","-1","1","1","sheep","animals","2","0","","neutral","0"
"html-keyboard-response","160","554110","0.0-9.0-2.0-0.44","5887","2","14","Male","approach_avoid_spark_v1","""event"",""trial"",""time""
""fullscreenenter"",""1"",""2121""
""fullscreenexit"",""58"",""284446""
","
","
","""event"",""trial"",""time""
""fullscreenenter"",""1"",""2121""
","""event"",""trial"",""time""
""fullscreenexit"",""58"",""284446""
","","","","","","null","<div style=""font-size:60px;"">+</div>","null","","fixation","","","","","","","","","","",""
"aa-learning-trial","161","557118","0.0-9.0-2.0-1.44","5887","2","14","Male","approach_avoid_spark_v1","""event"",""trial"",""time""
""fullscreenenter"",""1"",""2121""
""fullscreenexit"",""58"",""284446""
","
","
","""event"",""trial"",""time""
""fullscreenenter"",""1"",""2121""
","""event"",""trial"",""time""
""fullscreenexit"",""58"",""284446""
","","","","","","1163.0999999998603","images/goat2.png","","","learning","-9","0","0","0","goat","animals","2","0","","bad","[-5]"
"html-keyboard-response","162","557622","0.0-9.0-2.0-0.45","5887","2","14","Male","approach_avoid_spark_v1","""event"",""trial"",""time""
""fullscreenenter"",""1"",""2121""
""fullscreenexit"",""58"",""284446""
","
","
","""event"",""trial"",""time""
""fullscreenenter"",""1"",""2121""
","""event"",""trial"",""time""
""fullscreenexit"",""58"",""284446""
","","","","","","null","<div style=""font-size:60px;"">+</div>","null","","fixation","","","","","","","","","","",""
"aa-learning-trial","163","560630","0.0-9.0-2.0-1.45","5887","2","14","Male","approach_avoid_spark_v1","""event"",""trial"",""time""
""fullscreenenter"",""1"",""2121""
""fullscreenexit"",""58"",""284446""
","
","
","""event"",""trial"",""time""
""fullscreenenter"",""1"",""2121""
","""event"",""trial"",""time""
""fullscreenexit"",""58"",""284446""
","","","","","","1090.8000000000466","images/goat3.png","","","learning","2","2","1","1","goat","animals","2","0","","bad","[-5]"
"html-keyboard-response","164","561134","0.0-9.0-2.0-0.46","5887","2","14","Male","approach_avoid_spark_v1","""event"",""trial"",""time""
""fullscreenenter"",""1"",""2121""
""fullscreenexit"",""58"",""284446""
","
","
","""event"",""trial"",""time""
""fullscreenenter"",""1"",""2121""
","""event"",""trial"",""time""
""fullscreenexit"",""58"",""284446""
","","","","","","null","<div style=""font-size:60px;"">+</div>","null","","fixation","","","","","","","","","","",""
"aa-learning-trial","165","564143","0.0-9.0-2.0-1.46","5887","2","14","Male","approach_avoid_spark_v1","""event"",""trial"",""time""
""fullscreenenter"",""1"",""2121""
""fullscreenexit"",""58"",""284446""
","
","
","""event"",""trial"",""time""
""fullscreenenter"",""1"",""2121""
","""event"",""trial"",""time""
""fullscreenexit"",""58"",""284446""
","","","","","","1151.1999999999534","images/cow7.png","","","learning","6","6","1","1","cow","animals","2","0","","good","[3]"
"html-keyboard-response","166","564646","0.0-9.0-2.0-0.47","5887","2","14","Male","approach_avoid_spark_v1","""event"",""trial"",""time""
""fullscreenenter"",""1"",""2121""
""fullscreenexit"",""58"",""284446""
","
","
","""event"",""trial"",""time""
""fullscreenenter"",""1"",""2121""
","""event"",""trial"",""time""
""fullscreenexit"",""58"",""284446""
","","","","","","null","<div style=""font-size:60px;"">+</div>","null","","fixation","","","","","","","","","","",""
"aa-learning-trial","167","567655","0.0-9.0-2.0-1.47","5887","2","14","Male","approach_avoid_spark_v1","""event"",""trial"",""time""
""fullscreenenter"",""1"",""2121""
""fullscreenexit"",""58"",""284446""
","
","
","""event"",""trial"",""time""
""fullscreenenter"",""1"",""2121""
","""event"",""trial"",""time""
""fullscreenexit"",""58"",""284446""
","","","","","","1109","images/sheep8.png","","","learning","-6","-6","1","1","sheep","animals","2","0","","neutral","0"
"html-keyboard-response","168","568158","0.0-9.0-2.0-0.48","5887","2","14","Male","approach_avoid_spark_v1","""event"",""trial"",""time""
""fullscreenenter"",""1"",""2121""
""fullscreenexit"",""58"",""284446""
","
","
","""event"",""trial"",""time""
""fullscreenenter"",""1"",""2121""
","""event"",""trial"",""time""
""fullscreenexit"",""58"",""284446""
","","","","","","null","<div style=""font-size:60px;"">+</div>","null","","fixation","","","","","","","","","","",""
"aa-learning-trial","169","571166","0.0-9.0-2.0-1.48","5887","2","14","Male","approach_avoid_spark_v1","""event"",""trial"",""time""
""fullscreenenter"",""1"",""2121""
""fullscreenexit"",""58"",""284446""
","
","
","""event"",""trial"",""time""
""fullscreenenter"",""1"",""2121""
","""event"",""trial"",""time""
""fullscreenexit"",""58"",""284446""
","","","","","","742.1999999999534","images/goat5.png","","","learning","9","9","1","1","goat","animals","2","0","","bad","[-5]"
"html-keyboard-response","170","571670","0.0-9.0-2.0-0.49","5887","2","14","Male","approach_avoid_spark_v1","""event"",""trial"",""time""
""fullscreenenter"",""1"",""2121""
""fullscreenexit"",""58"",""284446""
","
","
","""event"",""trial"",""time""
""fullscreenenter"",""1"",""2121""
","""event"",""trial"",""time""
""fullscreenexit"",""58"",""284446""
","","","","","","null","<div style=""font-size:60px;"">+</div>","null","","fixation","","","","","","","","","","",""
"aa-learning-trial","171","574679","0.0-9.0-2.0-1.49","5887","2","14","Male","approach_avoid_spark_v1","""event"",""trial"",""time""
""fullscreenenter"",""1"",""2121""
""fullscreenexit"",""58"",""284446""
","
","
","""event"",""trial"",""time""
""fullscreenenter"",""1"",""2121""
","""event"",""trial"",""time""
""fullscreenexit"",""58"",""284446""
","","","","","","764.6000000000931","images/goat2.png","","","learning","-9","0","0","0","goat","animals","2","0","","bad","[-5]"
"html-keyboard-response","172","575182","0.0-9.0-2.0-0.50","5887","2","14","Male","approach_avoid_spark_v1","""event"",""trial"",""time""
""fullscreenenter"",""1"",""2121""
""fullscreenexit"",""58"",""284446""
","
","
","""event"",""trial"",""time""
""fullscreenenter"",""1"",""2121""
","""event"",""trial"",""time""
""fullscreenexit"",""58"",""284446""
","","","","","","null","<div style=""font-size:60px;"">+</div>","null","","fixation","","","","","","","","","","",""
"aa-learning-trial","173","578190","0.0-9.0-2.0-1.50","5887","2","14","Male","approach_avoid_spark_v1","""event"",""trial"",""time""
""fullscreenenter"",""1"",""2121""
""fullscreenexit"",""58"",""284446""
","
","
","""event"",""trial"",""time""
""fullscreenenter"",""1"",""2121""
","""event"",""trial"",""time""
""fullscreenexit"",""58"",""284446""
","","","","","","1593.7000000001863","images/goat3.png","","","learning","2","0","0","0","goat","animals","2","0","","bad","[-5]"
"html-button-response","174","581054","0.0-9.0-3.0","5887","2","14","Male","approach_avoid_spark_v1","""event"",""trial"",""time""
""fullscreenenter"",""1"",""2121""
""fullscreenexit"",""58"",""284446""
","
","
","""event"",""trial"",""time""
""fullscreenenter"",""1"",""2121""
","""event"",""trial"",""time""
""fullscreenexit"",""58"",""284446""
","","","","","","2861.5","<p> You have completed the round! <p> In this round, you earned 132 points! </p>","0","","break","","","","","","","","","","",""
"html-button-response","175","582529","0.0-10.0","5887","2","14","Male","approach_avoid_spark_v1","""event"",""trial"",""time""
""fullscreenenter"",""1"",""2121""
""fullscreenexit"",""58"",""284446""
","
","
","""event"",""trial"",""time""
""fullscreenenter"",""1"",""2121""
","""event"",""trial"",""time""
""fullscreenexit"",""58"",""284446""
","","","","","","1472.3000000000466","<p> Now it's time to play another round. </p>","0","","transition_screen","","","","","","","","","","",""
"preload","176","582661","0.0-11.0-0.0","5887","2","14","Male","approach_avoid_spark_v1","""event"",""trial"",""time""
""fullscreenenter"",""1"",""2121""
""fullscreenexit"",""58"",""284446""
","
","
","""event"",""trial"",""time""
""fullscreenenter"",""1"",""2121""
","""event"",""trial"",""time""
""fullscreenexit"",""58"",""284446""
","true","false","[]","[]","[]","","","","","","","","","","","","","","","",""
"learning-instructions","177","588095","0.0-11.0-1.0-0.0","5887","2","14","Male","approach_avoid_spark_v1","""event"",""trial"",""time""
""fullscreenenter"",""1"",""2121""
""fullscreenexit"",""58"",""284446""
","
","
","""event"",""trial"",""time""
""fullscreenenter"",""1"",""2121""
","""event"",""trial"",""time""
""fullscreenexit"",""58"",""284446""
","","","","","","1153.1999999999534","<p> Your goal in this round is to take care of lots of animals. </p></div>","","0","instructions","","","","","","","","","","",""
"learning-instructions","178","599467","0.0-11.0-1.0-0.1","5887","2","14","Male","approach_avoid_spark_v1","""event"",""trial"",""time""
""fullscreenenter"",""1"",""2121""
""fullscreenexit"",""58"",""284446""
","
","
","""event"",""trial"",""time""
""fullscreenenter"",""1"",""2121""
","""event"",""trial"",""time""
""fullscreenexit"",""58"",""284446""
","","","","","","2238","<p> Some animals want to be pet, while other animals want to be left alone.  </p><p> On each turn, you will see an animal.   </p><p> You need to decide whether to pet it or not.  </p>","","0","instructions","","","","","","","","","","",""
"learning-instructions","179","604732","0.0-11.0-1.0-0.2","5887","2","14","Male","approach_avoid_spark_v1","""event"",""trial"",""time""
""fullscreenenter"",""1"",""2121""
""fullscreenexit"",""58"",""284446""
","
","
","""event"",""trial"",""time""
""fullscreenenter"",""1"",""2121""
","""event"",""trial"",""time""
""fullscreenexit"",""58"",""284446""
","","","","","","404.9000000001397","<p> You can pet the animal by pressing 1 and leave the animal alone by pressing 0. </p><br><div class=""choice-instructions-grid""> <div class=""choice-option""><img src=""images/approach.png"" class=""choice-option-img"" stage=""instructions"" position=""0"" ><div class=""choice-option-text""> Press ""1."" </div></div><div class=""choice-option""><img src=""images/avoid.png"" class=""choice-option-img"" stage=""instructions"" position=""1"" ><div class=""choice-option-text""> Press ""0."" </div></div>","","0","instructions","","","","","","","","","","",""
"learning-instructions","180","613525","0.0-11.0-1.0-0.3","5887","2","14","Male","approach_avoid_spark_v1","""event"",""trial"",""time""
""fullscreenenter"",""1"",""2121""
""fullscreenexit"",""58"",""284446""
","
","
","""event"",""trial"",""time""
""fullscreenenter"",""1"",""2121""
","""event"",""trial"",""time""
""fullscreenexit"",""58"",""284446""
","","","","","","372.80000000004657","<p> If you pet an animal that wants to be pet, you will make it feel happy! </p><p> But if you pet an animal that wants to be left alone, you will make it feel angry. </p>","","0","instructions","","","","","","","","","","",""
"learning-instructions","181","625842","0.0-11.0-1.0-0.4","5887","2","14","Male","approach_avoid_spark_v1","""event"",""trial"",""time""
""fullscreenenter"",""1"",""2121""
""fullscreenexit"",""58"",""284446""
","
","
","""event"",""trial"",""time""
""fullscreenenter"",""1"",""2121""
","""event"",""trial"",""time""
""fullscreenexit"",""58"",""284446""
","","","","","","406.89999999990687","<p> You will earn points based on how you made the animal feel. </p><p> If you made it feel happy, you will WIN anywhere from 1 - 9 points, </p><p> but if you made it feel angry, you will LOSE anywhere from 1 - 9 points. </p>","","0","instructions","","","","","","","","","","",""
"learning-instructions","182","632859","0.0-11.0-1.0-0.5","5887","2","14","Male","approach_avoid_spark_v1","""event"",""trial"",""time""
""fullscreenenter"",""1"",""2121""
""fullscreenexit"",""58"",""284446""
","
","
","""event"",""trial"",""time""
""fullscreenenter"",""1"",""2121""
","""event"",""trial"",""time""
""fullscreenexit"",""58"",""284446""
","","","","","","358.5999999998603","<p> You will see how many points you won or lost in the center of the screen. </p><p> Here is what you would see if you won 5 points: </p><p style=""color:green;font-size:50px;font-weight:bolder"">5</p>","","0","instructions","","","","","","","","","","",""
"learning-instructions","183","636136","0.0-11.0-1.0-0.6","5887","2","14","Male","approach_avoid_spark_v1","""event"",""trial"",""time""
""fullscreenenter"",""1"",""2121""
""fullscreenexit"",""58"",""284446""
","
","
","""event"",""trial"",""time""
""fullscreenenter"",""1"",""2121""
","""event"",""trial"",""time""
""fullscreenexit"",""58"",""284446""
","","","","","","433.5","<p> And here is what you would see if you lost 3 points: </p><p style=""color:red;font-size:50px;font-weight:bolder"">-3</p>","","0","instructions","","","","","","","","","","",""
"learning-instructions","184","649826","0.0-11.0-1.0-0.7","5887","2","14","Male","approach_avoid_spark_v1","""event"",""trial"",""time""
""fullscreenenter"",""1"",""2121""
""fullscreenexit"",""58"",""284446""
","
","
","""event"",""trial"",""time""
""fullscreenenter"",""1"",""2121""
","""event"",""trial"",""time""
""fullscreenexit"",""58"",""284446""
","","","","","","377.69999999995343","<p> Some animals will become very happy or very angry. </p><p> These animals will make you win or lose LOTS of points. </p><p> Other animals have less strong feelings. </p><p> These animals will make you win or lose small amounts of points. </p>","","0","instructions","","","","","","","","","","",""
"learning-instructions","185","661063","0.0-11.0-1.0-0.8","5887","2","14","Male","approach_avoid_spark_v1","""event"",""trial"",""time""
""fullscreenenter"",""1"",""2121""
""fullscreenexit"",""58"",""284446""
","
","
","""event"",""trial"",""time""
""fullscreenenter"",""1"",""2121""
","""event"",""trial"",""time""
""fullscreenexit"",""58"",""284446""
","","","","","","442.30000000004657","<p> If you choose to leave the animal alone, you will not win or lose any points. </p><p>  However, in the center of the screen, you will see the number of points you WOULD HAVE won or lost if you had pet the animal. </p>","","0","instructions","","","","","","","","","","",""
"learning-instructions","186","672667","0.0-11.0-1.0-0.9","5887","2","14","Male","approach_avoid_spark_v1","""event"",""trial"",""time""
""fullscreenenter"",""1"",""2121""
""fullscreenexit"",""58"",""284446""
","
","
","""event"",""trial"",""time""
""fullscreenenter"",""1"",""2121""
","""event"",""trial"",""time""
""fullscreenexit"",""58"",""284446""
","","","","","","401.80000000004657","<p> Here is what you might see if you did not pet the animal but the animal wanted to be pet: </p><p style=""color:grey; font-size:50px; display: inline-block; border-spacing: 15px; border-width:3px; border-style:solid; border-color:red"">  &nbsp; 6 &nbsp; </p><p> Remember, in this case, you would not win or lose ANY points because you did not pet the animal.  </p>","","0","instructions","","","","","","","","","","",""
"learning-instructions","187","679907","0.0-11.0-1.0-0.10","5887","2","14","Male","approach_avoid_spark_v1","""event"",""trial"",""time""
""fullscreenenter"",""1"",""2121""
""fullscreenexit"",""58"",""284446""
","
","
","""event"",""trial"",""time""
""fullscreenenter"",""1"",""2121""
","""event"",""trial"",""time""
""fullscreenexit"",""58"",""284446""
","","","","","","460","<p> Try to make the best choice for each animal because </p><p> at the end of the game, you will earn bonus money based on how many points you earned. </p>","","0","instructions","","","","","","","","","","",""
"learning-instructions","188","688497","0.0-11.0-1.0-0.11","5887","2","14","Male","approach_avoid_spark_v1","""event"",""trial"",""time""
""fullscreenenter"",""1"",""2121""
""fullscreenexit"",""58"",""284446""
","
","
","""event"",""trial"",""time""
""fullscreenenter"",""1"",""2121""
","""event"",""trial"",""time""
""fullscreenexit"",""58"",""284446""
","","","","","","395.10000000009313","<p> You will have 3 seconds to make each choice. Try to respond before time runs out! </p><p> You will lose 5 points each time you do not make a response. </p>","","0","instructions","","","","","","","","","","",""
"html-keyboard-response","189","689102","0.0-11.0-2.0-0.0","5887","2","14","Male","approach_avoid_spark_v1","""event"",""trial"",""time""
""fullscreenenter"",""1"",""2121""
""fullscreenexit"",""58"",""284446""
","
","
","""event"",""trial"",""time""
""fullscreenenter"",""1"",""2121""
","""event"",""trial"",""time""
""fullscreenexit"",""58"",""284446""
","","","","","","null","<div style=""font-size:60px;"">+</div>","null","","fixation","","","","","","","","","","",""
"aa-learning-trial","190","692111","0.0-11.0-2.0-1.0","5887","2","14","Male","approach_avoid_spark_v1","""event"",""trial"",""time""
""fullscreenenter"",""1"",""2121""
""fullscreenexit"",""58"",""284446""
","
","
","""event"",""trial"",""time""
""fullscreenenter"",""1"",""2121""
","""event"",""trial"",""time""
""fullscreenexit"",""58"",""284446""
","","","","","","1198.8000000000466","images/rodent3.png","","","learning","8","8","1","1","rodent","pets","1","1","","good","[6]"
"html-keyboard-response","191","692615","0.0-11.0-2.0-0.1","5887","2","14","Male","approach_avoid_spark_v1","""event"",""trial"",""time""
""fullscreenenter"",""1"",""2121""
""fullscreenexit"",""58"",""284446""
","
","
","""event"",""trial"",""time""
""fullscreenenter"",""1"",""2121""
","""event"",""trial"",""time""
""fullscreenexit"",""58"",""284446""
","","","","","","null","<div style=""font-size:60px;"">+</div>","null","","fixation","","","","","","","","","","",""
"aa-learning-trial","192","695623","0.0-11.0-2.0-1.1","5887","2","14","Male","approach_avoid_spark_v1","""event"",""trial"",""time""
""fullscreenenter"",""1"",""2121""
""fullscreenexit"",""58"",""284446""
","
","
","""event"",""trial"",""time""
""fullscreenenter"",""1"",""2121""
","""event"",""trial"",""time""
""fullscreenexit"",""58"",""284446""
","","","","","","1062.6000000000931","images/rabbit6.png","","","learning","[-1]","-1","1","1","rabbit","pets","1","1","","neutral","0"
"html-keyboard-response","193","696126","0.0-11.0-2.0-0.2","5887","2","14","Male","approach_avoid_spark_v1","""event"",""trial"",""time""
""fullscreenenter"",""1"",""2121""
""fullscreenexit"",""58"",""284446""
","
","
","""event"",""trial"",""time""
""fullscreenenter"",""1"",""2121""
","""event"",""trial"",""time""
""fullscreenexit"",""58"",""284446""
","","","","","","null","<div style=""font-size:60px;"">+</div>","null","","fixation","","","","","","","","","","",""
"aa-learning-trial","194","699135","0.0-11.0-2.0-1.2","5887","2","14","Male","approach_avoid_spark_v1","""event"",""trial"",""time""
""fullscreenenter"",""1"",""2121""
""fullscreenexit"",""58"",""284446""
","
","
","""event"",""trial"",""time""
""fullscreenenter"",""1"",""2121""
","""event"",""trial"",""time""
""fullscreenexit"",""58"",""284446""
","","","","","","1260.3999999999069","images/rodent4.png","","","learning","5","5","1","1","rodent","pets","1","1","","good","[6]"
"html-keyboard-response","195","699638","0.0-11.0-2.0-0.3","5887","2","14","Male","approach_avoid_spark_v1","""event"",""trial"",""time""
""fullscreenenter"",""1"",""2121""
""fullscreenexit"",""58"",""284446""
","
","
","""event"",""trial"",""time""
""fullscreenenter"",""1"",""2121""
","""event"",""trial"",""time""
""fullscreenexit"",""58"",""284446""
","","","","","","null","<div style=""font-size:60px;"">+</div>","null","","fixation","","","","","","","","","","",""
"aa-learning-trial","196","702647","0.0-11.0-2.0-1.3","5887","2","14","Male","approach_avoid_spark_v1","""event"",""trial"",""time""
""fullscreenenter"",""1"",""2121""
""fullscreenexit"",""58"",""284446""
","
","
","""event"",""trial"",""time""
""fullscreenenter"",""1"",""2121""
","""event"",""trial"",""time""
""fullscreenexit"",""58"",""284446""
","","","","","","893","images/cat2.png","","","learning","-6","-6","1","1","cat","pets","1","1","","bad","[-5]"
"html-keyboard-response","197","703150","0.0-11.0-2.0-0.4","5887","2","14","Male","approach_avoid_spark_v1","""event"",""trial"",""time""
""fullscreenenter"",""1"",""2121""
""fullscreenexit"",""58"",""284446""
","
","
","""event"",""trial"",""time""
""fullscreenenter"",""1"",""2121""
","""event"",""trial"",""time""
""fullscreenexit"",""58"",""284446""
","","","","","","null","<div style=""font-size:60px;"">+</div>","null","","fixation","","","","","","","","","","",""
"aa-learning-trial","198","706158","0.0-11.0-2.0-1.4","5887","2","14","Male","approach_avoid_spark_v1","""event"",""trial"",""time""
""fullscreenenter"",""1"",""2121""
""fullscreenexit"",""58"",""284446""
","
","
","""event"",""trial"",""time""
""fullscreenenter"",""1"",""2121""
","""event"",""trial"",""time""
""fullscreenexit"",""58"",""284446""
","","","","","","785.5","images/cat4.png","","","learning","-7","-7","1","1","cat","pets","1","1","","bad","[-5]"
"html-keyboard-response","199","706662","0.0-11.0-2.0-0.5","5887","2","14","Male","approach_avoid_spark_v1","""event"",""trial"",""time""
""fullscreenenter"",""1"",""2121""
""fullscreenexit"",""58"",""284446""
","
","
