"trial_type","trial_index","time_elapsed","internal_node_id","subject_id","task_condition","age","gender","task_version","interactions","blur_events","focus_events","fullscreenenter_events","fullscreenexit_events","success","timeout","failed_images","failed_audio","failed_video","rt","stimulus","response","button_pressed","task_part","approach_reward","points","key_press","option_selected","stim_cat","task_block","block_condition","block_number","correct","cat_type","mean_cat_reward"
"pavlovia","0","4","0.0-0.0","3770","1","8","Male","approach_avoid_spark_v1","""event"",""trial"",""time""
""fullscreenenter"",""1"",""1544""
","
","
","""event"",""trial"",""time""
""fullscreenenter"",""1"",""1544""
","
","","","","","","","","","","","","","","","","","","","","",""
"fullscreen","1","2532","0.0-1.0","3770","1","8","Male","approach_avoid_spark_v1","""event"",""trial"",""time""
""fullscreenenter"",""1"",""1544""
","
","
","""event"",""trial"",""time""
""fullscreenenter"",""1"",""1544""
","
","true","","","","","","","","","","","","","","","","","","","",""
"preload","2","7014","0.0-2.0","3770","1","8","Male","approach_avoid_spark_v1","""event"",""trial"",""time""
""fullscreenenter"",""1"",""1544""
","
","
","""event"",""trial"",""time""
""fullscreenenter"",""1"",""1544""
","
","true","false","[]","[]","[]","","","","","","","","","","","","","","","",""
"audio-keyboard-response","3","9180","0.0-3.0","3770","1","8","Male","approach_avoid_spark_v1","""event"",""trial"",""time""
""fullscreenenter"",""1"",""1544""
","
","
","""event"",""trial"",""time""
""fullscreenenter"",""1"",""1544""
","
","","","","","","2165.2607709750573","audio/beep_loop.wav"," ","","","","","","","","","","","","",""
"audio-button-response","4","11661","0.0-4.0","3770","1","8","Male","approach_avoid_spark_v1","""event"",""trial"",""time""
""fullscreenenter"",""1"",""1544""
","
","
","""event"",""trial"",""time""
""fullscreenenter"",""1"",""1544""
","
","","","","","","2479","audio/shark.wav","4","","","","","","","","","","","","",""
"audio-button-response","5","14601","0.0-5.0","3770","1","8","Male","approach_avoid_spark_v1","""event"",""trial"",""time""
""fullscreenenter"",""1"",""1544""
","
","
","""event"",""trial"",""time""
""fullscreenenter"",""1"",""1544""
","
","","","","","","1939","audio/turtle.wav","1","","","","","","","","","","","","",""
"preload","6","17288","0.0-6.0","3770","1","8","Male","approach_avoid_spark_v1","""event"",""trial"",""time""
""fullscreenenter"",""1"",""1544""
","
","
","""event"",""trial"",""time""
""fullscreenenter"",""1"",""1544""
","
","true","false","[]","[]","[]","","","","","","","","","","","","","","","",""
"html-keyboard-response","7","18292","0.0-7.0","3770","1","8","Male","approach_avoid_spark_v1","""event"",""trial"",""time""
""fullscreenenter"",""1"",""1544""
","
","
","""event"",""trial"",""time""
""fullscreenenter"",""1"",""1544""
","
","","","","","","1003.1000000014901","Welcome to the experiment. Press any key to begin and to advance the instructions."," ","","","","","","","","","","","","",""
"learning-instructions","8","26924","0.0-8.0-0.0-0.0","3770","1","8","Male","approach_avoid_spark_v1","""event"",""trial"",""time""
""fullscreenenter"",""1"",""1544""
","
","
","""event"",""trial"",""time""
""fullscreenenter"",""1"",""1544""
","
","","","","","","1679","<p> Welcome! Today you are going to play 6 different rounds of a decision-making game. </p><p> Use the mouse to click next to continue. </p>","","0","instructions","","","","","","","","","","",""
"learning-instructions","9","30182","0.0-8.0-0.0-0.1","3770","1","8","Male","approach_avoid_spark_v1","""event"",""trial"",""time""
""fullscreenenter"",""1"",""1544""
","
","
","""event"",""trial"",""time""
""fullscreenenter"",""1"",""1544""
","
","","","","","","531.6000000014901","<p> You will start with a practice round to learn the rules. </p>","","0","instructions","","","","","","","","","","",""
"learning-instructions","10","34002","0.0-8.0-0.0-0.2","3770","1","8","Male","approach_avoid_spark_v1","""event"",""trial"",""time""
""fullscreenenter"",""1"",""1544""
","
","
","""event"",""trial"",""time""
""fullscreenenter"",""1"",""1544""
","
","","","","","","369.0999999977648","<p> Your goal in this round is to give out sports equipment to kids. </p></div>","","0","instructions","","","","","","","","","","",""
"learning-instructions","11","42922","0.0-8.0-0.0-0.3","3770","1","8","Male","approach_avoid_spark_v1","""event"",""trial"",""time""
""fullscreenenter"",""1"",""1544""
","
","
","""event"",""trial"",""time""
""fullscreenenter"",""1"",""1544""
","
","","","","","","1370.9000000022352","<p> The kids only like some of the equipment.  </p><p> On each turn, you will see a piece of sports equipment.   </p><p> You need to decide whether to give it to the kids or not.  </p>","","0","instructions","","","","","","","","","","",""
"learning-instructions","12","54335","0.0-8.0-0.0-0.4","3770","1","8","Male","approach_avoid_spark_v1","""event"",""trial"",""time""
""fullscreenenter"",""1"",""1544""
","
","
","""event"",""trial"",""time""
""fullscreenenter"",""1"",""1544""
","
","","","","","","6665.29999999702","<p> You can give them the equipment by pressing 1 and choose not to give it to them by pressing 0. </p><br><div class=""choice-instructions-grid""> <div class=""choice-option""><img src=""images/approach.png"" class=""choice-option-img"" stage=""instructions"" position=""0"" ><div class=""choice-option-text""> Press ""1."" </div></div><div class=""choice-option""><img src=""images/avoid.png"" class=""choice-option-img"" stage=""instructions"" position=""1"" ><div class=""choice-option-text""> Press ""0."" </div></div>","","0","instructions","","","","","","","","","","",""
"learning-instructions","13","62525","0.0-8.0-0.0-0.5","3770","1","8","Male","approach_avoid_spark_v1","""event"",""trial"",""time""
""fullscreenenter"",""1"",""1544""
","
","
","""event"",""trial"",""time""
""fullscreenenter"",""1"",""1544""
","
","","","","","","801.5","<p> If you give them a piece of equipment they like, they will be happy! </p><p> But if you give them a piece of equipment they do not like, they will be sad. </p>","","0","instructions","","","","","","","","","","",""
"learning-instructions","14","73606","0.0-8.0-0.0-0.6","3770","1","8","Male","approach_avoid_spark_v1","""event"",""trial"",""time""
""fullscreenenter"",""1"",""1544""
","
","
","""event"",""trial"",""time""
""fullscreenenter"",""1"",""1544""
","
","","","","","","568.2999999970198","<p> You will earn points based on how you make kids feel. </p><p> If you make them happy, you will WIN anywhere from 1 - 9 points, </p><p> but if you make them sad, you will LOSE anywhere from 1 - 9 points. </p>","","0","instructions","","","","","","","","","","",""
"learning-instructions","15","83788","0.0-8.0-0.0-0.7","3770","1","8","Male","approach_avoid_spark_v1","""event"",""trial"",""time""
""fullscreenenter"",""1"",""1544""
","
","
","""event"",""trial"",""time""
""fullscreenenter"",""1"",""1544""
","
","","","","","","620.0999999977648","<p> You will see how many points you won or lost in the center of the screen. </p><p> Here is what you would see if you won 6 points: </p><p style=""color:green;font-size:50px;font-weight:bolder"">6</p><p style=""color:green"">The text is GREEN because you WON points.</p>","","0","instructions","","","","","","","","","","",""
"learning-instructions","16","90552","0.0-8.0-0.0-0.8","3770","1","8","Male","approach_avoid_spark_v1","""event"",""trial"",""time""
""fullscreenenter"",""1"",""1544""
","
","
","""event"",""trial"",""time""
""fullscreenenter"",""1"",""1544""
","
","","","","","","1266.2999999970198","<p> And here is what you would see if you lost 4 points: </p><p style=""color:red;font-size:50px;font-weight:bolder"">-4</p><p style=""color:red"">The text is RED because you LOST points. </p>","","0","instructions","","","","","","","","","","",""
"learning-instructions","17","106012","0.0-8.0-0.0-0.9","3770","1","8","Male","approach_avoid_spark_v1","""event"",""trial"",""time""
""fullscreenenter"",""1"",""1544""
","
","
","""event"",""trial"",""time""
""fullscreenenter"",""1"",""1544""
","
","","","","","","745.1999999992549","<p> Some of the equipment will make the kids VERY happy or sad. </p><p> These pieces of equipment will make you win or lose LOTS of points. </p><p> Other pieces of equipment will only make the kids a little happy or sad. </p><p> These pieces of equipment will make you win or lose small amounts of points. </p>","","0","instructions","","","","","","","","","","",""
"learning-instructions","18","117074","0.0-8.0-0.0-0.10","3770","1","8","Male","approach_avoid_spark_v1","""event"",""trial"",""time""
""fullscreenenter"",""1"",""1544""
","
","
","""event"",""trial"",""time""
""fullscreenenter"",""1"",""1544""
","
","","","","","","441.20000000298023","<p> If you choose not to give them the equipment, you will not win or lose any points. </p><p>  However, in the center of the screen, you will see the number of points you WOULD HAVE won or lost if you had given them the equipment. </p>","","0","instructions","","","","","","","","","","",""
"learning-instructions","19","139028","0.0-8.0-0.0-0.11","3770","1","8","Male","approach_avoid_spark_v1","""event"",""trial"",""time""
""fullscreenenter"",""1"",""1544""
","
","
","""event"",""trial"",""time""
""fullscreenenter"",""1"",""1544""
","
","","","","","","427.80000000074506","<p> Here is what you might see if you did not give the equipment to the kids but it would have made them happy: </p><p style=""color:grey; font-size:50px; display: inline-block; border-spacing: 15px; border-width:3px; border-style:solid; border-color:red"">  &nbsp; 7 &nbsp; </p><p> Remember, in this case, you would not win or lose ANY points because you did not give them the equipment.  </p><p style=""color:grey"">The text is GREY because you earned ZERO points. </p><p style=""color:red"">However, choosing to give the kids the equipment would have made you win points. The box around the text is RED because you chose the worse option. </p>","","0","instructions","","","","","","","","","","",""
"learning-instructions","20","161906","0.0-8.0-0.0-0.12","3770","1","8","Male","approach_avoid_spark_v1","""event"",""trial"",""time""
""fullscreenenter"",""1"",""1544""
","
","
","""event"",""trial"",""time""
""fullscreenenter"",""1"",""1544""
","
","","","","","","1804.5","<p> Here is what you might see if you did not give the equipment to the kids but it would have made them sad: </p><p style=""color:grey;font-size:50px; display: inline-block; border-spacing: 15px; border-width:3px; border-style:solid; border-color:green"">  &nbsp; -8 &nbsp; </p><p> Remember, in this case, you would not win or lose ANY points because you did not give them the equipment.  </p><p style=""color:grey"">The text is GREY because you earned ZERO points. </p><p  style=""color:green""> Choosing to give the kids the equipment would have made you lose points. The box around the text is GREEN because you chose the better option.</p>","","0","instructions","","","","","","","","","","",""
"learning-instructions","21","171777","0.0-8.0-0.0-0.13","3770","1","8","Male","approach_avoid_spark_v1","""event"",""trial"",""time""
""fullscreenenter"",""1"",""1544""
","
","
","""event"",""trial"",""time""
""fullscreenenter"",""1"",""1544""
","
","","","","","","1081.6000000014901","<p> You will have 3 seconds to make each choice. Try to respond before time runs out! </p><p> You will lose 5 points each time you do not make a response. </p>","","0","instructions","","","","","","","","","","",""
"learning-instructions","22","178316","0.0-8.0-0.0-0.14","3770","1","8","Male","approach_avoid_spark_v1","""event"",""trial"",""time""
""fullscreenenter"",""1"",""1544""
","
","
","""event"",""trial"",""time""
""fullscreenenter"",""1"",""1544""
","
","","","","","","1130.300000000745","<p> This is just a practice round, but in the real game, your bonus payment will depend on your total number of points.","","0","instructions","","","","","","","","","","",""
"learning-instructions","23","188571","0.0-8.0-0.0-0.15","3770","1","8","Male","approach_avoid_spark_v1","""event"",""trial"",""time""
""fullscreenenter"",""1"",""1544""
","
","
","""event"",""trial"",""time""
""fullscreenenter"",""1"",""1544""
","
","","","","","","4500.29999999702","<p> Remember, you can give them the equipment by pressing 1 and choose not to give it to them by pressing 0. </p><br><div class=""choice-instructions-grid""> <div class=""choice-option""><img src=""images/approach.png"" class=""choice-option-img"" stage=""instructions"" position=""0"" ><div class=""choice-option-text""> Press ""1."" </div></div><div class=""choice-option""><img src=""images/avoid.png"" class=""choice-option-img"" stage=""instructions"" position=""1"" ><div class=""choice-option-text""> Press ""0."" </div></div>","","0","instructions","","","","","","","","","","",""
"html-button-response","24","192174","0.0-8.0-1.0","3770","1","8","Male","approach_avoid_spark_v1","""event"",""trial"",""time""
""fullscreenenter"",""1"",""1544""
","
","
","""event"",""trial"",""time""
""fullscreenenter"",""1"",""1544""
","
","","","","","","3492.89999999851","<p> Ready to practice? </p>","0","","","","","","","","","","","","",""
"html-keyboard-response","25","192783","0.0-8.0-2.0-0.0","3770","1","8","Male","approach_avoid_spark_v1","""event"",""trial"",""time""
""fullscreenenter"",""1"",""1544""
","
","
","""event"",""trial"",""time""
""fullscreenenter"",""1"",""1544""
","
","","","","","","null","<div style=""font-size:60px;"">+</div>","null","","fixation","","","","","","","","","","",""
"aa-learning-trial","26","195788","0.0-8.0-2.0-1.0","3770","1","8","Male","approach_avoid_spark_v1","""event"",""trial"",""time""
""fullscreenenter"",""1"",""1544""
","
","
","""event"",""trial"",""time""
""fullscreenenter"",""1"",""1544""
","
","","","","","","1146.4000000022352","images/ball3.png","","","learning","4","0","0","0","practice","practice","practice","-1","","",""
"html-keyboard-response","27","196291","0.0-8.0-2.0-0.1","3770","1","8","Male","approach_avoid_spark_v1","""event"",""trial"",""time""
""fullscreenenter"",""1"",""1544""
","
","
","""event"",""trial"",""time""
""fullscreenenter"",""1"",""1544""
","
","","","","","","null","<div style=""font-size:60px;"">+</div>","null","","fixation","","","","","","","","","","",""
"aa-learning-trial","28","199303","0.0-8.0-2.0-1.1","3770","1","8","Male","approach_avoid_spark_v1","""event"",""trial"",""time""
""fullscreenenter"",""1"",""1544""
","
","
","""event"",""trial"",""time""
""fullscreenenter"",""1"",""1544""
","
","","","","","","604.3000000007451","images/racket4.png","","","learning","1","1","1","1","practice","practice","practice","-1","","",""
"html-keyboard-response","29","199813","0.0-8.0-2.0-0.2","3770","1","8","Male","approach_avoid_spark_v1","""event"",""trial"",""time""
""fullscreenenter"",""1"",""1544""
","
","
","""event"",""trial"",""time""
""fullscreenenter"",""1"",""1544""
","
","","","","","","null","<div style=""font-size:60px;"">+</div>","null","","fixation","","","","","","","","","","",""
"aa-learning-trial","30","202820","0.0-8.0-2.0-1.2","3770","1","8","Male","approach_avoid_spark_v1","""event"",""trial"",""time""
""fullscreenenter"",""1"",""1544""
","
","
","""event"",""trial"",""time""
""fullscreenenter"",""1"",""1544""
","
","","","","","","412.1000000014901","images/racket1.png","","","learning","-5","0","0","0","practice","practice","practice","-1","","",""
"html-keyboard-response","31","203325","0.0-8.0-2.0-0.3","3770","1","8","Male","approach_avoid_spark_v1","""event"",""trial"",""time""
""fullscreenenter"",""1"",""1544""
","
","
","""event"",""trial"",""time""
""fullscreenenter"",""1"",""1544""
","
","","","","","","null","<div style=""font-size:60px;"">+</div>","null","","fixation","","","","","","","","","","",""
"aa-learning-trial","32","206331","0.0-8.0-2.0-1.3","3770","1","8","Male","approach_avoid_spark_v1","""event"",""trial"",""time""
""fullscreenenter"",""1"",""1544""
","
","
","""event"",""trial"",""time""
""fullscreenenter"",""1"",""1544""
","
","","","","","","527.6999999992549","images/racket2.png","","","learning","4","4","1","1","practice","practice","practice","-1","","",""
"html-keyboard-response","33","206835","0.0-8.0-2.0-0.4","3770","1","8","Male","approach_avoid_spark_v1","""event"",""trial"",""time""
""fullscreenenter"",""1"",""1544""
","
","
","""event"",""trial"",""time""
""fullscreenenter"",""1"",""1544""
","
","","","","","","null","<div style=""font-size:60px;"">+</div>","null","","fixation","","","","","","","","","","",""
"aa-learning-trial","34","209845","0.0-8.0-2.0-1.4","3770","1","8","Male","approach_avoid_spark_v1","""event"",""trial"",""time""
""fullscreenenter"",""1"",""1544""
","
","
","""event"",""trial"",""time""
""fullscreenenter"",""1"",""1544""
","
","","","","","","472.6000000014901","images/ball4.png","","","learning","9","0","0","0","practice","practice","practice","-1","","",""
"html-keyboard-response","35","210350","0.0-8.0-2.0-0.5","3770","1","8","Male","approach_avoid_spark_v1","""event"",""trial"",""time""
""fullscreenenter"",""1"",""1544""
","
","
","""event"",""trial"",""time""
""fullscreenenter"",""1"",""1544""
","
","","","","","","null","<div style=""font-size:60px;"">+</div>","null","","fixation","","","","","","","","","","",""
"aa-learning-trial","36","213356","0.0-8.0-2.0-1.5","3770","1","8","Male","approach_avoid_spark_v1","""event"",""trial"",""time""
""fullscreenenter"",""1"",""1544""
","
","
","""event"",""trial"",""time""
""fullscreenenter"",""1"",""1544""
","
","","","","","","704.6999999992549","images/racket4.png","","","learning","-3","-3","1","1","practice","practice","practice","-1","","",""
"html-keyboard-response","37","213859","0.0-8.0-2.0-0.6","3770","1","8","Male","approach_avoid_spark_v1","""event"",""trial"",""time""
""fullscreenenter"",""1"",""1544""
","
","
","""event"",""trial"",""time""
""fullscreenenter"",""1"",""1544""
","
","","","","","","null","<div style=""font-size:60px;"">+</div>","null","","fixation","","","","","","","","","","",""
"aa-learning-trial","38","216867","0.0-8.0-2.0-1.6","3770","1","8","Male","approach_avoid_spark_v1","""event"",""trial"",""time""
""fullscreenenter"",""1"",""1544""
","
","
","""event"",""trial"",""time""
""fullscreenenter"",""1"",""1544""
","
","","","","","","327.6000000014901","images/ball3.png","","","learning","-3","0","0","0","practice","practice","practice","-1","","",""
"html-keyboard-response","39","217371","0.0-8.0-2.0-0.7","3770","1","8","Male","approach_avoid_spark_v1","""event"",""trial"",""time""
""fullscreenenter"",""1"",""1544""
","
","
","""event"",""trial"",""time""
""fullscreenenter"",""1"",""1544""
","
","","","","","","null","<div style=""font-size:60px;"">+</div>","null","","fixation","","","","","","","","","","",""
"aa-learning-trial","40","220380","0.0-8.0-2.0-1.7","3770","1","8","Male","approach_avoid_spark_v1","""event"",""trial"",""time""
""fullscreenenter"",""1"",""1544""
","
","
","""event"",""trial"",""time""
""fullscreenenter"",""1"",""1544""
","
","","","","","","1240.3999999985099","images/racket2.png","","","learning","-7","0","0","0","practice","practice","practice","-1","","",""
"html-keyboard-response","41","220883","0.0-8.0-2.0-0.8","3770","1","8","Male","approach_avoid_spark_v1","""event"",""trial"",""time""
""fullscreenenter"",""1"",""1544""
","
","
","""event"",""trial"",""time""
""fullscreenenter"",""1"",""1544""
","
","","","","","","null","<div style=""font-size:60px;"">+</div>","null","","fixation","","","","","","","","","","",""
"aa-learning-trial","42","223891","0.0-8.0-2.0-1.8","3770","1","8","Male","approach_avoid_spark_v1","""event"",""trial"",""time""
""fullscreenenter"",""1"",""1544""
","
","
","""event"",""trial"",""time""
""fullscreenenter"",""1"",""1544""
","
","","","","","","543.5999999977648","images/racket3.png","","","learning","3","3","1","1","practice","practice","practice","-1","","",""
"html-keyboard-response","43","224395","0.0-8.0-2.0-0.9","3770","1","8","Male","approach_avoid_spark_v1","""event"",""trial"",""time""
""fullscreenenter"",""1"",""1544""
","
","
","""event"",""trial"",""time""
""fullscreenenter"",""1"",""1544""
","
","","","","","","null","<div style=""font-size:60px;"">+</div>","null","","fixation","","","","","","","","","","",""
"aa-learning-trial","44","227404","0.0-8.0-2.0-1.9","3770","1","8","Male","approach_avoid_spark_v1","""event"",""trial"",""time""
""fullscreenenter"",""1"",""1544""
","
","
","""event"",""trial"",""time""
""fullscreenenter"",""1"",""1544""
","
","","","","","","545.1999999992549","images/ball2.png","","","learning","-2","0","0","0","practice","practice","practice","-1","","",""
"html-keyboard-response","45","227907","0.0-8.0-2.0-0.10","3770","1","8","Male","approach_avoid_spark_v1","""event"",""trial"",""time""
""fullscreenenter"",""1"",""1544""
","
","
","""event"",""trial"",""time""
""fullscreenenter"",""1"",""1544""
","
","","","","","","null","<div style=""font-size:60px;"">+</div>","null","","fixation","","","","","","","","","","",""
"aa-learning-trial","46","230916","0.0-8.0-2.0-1.10","3770","1","8","Male","approach_avoid_spark_v1","""event"",""trial"",""time""
""fullscreenenter"",""1"",""1544""
","
","
","""event"",""trial"",""time""
""fullscreenenter"",""1"",""1544""
","
","","","","","","437.5999999977648","images/ball4.png","","","learning","-6","-6","1","1","practice","practice","practice","-1","","",""
"html-keyboard-response","47","231420","0.0-8.0-2.0-0.11","3770","1","8","Male","approach_avoid_spark_v1","""event"",""trial"",""time""
""fullscreenenter"",""1"",""1544""
","
","
","""event"",""trial"",""time""
""fullscreenenter"",""1"",""1544""
","
","","","","","","null","<div style=""font-size:60px;"">+</div>","null","","fixation","","","","","","","","","","",""
"aa-learning-trial","48","234428","0.0-8.0-2.0-1.11","3770","1","8","Male","approach_avoid_spark_v1","""event"",""trial"",""time""
""fullscreenenter"",""1"",""1544""
","
","
","""event"",""trial"",""time""
""fullscreenenter"",""1"",""1544""
","
","","","","","","515.4000000022352","images/racket4.png","","","learning","-1","0","0","0","practice","practice","practice","-1","","",""
"html-button-response","49","236316","0.0-8.0-3.0","3770","1","8","Male","approach_avoid_spark_v1","""event"",""trial"",""time""
""fullscreenenter"",""1"",""1544""
","
","
","""event"",""trial"",""time""
""fullscreenenter"",""1"",""1544""
","
","","","","","","1886.3999999985099","<p> You earned -1 points in the practice round! </p>","0","","break","","","","","","","","","","",""
"learning-instructions","50","244636","0.0-8.0-4.0-0.0","3770","1","8","Male","approach_avoid_spark_v1","""event"",""trial"",""time""
""fullscreenenter"",""1"",""1544""
","
","
","""event"",""trial"",""time""
""fullscreenenter"",""1"",""1544""
","
","","","","","","2216.7999999970198","<p> It's almost time to start the real game. </p><p> Before you start, we're going to ask you a few questions about how the game works. </p>","","0","instructions","","","","","","","","","","",""
"preload","51","245755","0.0-8.0-5.0","3770","1","8","Male","approach_avoid_spark_v1","""event"",""trial"",""time""
""fullscreenenter"",""1"",""1544""
","
","
","""event"",""trial"",""time""
""fullscreenenter"",""1"",""1544""
","
","true","false","[]","[]","[]","","","","","","","","","","","","","","","",""
"comp-q","52","256847","0.0-8.0-6.0-0.0","3770","1","8","Male","approach_avoid_spark_v1","""event"",""trial"",""time""
""fullscreenenter"",""1"",""1544""
","
","
","""event"",""trial"",""time""
""fullscreenenter"",""1"",""1544""
","
","","","","","","6097.5","<p> <b> True or False? </b> </p><p> If you see a number in GREY, that means you earned that many points. </p>","","1","comp_question","","","","","","","","","true","",""
"comp-q","53","266219","0.0-8.0-6.0-1.0","3770","1","8","Male","approach_avoid_spark_v1","""event"",""trial"",""time""
""fullscreenenter"",""1"",""1544""
","
","
","""event"",""trial"",""time""
""fullscreenenter"",""1"",""1544""
","
","","","","","","1014.6999999992549","<p><b> That's right! </b> If you see a grey number, it means you earned ZERO points. <br> The grey numbers show the points you WOULD HAVE earned if you had made the other choice. </p>","","0","comp_answer","","","","","","","","","","",""
"comp-q","54","271701","0.0-8.0-7.0-0.0","3770","1","8","Male","approach_avoid_spark_v1","""event"",""trial"",""time""
""fullscreenenter"",""1"",""1544""
","
","
","""event"",""trial"",""time""
""fullscreenenter"",""1"",""1544""
","
","","","","","","791.1000000014901","<p> <b> True or False? </b> </p><p> You will have as much time as you want to make each choice. </p>","","1","comp_question","","","","","","","","","true","",""
"comp-q","55","276865","0.0-8.0-7.0-1.0","3770","1","8","Male","approach_avoid_spark_v1","""event"",""trial"",""time""
""fullscreenenter"",""1"",""1544""
","
","
","""event"",""trial"",""time""
""fullscreenenter"",""1"",""1544""
","
","","","","","","1125.4000000022352","<p> <b> That's right! </b> You will only have 3 seconds to make each choice. </p>","","0","comp_answer","","","","","","","","","","",""
"comp-q","56","282208","0.0-8.0-8.0-0.0","3770","1","8","Male","approach_avoid_spark_v1","""event"",""trial"",""time""
""fullscreenenter"",""1"",""1544""
","
","
","""event"",""trial"",""time""
""fullscreenenter"",""1"",""1544""
","
","","","","","","680.6000000014901","<p> <b> True or False? </b> </p><p> You should use the '1' and '0' keys to make your choices. </p>","","0","comp_question","","","","","","","","","true","",""
"comp-q","57","287625","0.0-8.0-8.0-1.0","3770","1","8","Male","approach_avoid_spark_v1","""event"",""trial"",""time""
""fullscreenenter"",""1"",""1544""
","
","
","""event"",""trial"",""time""
""fullscreenenter"",""1"",""1544""
","
","","","","","","803.3000000007451","<p> <b> That's right! </b> You should use the '1' and '0' keys to make each choice. </p>","","0","comp_answer","","","","","","","","","","",""
"learning-instructions","58","295893","0.0-8.0-9.0-0.0","3770","1","8","Male","approach_avoid_spark_v1","""event"",""trial"",""time""
""fullscreenenter"",""1"",""1544""
","
","
","""event"",""trial"",""time""
""fullscreenenter"",""1"",""1544""
","
","","","","","","1995.3999999985099","<p> It's now time to start the real game. </p>Do your best, because the points you earn in the next rounds will influence your bonus payment. </p>","","0","instructions","","","","","","","","","","",""
"preload","59","296014","0.0-9.0-0.0","3770","1","8","Male","approach_avoid_spark_v1","""event"",""trial"",""time""
""fullscreenenter"",""1"",""1544""
","
","
","""event"",""trial"",""time""
""fullscreenenter"",""1"",""1544""
","
","true","false","[]","[]","[]","","","","","","","","","","","","","","","",""
"learning-instructions","60","303179","0.0-9.0-1.0-0.0","3770","1","8","Male","approach_avoid_spark_v1","""event"",""trial"",""time""
""fullscreenenter"",""1"",""1544""
","
","
","""event"",""trial"",""time""
""fullscreenenter"",""1"",""1544""
","
","","","","","","2291.599999997765","<p> Your goal in this round is to sell different plants to a picky customer. </p></div>","","0","instructions","","","","","","","","","","",""
"learning-instructions","61","313741","0.0-9.0-1.0-0.1","3770","1","8","Male","approach_avoid_spark_v1","""event"",""trial"",""time""
""fullscreenenter"",""1"",""1544""
","
","
","""event"",""trial"",""time""
""fullscreenenter"",""1"",""1544""
","
","","","","","","1522.3999999985099","<p> The customer likes some plants and dislikes others.  </p><p> On each turn, you will see a plant.   </p><p> You need to decide whether to offer it to the customer or not.  </p>","","0","instructions","","","","","","","","","","",""
"learning-instructions","62","321026","0.0-9.0-1.0-0.2","3770","1","8","Male","approach_avoid_spark_v1","""event"",""trial"",""time""
""fullscreenenter"",""1"",""1544""
","
","
","""event"",""trial"",""time""
""fullscreenenter"",""1"",""1544""
","
","","","","","","1812.3999999985099","<p> You can offer the plant by pressing 1 and decide to not offer it by pressing 0. </p><br><div class=""choice-instructions-grid""> <div class=""choice-option""><img src=""images/approach.png"" class=""choice-option-img"" stage=""instructions"" position=""0"" ><div class=""choice-option-text""> Press ""1."" </div></div><div class=""choice-option""><img src=""images/avoid.png"" class=""choice-option-img"" stage=""instructions"" position=""1"" ><div class=""choice-option-text""> Press ""0."" </div></div>","","0","instructions","","","","","","","","","","",""
"learning-instructions","63","332511","0.0-9.0-1.0-0.3","3770","1","8","Male","approach_avoid_spark_v1","""event"",""trial"",""time""
""fullscreenenter"",""1"",""1544""
","
","
","""event"",""trial"",""time""
""fullscreenenter"",""1"",""1544""
","
","","","","","","2830.39999999851","<p> If you offer a plant to the customer that she likes, she will be very pleased! </p><p> But if you offer a plant that she does NOT like, she will be annoyed. </p>","","0","instructions","","","","","","","","","","",""
"learning-instructions","64","345684","0.0-9.0-1.0-0.4","3770","1","8","Male","approach_avoid_spark_v1","""event"",""trial"",""time""
""fullscreenenter"",""1"",""1544""
","
","
","""event"",""trial"",""time""
""fullscreenenter"",""1"",""1544""
","
","","","","","","934.4000000022352","<p> You will earn points based on how you made the customer feel. </p><p> If you made her pleased, you will WIN anywhere from 1 - 9 points, </p><p> but if you made her annoyed, you will LOSE anywhere from 1 - 9 points. </p>","","0","instructions","","","","","","","","","","",""
"learning-instructions","65","354000","0.0-9.0-1.0-0.5","3770","1","8","Male","approach_avoid_spark_v1","""event"",""trial"",""time""
""fullscreenenter"",""1"",""1544""
","
","
","""event"",""trial"",""time""
""fullscreenenter"",""1"",""1544""
","
","","","","","","1053","<p> You will see how many points you won or lost in the center of the screen. </p><p> Here is what you would see if you won 5 points: </p><p style=""color:green;font-size:50px;font-weight:bolder"">5</p>","","0","instructions","","","","","","","","","","",""
"learning-instructions","66","358521","0.0-9.0-1.0-0.6","3770","1","8","Male","approach_avoid_spark_v1","""event"",""trial"",""time""
""fullscreenenter"",""1"",""1544""
","
","
","""event"",""trial"",""time""
""fullscreenenter"",""1"",""1544""
","
","","","","","","1185.6000000014901","<p> And here is what you would see if you lost 3 points: </p><p style=""color:red;font-size:50px;font-weight:bolder"">-3</p>","","0","instructions","","","","","","","","","","",""
"learning-instructions","67","374112","0.0-9.0-1.0-0.7","3770","1","8","Male","approach_avoid_spark_v1","""event"",""trial"",""time""
""fullscreenenter"",""1"",""1544""
","
","
","""event"",""trial"",""time""
""fullscreenenter"",""1"",""1544""
","
","","","","","","1230.199999999255","<p> Some plants will make the customer VERY pleased or annoyed. </p><p> These plants will make you win or lose LOTS of points. </p><p> The customer will have less strong feelings about other plants. </p><p> These plants will make you win or lose small amounts of points. </p>","","0","instructions","","","","","","","","","","",""
"learning-instructions","68","388646","0.0-9.0-1.0-0.8","3770","1","8","Male","approach_avoid_spark_v1","""event"",""trial"",""time""
""fullscreenenter"",""1"",""1544""
","
","
","""event"",""trial"",""time""
""fullscreenenter"",""1"",""1544""
","
","","","","","","2210.5","<p> If you choose to not offer the plant to the customer, you will not win or lose any points. </p><p>  However, in the center of the screen, you will see the number of points you WOULD HAVE won or lost if you had offered the plant. </p>","","0","instructions","","","","","","","","","","",""
"learning-instructions","69","400807","0.0-9.0-1.0-0.9","3770","1","8","Male","approach_avoid_spark_v1","""event"",""trial"",""time""
""fullscreenenter"",""1"",""1544""
","
","
","""event"",""trial"",""time""
""fullscreenenter"",""1"",""1544""
","
","","","","","","1018.9000000022352","<p> Here is what you might see if you did not offer the plant but the customer would have liked it: </p><p style=""color:grey; font-size:50px; display: inline-block; border-spacing: 15px; border-width:3px; border-style:solid; border-color:red"">  &nbsp; 6 &nbsp; </p><p> Remember, in this case, you would not win or lose ANY points because you did not offer the plant.  </p>","","0","instructions","","","","","","","","","","",""
"learning-instructions","70","409227","0.0-9.0-1.0-0.10","3770","1","8","Male","approach_avoid_spark_v1","""event"",""trial"",""time""
""fullscreenenter"",""1"",""1544""
","
","
","""event"",""trial"",""time""
""fullscreenenter"",""1"",""1544""
","
","","","","","","1063","<p> Try to make the best choice for each plant because </p><p> at the end of the game, you will earn bonus money based on how many points you earned. </p>","","0","instructions","","","","","","","","","","",""
"learning-instructions","71","418702","0.0-9.0-1.0-0.11","3770","1","8","Male","approach_avoid_spark_v1","""event"",""trial"",""time""
""fullscreenenter"",""1"",""1544""
","
","
","""event"",""trial"",""time""
""fullscreenenter"",""1"",""1544""
","
","","","","","","1284.199999999255","<p> You will have 3 seconds to make each choice. Try to respond before time runs out! </p><p> You will lose 5 points each time you do not make a response. </p>","","0","instructions","","","","","","","","","","",""
"html-keyboard-response","72","419309","0.0-9.0-2.0-0.0","3770","1","8","Male","approach_avoid_spark_v1","""event"",""trial"",""time""
""fullscreenenter"",""1"",""1544""
","
","
","""event"",""trial"",""time""
""fullscreenenter"",""1"",""1544""
","
","","","","","","null","<div style=""font-size:60px;"">+</div>","null","","fixation","","","","","","","","","","",""
"aa-learning-trial","73","422317","0.0-9.0-2.0-1.0","3770","1","8","Male","approach_avoid_spark_v1","""event"",""trial"",""time""
""fullscreenenter"",""1"",""1544""
","
","
","""event"",""trial"",""time""
""fullscreenenter"",""1"",""1544""
","
","","","","","","1377.8999999985099","images/bush6.png","","","learning","-7","0","0","0","bush","plants","1","0","","bad","[-6]"
"html-keyboard-response","74","422822","0.0-9.0-2.0-0.1","3770","1","8","Male","approach_avoid_spark_v1","""event"",""trial"",""time""
""fullscreenenter"",""1"",""1544""
","
","
","""event"",""trial"",""time""
""fullscreenenter"",""1"",""1544""
","
","","","","","","null","<div style=""font-size:60px;"">+</div>","null","","fixation","","","","","","","","","","",""
"aa-learning-trial","75","425829","0.0-9.0-2.0-1.1","3770","1","8","Male","approach_avoid_spark_v1","""event"",""trial"",""time""
""fullscreenenter"",""1"",""1544""
","
","
","""event"",""trial"",""time""
""fullscreenenter"",""1"",""1544""
","
","","","","","","573.6000000014901","images/cactus4.png","","","learning","[-1]","-1","1","1","cactus","plants","1","0","","neutral","0"
"html-keyboard-response","76","426333","0.0-9.0-2.0-0.2","3770","1","8","Male","approach_avoid_spark_v1","""event"",""trial"",""time""
""fullscreenenter"",""1"",""1544""
","
","
","""event"",""trial"",""time""
""fullscreenenter"",""1"",""1544""
","
","","","","","","null","<div style=""font-size:60px;"">+</div>","null","","fixation","","","","","","","","","","",""
"aa-learning-trial","77","429341","0.0-9.0-2.0-1.2","3770","1","8","Male","approach_avoid_spark_v1","""event"",""trial"",""time""
""fullscreenenter"",""1"",""1544""
","
","
","""event"",""trial"",""time""
""fullscreenenter"",""1"",""1544""
","
","","","","","","1409.699999999255","images/cactus4.png","","","learning","2","0","0","0","cactus","plants","1","0","","neutral","0"
"html-keyboard-response","78","429846","0.0-9.0-2.0-0.3","3770","1","8","Male","approach_avoid_spark_v1","""event"",""trial"",""time""
""fullscreenenter"",""1"",""1544""
","
","
","""event"",""trial"",""time""
""fullscreenenter"",""1"",""1544""
","
","","","","","","null","<div style=""font-size:60px;"">+</div>","null","","fixation","","","","","","","","","","",""
"aa-learning-trial","79","432855","0.0-9.0-2.0-1.3","3770","1","8","Male","approach_avoid_spark_v1","""event"",""trial"",""time""
""fullscreenenter"",""1"",""1544""
","
","
","""event"",""trial"",""time""
""fullscreenenter"",""1"",""1544""
","
","","","","","","439.5","images/bush4.png","","","learning","-8","-8","1","1","bush","plants","1","0","","bad","[-6]"
"html-keyboard-response","80","433369","0.0-9.0-2.0-0.4","3770","1","8","Male","approach_avoid_spark_v1","""event"",""trial"",""time""
""fullscreenenter"",""1"",""1544""
","
","
","""event"",""trial"",""time""
""fullscreenenter"",""1"",""1544""
","
","","","","","","null","<div style=""font-size:60px;"">+</div>","null","","fixation","","","","","","","","","","",""
"aa-learning-trial","81","436374","0.0-9.0-2.0-1.4","3770","1","8","Male","approach_avoid_spark_v1","""event"",""trial"",""time""
""fullscreenenter"",""1"",""1544""
","
","
","""event"",""trial"",""time""
""fullscreenenter"",""1"",""1544""
","
","","","","","","407.5999999977648","images/tree2.png","","","learning","3","0","0","0","tree","plants","1","0","","good","[4]"
"html-keyboard-response","82","436877","0.0-9.0-2.0-0.5","3770","1","8","Male","approach_avoid_spark_v1","""event"",""trial"",""time""
""fullscreenenter"",""1"",""1544""
","
","
","""event"",""trial"",""time""
""fullscreenenter"",""1"",""1544""
","
","","","","","","null","<div style=""font-size:60px;"">+</div>","null","","fixation","","","","","","","","","","",""
"aa-learning-trial","83","439889","0.0-9.0-2.0-1.5","3770","1","8","Male","approach_avoid_spark_v1","""event"",""trial"",""time""
""fullscreenenter"",""1"",""1544""
","
","
","""event"",""trial"",""time""
""fullscreenenter"",""1"",""1544""
","
","","","","","","29","images/cactus1.png","","","learning","4","4","1","1","cactus","plants","1","0","","neutral","0"
"html-keyboard-response","84","440399","0.0-9.0-2.0-0.6","3770","1","8","Male","approach_avoid_spark_v1","""event"",""trial"",""time""
""fullscreenenter"",""1"",""1544""
","
","
","""event"",""trial"",""time""
""fullscreenenter"",""1"",""1544""
","
","","","","","","null","<div style=""font-size:60px;"">+</div>","null","","fixation","","","","","","","","","","",""
"aa-learning-trial","85","443406","0.0-9.0-2.0-1.6","3770","1","8","Male","approach_avoid_spark_v1","""event"",""trial"",""time""
""fullscreenenter"",""1"",""1544""
","
","
","""event"",""trial"",""time""
""fullscreenenter"",""1"",""1544""
","
","","","","","","535","images/tree5.png","","","learning","6","6","1","1","tree","plants","1","0","","good","[4]"
"html-keyboard-response","86","443909","0.0-9.0-2.0-0.7","3770","1","8","Male","approach_avoid_spark_v1","""event"",""trial"",""time""
""fullscreenenter"",""1"",""1544""
","
","
","""event"",""trial"",""time""
""fullscreenenter"",""1"",""1544""
","
","","","","","","null","<div style=""font-size:60px;"">+</div>","null","","fixation","","","","","","","","","","",""
"aa-learning-trial","87","446918","0.0-9.0-2.0-1.7","3770","1","8","Male","approach_avoid_spark_v1","""event"",""trial"",""time""
""fullscreenenter"",""1"",""1544""
","
","
","""event"",""trial"",""time""
""fullscreenenter"",""1"",""1544""
","
","","","","","","412.9000000022352","images/cactus7.png","","","learning","[-1]","-1","1","1","cactus","plants","1","0","","neutral","0"
"html-keyboard-response","88","447423","0.0-9.0-2.0-0.8","3770","1","8","Male","approach_avoid_spark_v1","""event"",""trial"",""time""
""fullscreenenter"",""1"",""1544""
","
","
","""event"",""trial"",""time""
""fullscreenenter"",""1"",""1544""
","
","","","","","","null","<div style=""font-size:60px;"">+</div>","null","","fixation","","","","","","","","","","",""
"aa-learning-trial","89","450430","0.0-9.0-2.0-1.8","3770","1","8","Male","approach_avoid_spark_v1","""event"",""trial"",""time""
""fullscreenenter"",""1"",""1544""
","
","
","""event"",""trial"",""time""
""fullscreenenter"",""1"",""1544""
","
","","","","","","593.1999999992549","images/tree2.png","","","learning","3","0","0","0","tree","plants","1","0","","good","[4]"
"html-keyboard-response","90","450933","0.0-9.0-2.0-0.9","3770","1","8","Male","approach_avoid_spark_v1","""event"",""trial"",""time""
""fullscreenenter"",""1"",""1544""
","
","
","""event"",""trial"",""time""
""fullscreenenter"",""1"",""1544""
","
","","","","","","null","<div style=""font-size:60px;"">+</div>","null","","fixation","","","","","","","","","","",""
"aa-learning-trial","91","453942","0.0-9.0-2.0-1.9","3770","1","8","Male","approach_avoid_spark_v1","""event"",""trial"",""time""
""fullscreenenter"",""1"",""1544""
","
","
","""event"",""trial"",""time""
""fullscreenenter"",""1"",""1544""
","
","","","","","","498.80000000074506","images/tree5.png","","","learning","3","3","1","1","tree","plants","1","0","","good","[4]"
"html-keyboard-response","92","454445","0.0-9.0-2.0-0.10","3770","1","8","Male","approach_avoid_spark_v1","""event"",""trial"",""time""
""fullscreenenter"",""1"",""1544""
","
","
","""event"",""trial"",""time""
""fullscreenenter"",""1"",""1544""
","
","","","","","","null","<div style=""font-size:60px;"">+</div>","null","","fixation","","","","","","","","","","",""
"aa-learning-trial","93","457454","0.0-9.0-2.0-1.10","3770","1","8","Male","approach_avoid_spark_v1","""event"",""trial"",""time""
""fullscreenenter"",""1"",""1544""
","
","
","""event"",""trial"",""time""
""fullscreenenter"",""1"",""1544""
","
","","","","","","930","images/cactus1.png","","","learning","2","0","0","0","cactus","plants","1","0","","neutral","0"
"html-keyboard-response","94","457957","0.0-9.0-2.0-0.11","3770","1","8","Male","approach_avoid_spark_v1","""event"",""trial"",""time""
""fullscreenenter"",""1"",""1544""
","
","
","""event"",""trial"",""time""
""fullscreenenter"",""1"",""1544""
","
","","","","","","null","<div style=""font-size:60px;"">+</div>","null","","fixation","","","","","","","","","","",""
"aa-learning-trial","95","460966","0.0-9.0-2.0-1.11","3770","1","8","Male","approach_avoid_spark_v1","""event"",""trial"",""time""
""fullscreenenter"",""1"",""1544""
","
","
","""event"",""trial"",""time""
""fullscreenenter"",""1"",""1544""
","
","","","","","","783.3000000007451","images/tree7.png","","","learning","2","2","1","1","tree","plants","1","0","","good","[4]"
"html-keyboard-response","96","461469","0.0-9.0-2.0-0.12","3770","1","8","Male","approach_avoid_spark_v1","""event"",""trial"",""time""
""fullscreenenter"",""1"",""1544""
","
","
","""event"",""trial"",""time""
""fullscreenenter"",""1"",""1544""
","
","","","","","","null","<div style=""font-size:60px;"">+</div>","null","","fixation","","","","","","","","","","",""
"aa-learning-trial","97","464478","0.0-9.0-2.0-1.12","3770","1","8","Male","approach_avoid_spark_v1","""event"",""trial"",""time""
""fullscreenenter"",""1"",""1544""
","
","
","""event"",""trial"",""time""
""fullscreenenter"",""1"",""1544""
","
","","","","","","518.1000000014901","images/bush5.png","","","learning","-6","0","0","0","bush","plants","1","0","","bad","[-6]"
"html-keyboard-response","98","464982","0.0-9.0-2.0-0.13","3770","1","8","Male","approach_avoid_spark_v1","""event"",""trial"",""time""
""fullscreenenter"",""1"",""1544""
","
","
","""event"",""trial"",""time""
""fullscreenenter"",""1"",""1544""
","
","","","","","","null","<div style=""font-size:60px;"">+</div>","null","","fixation","","","","","","","","","","",""
"aa-learning-trial","99","467990","0.0-9.0-2.0-1.13","3770","1","8","Male","approach_avoid_spark_v1","""event"",""trial"",""time""
""fullscreenenter"",""1"",""1544""
","
","
","""event"",""trial"",""time""
""fullscreenenter"",""1"",""1544""
","
","","","","","","598.3000000007451","images/bush6.png","","","learning","-9","-9","1","1","bush","plants","1","0","","bad","[-6]"
"html-keyboard-response","100","468494","0.0-9.0-2.0-0.14","3770","1","8","Male","approach_avoid_spark_v1","""event"",""trial"",""time""
""fullscreenenter"",""1"",""1544""
","
","
","""event"",""trial"",""time""
""fullscreenenter"",""1"",""1544""
","
","","","","","","null","<div style=""font-size:60px;"">+</div>","null","","fixation","","","","","","","","","","",""
"aa-learning-trial","101","471502","0.0-9.0-2.0-1.14","3770","1","8","Male","approach_avoid_spark_v1","""event"",""trial"",""time""
""fullscreenenter"",""1"",""1544""
","
","
","""event"",""trial"",""time""
""fullscreenenter"",""1"",""1544""
","
","","","","","","416","images/bush4.png","","","learning","-1","0","0","0","bush","plants","1","0","","bad","[-6]"
"html-keyboard-response","102","472006","0.0-9.0-2.0-0.15","3770","1","8","Male","approach_avoid_spark_v1","""event"",""trial"",""time""
""fullscreenenter"",""1"",""1544""
","
","
","""event"",""trial"",""time""
""fullscreenenter"",""1"",""1544""
","
","","","","","","null","<div style=""font-size:60px;"">+</div>","null","","fixation","","","","","","","","","","",""
"aa-learning-trial","103","475014","0.0-9.0-2.0-1.15","3770","1","8","Male","approach_avoid_spark_v1","""event"",""trial"",""time""
""fullscreenenter"",""1"",""1544""
","
","
","""event"",""trial"",""time""
""fullscreenenter"",""1"",""1544""
","
","","","","","","870.6999999992549","images/bush6.png","","","learning","-5","0","0","0","bush","plants","1","0","","bad","[-6]"
"html-keyboard-response","104","475518","0.0-9.0-2.0-0.16","3770","1","8","Male","approach_avoid_spark_v1","""event"",""trial"",""time""
""fullscreenenter"",""1"",""1544""
","
","
","""event"",""trial"",""time""
""fullscreenenter"",""1"",""1544""
","
","","","","","","null","<div style=""font-size:60px;"">+</div>","null","","fixation","","","","","","","","","","",""
"aa-learning-trial","105","478526","0.0-9.0-2.0-1.16","3770","1","8","Male","approach_avoid_spark_v1","""event"",""trial"",""time""
""fullscreenenter"",""1"",""1544""
","
","
","""event"",""trial"",""time""
""fullscreenenter"",""1"",""1544""
","
","","","","","","601.1999999992549","images/bush6.png","","","learning","-7","-7","1","1","bush","plants","1","0","","bad","[-6]"
"html-keyboard-response","106","479030","0.0-9.0-2.0-0.17","3770","1","8","Male","approach_avoid_spark_v1","""event"",""trial"",""time""
""fullscreenenter"",""1"",""1544""
","
","
","""event"",""trial"",""time""
""fullscreenenter"",""1"",""1544""
","
","","","","","","null","<div style=""font-size:60px;"">+</div>","null","","fixation","","","","","","","","","","",""
"aa-learning-trial","107","482038","0.0-9.0-2.0-1.17","3770","1","8","Male","approach_avoid_spark_v1","""event"",""trial"",""time""
""fullscreenenter"",""1"",""1544""
","
","
","""event"",""trial"",""time""
""fullscreenenter"",""1"",""1544""
","
","","","","","","840.3000000007451","images/cactus7.png","","","learning","[1]","0","0","0","cactus","plants","1","0","","neutral","0"
"html-keyboard-response","108","482542","0.0-9.0-2.0-0.18","3770","1","8","Male","approach_avoid_spark_v1","""event"",""trial"",""time""
""fullscreenenter"",""1"",""1544""
","
","
","""event"",""trial"",""time""
""fullscreenenter"",""1"",""1544""
","
","","","","","","null","<div style=""font-size:60px;"">+</div>","null","","fixation","","","","","","","","","","",""
"aa-learning-trial","109","485550","0.0-9.0-2.0-1.18","3770","1","8","Male","approach_avoid_spark_v1","""event"",""trial"",""time""
""fullscreenenter"",""1"",""1544""
","
","
","""event"",""trial"",""time""
""fullscreenenter"",""1"",""1544""
","
","","","","","","1315.9000000022352","images/tree2.png","","","learning","4","4","1","1","tree","plants","1","0","","good","[4]"
"html-keyboard-response","110","486054","0.0-9.0-2.0-0.19","3770","1","8","Male","approach_avoid_spark_v1","""event"",""trial"",""time""
""fullscreenenter"",""1"",""1544""
","
","
","""event"",""trial"",""time""
""fullscreenenter"",""1"",""1544""
","
","","","","","","null","<div style=""font-size:60px;"">+</div>","null","","fixation","","","","","","","","","","",""
"aa-learning-trial","111","489062","0.0-9.0-2.0-1.19","3770","1","8","Male","approach_avoid_spark_v1","""event"",""trial"",""time""
""fullscreenenter"",""1"",""1544""
","
","
","""event"",""trial"",""time""
""fullscreenenter"",""1"",""1544""
","
","","","","","","604.6999999992549","images/cactus8.png","","","learning","[-1]","0","0","0","cactus","plants","1","0","","neutral","0"
"html-keyboard-response","112","489566","0.0-9.0-2.0-0.20","3770","1","8","Male","approach_avoid_spark_v1","""event"",""trial"",""time""
""fullscreenenter"",""1"",""1544""
","
","
","""event"",""trial"",""time""
""fullscreenenter"",""1"",""1544""
","
","","","","","","null","<div style=""font-size:60px;"">+</div>","null","","fixation","","","","","","","","","","",""
"aa-learning-trial","113","492574","0.0-9.0-2.0-1.20","3770","1","8","Male","approach_avoid_spark_v1","""event"",""trial"",""time""
""fullscreenenter"",""1"",""1544""
","
","
","""event"",""trial"",""time""
""fullscreenenter"",""1"",""1544""
","
","","","","","","491.6000000014901","images/cactus4.png","","","learning","-2","-2","1","1","cactus","plants","1","0","","neutral","0"
"html-keyboard-response","114","493078","0.0-9.0-2.0-0.21","3770","1","8","Male","approach_avoid_spark_v1","""event"",""trial"",""time""
""fullscreenenter"",""1"",""1544""
","
","
","""event"",""trial"",""time""
""fullscreenenter"",""1"",""1544""
","
","","","","","","null","<div style=""font-size:60px;"">+</div>","null","","fixation","","","","","","","","","","",""
"aa-learning-trial","115","496086","0.0-9.0-2.0-1.21","3770","1","8","Male","approach_avoid_spark_v1","""event"",""trial"",""time""
""fullscreenenter"",""1"",""1544""
","
","
","""event"",""trial"",""time""
""fullscreenenter"",""1"",""1544""
","
","","","","","","1083.5","images/cactus4.png","","","learning","1","0","0","0","cactus","plants","1","0","","neutral","0"
"html-keyboard-response","116","496590","0.0-9.0-2.0-0.22","3770","1","8","Male","approach_avoid_spark_v1","""event"",""trial"",""time""
""fullscreenenter"",""1"",""1544""
","
","
","""event"",""trial"",""time""
""fullscreenenter"",""1"",""1544""
","
","","","","","","null","<div style=""font-size:60px;"">+</div>","null","","fixation","","","","","","","","","","",""
"aa-learning-trial","117","499598","0.0-9.0-2.0-1.22","3770","1","8","Male","approach_avoid_spark_v1","""event"",""trial"",""time""
""fullscreenenter"",""1"",""1544""
","
","
","""event"",""trial"",""time""
""fullscreenenter"",""1"",""1544""
","
","","","","","","892.4000000022352","images/bush4.png","","","learning","-5","0","0","0","bush","plants","1","0","","bad","[-6]"
"html-keyboard-response","118","500102","0.0-9.0-2.0-0.23","3770","1","8","Male","approach_avoid_spark_v1","""event"",""trial"",""time""
""fullscreenenter"",""1"",""1544""
","
","
","""event"",""trial"",""time""
""fullscreenenter"",""1"",""1544""
","
","","","","","","null","<div style=""font-size:60px;"">+</div>","null","","fixation","","","","","","","","","","",""
"aa-learning-trial","119","503110","0.0-9.0-2.0-1.23","3770","1","8","Male","approach_avoid_spark_v1","""event"",""trial"",""time""
""fullscreenenter"",""1"",""1544""
","
","
","""event"",""trial"",""time""
""fullscreenenter"",""1"",""1544""
","
","","","","","","506.1000000014901","images/bush4.png","","","learning","-4","0","0","0","bush","plants","1","0","","bad","[-6]"
"html-keyboard-response","120","503614","0.0-9.0-2.0-0.24","3770","1","8","Male","approach_avoid_spark_v1","""event"",""trial"",""time""
""fullscreenenter"",""1"",""1544""
","
","
","""event"",""trial"",""time""
""fullscreenenter"",""1"",""1544""
","
","","","","","","null","<div style=""font-size:60px;"">+</div>","null","","fixation","","","","","","","","","","",""
"aa-learning-trial","121","506622","0.0-9.0-2.0-1.24","3770","1","8","Male","approach_avoid_spark_v1","""event"",""trial"",""time""
""fullscreenenter"",""1"",""1544""
","
","
","""event"",""trial"",""time""
""fullscreenenter"",""1"",""1544""
","
","","","","","","1140.9000000022352","images/tree7.png","","","learning","1","1","1","1","tree","plants","1","0","","good","[4]"
"html-keyboard-response","122","507126","0.0-9.0-2.0-0.25","3770","1","8","Male","approach_avoid_spark_v1","""event"",""trial"",""time""
""fullscreenenter"",""1"",""1544""
","
","
","""event"",""trial"",""time""
""fullscreenenter"",""1"",""1544""
","
","","","","","","null","<div style=""font-size:60px;"">+</div>","null","","fixation","","","","","","","","","","",""
"aa-learning-trial","123","510134","0.0-9.0-2.0-1.25","3770","1","8","Male","approach_avoid_spark_v1","""event"",""trial"",""time""
""fullscreenenter"",""1"",""1544""
","
","
","""event"",""trial"",""time""
""fullscreenenter"",""1"",""1544""
","
","","","","","","979.8000000007451","images/cactus1.png","","","learning","2","0","0","0","cactus","plants","1","0","","neutral","0"
"html-keyboard-response","124","510638","0.0-9.0-2.0-0.26","3770","1","8","Male","approach_avoid_spark_v1","""event"",""trial"",""time""
""fullscreenenter"",""1"",""1544""
","
","
","""event"",""trial"",""time""
""fullscreenenter"",""1"",""1544""
","
","","","","","","null","<div style=""font-size:60px;"">+</div>","null","","fixation","","","","","","","","","","",""
"aa-learning-trial","125","513646","0.0-9.0-2.0-1.26","3770","1","8","Male","approach_avoid_spark_v1","""event"",""trial"",""time""
""fullscreenenter"",""1"",""1544""
","
","
","""event"",""trial"",""time""
""fullscreenenter"",""1"",""1544""
","
","","","","","","1161.0999999977648","images/tree2.png","","","learning","4","0","0","0","tree","plants","1","0","","good","[4]"
"html-keyboard-response","126","514150","0.0-9.0-2.0-0.27","3770","1","8","Male","approach_avoid_spark_v1","""event"",""trial"",""time""
""fullscreenenter"",""1"",""1544""
","
","
","""event"",""trial"",""time""
""fullscreenenter"",""1"",""1544""
","
","","","","","","null","<div style=""font-size:60px;"">+</div>","null","","fixation","","","","","","","","","","",""
"aa-learning-trial","127","517158","0.0-9.0-2.0-1.27","3770","1","8","Male","approach_avoid_spark_v1","""event"",""trial"",""time""
""fullscreenenter"",""1"",""1544""
","
","
","""event"",""trial"",""time""
""fullscreenenter"",""1"",""1544""
","
","","","","","","674","images/tree5.png","","","learning","3","3","1","1","tree","plants","1","0","","good","[4]"
"html-keyboard-response","128","517662","0.0-9.0-2.0-0.28","3770","1","8","Male","approach_avoid_spark_v1","""event"",""trial"",""time""
""fullscreenenter"",""1"",""1544""
","
","
","""event"",""trial"",""time""
""fullscreenenter"",""1"",""1544""
","
","","","","","","null","<div style=""font-size:60px;"">+</div>","null","","fixation","","","","","","","","","","",""
"aa-learning-trial","129","520670","0.0-9.0-2.0-1.28","3770","1","8","Male","approach_avoid_spark_v1","""event"",""trial"",""time""
""fullscreenenter"",""1"",""1544""
","
","
","""event"",""trial"",""time""
""fullscreenenter"",""1"",""1544""
","
","","","","","","978","images/cactus4.png","","","learning","[-1]","0","0","0","cactus","plants","1","0","","neutral","0"
"html-keyboard-response","130","521174","0.0-9.0-2.0-0.29","3770","1","8","Male","approach_avoid_spark_v1","""event"",""trial"",""time""
""fullscreenenter"",""1"",""1544""
","
","
","""event"",""trial"",""time""
""fullscreenenter"",""1"",""1544""
","
","","","","","","null","<div style=""font-size:60px;"">+</div>","null","","fixation","","","","","","","","","","",""
"aa-learning-trial","131","524183","0.0-9.0-2.0-1.29","3770","1","8","Male","approach_avoid_spark_v1","""event"",""trial"",""time""
""fullscreenenter"",""1"",""1544""
","
","
","""event"",""trial"",""time""
""fullscreenenter"",""1"",""1544""
","
","","","","","","1032","images/bush4.png","","","learning","-7","0","0","0","bush","plants","1","0","","bad","[-6]"
"html-keyboard-response","132","524686","0.0-9.0-2.0-0.30","3770","1","8","Male","approach_avoid_spark_v1","""event"",""trial"",""time""
""fullscreenenter"",""1"",""1544""
","
","
","""event"",""trial"",""time""
""fullscreenenter"",""1"",""1544""
","
","","","","","","null","<div style=""font-size:60px;"">+</div>","null","","fixation","","","","","","","","","","",""
"aa-learning-trial","133","527694","0.0-9.0-2.0-1.30","3770","1","8","Male","approach_avoid_spark_v1","""event"",""trial"",""time""
""fullscreenenter"",""1"",""1544""
","
","
","""event"",""trial"",""time""
""fullscreenenter"",""1"",""1544""
","
","","","","","","596.2000000029802","images/tree2.png","","","learning","4","0","0","0","tree","plants","1","0","","good","[4]"
"html-keyboard-response","134","528198","0.0-9.0-2.0-0.31","3770","1","8","Male","approach_avoid_spark_v1","""event"",""trial"",""time""
""fullscreenenter"",""1"",""1544""
","
","
","""event"",""trial"",""time""
""fullscreenenter"",""1"",""1544""
","
","","","","","","null","<div style=""font-size:60px;"">+</div>","null","","fixation","","","","","","","","","","",""
"aa-learning-trial","135","531206","0.0-9.0-2.0-1.31","3770","1","8","Male","approach_avoid_spark_v1","""event"",""trial"",""time""
""fullscreenenter"",""1"",""1544""
","
","
","""event"",""trial"",""time""
""fullscreenenter"",""1"",""1544""
","
","","","","","","1414.199999999255","images/bush8.png","","","learning","-6","-6","1","1","bush","plants","1","0","","bad","[-6]"
"html-keyboard-response","136","531710","0.0-9.0-2.0-0.32","3770","1","8","Male","approach_avoid_spark_v1","""event"",""trial"",""time""
""fullscreenenter"",""1"",""1544""
","
","
","""event"",""trial"",""time""
""fullscreenenter"",""1"",""1544""
","
","","","","","","null","<div style=""font-size:60px;"">+</div>","null","","fixation","","","","","","","","","","",""
"aa-learning-trial","137","534719","0.0-9.0-2.0-1.32","3770","1","8","Male","approach_avoid_spark_v1","""event"",""trial"",""time""
""fullscreenenter"",""1"",""1544""
","
","
","""event"",""trial"",""time""
""fullscreenenter"",""1"",""1544""
","
","","","","","","965.3999999985099","images/cactus5.png","","","learning","-3","0","0","0","cactus","plants","1","0","","neutral","0"
"html-keyboard-response","138","535222","0.0-9.0-2.0-0.33","3770","1","8","Male","approach_avoid_spark_v1","""event"",""trial"",""time""
""fullscreenenter"",""1"",""1544""
","
","
","""event"",""trial"",""time""
""fullscreenenter"",""1"",""1544""
","
","","","","","","null","<div style=""font-size:60px;"">+</div>","null","","fixation","","","","","","","","","","",""
"aa-learning-trial","139","538230","0.0-9.0-2.0-1.33","3770","1","8","Male","approach_avoid_spark_v1","""event"",""trial"",""time""
""fullscreenenter"",""1"",""1544""
","
","
","""event"",""trial"",""time""
""fullscreenenter"",""1"",""1544""
","
","","","","","","593","images/bush6.png","","","learning","-8","0","0","0","bush","plants","1","0","","bad","[-6]"
"html-keyboard-response","140","538734","0.0-9.0-2.0-0.34","3770","1","8","Male","approach_avoid_spark_v1","""event"",""trial"",""time""
""fullscreenenter"",""1"",""1544""
","
","
","""event"",""trial"",""time""
""fullscreenenter"",""1"",""1544""
","
","","","","","","null","<div style=""font-size:60px;"">+</div>","null","","fixation","","","","","","","","","","",""
"aa-learning-trial","141","541742","0.0-9.0-2.0-1.34","3770","1","8","Male","approach_avoid_spark_v1","""event"",""trial"",""time""
""fullscreenenter"",""1"",""1544""
","
","
","""event"",""trial"",""time""
""fullscreenenter"",""1"",""1544""
","
","","","","","","917.4000000022352","images/tree3.png","","","learning","5","5","1","1","tree","plants","1","0","","good","[4]"
"html-keyboard-response","142","542246","0.0-9.0-2.0-0.35","3770","1","8","Male","approach_avoid_spark_v1","""event"",""trial"",""time""
""fullscreenenter"",""1"",""1544""
","
","
","""event"",""trial"",""time""
""fullscreenenter"",""1"",""1544""
","
","","","","","","null","<div style=""font-size:60px;"">+</div>","null","","fixation","","","","","","","","","","",""
"aa-learning-trial","143","545254","0.0-9.0-2.0-1.35","3770","1","8","Male","approach_avoid_spark_v1","""event"",""trial"",""time""
""fullscreenenter"",""1"",""1544""
","
","
","""event"",""trial"",""time""
""fullscreenenter"",""1"",""1544""
","
","","","","","","733","images/cactus1.png","","","learning","-2","0","0","0","cactus","plants","1","0","","neutral","0"
"html-keyboard-response","144","545758","0.0-9.0-2.0-0.36","3770","1","8","Male","approach_avoid_spark_v1","""event"",""trial"",""time""
""fullscreenenter"",""1"",""1544""
","
","
","""event"",""trial"",""time""
""fullscreenenter"",""1"",""1544""
","
","","","","","","null","<div style=""font-size:60px;"">+</div>","null","","fixation","","","","","","","","","","",""
"aa-learning-trial","145","548770","0.0-9.0-2.0-1.36","3770","1","8","Male","approach_avoid_spark_v1","""event"",""trial"",""time""
""fullscreenenter"",""1"",""1544""
","
","
","""event"",""trial"",""time""
""fullscreenenter"",""1"",""1544""
","
","","","","","","791.1999999992549","images/tree5.png","","","learning","4","4","1","1","tree","plants","1","0","","good","[4]"
"html-keyboard-response","146","549279","0.0-9.0-2.0-0.37","3770","1","8","Male","approach_avoid_spark_v1","""event"",""trial"",""time""
""fullscreenenter"",""1"",""1544""
","
","
","""event"",""trial"",""time""
""fullscreenenter"",""1"",""1544""
","
","","","","","","null","<div style=""font-size:60px;"">+</div>","null","","fixation","","","","","","","","","","",""
"aa-learning-trial","147","552286","0.0-9.0-2.0-1.37","3770","1","8","Male","approach_avoid_spark_v1","""event"",""trial"",""time""
""fullscreenenter"",""1"",""1544""
","
","
","""event"",""trial"",""time""
""fullscreenenter"",""1"",""1544""
","
","","","","","","930.4000000022352","images/bush4.png","","","learning","-8","0","0","0","bush","plants","1","0","","bad","[-6]"
"html-keyboard-response","148","552790","0.0-9.0-2.0-0.38","3770","1","8","Male","approach_avoid_spark_v1","""event"",""trial"",""time""
""fullscreenenter"",""1"",""1544""
","
","
","""event"",""trial"",""time""
""fullscreenenter"",""1"",""1544""
","
","","","","","","null","<div style=""font-size:60px;"">+</div>","null","","fixation","","","","","","","","","","",""
"aa-learning-trial","149","555799","0.0-9.0-2.0-1.38","3770","1","8","Male","approach_avoid_spark_v1","""event"",""trial"",""time""
""fullscreenenter"",""1"",""1544""
","
","
","""event"",""trial"",""time""
""fullscreenenter"",""1"",""1544""
","
","","","","","","501.79999999701977","images/tree5.png","","","learning","2","2","1","1","tree","plants","1","0","","good","[4]"
"html-keyboard-response","150","556302","0.0-9.0-2.0-0.39","3770","1","8","Male","approach_avoid_spark_v1","""event"",""trial"",""time""
""fullscreenenter"",""1"",""1544""
","
","
","""event"",""trial"",""time""
""fullscreenenter"",""1"",""1544""
","
","","","","","","null","<div style=""font-size:60px;"">+</div>","null","","fixation","","","","","","","","","","",""
"aa-learning-trial","151","559310","0.0-9.0-2.0-1.39","3770","1","8","Male","approach_avoid_spark_v1","""event"",""trial"",""time""
""fullscreenenter"",""1"",""1544""
","
","
","""event"",""trial"",""time""
""fullscreenenter"",""1"",""1544""
","
","","","","","","561.1000000014901","images/cactus1.png","","","learning","-2","0","0","0","cactus","plants","1","0","","neutral","0"
"html-keyboard-response","152","559814","0.0-9.0-2.0-0.40","3770","1","8","Male","approach_avoid_spark_v1","""event"",""trial"",""time""
""fullscreenenter"",""1"",""1544""
","
","
","""event"",""trial"",""time""
""fullscreenenter"",""1"",""1544""
","
","","","","","","null","<div style=""font-size:60px;"">+</div>","null","","fixation","","","","","","","","","","",""
"aa-learning-trial","153","562823","0.0-9.0-2.0-1.40","3770","1","8","Male","approach_avoid_spark_v1","""event"",""trial"",""time""
""fullscreenenter"",""1"",""1544""
","
","
","""event"",""trial"",""time""
""fullscreenenter"",""1"",""1544""
","
","","","","","","928.8999999985099","images/tree2.png","","","learning","6","6","1","1","tree","plants","1","0","","good","[4]"
"html-keyboard-response","154","563326","0.0-9.0-2.0-0.41","3770","1","8","Male","approach_avoid_spark_v1","""event"",""trial"",""time""
""fullscreenenter"",""1"",""1544""
","
","
","""event"",""trial"",""time""
""fullscreenenter"",""1"",""1544""
","
","","","","","","null","<div style=""font-size:60px;"">+</div>","null","","fixation","","","","","","","","","","",""
"aa-learning-trial","155","566335","0.0-9.0-2.0-1.41","3770","1","8","Male","approach_avoid_spark_v1","""event"",""trial"",""time""
""fullscreenenter"",""1"",""1544""
","
","
","""event"",""trial"",""time""
""fullscreenenter"",""1"",""1544""
","
","","","","","","713.1999999992549","images/bush6.png","","","learning","-8","0","0","0","bush","plants","1","0","","bad","[-6]"
"html-keyboard-response","156","566837","0.0-9.0-2.0-0.42","3770","1","8","Male","approach_avoid_spark_v1","""event"",""trial"",""time""
""fullscreenenter"",""1"",""1544""
","
","
","""event"",""trial"",""time""
""fullscreenenter"",""1"",""1544""
","
","","","","","","null","<div style=""font-size:60px;"">+</div>","null","","fixation","","","","","","","","","","",""
"aa-learning-trial","157","569846","0.0-9.0-2.0-1.42","3770","1","8","Male","approach_avoid_spark_v1","""event"",""trial"",""time""
""fullscreenenter"",""1"",""1544""
","
","
","""event"",""trial"",""time""
""fullscreenenter"",""1"",""1544""
","
","","","","","","755.5","images/tree5.png","","","learning","5","0","0","0","tree","plants","1","0","","good","[4]"
"html-keyboard-response","158","570350","0.0-9.0-2.0-0.43","3770","1","8","Male","approach_avoid_spark_v1","""event"",""trial"",""time""
""fullscreenenter"",""1"",""1544""
","
","
","""event"",""trial"",""time""
""fullscreenenter"",""1"",""1544""
","
","","","","","","null","<div style=""font-size:60px;"">+</div>","null","","fixation","","","","","","","","","","",""
"aa-learning-trial","159","573359","0.0-9.0-2.0-1.43","3770","1","8","Male","approach_avoid_spark_v1","""event"",""trial"",""time""
""fullscreenenter"",""1"",""1544""
","
","
","""event"",""trial"",""time""
""fullscreenenter"",""1"",""1544""
","
","","","","","","875.3999999985099","images/bush1.png","","","learning","-5","0","0","0","bush","plants","1","0","","bad","[-6]"
"html-keyboard-response","160","573863","0.0-9.0-2.0-0.44","3770","1","8","Male","approach_avoid_spark_v1","""event"",""trial"",""time""
""fullscreenenter"",""1"",""1544""
","
","
","""event"",""trial"",""time""
""fullscreenenter"",""1"",""1544""
","
","","","","","","null","<div style=""font-size:60px;"">+</div>","null","","fixation","","","","","","","","","","",""
"aa-learning-trial","161","576870","0.0-9.0-2.0-1.44","3770","1","8","Male","approach_avoid_spark_v1","""event"",""trial"",""time""
""fullscreenenter"",""1"",""1544""
","
","
","""event"",""trial"",""time""
""fullscreenenter"",""1"",""1544""
","
","","","","","","929.9000000022352","images/cactus1.png","","","learning","[-1]","0","0","0","cactus","plants","1","0","","neutral","0"
"html-keyboard-response","162","577375","0.0-9.0-2.0-0.45","3770","1","8","Male","approach_avoid_spark_v1","""event"",""trial"",""time""
""fullscreenenter"",""1"",""1544""
","
","
","""event"",""trial"",""time""
""fullscreenenter"",""1"",""1544""
","
","","","","","","null","<div style=""font-size:60px;"">+</div>","null","","fixation","","","","","","","","","","",""
"aa-learning-trial","163","580383","0.0-9.0-2.0-1.45","3770","1","8","Male","approach_avoid_spark_v1","""event"",""trial"",""time""
""fullscreenenter"",""1"",""1544""
","
","
","""event"",""trial"",""time""
""fullscreenenter"",""1"",""1544""
","
","","","","","","965.6000000014901","images/bush5.png","","","learning","-7","0","0","0","bush","plants","1","0","","bad","[-6]"
"html-keyboard-response","164","580887","0.0-9.0-2.0-0.46","3770","1","8","Male","approach_avoid_spark_v1","""event"",""trial"",""time""
""fullscreenenter"",""1"",""1544""
","
","
","""event"",""trial"",""time""
""fullscreenenter"",""1"",""1544""
","
","","","","","","null","<div style=""font-size:60px;"">+</div>","null","","fixation","","","","","","","","","","",""
"aa-learning-trial","165","583895","0.0-9.0-2.0-1.46","3770","1","8","Male","approach_avoid_spark_v1","""event"",""trial"",""time""
""fullscreenenter"",""1"",""1544""
","
","
","""event"",""trial"",""time""
""fullscreenenter"",""1"",""1544""
","
","","","","","","879.1999999992549","images/tree4.png","","","learning","1","1","1","1","tree","plants","1","0","","good","[4]"
"html-keyboard-response","166","584399","0.0-9.0-2.0-0.47","3770","1","8","Male","approach_avoid_spark_v1","""event"",""trial"",""time""
""fullscreenenter"",""1"",""1544""
","
","
","""event"",""trial"",""time""
""fullscreenenter"",""1"",""1544""
","
","","","","","","null","<div style=""font-size:60px;"">+</div>","null","","fixation","","","","","","","","","","",""
"aa-learning-trial","167","587407","0.0-9.0-2.0-1.47","3770","1","8","Male","approach_avoid_spark_v1","""event"",""trial"",""time""
""fullscreenenter"",""1"",""1544""
","
","
","""event"",""trial"",""time""
""fullscreenenter"",""1"",""1544""
","
","","","","","","1015.6999999992549","images/cactus4.png","","","learning","[-1]","0","0","0","cactus","plants","1","0","","neutral","0"
"html-keyboard-response","168","587910","0.0-9.0-2.0-0.48","3770","1","8","Male","approach_avoid_spark_v1","""event"",""trial"",""time""
""fullscreenenter"",""1"",""1544""
","
","
","""event"",""trial"",""time""
""fullscreenenter"",""1"",""1544""
","
","","","","","","null","<div style=""font-size:60px;"">+</div>","null","","fixation","","","","","","","","","","",""
"aa-learning-trial","169","590919","0.0-9.0-2.0-1.48","3770","1","8","Male","approach_avoid_spark_v1","""event"",""trial"",""time""
""fullscreenenter"",""1"",""1544""
","
","
","""event"",""trial"",""time""
""fullscreenenter"",""1"",""1544""
","
","","","","","","1304.8999999985099","images/cactus7.png","","","learning","-1","0","0","0","cactus","plants","1","0","","neutral","0"
"html-keyboard-response","170","591423","0.0-9.0-2.0-0.49","3770","1","8","Male","approach_avoid_spark_v1","""event"",""trial"",""time""
""fullscreenenter"",""1"",""1544""
","
","
","""event"",""trial"",""time""
""fullscreenenter"",""1"",""1544""
","
","","","","","","null","<div style=""font-size:60px;"">+</div>","null","","fixation","","","","","","","","","","",""
"aa-learning-trial","171","594431","0.0-9.0-2.0-1.49","3770","1","8","Male","approach_avoid_spark_v1","""event"",""trial"",""time""
""fullscreenenter"",""1"",""1544""
","
","
","""event"",""trial"",""time""
""fullscreenenter"",""1"",""1544""
","
","","","","","","920","images/tree7.png","","","learning","4","4","1","1","tree","plants","1","0","","good","[4]"
"html-keyboard-response","172","594935","0.0-9.0-2.0-0.50","3770","1","8","Male","approach_avoid_spark_v1","""event"",""trial"",""time""
""fullscreenenter"",""1"",""1544""
","
","
","""event"",""trial"",""time""
""fullscreenenter"",""1"",""1544""
","
","","","","","","null","<div style=""font-size:60px;"">+</div>","null","","fixation","","","","","","","","","","",""
"aa-learning-trial","173","597943","0.0-9.0-2.0-1.50","3770","1","8","Male","approach_avoid_spark_v1","""event"",""trial"",""time""
""fullscreenenter"",""1"",""1544""
","
","
","""event"",""trial"",""time""
""fullscreenenter"",""1"",""1544""
","
","","","","","","826.6999999992549","images/bush5.png","","","learning","-7","0","0","0","bush","plants","1","0","","bad","[-6]"
"html-button-response","174","602344","0.0-9.0-3.0","3770","1","8","Male","approach_avoid_spark_v1","""event"",""trial"",""time""
""fullscreenenter"",""1"",""1544""
","
","
","""event"",""trial"",""time""
""fullscreenenter"",""1"",""1544""
","
","","","","","","4399.5","<p> You have completed the round! <p> In this round, you earned 11 points! </p>","0","","break","","","","","","","","","","",""
"html-button-response","175","604975","0.0-10.0","3770","1","8","Male","approach_avoid_spark_v1","""event"",""trial"",""time""
""fullscreenenter"",""1"",""1544""
","
","
","""event"",""trial"",""time""
""fullscreenenter"",""1"",""1544""
","
","","","","","","2630.5","<p> Now it's time to play another round. </p>","0","","transition_screen","","","","","","","","","","",""
"preload","176","605094","0.0-11.0-0.0","3770","1","8","Male","approach_avoid_spark_v1","""event"",""trial"",""time""
""fullscreenenter"",""1"",""1544""
","
","
","""event"",""trial"",""time""
""fullscreenenter"",""1"",""1544""
","
","true","false","[]","[]","[]","","","","","","","","","","","","","","","",""
"learning-instructions","177","611364","0.0-11.0-1.0-0.0","3770","1","8","Male","approach_avoid_spark_v1","""event"",""trial"",""time""
""fullscreenenter"",""1"",""1544""
","
","
","""event"",""trial"",""time""
""fullscreenenter"",""1"",""1544""
","
","","","","","","1521.1000000014901","<p> Your goal in this round is to decorate your friend's new house with furniture. </p></div>","","0","instructions","","","","","","","","","","",""
"learning-instructions","178","621464","0.0-11.0-1.0-0.1","3770","1","8","Male","approach_avoid_spark_v1","""event"",""trial"",""time""
""fullscreenenter"",""1"",""1544""
","
","
","""event"",""trial"",""time""
""fullscreenenter"",""1"",""1544""
","
","","","","","","631.8000000007451","<p> Your friend likes some pieces of furniture but not others.  </p><p> On each turn, you will see a piece of furniture.   </p><p> You need to decide whether to put it in your friend's house or not.  </p>","","0","instructions","","","","","","","","","","",""
"learning-instructions","179","627662","0.0-11.0-1.0-0.2","3770","1","8","Male","approach_avoid_spark_v1","""event"",""trial"",""time""
""fullscreenenter"",""1"",""1544""
","
","
","""event"",""trial"",""time""
""fullscreenenter"",""1"",""1544""
","
","","","","","","682","<p> You can put the furniture in her house by pressing 1 and deliver it elsewhere by pressing 0. </p><br><div class=""choice-instructions-grid""> <div class=""choice-option""><img src=""images/approach.png"" class=""choice-option-img"" stage=""instructions"" position=""0"" ><div class=""choice-option-text""> Press ""1."" </div></div><div class=""choice-option""><img src=""images/avoid.png"" class=""choice-option-img"" stage=""instructions"" position=""1"" ><div class=""choice-option-text""> Press ""0."" </div></div>","","0","instructions","","","","","","","","","","",""
"learning-instructions","180","637369","0.0-11.0-1.0-0.3","3770","1","8","Male","approach_avoid_spark_v1","""event"",""trial"",""time""
""fullscreenenter"",""1"",""1544""
","
","
","""event"",""trial"",""time""
""fullscreenenter"",""1"",""1544""
","
","","","","","","1229.300000000745","<p> If you decorate your friend's house with furniture she likes, she will be happy! </p><p> But if you give her furniture that she does not like, she will be annoyed. </p>","","0","instructions","","","","","","","","","","",""
"learning-instructions","181","650023","0.0-11.0-1.0-0.4","3770","1","8","Male","approach_avoid_spark_v1","""event"",""trial"",""time""
""fullscreenenter"",""1"",""1544""
","
","
","""event"",""trial"",""time""
""fullscreenenter"",""1"",""1544""
","
","","","","","","834.3000000007451","<p> You will earn points based on how you made your friend feel. </p><p> If you made her happy, you will WIN anywhere from 1 - 9 points, </p><p> but if you made her annoyed you will LOSE anywhere from 1 - 9 points. </p>","","0","instructions","","","","","","","","","","",""
"learning-instructions","182","657569","0.0-11.0-1.0-0.5","3770","1","8","Male","approach_avoid_spark_v1","""event"",""trial"",""time""
""fullscreenenter"",""1"",""1544""
","
","
","""event"",""trial"",""time""
""fullscreenenter"",""1"",""1544""
","
","","","","","","891.1000000014901","<p> You will see how many points you won or lost in the center of the screen. </p><p> Here is what you would see if you won 5 points: </p><p style=""color:green;font-size:50px;font-weight:bolder"">5</p>","","0","instructions","","","","","","","","","","",""
"learning-instructions","183","661091","0.0-11.0-1.0-0.6","3770","1","8","Male","approach_avoid_spark_v1","""event"",""trial"",""time""
""fullscreenenter"",""1"",""1544""
","
","
","""event"",""trial"",""time""
""fullscreenenter"",""1"",""1544""
","
","","","","","","686.5999999977648","<p> And here is what you would see if you lost 3 points: </p><p style=""color:red;font-size:50px;font-weight:bolder"">-3</p>","","0","instructions","","","","","","","","","","",""
"learning-instructions","184","680532","0.0-11.0-1.0-0.7","3770","1","8","Male","approach_avoid_spark_v1","""event"",""trial"",""time""
""fullscreenenter"",""1"",""1544""
","
","
","""event"",""trial"",""time""
""fullscreenenter"",""1"",""1544""
","
","","","","","","2433.400000002235","<p> Some pieces of furniture will make her feel very happy or very annoyed. </p><p> These pieces of furniture will make you win or lose LOTS of points. </p><p> Other pieces of furniture will only make her feel a little happy or a little annoyed. </p><p> These pieces of furniture will make you win or lose small amounts of points. </p>","","0","instructions","","","","","","","","","","",""
"learning-instructions","185","693924","0.0-11.0-1.0-0.8","3770","1","8","Male","approach_avoid_spark_v1","""event"",""trial"",""time""
""fullscreenenter"",""1"",""1544""
","
","
","""event"",""trial"",""time""
""fullscreenenter"",""1"",""1544""
","
","","","","","","982.4000000022352","<p> If you choose to deliver a piece of furniture elsewhere, you will not win or lose any points. </p><p>  However, in the center of the screen, you will see the number of points you WOULD HAVE won or lost if you had given the furniture to your friend. </p>","","0","instructions","","","","","","","","","","",""
"learning-instructions","186","706339","0.0-11.0-1.0-0.9","3770","1","8","Male","approach_avoid_spark_v1","""event"",""trial"",""time""
""fullscreenenter"",""1"",""1544""
","
","
","""event"",""trial"",""time""
""fullscreenenter"",""1"",""1544""
","
","","","","","","1311","<p> Here is what you might see if you did not give a piece of furniture to your friend that would have made her happy: </p><p style=""color:grey; font-size:50px; display: inline-block; border-spacing: 15px; border-width:3px; border-style:solid; border-color:red"">  &nbsp; 6 &nbsp; </p><p> Remember, in this case, you would not win or lose ANY points because you did not give her the furniture.  </p>","","0","instructions","","","","","","","","","","",""
"learning-instructions","187","714427","0.0-11.0-1.0-0.10","3770","1","8","Male","approach_avoid_spark_v1","""event"",""trial"",""time""
""fullscreenenter"",""1"",""1544""
","
","
","""event"",""trial"",""time""
""fullscreenenter"",""1"",""1544""
","
","","","","","","783.8000000007451","<p> Try to make the best choice for each piece of furniture because </p><p> at the end of the game, you will earn bonus money based on how many points you earned. </p>","","0","instructions","","","","","","","","","","",""
"learning-instructions","188","723102","0.0-11.0-1.0-0.11","3770","1","8","Male","approach_avoid_spark_v1","""event"",""trial"",""time""
""fullscreenenter"",""1"",""1544""
","
","
","""event"",""trial"",""time""
""fullscreenenter"",""1"",""1544""
","
","","","","","","490.4000000022352","<p> You will have 3 seconds to make each choice. Try to respond before time runs out! </p><p> You will lose 5 points each time you do not make a response. </p>","","0","instructions","","","","","","","","","","",""
"html-keyboard-response","189","723714","0.0-11.0-2.0-0.0","3770","1","8","Male","approach_avoid_spark_v1","""event"",""trial"",""time""
""fullscreenenter"",""1"",""1544""
","
","
","""event"",""trial"",""time""
""fullscreenenter"",""1"",""1544""
","
","","","","","","null","<div style=""font-size:60px;"">+</div>","null","","fixation","","","","","","","","","","",""
"aa-learning-trial","190","726721","0.0-11.0-2.0-1.0","3770","1","8","Male","approach_avoid_spark_v1","""event"",""trial"",""time""
""fullscreenenter"",""1"",""1544""
","
","
","""event"",""trial"",""time""
""fullscreenenter"",""1"",""1544""
","
","","","","","","801.8000000007451","images/bed7.png","","","learning","-3","0","0","0","bed","furniture","2","1","","good","[5]"
"html-keyboard-response","191","727226","0.0-11.0-2.0-0.1","3770","1","8","Male","approach_avoid_spark_v1","""event"",""trial"",""time""
""fullscreenenter"",""1"",""1544""
","
","
","""event"",""trial"",""time""
""fullscreenenter"",""1"",""1544""
","
","","","","","","null","<div style=""font-size:60px;"">+</div>","null","","fixation","","","","","","","","","","",""
"aa-learning-trial","192","730233","0.0-11.0-2.0-1.1","3770","1","8","Male","approach_avoid_spark_v1","""event"",""trial"",""time""
""fullscreenenter"",""1"",""1544""
","
","
","""event"",""trial"",""time""
""fullscreenenter"",""1"",""1544""
","
","","","","","","889.1000000014901","images/chair6.png","","","learning","-4","0","0","0","chair","furniture","2","1","","bad","[-4]"
"html-keyboard-response","193","730738","0.0-11.0-2.0-0.2","3770","1","8","Male","approach_avoid_spark_v1","""event"",""trial"",""time""
""fullscreenenter"",""1"",""1544""
","
","
","""event"",""trial"",""time""
""fullscreenenter"",""1"",""1544""
","
","","","","","","null","<div style=""font-size:60px;"">+</div>","null","","fixation","","","","","","","","","","",""
"aa-learning-trial","194","733745","0.0-11.0-2.0-1.2","3770","1","8","Male","approach_avoid_spark_v1","""event"",""trial"",""time""
""fullscreenenter"",""1"",""1544""
","
","
","""event"",""trial"",""time""
""fullscreenenter"",""1"",""1544""
","
","","","","","","443.69999999925494","images/chair3.png","","","learning","1","0","0","0","chair","furniture","2","1","","bad","[-4]"
"html-keyboard-response","195","734250","0.0-11.0-2.0-0.3","3770","1","8","Male","approach_avoid_spark_v1","""event"",""trial"",""time""
""fullscreenenter"",""1"",""1544""
","
","
","""event"",""trial"",""time""
""fullscreenenter"",""1"",""1544""
","
","","","","","","null","<div style=""font-size:60px;"">+</div>","null","","fixation","","","","","","","","","","",""
"aa-learning-trial","196","737257","0.0-11.0-2.0-1.3","3770","1","8","Male","approach_avoid_spark_v1","""event"",""trial"",""time""
""fullscreenenter"",""1"",""1544""
","
","
","""event"",""trial"",""time""
""fullscreenenter"",""1"",""1544""
","
","","","","","","837.3000000007451","images/table4.png","","","learning","-8","-8","1","1","table","furniture","2","1","","neutral","0"
"html-keyboard-response","197","737762","0.0-11.0-2.0-0.4","3770","1","8","Male","approach_avoid_spark_v1","""event"",""trial"",""time""
""fullscreenenter"",""1"",""1544""
","
","
","""event"",""trial"",""time""
""fullscreenenter"",""1"",""1544""
","
","","","","","","null","<div style=""font-size:60px;"">+</div>","null","","fixation","","","","","","","","","","",""
"aa-learning-trial","198","740769","0.0-11.0-2.0-1.4","3770","1","8","Male","approach_avoid_spark_v1","""event"",""trial"",""time""
""fullscreenenter"",""1"",""1544""
","
","
","""event"",""trial"",""time""
""fullscreenenter"",""1"",""1544""
","
","","","","","","642.8999999985099","images/chair1.png","","","learning","3","0","0","0","chair","furniture","2","1","","bad","[-4]"
"html-keyboard-response","199","741273","0.0-11.0-2.0-0.5","3770","1","8","Male","approach_avoid_spark_v1","""event"",""trial"",""time""
""fullscreenenter"",""1"",""1544""
","
","
","""event"",""trial"",""time""
""fullscreenenter"",""1"",""1544""
","
","","","","","","null","<div style=""font-size:60px;"">+</div>","null","","fixation","","","","","","","","","","",""
"aa-learning-trial","200","744281","0.0-11.0-2.0-1.5","3770","1","8","Male","approach_avoid_spark_v1","""event"",""trial"",""time""
""fullscreenenter"",""1"",""1544""
","
","
","""event"",""trial"",""time""
""fullscreenenter"",""1"",""1544""
","
","","","","","","1010.1999999992549","images/table7.png","","","learning","6","0","0","0","table","furniture","2","1","","neutral","0"
"html-keyboard-response","201","744784","0.0-11.0-2.0-0.6","3770","1","8","Male","approach_avoid_spark_v1","""event"",""trial"",""time""
""fullscreenenter"",""1"",""1544""
","
","
","""event"",""trial"",""time""
""fullscreenenter"",""1"",""1544""
","
","","","","","","null","<div style=""font-size:60px;"">+</div>","null","","fixation","","","","","","","","","","",""
"aa-learning-trial","202","747793","0.0-11.0-2.0-1.6","3770","1","8","Male","approach_avoid_spark_v1","""event"",""trial"",""time""
""fullscreenenter"",""1"",""1544""
","
","
","""event"",""trial"",""time""
""fullscreenenter"",""1"",""1544""
","
","","","","","","1091.4000000022352","images/bed5.png","","","learning","-2","0","0","0","bed","furniture","2","1","","good","[5]"
"html-keyboard-response","203","748298","0.0-11.0-2.0-0.7","3770","1","8","Male","approach_avoid_spark_v1","""event"",""trial"",""time""
""fullscreenenter"",""1"",""1544""
","
","
","""event"",""trial"",""time""
""fullscreenenter"",""1"",""1544""
","
","","","","","","null","<div style=""font-size:60px;"">+</div>","null","","fixation","","","","","","","","","","",""
"aa-learning-trial","204","751305","0.0-11.0-2.0-1.7","3770","1","8","Male","approach_avoid_spark_v1","""event"",""trial"",""time""
""fullscreenenter"",""1"",""1544""
","
","
","""event"",""trial"",""time""
""fullscreenenter"",""1"",""1544""
","
","","","","","","735.3000000007451","images/table4.png","","","learning","-8","-8","1","1","table","furniture","2","1","","neutral","0"
"html-keyboard-response","205","751810","0.0-11.0-2.0-0.8","3770","1","8","Male","approach_avoid_spark_v1","""event"",""trial"",""time""
""fullscreenenter"",""1"",""1544""
","
","
","""event"",""trial"",""time""
""fullscreenenter"",""1"",""1544""
","
","","","","","","null","<div style=""font-size:60px;"">+</div>","null","","fixation","","","","","","","","","","",""
"aa-learning-trial","206","754817","0.0-11.0-2.0-1.8","3770","1","8","Male","approach_avoid_spark_v1","""event"",""trial"",""time""
""fullscreenenter"",""1"",""1544""
","
","
","""event"",""trial"",""time""
""fullscreenenter"",""1"",""1544""
","
","","","","","","676.1999999992549","images/table1.png","","","learning","4","0","0","0","table","furniture","2","1","","neutral","0"
"html-keyboard-response","207","755320","0.0-11.0-2.0-0.9","3770","1","8","Male","approach_avoid_spark_v1","""event"",""trial"",""time""
""fullscreenenter"",""1"",""1544""
","
","
","""event"",""trial"",""time""
""fullscreenenter"",""1"",""1544""
","
","","","","","","null","<div style=""font-size:60px;"">+</div>","null","","fixation","","","","","","","","","","",""
"aa-learning-trial","208","758329","0.0-11.0-2.0-1.9","3770","1","8","Male","approach_avoid_spark_v1","""event"",""trial"",""time""
""fullscreenenter"",""1"",""1544""
","
","
","""event"",""trial"",""time""
""fullscreenenter"",""1"",""1544""
","
","","","","","","852.8999999985099","images/table7.png","","","learning","6","6","1","1","table","furniture","2","1","","neutral","0"
"html-keyboard-response","209","758833","0.0-11.0-2.0-0.10","3770","1","8","Male","approach_avoid_spark_v1","""event"",""trial"",""time""
""fullscreenenter"",""1"",""1544""
","
","
","""event"",""trial"",""time""
""fullscreenenter"",""1"",""1544""
","
","","","","","","null","<div style=""font-size:60px;"">+</div>","null","","fixation","","","","","","","","","","",""
"aa-learning-trial","210","761840","0.0-11.0-2.0-1.10","3770","1","8","Male","approach_avoid_spark_v1","""event"",""trial"",""time""
""fullscreenenter"",""1"",""1544""
","
","
","""event"",""trial"",""time""
""fullscreenenter"",""1"",""1544""
","
","","","","","","683.6999999992549","images/chair3.png","","","learning","1","1","1","1","chair","furniture","2","1","","bad","[-4]"
"html-keyboard-response","211","762344","0.0-11.0-2.0-0.11","3770","1","8","Male","approach_avoid_spark_v1","""event"",""trial"",""time""
""fullscreenenter"",""1"",""1544""
","
","
","""event"",""trial"",""time""
""fullscreenenter"",""1"",""1544""
","
","","","","","","null","<div style=""font-size:60px;"">+</div>","null","","fixation","","","","","","","","","","",""
"aa-learning-trial","212","765351","0.0-11.0-2.0-1.11","3770","1","8","Male","approach_avoid_spark_v1","""event"",""trial"",""time""
""fullscreenenter"",""1"",""1544""
","
","
","""event"",""trial"",""time""
""fullscreenenter"",""1"",""1544""
","
","","","","","","1276.699999999255","images/bed3.png","","","learning","-6","-6","1","1","bed","furniture","2","1","","good","[5]"
"html-keyboard-response","213","765856","0.0-11.0-2.0-0.12","3770","1","8","Male","approach_avoid_spark_v1","""event"",""trial"",""time""
""fullscreenenter"",""1"",""1544""
","
","
","""event"",""trial"",""time""
""fullscreenenter"",""1"",""1544""
","
","","","","","","null","<div style=""font-size:60px;"">+</div>","null","","fixation","","","","","","","","","","",""
"aa-learning-trial","214","768864","0.0-11.0-2.0-1.12","3770","1","8","Male","approach_avoid_spark_v1","""event"",""trial"",""time""
""fullscreenenter"",""1"",""1544""
","
","
","""event"",""trial"",""time""
""fullscreenenter"",""1"",""1544""
","
","","","","","","1029","images/bed7.png","","","learning","-3","-3","1","1","bed","furniture","2","1","","good","[5]"
"html-keyboard-response","215","769368","0.0-11.0-2.0-0.13","3770","1","8","Male","approach_avoid_spark_v1","""event"",""trial"",""time""
""fullscreenenter"",""1"",""1544""
","
","
","""event"",""trial"",""time""
""fullscreenenter"",""1"",""1544""
","
","","","","","","null","<div style=""font-size:60px;"">+</div>","null","","fixation","","","","","","","","","","",""
"aa-learning-trial","216","772377","0.0-11.0-2.0-1.13","3770","1","8","Male","approach_avoid_spark_v1","""event"",""trial"",""time""
""fullscreenenter"",""1"",""1544""
","
","
","""event"",""trial"",""time""
""fullscreenenter"",""1"",""1544""
","
","","","","","","735.1999999992549","images/bed5.png","","","learning","-2","-2","1","1","bed","furniture","2","1","","good","[5]"
"html-keyboard-response","217","772880","0.0-11.0-2.0-0.14","3770","1","8","Male","approach_avoid_spark_v1","""event"",""trial"",""time""
""fullscreenenter"",""1"",""1544""
","
","
","""event"",""trial"",""time""
""fullscreenenter"",""1"",""1544""
","
","","","","","","null","<div style=""font-size:60px;"">+</div>","null","","fixation","","","","","","","","","","",""
"aa-learning-trial","218","775889","0.0-11.0-2.0-1.14","3770","1","8","Male","approach_avoid_spark_v1","""event"",""trial"",""time""
""fullscreenenter"",""1"",""1544""
","
","
","""event"",""trial"",""time""
""fullscreenenter"",""1"",""1544""
","
","","","","","","839.9000000022352","images/chair6.png","","","learning","-4","-4","1","1","chair","furniture","2","1","","bad","[-4]"
"html-keyboard-response","219","776392","0.0-11.0-2.0-0.15","3770","1","8","Male","approach_avoid_spark_v1","""event"",""trial"",""time""
""fullscreenenter"",""1"",""1544""
","
","
","""event"",""trial"",""time""
""fullscreenenter"",""1"",""1544""
","
","","","","","","null","<div style=""font-size:60px;"">+</div>","null","","fixation","","","","","","","","","","",""
"aa-learning-trial","220","779400","0.0-11.0-2.0-1.15","3770","1","8","Male","approach_avoid_spark_v1","""event"",""trial"",""time""
""fullscreenenter"",""1"",""1544""
","
","
","""event"",""trial"",""time""
""fullscreenenter"",""1"",""1544""
","
","","","","","","569.5999999977648","images/table4.png","","","learning","-8","0","0","0","table","furniture","2","1","","neutral","0"
"html-keyboard-response","221","779904","0.0-11.0-2.0-0.16","3770","1","8","Male","approach_avoid_spark_v1","""event"",""trial"",""time""
""fullscreenenter"",""1"",""1544""
","
","
","""event"",""trial"",""time""
""fullscreenenter"",""1"",""1544""
","
","","","","","","null","<div style=""font-size:60px;"">+</div>","null","","fixation","","","","","","","","","","",""
"aa-learning-trial","222","782913","0.0-11.0-2.0-1.16","3770","1","8","Male","approach_avoid_spark_v1","""event"",""trial"",""time""
""fullscreenenter"",""1"",""1544""
","
","
","""event"",""trial"",""time""
""fullscreenenter"",""1"",""1544""
","
","","","","","","568.1999999992549","images/chair3.png","","","learning","1","0","0","0","chair","furniture","2","1","","bad","[-4]"
"html-keyboard-response","223","783417","0.0-11.0-2.0-0.17","3770","1","8","Male","approach_avoid_spark_v1","""event"",""trial"",""time""
""fullscreenenter"",""1"",""1544""
","
","
","""event"",""trial"",""time""
""fullscreenenter"",""1"",""1544""
","
","","","","","","null","<div style=""font-size:60px;"">+</div>","null","","fixation","","","","","","","","","","",""
"aa-learning-trial","224","786427","0.0-11.0-2.0-1.17","3770","1","8","Male","approach_avoid_spark_v1","""event"",""trial"",""time""
""fullscreenenter"",""1"",""1544""
","
","
","""event"",""trial"",""time""
""fullscreenenter"",""1"",""1544""
","
","","","","","","887.4000000022352","images/bed5.png","","","learning","-2","0","0","0","bed","furniture","2","1","","good","[5]"
"html-keyboard-response","225","786936","0.0-11.0-2.0-0.18","3770","1","8","Male","approach_avoid_spark_v1","""event"",""trial"",""time""
""fullscreenenter"",""1"",""1544""
","
","
","""event"",""trial"",""time""
""fullscreenenter"",""1"",""1544""
","
","","","","","","null","<div style=""font-size:60px;"">+</div>","null","","fixation","","","","","","","","","","",""
"aa-learning-trial","226","789945","0.0-11.0-2.0-1.18","3770","1","8","Male","approach_avoid_spark_v1","""event"",""trial"",""time""
""fullscreenenter"",""1"",""1544""
","
","
","""event"",""trial"",""time""
""fullscreenenter"",""1"",""1544""
","
","","","","","","570.1999999992549","images/chair6.png","","","learning","-4","0","0","0","chair","furniture","2","1","","bad","[-4]"
"html-keyboard-response","227","790448","0.0-11.0-2.0-0.19","3770","1","8","Male","approach_avoid_spark_v1","""event"",""trial"",""time""
""fullscreenenter"",""1"",""1544""
","
","
","""event"",""trial"",""time""
""fullscreenenter"",""1"",""1544""
","
","","","","","","null","<div style=""font-size:60px;"">+</div>","null","","fixation","","","","","","","","","","",""
"aa-learning-trial","228","793457","0.0-11.0-2.0-1.19","3770","1","8","Male","approach_avoid_spark_v1","""event"",""trial"",""time""
""fullscreenenter"",""1"",""1544""
","
","
","""event"",""trial"",""time""
""fullscreenenter"",""1"",""1544""
","
","","","","","","457","images/table1.png","","","learning","4","0","0","0","table","furniture","2","1","","neutral","0"
"html-keyboard-response","229","793961","0.0-11.0-2.0-0.20","3770","1","8","Male","approach_avoid_spark_v1","""event"",""trial"",""time""
""fullscreenenter"",""1"",""1544""
","
","
","""event"",""trial"",""time""
""fullscreenenter"",""1"",""1544""
","
","","","","","","null","<div style=""font-size:60px;"">+</div>","null","","fixation","","","","","","","","","","",""
"aa-learning-trial","230","796969","0.0-11.0-2.0-1.20","3770","1","8","Male","approach_avoid_spark_v1","""event"",""trial"",""time""
""fullscreenenter"",""1"",""1544""
","
","
","""event"",""trial"",""time""
""fullscreenenter"",""1"",""1544""
","
","","","","","","438.1000000014901","images/chair6.png","","","learning","-4","-4","1","1","chair","furniture","2","1","","bad","[-4]"
"html-keyboard-response","231","797473","0.0-11.0-2.0-0.21","3770","1","8","Male","approach_avoid_spark_v1","""event"",""trial"",""time""
""fullscreenenter"",""1"",""1544""
","
","
","""event"",""trial"",""time""
""fullscreenenter"",""1"",""1544""
","
","","","","","","null","<div style=""font-size:60px;"">+</div>","null","","fixation","","","","","","","","","","",""
"aa-learning-trial","232","800481","0.0-11.0-2.0-1.21","3770","1","8","Male","approach_avoid_spark_v1","""event"",""trial"",""time""
""fullscreenenter"",""1"",""1544""
","
","
","""event"",""trial"",""time""
""fullscreenenter"",""1"",""1544""
","
","","","","","","547.6000000014901","images/table4.png","","","learning","-8","0","0","0","table","furniture","2","1","","neutral","0"
"html-keyboard-response","233","800985","0.0-11.0-2.0-0.22","3770","1","8","Male","approach_avoid_spark_v1","""event"",""trial"",""time""
""fullscreenenter"",""1"",""1544""
","
","
","""event"",""trial"",""time""
""fullscreenenter"",""1"",""1544""
","
","","","","","","null","<div style=""font-size:60px;"">+</div>","null","","fixation","","","","","","","","","","",""
"aa-learning-trial","234","803993","0.0-11.0-2.0-1.22","3770","1","8","Male","approach_avoid_spark_v1","""event"",""trial"",""time""
""fullscreenenter"",""1"",""1544""
","
","
","""event"",""trial"",""time""
""fullscreenenter"",""1"",""1544""
","
","","","","","","682.3999999985099","images/bed8.png","","","learning","5","0","0","0","bed","furniture","2","1","","good","[5]"
"html-keyboard-response","235","804496","0.0-11.0-2.0-0.23","3770","1","8","Male","approach_avoid_spark_v1","""event"",""trial"",""time""
""fullscreenenter"",""1"",""1544""
","
","
","""event"",""trial"",""time""
""fullscreenenter"",""1"",""1544""
","
","","","","","","null","<div style=""font-size:60px;"">+</div>","null","","fixation","","","","","","","","","","",""
"aa-learning-trial","236","807505","0.0-11.0-2.0-1.23","3770","1","8","Male","approach_avoid_spark_v1","""event"",""trial"",""time""
""fullscreenenter"",""1"",""1544""
","
","
","""event"",""trial"",""time""
""fullscreenenter"",""1"",""1544""
","
","","","","","","829.7000000029802","images/bed7.png","","","learning","-3","-3","1","1","bed","furniture","2","1","","good","[5]"
"html-keyboard-response","237","808009","0.0-11.0-2.0-0.24","3770","1","8","Male","approach_avoid_spark_v1","""event"",""trial"",""time""
""fullscreenenter"",""1"",""1544""
","
","
","""event"",""trial"",""time""
""fullscreenenter"",""1"",""1544""
","
","","","","","","null","<div style=""font-size:60px;"">+</div>","null","","fixation","","","","","","","","","","",""
