"trial_type","trial_index","time_elapsed","internal_node_id","subject_id","task_condition","age","gender","task_version","interactions","blur_events","focus_events","fullscreenenter_events","fullscreenexit_events","success","timeout","failed_images","failed_audio","failed_video","rt","stimulus","response","button_pressed","task_part","approach_reward","points","key_press","option_selected","stim_cat","task_block","block_condition","block_number","correct","cat_type","mean_cat_reward"
"pavlovia","0","3","0.0-0.0","6130","2","23","Male","approach_avoid_spark_v1","""event"",""trial"",""time""
""fullscreenenter"",""1"",""3994""
","
","
","""event"",""trial"",""time""
""fullscreenenter"",""1"",""3994""
","
","","","","","","","","","","","","","","","","","","","","",""
"fullscreen","1","4992","0.0-1.0","6130","2","23","Male","approach_avoid_spark_v1","""event"",""trial"",""time""
""fullscreenenter"",""1"",""3994""
","
","
","""event"",""trial"",""time""
""fullscreenenter"",""1"",""3994""
","
","true","","","","","","","","","","","","","","","","","","","",""
"preload","2","60144","0.0-2.0","6130","2","23","Male","approach_avoid_spark_v1","""event"",""trial"",""time""
""fullscreenenter"",""1"",""3994""
","
","
","""event"",""trial"",""time""
""fullscreenenter"",""1"",""3994""
","
","true","false","[]","[]","[]","","","","","","","","","","","","","","","",""
"audio-keyboard-response","3","67765","0.0-3.0","6130","2","23","Male","approach_avoid_spark_v1","""event"",""trial"",""time""
""fullscreenenter"",""1"",""3994""
","
","
","""event"",""trial"",""time""
""fullscreenenter"",""1"",""3994""
","
","","","","","","7552.2902494331065","audio/beep_loop.wav"," ","","","","","","","","","","","","",""
"audio-button-response","4","70719","0.0-4.0","6130","2","23","Male","approach_avoid_spark_v1","""event"",""trial"",""time""
""fullscreenenter"",""1"",""3994""
","
","
","""event"",""trial"",""time""
""fullscreenenter"",""1"",""3994""
","
","","","","","","2943","audio/shark.wav","4","","","","","","","","","","","","",""
"audio-button-response","5","72935","0.0-5.0","6130","2","23","Male","approach_avoid_spark_v1","""event"",""trial"",""time""
""fullscreenenter"",""1"",""3994""
","
","
","""event"",""trial"",""time""
""fullscreenenter"",""1"",""3994""
","
","","","","","","1207","audio/turtle.wav","1","","","","","","","","","","","","",""
"preload","6","93187","0.0-6.0","6130","2","23","Male","approach_avoid_spark_v1","""event"",""trial"",""time""
""fullscreenenter"",""1"",""3994""
","
","
","""event"",""trial"",""time""
""fullscreenenter"",""1"",""3994""
","
","true","false","[]","[]","[]","","","","","","","","","","","","","","","",""
"html-keyboard-response","7","96432","0.0-7.0","6130","2","23","Male","approach_avoid_spark_v1","""event"",""trial"",""time""
""fullscreenenter"",""1"",""3994""
","
","
","""event"",""trial"",""time""
""fullscreenenter"",""1"",""3994""
","
","","","","","","3243.2999999821186","Welcome to the experiment. Press any key to begin and to advance the instructions."," ","","","","","","","","","","","","",""
"learning-instructions","8","104209","0.0-8.0-0.0-0.0","6130","2","23","Male","approach_avoid_spark_v1","""event"",""trial"",""time""
""fullscreenenter"",""1"",""3994""
","
","
","""event"",""trial"",""time""
""fullscreenenter"",""1"",""3994""
","
","","","","","","821.0999999940395","<p> Welcome! Today you are going to play 6 different rounds of a decision-making game. </p><p> Use the mouse to click next to continue. </p>","","0","instructions","","","","","","","","","","",""
"learning-instructions","9","108212","0.0-8.0-0.0-0.1","6130","2","23","Male","approach_avoid_spark_v1","""event"",""trial"",""time""
""fullscreenenter"",""1"",""3994""
","
","
","""event"",""trial"",""time""
""fullscreenenter"",""1"",""3994""
","
","","","","","","1272.5","<p> You will start with a practice round to learn the rules. </p>","","0","instructions","","","","","","","","","","",""
"learning-instructions","10","112804","0.0-8.0-0.0-0.2","6130","2","23","Male","approach_avoid_spark_v1","""event"",""trial"",""time""
""fullscreenenter"",""1"",""3994""
","
","
","""event"",""trial"",""time""
""fullscreenenter"",""1"",""3994""
","
","","","","","","1139.0999999940395","<p> Your goal in this round is to give out sports equipment to kids. </p></div>","","0","instructions","","","","","","","","","","",""
"learning-instructions","11","121016","0.0-8.0-0.0-0.3","6130","2","23","Male","approach_avoid_spark_v1","""event"",""trial"",""time""
""fullscreenenter"",""1"",""3994""
","
","
","""event"",""trial"",""time""
""fullscreenenter"",""1"",""3994""
","
","","","","","","666.6999999880791","<p> The kids only like some of the equipment.  </p><p> On each turn, you will see a piece of sports equipment.   </p><p> You need to decide whether to give it to the kids or not.  </p>","","0","instructions","","","","","","","","","","",""
"learning-instructions","12","130455","0.0-8.0-0.0-0.4","6130","2","23","Male","approach_avoid_spark_v1","""event"",""trial"",""time""
""fullscreenenter"",""1"",""3994""
","
","
","""event"",""trial"",""time""
""fullscreenenter"",""1"",""3994""
","
","","","","","","4689.0999999940395","<p> You can give them the equipment by pressing 1 and choose not to give it to them by pressing 0. </p><br><div class=""choice-instructions-grid""> <div class=""choice-option""><img src=""images/approach.png"" class=""choice-option-img"" stage=""instructions"" position=""0"" ><div class=""choice-option-text""> Press ""1."" </div></div><div class=""choice-option""><img src=""images/avoid.png"" class=""choice-option-img"" stage=""instructions"" position=""1"" ><div class=""choice-option-text""> Press ""0."" </div></div>","","0","instructions","","","","","","","","","","",""
"learning-instructions","13","138238","0.0-8.0-0.0-0.5","6130","2","23","Male","approach_avoid_spark_v1","""event"",""trial"",""time""
""fullscreenenter"",""1"",""3994""
","
","
","""event"",""trial"",""time""
""fullscreenenter"",""1"",""3994""
","
","","","","","","398.89999997615814","<p> If you give them a piece of equipment they like, they will be happy! </p><p> But if you give them a piece of equipment they do not like, they will be sad. </p>","","0","instructions","","","","","","","","","","",""
"learning-instructions","14","149175","0.0-8.0-0.0-0.6","6130","2","23","Male","approach_avoid_spark_v1","""event"",""trial"",""time""
""fullscreenenter"",""1"",""3994""
","
","
","""event"",""trial"",""time""
""fullscreenenter"",""1"",""3994""
","
","","","","","","427","<p> You will earn points based on how you make kids feel. </p><p> If you make them happy, you will WIN anywhere from 1 - 9 points, </p><p> but if you make them sad, you will LOSE anywhere from 1 - 9 points. </p>","","0","instructions","","","","","","","","","","",""
"learning-instructions","15","159234","0.0-8.0-0.0-0.7","6130","2","23","Male","approach_avoid_spark_v1","""event"",""trial"",""time""
""fullscreenenter"",""1"",""3994""
","
","
","""event"",""trial"",""time""
""fullscreenenter"",""1"",""3994""
","
","","","","","","500.90000000596046","<p> You will see how many points you won or lost in the center of the screen. </p><p> Here is what you would see if you won 6 points: </p><p style=""color:green;font-size:50px;font-weight:bolder"">6</p><p style=""color:green"">The text is GREEN because you WON points.</p>","","0","instructions","","","","","","","","","","",""
"learning-instructions","16","165129","0.0-8.0-0.0-0.8","6130","2","23","Male","approach_avoid_spark_v1","""event"",""trial"",""time""
""fullscreenenter"",""1"",""3994""
","
","
","""event"",""trial"",""time""
""fullscreenenter"",""1"",""3994""
","
","","","","","","394.30000001192093","<p> And here is what you would see if you lost 4 points: </p><p style=""color:red;font-size:50px;font-weight:bolder"">-4</p><p style=""color:red"">The text is RED because you LOST points. </p>","","0","instructions","","","","","","","","","","",""
"learning-instructions","17","180361","0.0-8.0-0.0-0.9","6130","2","23","Male","approach_avoid_spark_v1","""event"",""trial"",""time""
""fullscreenenter"",""1"",""3994""
","
","
","""event"",""trial"",""time""
""fullscreenenter"",""1"",""3994""
","
","","","","","","521.7999999821186","<p> Some of the equipment will make the kids VERY happy or sad. </p><p> These pieces of equipment will make you win or lose LOTS of points. </p><p> Other pieces of equipment will only make the kids a little happy or sad. </p><p> These pieces of equipment will make you win or lose small amounts of points. </p>","","0","instructions","","","","","","","","","","",""
"learning-instructions","18","191813","0.0-8.0-0.0-0.10","6130","2","23","Male","approach_avoid_spark_v1","""event"",""trial"",""time""
""fullscreenenter"",""1"",""3994""
","
","
","""event"",""trial"",""time""
""fullscreenenter"",""1"",""3994""
","
","","","","","","834.7999999821186","<p> If you choose not to give them the equipment, you will not win or lose any points. </p><p>  However, in the center of the screen, you will see the number of points you WOULD HAVE won or lost if you had given them the equipment. </p>","","0","instructions","","","","","","","","","","",""
"learning-instructions","19","213773","0.0-8.0-0.0-0.11","6130","2","23","Male","approach_avoid_spark_v1","""event"",""trial"",""time""
""fullscreenenter"",""1"",""3994""
","
","
","""event"",""trial"",""time""
""fullscreenenter"",""1"",""3994""
","
","","","","","","433.69999998807907","<p> Here is what you might see if you did not give the equipment to the kids but it would have made them happy: </p><p style=""color:grey; font-size:50px; display: inline-block; border-spacing: 15px; border-width:3px; border-style:solid; border-color:red"">  &nbsp; 7 &nbsp; </p><p> Remember, in this case, you would not win or lose ANY points because you did not give them the equipment.  </p><p style=""color:grey"">The text is GREY because you earned ZERO points. </p><p style=""color:red"">However, choosing to give the kids the equipment would have made you win points. The box around the text is RED because you chose the worse option. </p>","","0","instructions","","","","","","","","","","",""
"learning-instructions","20","235206","0.0-8.0-0.0-0.12","6130","2","23","Male","approach_avoid_spark_v1","""event"",""trial"",""time""
""fullscreenenter"",""1"",""3994""
","
","
","""event"",""trial"",""time""
""fullscreenenter"",""1"",""3994""
","
","","","","","","364.40000000596046","<p> Here is what you might see if you did not give the equipment to the kids but it would have made them sad: </p><p style=""color:grey;font-size:50px; display: inline-block; border-spacing: 15px; border-width:3px; border-style:solid; border-color:green"">  &nbsp; -8 &nbsp; </p><p> Remember, in this case, you would not win or lose ANY points because you did not give them the equipment.  </p><p style=""color:grey"">The text is GREY because you earned ZERO points. </p><p  style=""color:green""> Choosing to give the kids the equipment would have made you lose points. The box around the text is GREEN because you chose the better option.</p>","","0","instructions","","","","","","","","","","",""
"learning-instructions","21","247456","0.0-8.0-0.0-0.13","6130","2","23","Male","approach_avoid_spark_v1","""event"",""trial"",""time""
""fullscreenenter"",""1"",""3994""
","
","
","""event"",""trial"",""time""
""fullscreenenter"",""1"",""3994""
","
","","","","","","1463.300000011921","<p> You will have 3 seconds to make each choice. Try to respond before time runs out! </p><p> You will lose 5 points each time you do not make a response. </p>","","0","instructions","","","","","","","","","","",""
"learning-instructions","22","253295","0.0-8.0-0.0-0.14","6130","2","23","Male","approach_avoid_spark_v1","""event"",""trial"",""time""
""fullscreenenter"",""1"",""3994""
","
","
","""event"",""trial"",""time""
""fullscreenenter"",""1"",""3994""
","
","","","","","","429.30000001192093","<p> This is just a practice round, but in the real game, your bonus payment will depend on your total number of points.","","0","instructions","","","","","","","","","","",""
"learning-instructions","23","259426","0.0-8.0-0.0-0.15","6130","2","23","Male","approach_avoid_spark_v1","""event"",""trial"",""time""
""fullscreenenter"",""1"",""3994""
","
","
","""event"",""trial"",""time""
""fullscreenenter"",""1"",""3994""
","
","","","","","","371.90000000596046","<p> Remember, you can give them the equipment by pressing 1 and choose not to give it to them by pressing 0. </p><br><div class=""choice-instructions-grid""> <div class=""choice-option""><img src=""images/approach.png"" class=""choice-option-img"" stage=""instructions"" position=""0"" ><div class=""choice-option-text""> Press ""1."" </div></div><div class=""choice-option""><img src=""images/avoid.png"" class=""choice-option-img"" stage=""instructions"" position=""1"" ><div class=""choice-option-text""> Press ""0."" </div></div>","","0","instructions","","","","","","","","","","",""
"html-button-response","24","260766","0.0-8.0-1.0","6130","2","23","Male","approach_avoid_spark_v1","""event"",""trial"",""time""
""fullscreenenter"",""1"",""3994""
","
","
","""event"",""trial"",""time""
""fullscreenenter"",""1"",""3994""
","
","","","","","","1235.7999999821186","<p> Ready to practice? </p>","0","","","","","","","","","","","","",""
"html-keyboard-response","25","261375","0.0-8.0-2.0-0.0","6130","2","23","Male","approach_avoid_spark_v1","""event"",""trial"",""time""
""fullscreenenter"",""1"",""3994""
","
","
","""event"",""trial"",""time""
""fullscreenenter"",""1"",""3994""
","
","","","","","","null","<div style=""font-size:60px;"">+</div>","null","","fixation","","","","","","","","","","",""
"aa-learning-trial","26","264384","0.0-8.0-2.0-1.0","6130","2","23","Male","approach_avoid_spark_v1","""event"",""trial"",""time""
""fullscreenenter"",""1"",""3994""
","
","
","""event"",""trial"",""time""
""fullscreenenter"",""1"",""3994""
","
","","","","","","1098.5","images/racket4.png","","","learning","6","6","1","1","practice","practice","practice","-1","","",""
"html-keyboard-response","27","264897","0.0-8.0-2.0-0.1","6130","2","23","Male","approach_avoid_spark_v1","""event"",""trial"",""time""
""fullscreenenter"",""1"",""3994""
","
","
","""event"",""trial"",""time""
""fullscreenenter"",""1"",""3994""
","
","","","","","","null","<div style=""font-size:60px;"">+</div>","null","","fixation","","","","","","","","","","",""
"aa-learning-trial","28","267913","0.0-8.0-2.0-1.1","6130","2","23","Male","approach_avoid_spark_v1","""event"",""trial"",""time""
""fullscreenenter"",""1"",""3994""
","
","
","""event"",""trial"",""time""
""fullscreenenter"",""1"",""3994""
","
","","","","","","850.2999999821186","images/ball4.png","","","learning","9","9","1","1","practice","practice","practice","-1","","",""
"html-keyboard-response","29","268420","0.0-8.0-2.0-0.2","6130","2","23","Male","approach_avoid_spark_v1","""event"",""trial"",""time""
""fullscreenenter"",""1"",""3994""
","
","
","""event"",""trial"",""time""
""fullscreenenter"",""1"",""3994""
","
","","","","","","null","<div style=""font-size:60px;"">+</div>","null","","fixation","","","","","","","","","","",""
"aa-learning-trial","30","271433","0.0-8.0-2.0-1.2","6130","2","23","Male","approach_avoid_spark_v1","""event"",""trial"",""time""
""fullscreenenter"",""1"",""3994""
","
","
","""event"",""trial"",""time""
""fullscreenenter"",""1"",""3994""
","
","","","","","","669","images/ball4.png","","","learning","4","4","1","1","practice","practice","practice","-1","","",""
"html-keyboard-response","31","271940","0.0-8.0-2.0-0.3","6130","2","23","Male","approach_avoid_spark_v1","""event"",""trial"",""time""
""fullscreenenter"",""1"",""3994""
","
","
","""event"",""trial"",""time""
""fullscreenenter"",""1"",""3994""
","
","","","","","","null","<div style=""font-size:60px;"">+</div>","null","","fixation","","","","","","","","","","",""
"aa-learning-trial","32","274953","0.0-8.0-2.0-1.3","6130","2","23","Male","approach_avoid_spark_v1","""event"",""trial"",""time""
""fullscreenenter"",""1"",""3994""
","
","
","""event"",""trial"",""time""
""fullscreenenter"",""1"",""3994""
","
","","","","","","557.2000000178814","images/ball3.png","","","learning","6","0","0","0","practice","practice","practice","-1","","",""
"html-keyboard-response","33","275463","0.0-8.0-2.0-0.4","6130","2","23","Male","approach_avoid_spark_v1","""event"",""trial"",""time""
""fullscreenenter"",""1"",""3994""
","
","
","""event"",""trial"",""time""
""fullscreenenter"",""1"",""3994""
","
","","","","","","null","<div style=""font-size:60px;"">+</div>","null","","fixation","","","","","","","","","","",""
"aa-learning-trial","34","278473","0.0-8.0-2.0-1.4","6130","2","23","Male","approach_avoid_spark_v1","""event"",""trial"",""time""
""fullscreenenter"",""1"",""3994""
","
","
","""event"",""trial"",""time""
""fullscreenenter"",""1"",""3994""
","
","","","","","","547.9000000059605","images/ball4.png","","","learning","-9","-9","1","1","practice","practice","practice","-1","","",""
"html-keyboard-response","35","278985","0.0-8.0-2.0-0.5","6130","2","23","Male","approach_avoid_spark_v1","""event"",""trial"",""time""
""fullscreenenter"",""1"",""3994""
","
","
","""event"",""trial"",""time""
""fullscreenenter"",""1"",""3994""
","
","","","","","","null","<div style=""font-size:60px;"">+</div>","null","","fixation","","","","","","","","","","",""
"aa-learning-trial","36","281997","0.0-8.0-2.0-1.5","6130","2","23","Male","approach_avoid_spark_v1","""event"",""trial"",""time""
""fullscreenenter"",""1"",""3994""
","
","
","""event"",""trial"",""time""
""fullscreenenter"",""1"",""3994""
","
","","","","","","769.1999999880791","images/racket4.png","","","learning","-8","-8","1","1","practice","practice","practice","-1","","",""
"html-keyboard-response","37","282505","0.0-8.0-2.0-0.6","6130","2","23","Male","approach_avoid_spark_v1","""event"",""trial"",""time""
""fullscreenenter"",""1"",""3994""
","
","
","""event"",""trial"",""time""
""fullscreenenter"",""1"",""3994""
","
","","","","","","null","<div style=""font-size:60px;"">+</div>","null","","fixation","","","","","","","","","","",""
"aa-learning-trial","38","285519","0.0-8.0-2.0-1.6","6130","2","23","Male","approach_avoid_spark_v1","""event"",""trial"",""time""
""fullscreenenter"",""1"",""3994""
","
","
","""event"",""trial"",""time""
""fullscreenenter"",""1"",""3994""
","
","","","","","","735.8999999761581","images/racket1.png","","","learning","-2","-2","1","1","practice","practice","practice","-1","","",""
"html-keyboard-response","39","286028","0.0-8.0-2.0-0.7","6130","2","23","Male","approach_avoid_spark_v1","""event"",""trial"",""time""
""fullscreenenter"",""1"",""3994""
","
","
","""event"",""trial"",""time""
""fullscreenenter"",""1"",""3994""
","
","","","","","","null","<div style=""font-size:60px;"">+</div>","null","","fixation","","","","","","","","","","",""
"aa-learning-trial","40","289042","0.0-8.0-2.0-1.7","6130","2","23","Male","approach_avoid_spark_v1","""event"",""trial"",""time""
""fullscreenenter"",""1"",""3994""
","
","
","""event"",""trial"",""time""
""fullscreenenter"",""1"",""3994""
","
","","","","","","614","images/ball1.png","","","learning","8","8","1","1","practice","practice","practice","-1","","",""
"html-keyboard-response","41","289552","0.0-8.0-2.0-0.8","6130","2","23","Male","approach_avoid_spark_v1","""event"",""trial"",""time""
""fullscreenenter"",""1"",""3994""
","
","
","""event"",""trial"",""time""
""fullscreenenter"",""1"",""3994""
","
","","","","","","null","<div style=""font-size:60px;"">+</div>","null","","fixation","","","","","","","","","","",""
"aa-learning-trial","42","292560","0.0-8.0-2.0-1.8","6130","2","23","Male","approach_avoid_spark_v1","""event"",""trial"",""time""
""fullscreenenter"",""1"",""3994""
","
","
","""event"",""trial"",""time""
""fullscreenenter"",""1"",""3994""
","
","","","","","","667","images/ball2.png","","","learning","3","3","1","1","practice","practice","practice","-1","","",""
"html-keyboard-response","43","293070","0.0-8.0-2.0-0.9","6130","2","23","Male","approach_avoid_spark_v1","""event"",""trial"",""time""
""fullscreenenter"",""1"",""3994""
","
","
","""event"",""trial"",""time""
""fullscreenenter"",""1"",""3994""
","
","","","","","","null","<div style=""font-size:60px;"">+</div>","null","","fixation","","","","","","","","","","",""
"aa-learning-trial","44","296081","0.0-8.0-2.0-1.9","6130","2","23","Male","approach_avoid_spark_v1","""event"",""trial"",""time""
""fullscreenenter"",""1"",""3994""
","
","
","""event"",""trial"",""time""
""fullscreenenter"",""1"",""3994""
","
","","","","","","726.6999999880791","images/racket3.png","","","learning","1","1","1","1","practice","practice","practice","-1","","",""
"html-keyboard-response","45","296589","0.0-8.0-2.0-0.10","6130","2","23","Male","approach_avoid_spark_v1","""event"",""trial"",""time""
""fullscreenenter"",""1"",""3994""
","
","
","""event"",""trial"",""time""
""fullscreenenter"",""1"",""3994""
","
","","","","","","null","<div style=""font-size:60px;"">+</div>","null","","fixation","","","","","","","","","","",""
"aa-learning-trial","46","299602","0.0-8.0-2.0-1.10","6130","2","23","Male","approach_avoid_spark_v1","""event"",""trial"",""time""
""fullscreenenter"",""1"",""3994""
","
","
","""event"",""trial"",""time""
""fullscreenenter"",""1"",""3994""
","
","","","","","","572.6999999880791","images/ball4.png","","","learning","-8","-8","1","1","practice","practice","practice","-1","","",""
"html-keyboard-response","47","300112","0.0-8.0-2.0-0.11","6130","2","23","Male","approach_avoid_spark_v1","""event"",""trial"",""time""
""fullscreenenter"",""1"",""3994""
","
","
","""event"",""trial"",""time""
""fullscreenenter"",""1"",""3994""
","
","","","","","","null","<div style=""font-size:60px;"">+</div>","null","","fixation","","","","","","","","","","",""
"aa-learning-trial","48","303119","0.0-8.0-2.0-1.11","6130","2","23","Male","approach_avoid_spark_v1","""event"",""trial"",""time""
""fullscreenenter"",""1"",""3994""
","
","
","""event"",""trial"",""time""
""fullscreenenter"",""1"",""3994""
","
","","","","","","987.7000000178814","images/racket3.png","","","learning","-9","-9","1","1","practice","practice","practice","-1","","",""
"html-button-response","49","305000","0.0-8.0-3.0","6130","2","23","Male","approach_avoid_spark_v1","""event"",""trial"",""time""
""fullscreenenter"",""1"",""3994""
","
","
","""event"",""trial"",""time""
""fullscreenenter"",""1"",""3994""
","
","","","","","","1878.4000000059605","<p> You earned -5 points in the practice round! </p>","0","","break","","","","","","","","","","",""
"learning-instructions","50","311908","0.0-8.0-4.0-0.0","6130","2","23","Male","approach_avoid_spark_v1","""event"",""trial"",""time""
""fullscreenenter"",""1"",""3994""
","
","
","""event"",""trial"",""time""
""fullscreenenter"",""1"",""3994""
","
","","","","","","888.6000000238419","<p> It's almost time to start the real game. </p><p> Before you start, we're going to ask you a few questions about how the game works. </p>","","0","instructions","","","","","","","","","","",""
"preload","51","322914","0.0-8.0-5.0","6130","2","23","Male","approach_avoid_spark_v1","""event"",""trial"",""time""
""fullscreenenter"",""1"",""3994""
","
","
","""event"",""trial"",""time""
""fullscreenenter"",""1"",""3994""
","
","true","false","[]","[]","[]","","","","","","","","","","","","","","","",""
"comp-q","52","329818","0.0-8.0-6.0-0.0","6130","2","23","Male","approach_avoid_spark_v1","""event"",""trial"",""time""
""fullscreenenter"",""1"",""3994""
","
","
","""event"",""trial"",""time""
""fullscreenenter"",""1"",""3994""
","
","","","","","","1911.2999999821186","<p> <b> True or False? </b> </p><p> If you see a number in GREY, that means you earned that many points. </p>","","1","comp_question","","","","","","","","","true","",""
"comp-q","53","339166","0.0-8.0-6.0-1.0","6130","2","23","Male","approach_avoid_spark_v1","""event"",""trial"",""time""
""fullscreenenter"",""1"",""3994""
","
","
","""event"",""trial"",""time""
""fullscreenenter"",""1"",""3994""
","
","","","","","","990.6999999880791","<p><b> That's right! </b> If you see a grey number, it means you earned ZERO points. <br> The grey numbers show the points you WOULD HAVE earned if you had made the other choice. </p>","","0","comp_answer","","","","","","","","","","",""
"comp-q","54","344308","0.0-8.0-7.0-0.0","6130","2","23","Male","approach_avoid_spark_v1","""event"",""trial"",""time""
""fullscreenenter"",""1"",""3994""
","
","
","""event"",""trial"",""time""
""fullscreenenter"",""1"",""3994""
","
","","","","","","455","<p> <b> True or False? </b> </p><p> You will have as much time as you want to make each choice. </p>","","1","comp_question","","","","","","","","","true","",""
"comp-q","55","349651","0.0-8.0-7.0-1.0","6130","2","23","Male","approach_avoid_spark_v1","""event"",""trial"",""time""
""fullscreenenter"",""1"",""3994""
","
","
","""event"",""trial"",""time""
""fullscreenenter"",""1"",""3994""
","
","","","","","","1299.5","<p> <b> That's right! </b> You will only have 3 seconds to make each choice. </p>","","0","comp_answer","","","","","","","","","","",""
"comp-q","56","354714","0.0-8.0-8.0-0.0","6130","2","23","Male","approach_avoid_spark_v1","""event"",""trial"",""time""
""fullscreenenter"",""1"",""3994""
","
","
","""event"",""trial"",""time""
""fullscreenenter"",""1"",""3994""
","
","","","","","","412.2000000178814","<p> <b> True or False? </b> </p><p> You should use the '1' and '0' keys to make your choices. </p>","","0","comp_question","","","","","","","","","true","",""
"comp-q","57","360057","0.0-8.0-8.0-1.0","6130","2","23","Male","approach_avoid_spark_v1","""event"",""trial"",""time""
""fullscreenenter"",""1"",""3994""
","
","
","""event"",""trial"",""time""
""fullscreenenter"",""1"",""3994""
","
","","","","","","740.4000000059605","<p> <b> That's right! </b> You should use the '1' and '0' keys to make each choice. </p>","","0","comp_answer","","","","","","","","","","",""
"learning-instructions","58","367999","0.0-8.0-9.0-0.0","6130","2","23","Male","approach_avoid_spark_v1","""event"",""trial"",""time""
""fullscreenenter"",""1"",""3994""
","
","
","""event"",""trial"",""time""
""fullscreenenter"",""1"",""3994""
","
","","","","","","1675.5","<p> It's now time to start the real game. </p>Do your best, because the points you earn in the next rounds will influence your bonus payment. </p>","","0","instructions","","","","","","","","","","",""
"preload","59","368123","0.0-9.0-0.0","6130","2","23","Male","approach_avoid_spark_v1","""event"",""trial"",""time""
""fullscreenenter"",""1"",""3994""
","
","
","""event"",""trial"",""time""
""fullscreenenter"",""1"",""3994""
","
","true","false","[]","[]","[]","","","","","","","","","","","","","","","",""
"learning-instructions","60","374727","0.0-9.0-1.0-0.0","6130","2","23","Male","approach_avoid_spark_v1","""event"",""trial"",""time""
""fullscreenenter"",""1"",""3994""
","
","
","""event"",""trial"",""time""
""fullscreenenter"",""1"",""3994""
","
","","","","","","752.9000000059605","<p> Your goal in this round is to decorate your friend's new house with furniture. </p></div>","","0","instructions","","","","","","","","","","",""
"learning-instructions","61","390004","0.0-9.0-1.0-0.1","6130","2","23","Male","approach_avoid_spark_v1","""event"",""trial"",""time""
""fullscreenenter"",""1"",""3994""
","
","
","""event"",""trial"",""time""
""fullscreenenter"",""1"",""3994""
","
","","","","","","1702.7000000178814","<p> Your friend likes some pieces of furniture but not others.  </p><p> On each turn, you will see a piece of furniture.   </p><p> You need to decide whether to put it in your friend's house or not.  </p>","","0","instructions","","","","","","","","","","",""
"learning-instructions","62","398566","0.0-9.0-1.0-0.2","6130","2","23","Male","approach_avoid_spark_v1","""event"",""trial"",""time""
""fullscreenenter"",""1"",""3994""
","
","
","""event"",""trial"",""time""
""fullscreenenter"",""1"",""3994""
","
","","","","","","669.5","<p> You can put the furniture in her house by pressing 1 and deliver it elsewhere by pressing 0. </p><br><div class=""choice-instructions-grid""> <div class=""choice-option""><img src=""images/approach.png"" class=""choice-option-img"" stage=""instructions"" position=""0"" ><div class=""choice-option-text""> Press ""1."" </div></div><div class=""choice-option""><img src=""images/avoid.png"" class=""choice-option-img"" stage=""instructions"" position=""1"" ><div class=""choice-option-text""> Press ""0."" </div></div>","","0","instructions","","","","","","","","","","",""
"learning-instructions","63","410233","0.0-9.0-1.0-0.3","6130","2","23","Male","approach_avoid_spark_v1","""event"",""trial"",""time""
""fullscreenenter"",""1"",""3994""
","
","
","""event"",""trial"",""time""
""fullscreenenter"",""1"",""3994""
","
","","","","","","458.69999998807907","<p> If you decorate your friend's house with furniture she likes, she will be happy! </p><p> But if you give her furniture that she does not like, she will be annoyed. </p>","","0","instructions","","","","","","","","","","",""
"learning-instructions","64","425421","0.0-9.0-1.0-0.4","6130","2","23","Male","approach_avoid_spark_v1","""event"",""trial"",""time""
""fullscreenenter"",""1"",""3994""
","
","
","""event"",""trial"",""time""
""fullscreenenter"",""1"",""3994""
","
","","","","","","385.39999997615814","<p> You will earn points based on how you made your friend feel. </p><p> If you made her happy, you will WIN anywhere from 1 - 9 points, </p><p> but if you made her annoyed you will LOSE anywhere from 1 - 9 points. </p>","","0","instructions","","","","","","","","","","",""
"learning-instructions","65","434533","0.0-9.0-1.0-0.5","6130","2","23","Male","approach_avoid_spark_v1","""event"",""trial"",""time""
""fullscreenenter"",""1"",""3994""
","
","
","""event"",""trial"",""time""
""fullscreenenter"",""1"",""3994""
","
","","","","","","459.90000000596046","<p> You will see how many points you won or lost in the center of the screen. </p><p> Here is what you would see if you won 5 points: </p><p style=""color:green;font-size:50px;font-weight:bolder"">5</p>","","0","instructions","","","","","","","","","","",""
"learning-instructions","66","439202","0.0-9.0-1.0-0.6","6130","2","23","Male","approach_avoid_spark_v1","""event"",""trial"",""time""
""fullscreenenter"",""1"",""3994""
","
","
","""event"",""trial"",""time""
""fullscreenenter"",""1"",""3994""
","
","","","","","","380","<p> And here is what you would see if you lost 3 points: </p><p style=""color:red;font-size:50px;font-weight:bolder"">-3</p>","","0","instructions","","","","","","","","","","",""
"learning-instructions","67","465326","0.0-9.0-1.0-0.7","6130","2","23","Male","approach_avoid_spark_v1","""event"",""trial"",""time""
""fullscreenenter"",""1"",""3994""
","
","
","""event"",""trial"",""time""
""fullscreenenter"",""1"",""3994""
","
","","","","","","7381.5999999940395","<p> Some pieces of furniture will make her feel very happy or very annoyed. </p><p> These pieces of furniture will make you win or lose LOTS of points. </p><p> Other pieces of furniture will only make her feel a little happy or a little annoyed. </p><p> These pieces of furniture will make you win or lose small amounts of points. </p>","","0","instructions","","","","","","","","","","",""
"learning-instructions","68","480310","0.0-9.0-1.0-0.8","6130","2","23","Male","approach_avoid_spark_v1","""event"",""trial"",""time""
""fullscreenenter"",""1"",""3994""
","
","
","""event"",""trial"",""time""
""fullscreenenter"",""1"",""3994""
","
","","","","","","1033.8999999761581","<p> If you choose to deliver a piece of furniture elsewhere, you will not win or lose any points. </p><p>  However, in the center of the screen, you will see the number of points you WOULD HAVE won or lost if you had given the furniture to your friend. </p>","","0","instructions","","","","","","","","","","",""
"learning-instructions","69","493820","0.0-9.0-1.0-0.9","6130","2","23","Male","approach_avoid_spark_v1","""event"",""trial"",""time""
""fullscreenenter"",""1"",""3994""
","
","
","""event"",""trial"",""time""
""fullscreenenter"",""1"",""3994""
","
","","","","","","420.30000001192093","<p> Here is what you might see if you did not give a piece of furniture to your friend that would have made her happy: </p><p style=""color:grey; font-size:50px; display: inline-block; border-spacing: 15px; border-width:3px; border-style:solid; border-color:red"">  &nbsp; 6 &nbsp; </p><p> Remember, in this case, you would not win or lose ANY points because you did not give her the furniture.  </p>","","0","instructions","","","","","","","","","","",""
"learning-instructions","70","502955","0.0-9.0-1.0-0.10","6130","2","23","Male","approach_avoid_spark_v1","""event"",""trial"",""time""
""fullscreenenter"",""1"",""3994""
","
","
","""event"",""trial"",""time""
""fullscreenenter"",""1"",""3994""
","
","","","","","","354.59999999403954","<p> Try to make the best choice for each piece of furniture because </p><p> at the end of the game, you will earn bonus money based on how many points you earned. </p>","","0","instructions","","","","","","","","","","",""
"learning-instructions","71","511505","0.0-9.0-1.0-0.11","6130","2","23","Male","approach_avoid_spark_v1","""event"",""trial"",""time""
""fullscreenenter"",""1"",""3994""
","
","
","""event"",""trial"",""time""
""fullscreenenter"",""1"",""3994""
","
","","","","","","365.30000001192093","<p> You will have 3 seconds to make each choice. Try to respond before time runs out! </p><p> You will lose 5 points each time you do not make a response. </p>","","0","instructions","","","","","","","","","","",""
"html-keyboard-response","72","512118","0.0-9.0-2.0-0.0","6130","2","23","Male","approach_avoid_spark_v1","""event"",""trial"",""time""
""fullscreenenter"",""1"",""3994""
","
","
","""event"",""trial"",""time""
""fullscreenenter"",""1"",""3994""
","
","","","","","","null","<div style=""font-size:60px;"">+</div>","null","","fixation","","","","","","","","","","",""
"aa-learning-trial","73","515131","0.0-9.0-2.0-1.0","6130","2","23","Male","approach_avoid_spark_v1","""event"",""trial"",""time""
""fullscreenenter"",""1"",""3994""
","
","
","""event"",""trial"",""time""
""fullscreenenter"",""1"",""3994""
","
","","","","","","849.5","images/chair1.png","","","learning","-4","-4","1","1","chair","furniture","2","0","","bad","[-6]"
"html-keyboard-response","74","515638","0.0-9.0-2.0-0.1","6130","2","23","Male","approach_avoid_spark_v1","""event"",""trial"",""time""
""fullscreenenter"",""1"",""3994""
","
","
","""event"",""trial"",""time""
""fullscreenenter"",""1"",""3994""
","
","","","","","","null","<div style=""font-size:60px;"">+</div>","null","","fixation","","","","","","","","","","",""
"aa-learning-trial","75","518642","0.0-9.0-2.0-1.1","6130","2","23","Male","approach_avoid_spark_v1","""event"",""trial"",""time""
""fullscreenenter"",""1"",""3994""
","
","
","""event"",""trial"",""time""
""fullscreenenter"",""1"",""3994""
","
","","","","","","762.1999999880791","images/bed8.png","","","learning","1","1","1","1","bed","furniture","2","0","","good","[6]"
"html-keyboard-response","76","519149","0.0-9.0-2.0-0.2","6130","2","23","Male","approach_avoid_spark_v1","""event"",""trial"",""time""
""fullscreenenter"",""1"",""3994""
","
","
","""event"",""trial"",""time""
""fullscreenenter"",""1"",""3994""
","
","","","","","","null","<div style=""font-size:60px;"">+</div>","null","","fixation","","","","","","","","","","",""
"aa-learning-trial","77","522155","0.0-9.0-2.0-1.2","6130","2","23","Male","approach_avoid_spark_v1","""event"",""trial"",""time""
""fullscreenenter"",""1"",""3994""
","
","
","""event"",""trial"",""time""
""fullscreenenter"",""1"",""3994""
","
","","","","","","961.7999999821186","images/bed3.png","","","learning","4","4","1","1","bed","furniture","2","0","","good","[6]"
"html-keyboard-response","78","522658","0.0-9.0-2.0-0.3","6130","2","23","Male","approach_avoid_spark_v1","""event"",""trial"",""time""
""fullscreenenter"",""1"",""3994""
","
","
","""event"",""trial"",""time""
""fullscreenenter"",""1"",""3994""
","
","","","","","","null","<div style=""font-size:60px;"">+</div>","null","","fixation","","","","","","","","","","",""
"aa-learning-trial","79","525671","0.0-9.0-2.0-1.3","6130","2","23","Male","approach_avoid_spark_v1","""event"",""trial"",""time""
""fullscreenenter"",""1"",""3994""
","
","
","""event"",""trial"",""time""
""fullscreenenter"",""1"",""3994""
","
","","","","","","758.5","images/table5.png","","","learning","2","2","1","1","table","furniture","2","0","","neutral","0"
"html-keyboard-response","80","526179","0.0-9.0-2.0-0.4","6130","2","23","Male","approach_avoid_spark_v1","""event"",""trial"",""time""
""fullscreenenter"",""1"",""3994""
","
","
","""event"",""trial"",""time""
""fullscreenenter"",""1"",""3994""
","
","","","","","","null","<div style=""font-size:60px;"">+</div>","null","","fixation","","","","","","","","","","",""
"aa-learning-trial","81","529187","0.0-9.0-2.0-1.4","6130","2","23","Male","approach_avoid_spark_v1","""event"",""trial"",""time""
""fullscreenenter"",""1"",""3994""
","
","
","""event"",""trial"",""time""
""fullscreenenter"",""1"",""3994""
","
","","","","","","843.5999999940395","images/chair1.png","","","learning","-4","0","0","0","chair","furniture","2","0","","bad","[-6]"
"html-keyboard-response","82","529691","0.0-9.0-2.0-0.5","6130","2","23","Male","approach_avoid_spark_v1","""event"",""trial"",""time""
""fullscreenenter"",""1"",""3994""
","
","
","""event"",""trial"",""time""
""fullscreenenter"",""1"",""3994""
","
","","","","","","null","<div style=""font-size:60px;"">+</div>","null","","fixation","","","","","","","","","","",""
"aa-learning-trial","83","532700","0.0-9.0-2.0-1.5","6130","2","23","Male","approach_avoid_spark_v1","""event"",""trial"",""time""
""fullscreenenter"",""1"",""3994""
","
","
","""event"",""trial"",""time""
""fullscreenenter"",""1"",""3994""
","
","","","","","","772.3999999761581","images/bed7.png","","","learning","9","9","1","1","bed","furniture","2","0","","good","[6]"
"html-keyboard-response","84","533204","0.0-9.0-2.0-0.6","6130","2","23","Male","approach_avoid_spark_v1","""event"",""trial"",""time""
""fullscreenenter"",""1"",""3994""
","
","
","""event"",""trial"",""time""
""fullscreenenter"",""1"",""3994""
","
","","","","","","null","<div style=""font-size:60px;"">+</div>","null","","fixation","","","","","","","","","","",""
"aa-learning-trial","85","536210","0.0-9.0-2.0-1.6","6130","2","23","Male","approach_avoid_spark_v1","""event"",""trial"",""time""
""fullscreenenter"",""1"",""3994""
","
","
","""event"",""trial"",""time""
""fullscreenenter"",""1"",""3994""
","
","","","","","","846.1999999880791","images/chair8.png","","","learning","-9","-9","1","1","chair","furniture","2","0","","bad","[-6]"
"html-keyboard-response","86","536718","0.0-9.0-2.0-0.7","6130","2","23","Male","approach_avoid_spark_v1","""event"",""trial"",""time""
""fullscreenenter"",""1"",""3994""
","
","
","""event"",""trial"",""time""
""fullscreenenter"",""1"",""3994""
","
","","","","","","null","<div style=""font-size:60px;"">+</div>","null","","fixation","","","","","","","","","","",""
"aa-learning-trial","87","539725","0.0-9.0-2.0-1.7","6130","2","23","Male","approach_avoid_spark_v1","""event"",""trial"",""time""
""fullscreenenter"",""1"",""3994""
","
","
","""event"",""trial"",""time""
""fullscreenenter"",""1"",""3994""
","
","","","","","","826.2999999821186","images/bed8.png","","","learning","1","1","1","1","bed","furniture","2","0","","good","[6]"
"html-keyboard-response","88","540227","0.0-9.0-2.0-0.8","6130","2","23","Male","approach_avoid_spark_v1","""event"",""trial"",""time""
""fullscreenenter"",""1"",""3994""
","
","
","""event"",""trial"",""time""
""fullscreenenter"",""1"",""3994""
","
","","","","","","null","<div style=""font-size:60px;"">+</div>","null","","fixation","","","","","","","","","","",""
"aa-learning-trial","89","543236","0.0-9.0-2.0-1.8","6130","2","23","Male","approach_avoid_spark_v1","""event"",""trial"",""time""
""fullscreenenter"",""1"",""3994""
","
","
","""event"",""trial"",""time""
""fullscreenenter"",""1"",""3994""
","
","","","","","","653.4000000059605","images/bed3.png","","","learning","4","4","1","1","bed","furniture","2","0","","good","[6]"
"html-keyboard-response","90","543741","0.0-9.0-2.0-0.9","6130","2","23","Male","approach_avoid_spark_v1","""event"",""trial"",""time""
""fullscreenenter"",""1"",""3994""
","
","
","""event"",""trial"",""time""
""fullscreenenter"",""1"",""3994""
","
","","","","","","null","<div style=""font-size:60px;"">+</div>","null","","fixation","","","","","","","","","","",""
"aa-learning-trial","91","546748","0.0-9.0-2.0-1.9","6130","2","23","Male","approach_avoid_spark_v1","""event"",""trial"",""time""
""fullscreenenter"",""1"",""3994""
","
","
","""event"",""trial"",""time""
""fullscreenenter"",""1"",""3994""
","
","","","","","","788.1999999880791","images/table4.png","","","learning","3","3","1","1","table","furniture","2","0","","neutral","0"
"html-keyboard-response","92","547253","0.0-9.0-2.0-0.10","6130","2","23","Male","approach_avoid_spark_v1","""event"",""trial"",""time""
""fullscreenenter"",""1"",""3994""
","
","
","""event"",""trial"",""time""
""fullscreenenter"",""1"",""3994""
","
","","","","","","null","<div style=""font-size:60px;"">+</div>","null","","fixation","","","","","","","","","","",""
"aa-learning-trial","93","550260","0.0-9.0-2.0-1.10","6130","2","23","Male","approach_avoid_spark_v1","""event"",""trial"",""time""
""fullscreenenter"",""1"",""3994""
","
","
","""event"",""trial"",""time""
""fullscreenenter"",""1"",""3994""
","
","","","","","","419.40000000596046","images/chair7.png","","","learning","5","0","0","0","chair","furniture","2","0","","bad","[-6]"
"html-keyboard-response","94","550765","0.0-9.0-2.0-0.11","6130","2","23","Male","approach_avoid_spark_v1","""event"",""trial"",""time""
""fullscreenenter"",""1"",""3994""
","
","
","""event"",""trial"",""time""
""fullscreenenter"",""1"",""3994""
","
","","","","","","null","<div style=""font-size:60px;"">+</div>","null","","fixation","","","","","","","","","","",""
"aa-learning-trial","95","553772","0.0-9.0-2.0-1.11","6130","2","23","Male","approach_avoid_spark_v1","""event"",""trial"",""time""
""fullscreenenter"",""1"",""3994""
","
","
","""event"",""trial"",""time""
""fullscreenenter"",""1"",""3994""
","
","","","","","","906.6999999880791","images/table8.png","","","learning","-6","-6","1","1","table","furniture","2","0","","neutral","0"
"html-keyboard-response","96","554275","0.0-9.0-2.0-0.12","6130","2","23","Male","approach_avoid_spark_v1","""event"",""trial"",""time""
""fullscreenenter"",""1"",""3994""
","
","
","""event"",""trial"",""time""
""fullscreenenter"",""1"",""3994""
","
","","","","","","null","<div style=""font-size:60px;"">+</div>","null","","fixation","","","","","","","","","","",""
"aa-learning-trial","97","557287","0.0-9.0-2.0-1.12","6130","2","23","Male","approach_avoid_spark_v1","""event"",""trial"",""time""
""fullscreenenter"",""1"",""3994""
","
","
","""event"",""trial"",""time""
""fullscreenenter"",""1"",""3994""
","
","","","","","","798.1999999880791","images/table8.png","","","learning","-6","0","0","0","table","furniture","2","0","","neutral","0"
"html-keyboard-response","98","557795","0.0-9.0-2.0-0.13","6130","2","23","Male","approach_avoid_spark_v1","""event"",""trial"",""time""
""fullscreenenter"",""1"",""3994""
","
","
","""event"",""trial"",""time""
""fullscreenenter"",""1"",""3994""
","
","","","","","","null","<div style=""font-size:60px;"">+</div>","null","","fixation","","","","","","","","","","",""
"aa-learning-trial","99","560804","0.0-9.0-2.0-1.13","6130","2","23","Male","approach_avoid_spark_v1","""event"",""trial"",""time""
""fullscreenenter"",""1"",""3994""
","
","
","""event"",""trial"",""time""
""fullscreenenter"",""1"",""3994""
","
","","","","","","909.7999999821186","images/chair8.png","","","learning","-9","0","0","0","chair","furniture","2","0","","bad","[-6]"
"html-keyboard-response","100","561307","0.0-9.0-2.0-0.14","6130","2","23","Male","approach_avoid_spark_v1","""event"",""trial"",""time""
""fullscreenenter"",""1"",""3994""
","
","
","""event"",""trial"",""time""
""fullscreenenter"",""1"",""3994""
","
","","","","","","null","<div style=""font-size:60px;"">+</div>","null","","fixation","","","","","","","","","","",""
"aa-learning-trial","101","564318","0.0-9.0-2.0-1.14","6130","2","23","Male","approach_avoid_spark_v1","""event"",""trial"",""time""
""fullscreenenter"",""1"",""3994""
","
","
","""event"",""trial"",""time""
""fullscreenenter"",""1"",""3994""
","
","","","","","","747.6999999880791","images/table4.png","","","learning","3","3","1","1","table","furniture","2","0","","neutral","0"
"html-keyboard-response","102","564831","0.0-9.0-2.0-0.15","6130","2","23","Male","approach_avoid_spark_v1","""event"",""trial"",""time""
""fullscreenenter"",""1"",""3994""
","
","
","""event"",""trial"",""time""
""fullscreenenter"",""1"",""3994""
","
","","","","","","null","<div style=""font-size:60px;"">+</div>","null","","fixation","","","","","","","","","","",""
"aa-learning-trial","103","567838","0.0-9.0-2.0-1.15","6130","2","23","Male","approach_avoid_spark_v1","""event"",""trial"",""time""
""fullscreenenter"",""1"",""3994""
","
","
","""event"",""trial"",""time""
""fullscreenenter"",""1"",""3994""
","
","","","","","","731.5","images/chair1.png","","","learning","-4","0","0","0","chair","furniture","2","0","","bad","[-6]"
"html-keyboard-response","104","568351","0.0-9.0-2.0-0.16","6130","2","23","Male","approach_avoid_spark_v1","""event"",""trial"",""time""
""fullscreenenter"",""1"",""3994""
","
","
","""event"",""trial"",""time""
""fullscreenenter"",""1"",""3994""
","
","","","","","","null","<div style=""font-size:60px;"">+</div>","null","","fixation","","","","","","","","","","",""
"aa-learning-trial","105","571355","0.0-9.0-2.0-1.16","6130","2","23","Male","approach_avoid_spark_v1","""event"",""trial"",""time""
""fullscreenenter"",""1"",""3994""
","
","
","""event"",""trial"",""time""
""fullscreenenter"",""1"",""3994""
","
","","","","","","897.5999999940395","images/chair4.png","","","learning","-2","0","0","0","chair","furniture","2","0","","bad","[-6]"
"html-keyboard-response","106","571861","0.0-9.0-2.0-0.17","6130","2","23","Male","approach_avoid_spark_v1","""event"",""trial"",""time""
""fullscreenenter"",""1"",""3994""
","
","
","""event"",""trial"",""time""
""fullscreenenter"",""1"",""3994""
","
","","","","","","null","<div style=""font-size:60px;"">+</div>","null","","fixation","","","","","","","","","","",""
"aa-learning-trial","107","574868","0.0-9.0-2.0-1.17","6130","2","23","Male","approach_avoid_spark_v1","""event"",""trial"",""time""
""fullscreenenter"",""1"",""3994""
","
","
","""event"",""trial"",""time""
""fullscreenenter"",""1"",""3994""
","
","","","","","","635.8000000119209","images/bed3.png","","","learning","4","4","1","1","bed","furniture","2","0","","good","[6]"
"html-keyboard-response","108","575373","0.0-9.0-2.0-0.18","6130","2","23","Male","approach_avoid_spark_v1","""event"",""trial"",""time""
""fullscreenenter"",""1"",""3994""
","
","
","""event"",""trial"",""time""
""fullscreenenter"",""1"",""3994""
","
","","","","","","null","<div style=""font-size:60px;"">+</div>","null","","fixation","","","","","","","","","","",""
"aa-learning-trial","109","578380","0.0-9.0-2.0-1.18","6130","2","23","Male","approach_avoid_spark_v1","""event"",""trial"",""time""
""fullscreenenter"",""1"",""3994""
","
","
","""event"",""trial"",""time""
""fullscreenenter"",""1"",""3994""
","
","","","","","","836.1999999880791","images/table1.png","","","learning","-3","-3","1","1","table","furniture","2","0","","neutral","0"
"html-keyboard-response","110","578884","0.0-9.0-2.0-0.19","6130","2","23","Male","approach_avoid_spark_v1","""event"",""trial"",""time""
""fullscreenenter"",""1"",""3994""
","
","
","""event"",""trial"",""time""
""fullscreenenter"",""1"",""3994""
","
","","","","","","null","<div style=""font-size:60px;"">+</div>","null","","fixation","","","","","","","","","","",""
"aa-learning-trial","111","581892","0.0-9.0-2.0-1.19","6130","2","23","Male","approach_avoid_spark_v1","""event"",""trial"",""time""
""fullscreenenter"",""1"",""3994""
","
","
","""event"",""trial"",""time""
""fullscreenenter"",""1"",""3994""
","
","","","","","","566.4000000059605","images/bed8.png","","","learning","1","1","1","1","bed","furniture","2","0","","good","[6]"
"html-keyboard-response","112","582399","0.0-9.0-2.0-0.20","6130","2","23","Male","approach_avoid_spark_v1","""event"",""trial"",""time""
""fullscreenenter"",""1"",""3994""
","
","
","""event"",""trial"",""time""
""fullscreenenter"",""1"",""3994""
","
","","","","","","null","<div style=""font-size:60px;"">+</div>","null","","fixation","","","","","","","","","","",""
"aa-learning-trial","113","585404","0.0-9.0-2.0-1.20","6130","2","23","Male","approach_avoid_spark_v1","""event"",""trial"",""time""
""fullscreenenter"",""1"",""3994""
","
","
","""event"",""trial"",""time""
""fullscreenenter"",""1"",""3994""
","
","","","","","","803.3000000119209","images/table8.png","","","learning","-6","0","0","0","table","furniture","2","0","","neutral","0"
"html-keyboard-response","114","585909","0.0-9.0-2.0-0.21","6130","2","23","Male","approach_avoid_spark_v1","""event"",""trial"",""time""
""fullscreenenter"",""1"",""3994""
","
","
","""event"",""trial"",""time""
""fullscreenenter"",""1"",""3994""
","
","","","","","","null","<div style=""font-size:60px;"">+</div>","null","","fixation","","","","","","","","","","",""
"aa-learning-trial","115","588916","0.0-9.0-2.0-1.21","6130","2","23","Male","approach_avoid_spark_v1","""event"",""trial"",""time""
""fullscreenenter"",""1"",""3994""
","
","
","""event"",""trial"",""time""
""fullscreenenter"",""1"",""3994""
","
","","","","","","621.1000000238419","images/table8.png","","","learning","-6","0","0","0","table","furniture","2","0","","neutral","0"
"html-keyboard-response","116","589421","0.0-9.0-2.0-0.22","6130","2","23","Male","approach_avoid_spark_v1","""event"",""trial"",""time""
""fullscreenenter"",""1"",""3994""
","
","
","""event"",""trial"",""time""
""fullscreenenter"",""1"",""3994""
","
","","","","","","null","<div style=""font-size:60px;"">+</div>","null","","fixation","","","","","","","","","","",""
"aa-learning-trial","117","592428","0.0-9.0-2.0-1.22","6130","2","23","Male","approach_avoid_spark_v1","""event"",""trial"",""time""
""fullscreenenter"",""1"",""3994""
","
","
","""event"",""trial"",""time""
""fullscreenenter"",""1"",""3994""
","
","","","","","","660","images/chair1.png","","","learning","-4","0","0","0","chair","furniture","2","0","","bad","[-6]"
"html-keyboard-response","118","592933","0.0-9.0-2.0-0.23","6130","2","23","Male","approach_avoid_spark_v1","""event"",""trial"",""time""
""fullscreenenter"",""1"",""3994""
","
","
","""event"",""trial"",""time""
""fullscreenenter"",""1"",""3994""
","
","","","","","","null","<div style=""font-size:60px;"">+</div>","null","","fixation","","","","","","","","","","",""
"aa-learning-trial","119","595941","0.0-9.0-2.0-1.23","6130","2","23","Male","approach_avoid_spark_v1","""event"",""trial"",""time""
""fullscreenenter"",""1"",""3994""
","
","
","""event"",""trial"",""time""
""fullscreenenter"",""1"",""3994""
","
","","","","","","907.2999999821186","images/table4.png","","","learning","3","0","0","0","table","furniture","2","0","","neutral","0"
"html-keyboard-response","120","596445","0.0-9.0-2.0-0.24","6130","2","23","Male","approach_avoid_spark_v1","""event"",""trial"",""time""
""fullscreenenter"",""1"",""3994""
","
","
","""event"",""trial"",""time""
""fullscreenenter"",""1"",""3994""
","
","","","","","","null","<div style=""font-size:60px;"">+</div>","null","","fixation","","","","","","","","","","",""
"aa-learning-trial","121","599452","0.0-9.0-2.0-1.24","6130","2","23","Male","approach_avoid_spark_v1","""event"",""trial"",""time""
""fullscreenenter"",""1"",""3994""
","
","
","""event"",""trial"",""time""
""fullscreenenter"",""1"",""3994""
","
","","","","","","836.1999999880791","images/chair1.png","","","learning","-4","0","0","0","chair","furniture","2","0","","bad","[-6]"
"html-keyboard-response","122","599957","0.0-9.0-2.0-0.25","6130","2","23","Male","approach_avoid_spark_v1","""event"",""trial"",""time""
""fullscreenenter"",""1"",""3994""
","
","
","""event"",""trial"",""time""
""fullscreenenter"",""1"",""3994""
","
","","","","","","null","<div style=""font-size:60px;"">+</div>","null","","fixation","","","","","","","","","","",""
"aa-learning-trial","123","602965","0.0-9.0-2.0-1.25","6130","2","23","Male","approach_avoid_spark_v1","""event"",""trial"",""time""
""fullscreenenter"",""1"",""3994""
","
","
","""event"",""trial"",""time""
""fullscreenenter"",""1"",""3994""
","
","","","","","","741.5","images/table7.png","","","learning","6","0","0","0","table","furniture","2","0","","neutral","0"
"html-keyboard-response","124","603469","0.0-9.0-2.0-0.26","6130","2","23","Male","approach_avoid_spark_v1","""event"",""trial"",""time""
""fullscreenenter"",""1"",""3994""
","
","
","""event"",""trial"",""time""
""fullscreenenter"",""1"",""3994""
","
","","","","","","null","<div style=""font-size:60px;"">+</div>","null","","fixation","","","","","","","","","","",""
"aa-learning-trial","125","606477","0.0-9.0-2.0-1.26","6130","2","23","Male","approach_avoid_spark_v1","""event"",""trial"",""time""
""fullscreenenter"",""1"",""3994""
","
","
","""event"",""trial"",""time""
""fullscreenenter"",""1"",""3994""
","
","","","","","","676.9000000059605","images/bed8.png","","","learning","1","1","1","1","bed","furniture","2","0","","good","[6]"
"html-keyboard-response","126","606982","0.0-9.0-2.0-0.27","6130","2","23","Male","approach_avoid_spark_v1","""event"",""trial"",""time""
""fullscreenenter"",""1"",""3994""
","
","
","""event"",""trial"",""time""
""fullscreenenter"",""1"",""3994""
","
","","","","","","null","<div style=""font-size:60px;"">+</div>","null","","fixation","","","","","","","","","","",""
"aa-learning-trial","127","609989","0.0-9.0-2.0-1.27","6130","2","23","Male","approach_avoid_spark_v1","""event"",""trial"",""time""
""fullscreenenter"",""1"",""3994""
","
","
","""event"",""trial"",""time""
""fullscreenenter"",""1"",""3994""
","
","","","","","","819.4000000059605","images/chair8.png","","","learning","-9","0","0","0","chair","furniture","2","0","","bad","[-6]"
"html-keyboard-response","128","610492","0.0-9.0-2.0-0.28","6130","2","23","Male","approach_avoid_spark_v1","""event"",""trial"",""time""
""fullscreenenter"",""1"",""3994""
","
","
","""event"",""trial"",""time""
""fullscreenenter"",""1"",""3994""
","
","","","","","","null","<div style=""font-size:60px;"">+</div>","null","","fixation","","","","","","","","","","",""
"aa-learning-trial","129","613501","0.0-9.0-2.0-1.28","6130","2","23","Male","approach_avoid_spark_v1","""event"",""trial"",""time""
""fullscreenenter"",""1"",""3994""
","
","
","""event"",""trial"",""time""
""fullscreenenter"",""1"",""3994""
","
","","","","","","589.6000000238419","images/bed4.png","","","learning","-5","-5","1","1","bed","furniture","2","0","","good","[6]"
"html-keyboard-response","130","614006","0.0-9.0-2.0-0.29","6130","2","23","Male","approach_avoid_spark_v1","""event"",""trial"",""time""
""fullscreenenter"",""1"",""3994""
","
","
","""event"",""trial"",""time""
""fullscreenenter"",""1"",""3994""
","
","","","","","","null","<div style=""font-size:60px;"">+</div>","null","","fixation","","","","","","","","","","",""
"aa-learning-trial","131","617013","0.0-9.0-2.0-1.29","6130","2","23","Male","approach_avoid_spark_v1","""event"",""trial"",""time""
""fullscreenenter"",""1"",""3994""
","
","
","""event"",""trial"",""time""
""fullscreenenter"",""1"",""3994""
","
","","","","","","806.3000000119209","images/chair7.png","","","learning","5","5","1","1","chair","furniture","2","0","","bad","[-6]"
"html-keyboard-response","132","617518","0.0-9.0-2.0-0.30","6130","2","23","Male","approach_avoid_spark_v1","""event"",""trial"",""time""
""fullscreenenter"",""1"",""3994""
","
","
","""event"",""trial"",""time""
""fullscreenenter"",""1"",""3994""
","
","","","","","","null","<div style=""font-size:60px;"">+</div>","null","","fixation","","","","","","","","","","",""
"aa-learning-trial","133","620526","0.0-9.0-2.0-1.30","6130","2","23","Male","approach_avoid_spark_v1","""event"",""trial"",""time""
""fullscreenenter"",""1"",""3994""
","
","
","""event"",""trial"",""time""
""fullscreenenter"",""1"",""3994""
","
","","","","","","557.7000000178814","images/bed3.png","","","learning","4","4","1","1","bed","furniture","2","0","","good","[6]"
"html-keyboard-response","134","621035","0.0-9.0-2.0-0.31","6130","2","23","Male","approach_avoid_spark_v1","""event"",""trial"",""time""
""fullscreenenter"",""1"",""3994""
","
","
","""event"",""trial"",""time""
""fullscreenenter"",""1"",""3994""
","
","","","","","","null","<div style=""font-size:60px;"">+</div>","null","","fixation","","","","","","","","","","",""
"aa-learning-trial","135","624044","0.0-9.0-2.0-1.31","6130","2","23","Male","approach_avoid_spark_v1","""event"",""trial"",""time""
""fullscreenenter"",""1"",""3994""
","
","
","""event"",""trial"",""time""
""fullscreenenter"",""1"",""3994""
","
","","","","","","976.7999999821186","images/chair8.png","","","learning","-9","0","0","0","chair","furniture","2","0","","bad","[-6]"
"html-keyboard-response","136","624548","0.0-9.0-2.0-0.32","6130","2","23","Male","approach_avoid_spark_v1","""event"",""trial"",""time""
""fullscreenenter"",""1"",""3994""
","
","
","""event"",""trial"",""time""
""fullscreenenter"",""1"",""3994""
","
","","","","","","null","<div style=""font-size:60px;"">+</div>","null","","fixation","","","","","","","","","","",""
"aa-learning-trial","137","627556","0.0-9.0-2.0-1.32","6130","2","23","Male","approach_avoid_spark_v1","""event"",""trial"",""time""
""fullscreenenter"",""1"",""3994""
","
","
","""event"",""trial"",""time""
""fullscreenenter"",""1"",""3994""
","
","","","","","","565.5","images/bed2.png","","","learning","-7","-7","1","1","bed","furniture","2","0","","good","[6]"
"html-keyboard-response","138","628060","0.0-9.0-2.0-0.33","6130","2","23","Male","approach_avoid_spark_v1","""event"",""trial"",""time""
""fullscreenenter"",""1"",""3994""
","
","
","""event"",""trial"",""time""
""fullscreenenter"",""1"",""3994""
","
","","","","","","null","<div style=""font-size:60px;"">+</div>","null","","fixation","","","","","","","","","","",""
"aa-learning-trial","139","631073","0.0-9.0-2.0-1.33","6130","2","23","Male","approach_avoid_spark_v1","""event"",""trial"",""time""
""fullscreenenter"",""1"",""3994""
","
","
","""event"",""trial"",""time""
""fullscreenenter"",""1"",""3994""
","
","","","","","","814.2999999821186","images/chair8.png","","","learning","-9","0","0","0","chair","furniture","2","0","","bad","[-6]"
"html-keyboard-response","140","631583","0.0-9.0-2.0-0.34","6130","2","23","Male","approach_avoid_spark_v1","""event"",""trial"",""time""
""fullscreenenter"",""1"",""3994""
","
","
","""event"",""trial"",""time""
""fullscreenenter"",""1"",""3994""
","
","","","","","","null","<div style=""font-size:60px;"">+</div>","null","","fixation","","","","","","","","","","",""
"aa-learning-trial","141","634588","0.0-9.0-2.0-1.34","6130","2","23","Male","approach_avoid_spark_v1","""event"",""trial"",""time""
""fullscreenenter"",""1"",""3994""
","
","
","""event"",""trial"",""time""
""fullscreenenter"",""1"",""3994""
","
","","","","","","554.2999999821186","images/bed8.png","","","learning","1","1","1","1","bed","furniture","2","0","","good","[6]"
"html-keyboard-response","142","635096","0.0-9.0-2.0-0.35","6130","2","23","Male","approach_avoid_spark_v1","""event"",""trial"",""time""
""fullscreenenter"",""1"",""3994""
","
","
","""event"",""trial"",""time""
""fullscreenenter"",""1"",""3994""
","
","","","","","","null","<div style=""font-size:60px;"">+</div>","null","","fixation","","","","","","","","","","",""
"aa-learning-trial","143","638103","0.0-9.0-2.0-1.35","6130","2","23","Male","approach_avoid_spark_v1","""event"",""trial"",""time""
""fullscreenenter"",""1"",""3994""
","
","
","""event"",""trial"",""time""
""fullscreenenter"",""1"",""3994""
","
","","","","","","714.9000000059605","images/table5.png","","","learning","2","2","1","1","table","furniture","2","0","","neutral","0"
"html-keyboard-response","144","638613","0.0-9.0-2.0-0.36","6130","2","23","Male","approach_avoid_spark_v1","""event"",""trial"",""time""
""fullscreenenter"",""1"",""3994""
","
","
","""event"",""trial"",""time""
""fullscreenenter"",""1"",""3994""
","
","","","","","","null","<div style=""font-size:60px;"">+</div>","null","","fixation","","","","","","","","","","",""
"aa-learning-trial","145","641620","0.0-9.0-2.0-1.36","6130","2","23","Male","approach_avoid_spark_v1","""event"",""trial"",""time""
""fullscreenenter"",""1"",""3994""
","
","
","""event"",""trial"",""time""
""fullscreenenter"",""1"",""3994""
","
","","","","","","901.0999999940395","images/table4.png","","","learning","3","3","1","1","table","furniture","2","0","","neutral","0"
"html-keyboard-response","146","642126","0.0-9.0-2.0-0.37","6130","2","23","Male","approach_avoid_spark_v1","""event"",""trial"",""time""
""fullscreenenter"",""1"",""3994""
","
","
","""event"",""trial"",""time""
""fullscreenenter"",""1"",""3994""
","
","","","","","","null","<div style=""font-size:60px;"">+</div>","null","","fixation","","","","","","","","","","",""
"aa-learning-trial","147","645133","0.0-9.0-2.0-1.37","6130","2","23","Male","approach_avoid_spark_v1","""event"",""trial"",""time""
""fullscreenenter"",""1"",""3994""
","
","
","""event"",""trial"",""time""
""fullscreenenter"",""1"",""3994""
","
","","","","","","674.5999999940395","images/chair8.png","","","learning","-9","0","0","0","chair","furniture","2","0","","bad","[-6]"
"html-keyboard-response","148","645638","0.0-9.0-2.0-0.38","6130","2","23","Male","approach_avoid_spark_v1","""event"",""trial"",""time""
""fullscreenenter"",""1"",""3994""
","
","
","""event"",""trial"",""time""
""fullscreenenter"",""1"",""3994""
","
","","","","","","null","<div style=""font-size:60px;"">+</div>","null","","fixation","","","","","","","","","","",""
"aa-learning-trial","149","648645","0.0-9.0-2.0-1.38","6130","2","23","Male","approach_avoid_spark_v1","""event"",""trial"",""time""
""fullscreenenter"",""1"",""3994""
","
","
","""event"",""trial"",""time""
""fullscreenenter"",""1"",""3994""
","
","","","","","","683.5","images/table8.png","","","learning","-6","0","0","0","table","furniture","2","0","","neutral","0"
"html-keyboard-response","150","649150","0.0-9.0-2.0-0.39","6130","2","23","Male","approach_avoid_spark_v1","""event"",""trial"",""time""
""fullscreenenter"",""1"",""3994""
","
","
","""event"",""trial"",""time""
""fullscreenenter"",""1"",""3994""
","
","","","","","","null","<div style=""font-size:60px;"">+</div>","null","","fixation","","","","","","","","","","",""
"aa-learning-trial","151","652157","0.0-9.0-2.0-1.39","6130","2","23","Male","approach_avoid_spark_v1","""event"",""trial"",""time""
""fullscreenenter"",""1"",""3994""
","
","
","""event"",""trial"",""time""
""fullscreenenter"",""1"",""3994""
","
","","","","","","724","images/table5.png","","","learning","2","2","1","1","table","furniture","2","0","","neutral","0"
"html-keyboard-response","152","652662","0.0-9.0-2.0-0.40","6130","2","23","Male","approach_avoid_spark_v1","""event"",""trial"",""time""
""fullscreenenter"",""1"",""3994""
","
","
","""event"",""trial"",""time""
""fullscreenenter"",""1"",""3994""
","
","","","","","","null","<div style=""font-size:60px;"">+</div>","null","","fixation","","","","","","","","","","",""
"aa-learning-trial","153","655668","0.0-9.0-2.0-1.40","6130","2","23","Male","approach_avoid_spark_v1","""event"",""trial"",""time""
""fullscreenenter"",""1"",""3994""
","
","
","""event"",""trial"",""time""
""fullscreenenter"",""1"",""3994""
","
","","","","","","717.9000000059605","images/bed7.png","","","learning","9","9","1","1","bed","furniture","2","0","","good","[6]"
"html-keyboard-response","154","656174","0.0-9.0-2.0-0.41","6130","2","23","Male","approach_avoid_spark_v1","""event"",""trial"",""time""
""fullscreenenter"",""1"",""3994""
","
","
","""event"",""trial"",""time""
""fullscreenenter"",""1"",""3994""
","
","","","","","","null","<div style=""font-size:60px;"">+</div>","null","","fixation","","","","","","","","","","",""
"aa-learning-trial","155","659181","0.0-9.0-2.0-1.41","6130","2","23","Male","approach_avoid_spark_v1","""event"",""trial"",""time""
""fullscreenenter"",""1"",""3994""
","
","
","""event"",""trial"",""time""
""fullscreenenter"",""1"",""3994""
","
","","","","","","903.5","images/table4.png","","","learning","3","3","1","1","table","furniture","2","0","","neutral","0"
"html-keyboard-response","156","659686","0.0-9.0-2.0-0.42","6130","2","23","Male","approach_avoid_spark_v1","""event"",""trial"",""time""
""fullscreenenter"",""1"",""3994""
","
","
","""event"",""trial"",""time""
""fullscreenenter"",""1"",""3994""
","
","","","","","","null","<div style=""font-size:60px;"">+</div>","null","","fixation","","","","","","","","","","",""
"aa-learning-trial","157","662693","0.0-9.0-2.0-1.42","6130","2","23","Male","approach_avoid_spark_v1","""event"",""trial"",""time""
""fullscreenenter"",""1"",""3994""
","
","
","""event"",""trial"",""time""
""fullscreenenter"",""1"",""3994""
","
","","","","","","966","images/chair5.png","","","learning","8","0","0","0","chair","furniture","2","0","","bad","[-6]"
"html-keyboard-response","158","663200","0.0-9.0-2.0-0.43","6130","2","23","Male","approach_avoid_spark_v1","""event"",""trial"",""time""
""fullscreenenter"",""1"",""3994""
","
","
","""event"",""trial"",""time""
""fullscreenenter"",""1"",""3994""
","
","","","","","","null","<div style=""font-size:60px;"">+</div>","null","","fixation","","","","","","","","","","",""
"aa-learning-trial","159","666205","0.0-9.0-2.0-1.43","6130","2","23","Male","approach_avoid_spark_v1","""event"",""trial"",""time""
""fullscreenenter"",""1"",""3994""
","
","
","""event"",""trial"",""time""
""fullscreenenter"",""1"",""3994""
","
","","","","","","523.5999999940395","images/bed7.png","","","learning","9","9","1","1","bed","furniture","2","0","","good","[6]"
"html-keyboard-response","160","666710","0.0-9.0-2.0-0.44","6130","2","23","Male","approach_avoid_spark_v1","""event"",""trial"",""time""
""fullscreenenter"",""1"",""3994""
","
","
","""event"",""trial"",""time""
""fullscreenenter"",""1"",""3994""
","
","","","","","","null","<div style=""font-size:60px;"">+</div>","null","","fixation","","","","","","","","","","",""
"aa-learning-trial","161","669718","0.0-9.0-2.0-1.44","6130","2","23","Male","approach_avoid_spark_v1","""event"",""trial"",""time""
""fullscreenenter"",""1"",""3994""
","
","
","""event"",""trial"",""time""
""fullscreenenter"",""1"",""3994""
","
","","","","","","748.5","images/table4.png","","","learning","3","3","1","1","table","furniture","2","0","","neutral","0"
"html-keyboard-response","162","670223","0.0-9.0-2.0-0.45","6130","2","23","Male","approach_avoid_spark_v1","""event"",""trial"",""time""
""fullscreenenter"",""1"",""3994""
","
","
","""event"",""trial"",""time""
""fullscreenenter"",""1"",""3994""
","
","","","","","","null","<div style=""font-size:60px;"">+</div>","null","","fixation","","","","","","","","","","",""
"aa-learning-trial","163","673231","0.0-9.0-2.0-1.45","6130","2","23","Male","approach_avoid_spark_v1","""event"",""trial"",""time""
""fullscreenenter"",""1"",""3994""
","
","
","""event"",""trial"",""time""
""fullscreenenter"",""1"",""3994""
","
","","","","","","606.8000000119209","images/table8.png","","","learning","-6","0","0","0","table","furniture","2","0","","neutral","0"
"html-keyboard-response","164","673736","0.0-9.0-2.0-0.46","6130","2","23","Male","approach_avoid_spark_v1","""event"",""trial"",""time""
""fullscreenenter"",""1"",""3994""
","
","
","""event"",""trial"",""time""
""fullscreenenter"",""1"",""3994""
","
","","","","","","null","<div style=""font-size:60px;"">+</div>","null","","fixation","","","","","","","","","","",""
"aa-learning-trial","165","676744","0.0-9.0-2.0-1.46","6130","2","23","Male","approach_avoid_spark_v1","""event"",""trial"",""time""
""fullscreenenter"",""1"",""3994""
","
","
","""event"",""trial"",""time""
""fullscreenenter"",""1"",""3994""
","
","","","","","","704","images/chair1.png","","","learning","-4","0","0","0","chair","furniture","2","0","","bad","[-6]"
"html-keyboard-response","166","677249","0.0-9.0-2.0-0.47","6130","2","23","Male","approach_avoid_spark_v1","""event"",""trial"",""time""
""fullscreenenter"",""1"",""3994""
","
","
","""event"",""trial"",""time""
""fullscreenenter"",""1"",""3994""
","
","","","","","","null","<div style=""font-size:60px;"">+</div>","null","","fixation","","","","","","","","","","",""
"aa-learning-trial","167","680257","0.0-9.0-2.0-1.47","6130","2","23","Male","approach_avoid_spark_v1","""event"",""trial"",""time""
""fullscreenenter"",""1"",""3994""
","
","
","""event"",""trial"",""time""
""fullscreenenter"",""1"",""3994""
","
","","","","","","547.7999999821186","images/bed3.png","","","learning","4","4","1","1","bed","furniture","2","0","","good","[6]"
"html-keyboard-response","168","680761","0.0-9.0-2.0-0.48","6130","2","23","Male","approach_avoid_spark_v1","""event"",""trial"",""time""
""fullscreenenter"",""1"",""3994""
","
","
","""event"",""trial"",""time""
""fullscreenenter"",""1"",""3994""
","
","","","","","","null","<div style=""font-size:60px;"">+</div>","null","","fixation","","","","","","","","","","",""
"aa-learning-trial","169","683769","0.0-9.0-2.0-1.48","6130","2","23","Male","approach_avoid_spark_v1","""event"",""trial"",""time""
""fullscreenenter"",""1"",""3994""
","
","
","""event"",""trial"",""time""
""fullscreenenter"",""1"",""3994""
","
","","","","","","501.40000000596046","images/bed8.png","","","learning","1","1","1","1","bed","furniture","2","0","","good","[6]"
"html-keyboard-response","170","684274","0.0-9.0-2.0-0.49","6130","2","23","Male","approach_avoid_spark_v1","""event"",""trial"",""time""
""fullscreenenter"",""1"",""3994""
","
","
","""event"",""trial"",""time""
""fullscreenenter"",""1"",""3994""
","
","","","","","","null","<div style=""font-size:60px;"">+</div>","null","","fixation","","","","","","","","","","",""
"aa-learning-trial","171","687282","0.0-9.0-2.0-1.49","6130","2","23","Male","approach_avoid_spark_v1","""event"",""trial"",""time""
""fullscreenenter"",""1"",""3994""
","
","
","""event"",""trial"",""time""
""fullscreenenter"",""1"",""3994""
","
","","","","","","541.5999999940395","images/bed3.png","","","learning","4","4","1","1","bed","furniture","2","0","","good","[6]"
"html-keyboard-response","172","687787","0.0-9.0-2.0-0.50","6130","2","23","Male","approach_avoid_spark_v1","""event"",""trial"",""time""
""fullscreenenter"",""1"",""3994""
","
","
","""event"",""trial"",""time""
""fullscreenenter"",""1"",""3994""
","
","","","","","","null","<div style=""font-size:60px;"">+</div>","null","","fixation","","","","","","","","","","",""
"aa-learning-trial","173","690794","0.0-9.0-2.0-1.50","6130","2","23","Male","approach_avoid_spark_v1","""event"",""trial"",""time""
""fullscreenenter"",""1"",""3994""
","
","
","""event"",""trial"",""time""
""fullscreenenter"",""1"",""3994""
","
","","","","","","715.3000000119209","images/chair7.png","","","learning","5","5","1","1","chair","furniture","2","0","","bad","[-6]"
"html-button-response","174","693420","0.0-9.0-3.0","6130","2","23","Male","approach_avoid_spark_v1","""event"",""trial"",""time""
""fullscreenenter"",""1"",""3994""
","
","
","""event"",""trial"",""time""
""fullscreenenter"",""1"",""3994""
","
","","","","","","2624.0999999940395","<p> You have completed the round! <p> In this round, you earned 54 points! </p>","0","","break","","","","","","","","","","",""
"html-button-response","175","694446","0.0-10.0","6130","2","23","Male","approach_avoid_spark_v1","""event"",""trial"",""time""
""fullscreenenter"",""1"",""3994""
","
","
","""event"",""trial"",""time""
""fullscreenenter"",""1"",""3994""
","
","","","","","","1024.2999999821186","<p> Now it's time to play another round. </p>","0","","transition_screen","","","","","","","","","","",""
"preload","176","694566","0.0-11.0-0.0","6130","2","23","Male","approach_avoid_spark_v1","""event"",""trial"",""time""
""fullscreenenter"",""1"",""3994""
","
","
","""event"",""trial"",""time""
""fullscreenenter"",""1"",""3994""
","
","true","false","[]","[]","[]","","","","","","","","","","","","","","","",""
"learning-instructions","177","702062","0.0-11.0-1.0-0.0","6130","2","23","Male","approach_avoid_spark_v1","""event"",""trial"",""time""
""fullscreenenter"",""1"",""3994""
","
","
","""event"",""trial"",""time""
""fullscreenenter"",""1"",""3994""
","
","","","","","","421.30000001192093","<p> Your goal in this round is to take your friend for rides in different vehicles. </p></div>","","0","instructions","","","","","","","","","","",""
"learning-instructions","178","713112","0.0-11.0-1.0-0.1","6130","2","23","Male","approach_avoid_spark_v1","""event"",""trial"",""time""
""fullscreenenter"",""1"",""3994""
","
","
","""event"",""trial"",""time""
""fullscreenenter"",""1"",""3994""
","
","","","","","","75.69999998807907","<p> Your friend enjoys riding in some vehicles but not in others.  </p><p> On each turn, you will see a vehicle.   </p><p> You need to decide whether to take your friend for a ride or not.  </p>","","0","instructions","","","","","","","","","","",""
"learning-instructions","179","722123","0.0-11.0-1.0-0.2","6130","2","23","Male","approach_avoid_spark_v1","""event"",""trial"",""time""
""fullscreenenter"",""1"",""3994""
","
","
","""event"",""trial"",""time""
""fullscreenenter"",""1"",""3994""
","
","","","","","","314.30000001192093","<p> You can take your friend for a ride in the vehicle by pressing 1 and skip the ride by pressing 0. </p><br><div class=""choice-instructions-grid""> <div class=""choice-option""><img src=""images/approach.png"" class=""choice-option-img"" stage=""instructions"" position=""0"" ><div class=""choice-option-text""> Press ""1."" </div></div><div class=""choice-option""><img src=""images/avoid.png"" class=""choice-option-img"" stage=""instructions"" position=""1"" ><div class=""choice-option-text""> Press ""0."" </div></div>","","0","instructions","","","","","","","","","","",""
"learning-instructions","180","733181","0.0-11.0-1.0-0.3","6130","2","23","Male","approach_avoid_spark_v1","""event"",""trial"",""time""
""fullscreenenter"",""1"",""3994""
","
","
","""event"",""trial"",""time""
""fullscreenenter"",""1"",""3994""
","
","","","","","","315.39999997615814","<p> If you take them for a ride in a vehicle they like, they will be thrilled! </p><p> But if you take them for a ride in a vehicle they do not like, they will be upset. </p>","","0","instructions","","","","","","","","","","",""
"learning-instructions","181","747141","0.0-11.0-1.0-0.4","6130","2","23","Male","approach_avoid_spark_v1","""event"",""trial"",""time""
""fullscreenenter"",""1"",""3994""
","
","
","""event"",""trial"",""time""
""fullscreenenter"",""1"",""3994""
","
","","","","","","337.5","<p> You will earn points based on how you made your friend feel. </p><p> If you made him thrilled, you will WIN anywhere from 1 - 9 points, </p><p> but if you made him upset, you will LOSE anywhere from 1 - 9 points. </p>","","0","instructions","","","","","","","","","","",""
"learning-instructions","182","754197","0.0-11.0-1.0-0.5","6130","2","23","Male","approach_avoid_spark_v1","""event"",""trial"",""time""
""fullscreenenter"",""1"",""3994""
","
","
","""event"",""trial"",""time""
""fullscreenenter"",""1"",""3994""
","
","","","","","","403.7000000178814","<p> You will see how many points you won or lost in the center of the screen. </p><p> Here is what you would see if you won 5 points: </p><p style=""color:green;font-size:50px;font-weight:bolder"">5</p>","","0","instructions","","","","","","","","","","",""
"learning-instructions","183","757335","0.0-11.0-1.0-0.6","6130","2","23","Male","approach_avoid_spark_v1","""event"",""trial"",""time""
""fullscreenenter"",""1"",""3994""
","
","
","""event"",""trial"",""time""
""fullscreenenter"",""1"",""3994""
","
","","","","","","303","<p> And here is what you would see if you lost 3 points: </p><p style=""color:red;font-size:50px;font-weight:bolder"">-3</p>","","0","instructions","","","","","","","","","","",""
"learning-instructions","184","774121","0.0-11.0-1.0-0.7","6130","2","23","Male","approach_avoid_spark_v1","""event"",""trial"",""time""
""fullscreenenter"",""1"",""3994""
","
","
","""event"",""trial"",""time""
""fullscreenenter"",""1"",""3994""
","
","","","","","","387.39999997615814","<p> Some vehicles will make your friend REALLY thrilled or upset. </p><p> These vehicles will make you win or lose LOTS of points. </p><p> Other vehicles will only make him feel a little thrilled or upset. </p><p> These vehicles will make you win or lose small amounts of points. </p>","","0","instructions","","","","","","","","","","",""
"learning-instructions","185","788161","0.0-11.0-1.0-0.8","6130","2","23","Male","approach_avoid_spark_v1","""event"",""trial"",""time""
""fullscreenenter"",""1"",""3994""
","
","
","""event"",""trial"",""time""
""fullscreenenter"",""1"",""3994""
","
","","","","","","390.69999998807907","<p> If you choose to skip the ride, you will not win or lose any points. </p><p>  However, in the center of the screen, you will see the number of points you WOULD HAVE won or lost if you had taken your friend for a ride. </p>","","0","instructions","","","","","","","","","","",""
"learning-instructions","186","801233","0.0-11.0-1.0-0.9","6130","2","23","Male","approach_avoid_spark_v1","""event"",""trial"",""time""
""fullscreenenter"",""1"",""3994""
","
","
","""event"",""trial"",""time""
""fullscreenenter"",""1"",""3994""
","
","","","","","","314.90000000596046","<p> Here is what you might see if you did not take your friend for a ride but he would have enjoyed it: </p><p style=""color:grey; font-size:50px; display: inline-block; border-spacing: 15px; border-width:3px; border-style:solid; border-color:red"">  &nbsp; 6 &nbsp; </p><p> Remember, in this case, you would not win or lose ANY points because you skipped the ride.  </p>","","0","instructions","","","","","","","","","","",""
"learning-instructions","187","811313","0.0-11.0-1.0-0.10","6130","2","23","Male","approach_avoid_spark_v1","""event"",""trial"",""time""
""fullscreenenter"",""1"",""3994""
","
","
","""event"",""trial"",""time""
""fullscreenenter"",""1"",""3994""
","
","","","","","","357.80000001192093","<p> Try to make the best choice for each vehicle because </p><p> at the end of the game, you will earn bonus money based on how many points you earned. </p>","","0","instructions","","","","","","","","","","",""
"learning-instructions","188","819807","0.0-11.0-1.0-0.11","6130","2","23","Male","approach_avoid_spark_v1","""event"",""trial"",""time""
""fullscreenenter"",""1"",""3994""
","
","
","""event"",""trial"",""time""
""fullscreenenter"",""1"",""3994""
","
","","","","","","313","<p> You will have 3 seconds to make each choice. Try to respond before time runs out! </p><p> You will lose 5 points each time you do not make a response. </p>","","0","instructions","","","","","","","","","","",""
"html-keyboard-response","189","820424","0.0-11.0-2.0-0.0","6130","2","23","Male","approach_avoid_spark_v1","""event"",""trial"",""time""
""fullscreenenter"",""1"",""3994""
","
","
","""event"",""trial"",""time""
""fullscreenenter"",""1"",""3994""
","
","","","","","","null","<div style=""font-size:60px;"">+</div>","null","","fixation","","","","","","","","","","",""
"aa-learning-trial","190","823433","0.0-11.0-2.0-1.0","6130","2","23","Male","approach_avoid_spark_v1","""event"",""trial"",""time""
""fullscreenenter"",""1"",""3994""
","
","
","""event"",""trial"",""time""
""fullscreenenter"",""1"",""3994""
","
","","","","","","971.9000000059605","images/plane2.png","","","learning","2","2","1","1","plane","vehicles","1","1","","neutral","0"
"html-keyboard-response","191","823943","0.0-11.0-2.0-0.1","6130","2","23","Male","approach_avoid_spark_v1","""event"",""trial"",""time""
""fullscreenenter"",""1"",""3994""
","
","
","""event"",""trial"",""time""
""fullscreenenter"",""1"",""3994""
","
","","","","","","null","<div style=""font-size:60px;"">+</div>","null","","fixation","","","","","","","","","","",""
"aa-learning-trial","192","826954","0.0-11.0-2.0-1.1","6130","2","23","Male","approach_avoid_spark_v1","""event"",""trial"",""time""
""fullscreenenter"",""1"",""3994""
","
","
","""event"",""trial"",""time""
""fullscreenenter"",""1"",""3994""
","
","","","","","","732.5","images/plane2.png","","","learning","1","1","1","1","plane","vehicles","1","1","","neutral","0"
"html-keyboard-response","193","827464","0.0-11.0-2.0-0.2","6130","2","23","Male","approach_avoid_spark_v1","""event"",""trial"",""time""
""fullscreenenter"",""1"",""3994""
","
","
","""event"",""trial"",""time""
""fullscreenenter"",""1"",""3994""
","
","","","","","","null","<div style=""font-size:60px;"">+</div>","null","","fixation","","","","","","","","","","",""
"aa-learning-trial","194","830470","0.0-11.0-2.0-1.2","6130","2","23","Male","approach_avoid_spark_v1","""event"",""trial"",""time""
""fullscreenenter"",""1"",""3994""
","
","
","""event"",""trial"",""time""
""fullscreenenter"",""1"",""3994""
","
","","","","","","564.4000000059605","images/plane5.png","","","learning","-2","-2","1","1","plane","vehicles","1","1","","neutral","0"
"html-keyboard-response","195","830977","0.0-11.0-2.0-0.3","6130","2","23","Male","approach_avoid_spark_v1","""event"",""trial"",""time""
""fullscreenenter"",""1"",""3994""
","
","
","""event"",""trial"",""time""
""fullscreenenter"",""1"",""3994""
","
","","","","","","null","<div style=""font-size:60px;"">+</div>","null","","fixation","","","","","","","","","","",""
"aa-learning-trial","196","833983","0.0-11.0-2.0-1.3","6130","2","23","Male","approach_avoid_spark_v1","""event"",""trial"",""time""
""fullscreenenter"",""1"",""3994""
","
","
","""event"",""trial"",""time""
""fullscreenenter"",""1"",""3994""
","
","","","","","","577.6999999880791","images/boat4.png","","","learning","6","6","1","1","boat","vehicles","1","1","","good","[4]"
"html-keyboard-response","197","834487","0.0-11.0-2.0-0.4","6130","2","23","Male","approach_avoid_spark_v1","""event"",""trial"",""time""
""fullscreenenter"",""1"",""3994""
","
","
","""event"",""trial"",""time""
""fullscreenenter"",""1"",""3994""
","
","","","","","","null","<div style=""font-size:60px;"">+</div>","null","","fixation","","","","","","","","","","",""
"aa-learning-trial","198","837495","0.0-11.0-2.0-1.4","6130","2","23","Male","approach_avoid_spark_v1","""event"",""trial"",""time""
""fullscreenenter"",""1"",""3994""
","
","
","""event"",""trial"",""time""
""fullscreenenter"",""1"",""3994""
","
","","","","","","516.1999999880791","images/boat4.png","","","learning","4","4","1","1","boat","vehicles","1","1","","good","[4]"
"html-keyboard-response","199","837998","0.0-11.0-2.0-0.5","6130","2","23","Male","approach_avoid_spark_v1","""event"",""trial"",""time""
""fullscreenenter"",""1"",""3994""
","
","
","""event"",""trial"",""time""
""fullscreenenter"",""1"",""3994""
","
","","","","","","null","<div style=""font-size:60px;"">+</div>","null","","fixation","","","","","","","","","","",""
"aa-learning-trial","200","841011","0.0-11.0-2.0-1.5","6130","2","23","Male","approach_avoid_spark_v1","""event"",""trial"",""time""
""fullscreenenter"",""1"",""3994""
","
","
","""event"",""trial"",""time""
""fullscreenenter"",""1"",""3994""
","
","","","","","","614.3999999761581","images/plane8.png","","","learning","-2","-2","1","1","plane","vehicles","1","1","","neutral","0"
"html-keyboard-response","201","841515","0.0-11.0-2.0-0.6","6130","2","23","Male","approach_avoid_spark_v1","""event"",""trial"",""time""
""fullscreenenter"",""1"",""3994""
","
","
","""event"",""trial"",""time""
""fullscreenenter"",""1"",""3994""
","
","","","","","","null","<div style=""font-size:60px;"">+</div>","null","","fixation","","","","","","","","","","",""
"aa-learning-trial","202","844523","0.0-11.0-2.0-1.6","6130","2","23","Male","approach_avoid_spark_v1","""event"",""trial"",""time""
""fullscreenenter"",""1"",""3994""
","
","
","""event"",""trial"",""time""
""fullscreenenter"",""1"",""3994""
","
","","","","","","610.6999999880791","images/train4.png","","","learning","-5","-5","1","1","train","vehicles","1","1","","bad","[-5]"
"html-keyboard-response","203","845026","0.0-11.0-2.0-0.7","6130","2","23","Male","approach_avoid_spark_v1","""event"",""trial"",""time""
""fullscreenenter"",""1"",""3994""
","
","
","""event"",""trial"",""time""
""fullscreenenter"",""1"",""3994""
","
","","","","","","null","<div style=""font-size:60px;"">+</div>","null","","fixation","","","","","","","","","","",""
"aa-learning-trial","204","848032","0.0-11.0-2.0-1.7","6130","2","23","Male","approach_avoid_spark_v1","""event"",""trial"",""time""
""fullscreenenter"",""1"",""3994""
","
","
","""event"",""trial"",""time""
""fullscreenenter"",""1"",""3994""
","
","","","","","","1027.300000011921","images/train5.png","","","learning","-6","-6","1","1","train","vehicles","1","1","","bad","[-5]"
"html-keyboard-response","205","848537","0.0-11.0-2.0-0.8","6130","2","23","Male","approach_avoid_spark_v1","""event"",""trial"",""time""
""fullscreenenter"",""1"",""3994""
","
","
","""event"",""trial"",""time""
""fullscreenenter"",""1"",""3994""
","
","","","","","","null","<div style=""font-size:60px;"">+</div>","null","","fixation","","","","","","","","","","",""
"aa-learning-trial","206","851543","0.0-11.0-2.0-1.8","6130","2","23","Male","approach_avoid_spark_v1","""event"",""trial"",""time""
""fullscreenenter"",""1"",""3994""
","
","
","""event"",""trial"",""time""
""fullscreenenter"",""1"",""3994""
","
","","","","","","684.0999999940395","images/boat8.png","","","learning","3","3","1","1","boat","vehicles","1","1","","good","[4]"
"html-keyboard-response","207","852047","0.0-11.0-2.0-0.9","6130","2","23","Male","approach_avoid_spark_v1","""event"",""trial"",""time""
""fullscreenenter"",""1"",""3994""
","
","
","""event"",""trial"",""time""
""fullscreenenter"",""1"",""3994""
","
","","","","","","null","<div style=""font-size:60px;"">+</div>","null","","fixation","","","","","","","","","","",""
"aa-learning-trial","208","855055","0.0-11.0-2.0-1.9","6130","2","23","Male","approach_avoid_spark_v1","""event"",""trial"",""time""
""fullscreenenter"",""1"",""3994""
","
","
","""event"",""trial"",""time""
""fullscreenenter"",""1"",""3994""
","
","","","","","","534.2000000178814","images/train4.png","","","learning","-6","0","0","0","train","vehicles","1","1","","bad","[-5]"
"html-keyboard-response","209","855560","0.0-11.0-2.0-0.10","6130","2","23","Male","approach_avoid_spark_v1","""event"",""trial"",""time""
""fullscreenenter"",""1"",""3994""
","
","
","""event"",""trial"",""time""
""fullscreenenter"",""1"",""3994""
","
","","","","","","null","<div style=""font-size:60px;"">+</div>","null","","fixation","","","","","","","","","","",""
"aa-learning-trial","210","858567","0.0-11.0-2.0-1.10","6130","2","23","Male","approach_avoid_spark_v1","""event"",""trial"",""time""
""fullscreenenter"",""1"",""3994""
","
","
","""event"",""trial"",""time""
""fullscreenenter"",""1"",""3994""
","
","","","","","","620.4000000059605","images/plane8.png","","","learning","1","1","1","1","plane","vehicles","1","1","","neutral","0"
"html-keyboard-response","211","859072","0.0-11.0-2.0-0.11","6130","2","23","Male","approach_avoid_spark_v1","""event"",""trial"",""time""
""fullscreenenter"",""1"",""3994""
","
","
","""event"",""trial"",""time""
""fullscreenenter"",""1"",""3994""
","
","","","","","","null","<div style=""font-size:60px;"">+</div>","null","","fixation","","","","","","","","","","",""
"aa-learning-trial","212","862079","0.0-11.0-2.0-1.11","6130","2","23","Male","approach_avoid_spark_v1","""event"",""trial"",""time""
""fullscreenenter"",""1"",""3994""
","
","
","""event"",""trial"",""time""
""fullscreenenter"",""1"",""3994""
","
","","","","","","736.6999999880791","images/boat7.png","","","learning","5","5","1","1","boat","vehicles","1","1","","good","[4]"
"html-keyboard-response","213","862584","0.0-11.0-2.0-0.12","6130","2","23","Male","approach_avoid_spark_v1","""event"",""trial"",""time""
""fullscreenenter"",""1"",""3994""
","
","
","""event"",""trial"",""time""
""fullscreenenter"",""1"",""3994""
","
","","","","","","null","<div style=""font-size:60px;"">+</div>","null","","fixation","","","","","","","","","","",""
"aa-learning-trial","214","865592","0.0-11.0-2.0-1.12","6130","2","23","Male","approach_avoid_spark_v1","""event"",""trial"",""time""
""fullscreenenter"",""1"",""3994""
","
","
","""event"",""trial"",""time""
""fullscreenenter"",""1"",""3994""
","
","","","","","","715.6999999880791","images/boat8.png","","","learning","1","1","1","1","boat","vehicles","1","1","","good","[4]"
"html-keyboard-response","215","866096","0.0-11.0-2.0-0.13","6130","2","23","Male","approach_avoid_spark_v1","""event"",""trial"",""time""
""fullscreenenter"",""1"",""3994""
","
","
","""event"",""trial"",""time""
""fullscreenenter"",""1"",""3994""
","
","","","","","","null","<div style=""font-size:60px;"">+</div>","null","","fixation","","","","","","","","","","",""
"aa-learning-trial","216","869104","0.0-11.0-2.0-1.13","6130","2","23","Male","approach_avoid_spark_v1","""event"",""trial"",""time""
""fullscreenenter"",""1"",""3994""
","
","
","""event"",""trial"",""time""
""fullscreenenter"",""1"",""3994""
","
","","","","","","524.6999999880791","images/train7.png","","","learning","-4","0","0","0","train","vehicles","1","1","","bad","[-5]"
"html-keyboard-response","217","869609","0.0-11.0-2.0-0.14","6130","2","23","Male","approach_avoid_spark_v1","""event"",""trial"",""time""
""fullscreenenter"",""1"",""3994""
","
","
","""event"",""trial"",""time""
""fullscreenenter"",""1"",""3994""
","
","","","","","","null","<div style=""font-size:60px;"">+</div>","null","","fixation","","","","","","","","","","",""
"aa-learning-trial","218","872616","0.0-11.0-2.0-1.14","6130","2","23","Male","approach_avoid_spark_v1","""event"",""trial"",""time""
""fullscreenenter"",""1"",""3994""
","
","
","""event"",""trial"",""time""
""fullscreenenter"",""1"",""3994""
","
","","","","","","603.6999999880791","images/train5.png","","","learning","-3","0","0","0","train","vehicles","1","1","","bad","[-5]"
"html-keyboard-response","219","873121","0.0-11.0-2.0-0.15","6130","2","23","Male","approach_avoid_spark_v1","""event"",""trial"",""time""
""fullscreenenter"",""1"",""3994""
","
","
","""event"",""trial"",""time""
""fullscreenenter"",""1"",""3994""
","
","","","","","","null","<div style=""font-size:60px;"">+</div>","null","","fixation","","","","","","","","","","",""
"aa-learning-trial","220","876128","0.0-11.0-2.0-1.15","6130","2","23","Male","approach_avoid_spark_v1","""event"",""trial"",""time""
""fullscreenenter"",""1"",""3994""
","
","
","""event"",""trial"",""time""
""fullscreenenter"",""1"",""3994""
","
","","","","","","740","images/plane2.png","","","learning","1","1","1","1","plane","vehicles","1","1","","neutral","0"
"html-keyboard-response","221","876633","0.0-11.0-2.0-0.16","6130","2","23","Male","approach_avoid_spark_v1","""event"",""trial"",""time""
""fullscreenenter"",""1"",""3994""
","
","
","""event"",""trial"",""time""
""fullscreenenter"",""1"",""3994""
","
","","","","","","null","<div style=""font-size:60px;"">+</div>","null","","fixation","","","","","","","","","","",""
"aa-learning-trial","222","879640","0.0-11.0-2.0-1.16","6130","2","23","Male","approach_avoid_spark_v1","""event"",""trial"",""time""
""fullscreenenter"",""1"",""3994""
","
","
","""event"",""trial"",""time""
""fullscreenenter"",""1"",""3994""
","
","","","","","","572.5999999940395","images/train5.png","","","learning","-5","0","0","0","train","vehicles","1","1","","bad","[-5]"
"html-keyboard-response","223","880145","0.0-11.0-2.0-0.17","6130","2","23","Male","approach_avoid_spark_v1","""event"",""trial"",""time""
""fullscreenenter"",""1"",""3994""
","
","
","""event"",""trial"",""time""
""fullscreenenter"",""1"",""3994""
","
","","","","","","null","<div style=""font-size:60px;"">+</div>","null","","fixation","","","","","","","","","","",""
"aa-learning-trial","224","883152","0.0-11.0-2.0-1.17","6130","2","23","Male","approach_avoid_spark_v1","""event"",""trial"",""time""
""fullscreenenter"",""1"",""3994""
","
","
","""event"",""trial"",""time""
""fullscreenenter"",""1"",""3994""
","
","","","","","","540.3000000119209","images/train5.png","","","learning","-5","0","0","0","train","vehicles","1","1","","bad","[-5]"
"html-keyboard-response","225","883657","0.0-11.0-2.0-0.18","6130","2","23","Male","approach_avoid_spark_v1","""event"",""trial"",""time""
""fullscreenenter"",""1"",""3994""
","
","
","""event"",""trial"",""time""
""fullscreenenter"",""1"",""3994""
","
","","","","","","null","<div style=""font-size:60px;"">+</div>","null","","fixation","","","","","","","","","","",""
"aa-learning-trial","226","886664","0.0-11.0-2.0-1.18","6130","2","23","Male","approach_avoid_spark_v1","""event"",""trial"",""time""
""fullscreenenter"",""1"",""3994""
","
","
","""event"",""trial"",""time""
""fullscreenenter"",""1"",""3994""
","
","","","","","","494.09999999403954","images/train5.png","","","learning","-7","0","0","0","train","vehicles","1","1","","bad","[-5]"
"html-keyboard-response","227","887169","0.0-11.0-2.0-0.19","6130","2","23","Male","approach_avoid_spark_v1","""event"",""trial"",""time""
""fullscreenenter"",""1"",""3994""
","
","
","""event"",""trial"",""time""
""fullscreenenter"",""1"",""3994""
","
","","","","","","null","<div style=""font-size:60px;"">+</div>","null","","fixation","","","","","","","","","","",""
"aa-learning-trial","228","890176","0.0-11.0-2.0-1.19","6130","2","23","Male","approach_avoid_spark_v1","""event"",""trial"",""time""
""fullscreenenter"",""1"",""3994""
","
","
","""event"",""trial"",""time""
""fullscreenenter"",""1"",""3994""
","
","","","","","","611.8000000119209","images/plane3.png","","","learning","1","1","1","1","plane","vehicles","1","1","","neutral","0"
"html-keyboard-response","229","890681","0.0-11.0-2.0-0.20","6130","2","23","Male","approach_avoid_spark_v1","""event"",""trial"",""time""
""fullscreenenter"",""1"",""3994""
","
","
","""event"",""trial"",""time""
""fullscreenenter"",""1"",""3994""
","
","","","","","","null","<div style=""font-size:60px;"">+</div>","null","","fixation","","","","","","","","","","",""
"aa-learning-trial","230","893688","0.0-11.0-2.0-1.20","6130","2","23","Male","approach_avoid_spark_v1","""event"",""trial"",""time""
""fullscreenenter"",""1"",""3994""
","
","
","""event"",""trial"",""time""
""fullscreenenter"",""1"",""3994""
","
","","","","","","883.0999999940395","images/train6.png","","","learning","-6","0","0","0","train","vehicles","1","1","","bad","[-5]"
"html-keyboard-response","231","894193","0.0-11.0-2.0-0.21","6130","2","23","Male","approach_avoid_spark_v1","""event"",""trial"",""time""
""fullscreenenter"",""1"",""3994""
","
","
","""event"",""trial"",""time""
""fullscreenenter"",""1"",""3994""
","
","","","","","","null","<div style=""font-size:60px;"">+</div>","null","","fixation","","","","","","","","","","",""
"aa-learning-trial","232","897200","0.0-11.0-2.0-1.21","6130","2","23","Male","approach_avoid_spark_v1","""event"",""trial"",""time""
""fullscreenenter"",""1"",""3994""
","
","
","""event"",""trial"",""time""
""fullscreenenter"",""1"",""3994""
","
","","","","","","580.2999999821186","images/train4.png","","","learning","-6","0","0","0","train","vehicles","1","1","","bad","[-5]"
"html-keyboard-response","233","897705","0.0-11.0-2.0-0.22","6130","2","23","Male","approach_avoid_spark_v1","""event"",""trial"",""time""
""fullscreenenter"",""1"",""3994""
","
","
","""event"",""trial"",""time""
""fullscreenenter"",""1"",""3994""
","
","","","","","","null","<div style=""font-size:60px;"">+</div>","null","","fixation","","","","","","","","","","",""
"aa-learning-trial","234","900713","0.0-11.0-2.0-1.22","6130","2","23","Male","approach_avoid_spark_v1","""event"",""trial"",""time""
""fullscreenenter"",""1"",""3994""
","
","
","""event"",""trial"",""time""
""fullscreenenter"",""1"",""3994""
","
","","","","","","605.8000000119209","images/boat7.png","","","learning","3","3","1","1","boat","vehicles","1","1","","good","[4]"
"html-keyboard-response","235","901217","0.0-11.0-2.0-0.23","6130","2","23","Male","approach_avoid_spark_v1","""event"",""trial"",""time""
""fullscreenenter"",""1"",""3994""
","
","
","""event"",""trial"",""time""
""fullscreenenter"",""1"",""3994""
","
","","","","","","null","<div style=""font-size:60px;"">+</div>","null","","fixation","","","","","","","","","","",""
"aa-learning-trial","236","904224","0.0-11.0-2.0-1.23","6130","2","23","Male","approach_avoid_spark_v1","""event"",""trial"",""time""
""fullscreenenter"",""1"",""3994""
","
","
","""event"",""trial"",""time""
""fullscreenenter"",""1"",""3994""
","
","","","","","","563.1999999880791","images/train4.png","","","learning","-5","0","0","0","train","vehicles","1","1","","bad","[-5]"
