"trial_type","trial_index","time_elapsed","internal_node_id","subject_id","task_condition","age","gender","task_version","interactions","blur_events","focus_events","fullscreenenter_events","fullscreenexit_events","success","timeout","failed_images","failed_audio","failed_video","rt","stimulus","response","button_pressed","task_part","approach_reward","points","key_press","option_selected","stim_cat","task_block","block_condition","block_number","correct","cat_type","mean_cat_reward"
"pavlovia","0","27","0.0-0.0","4273","2","13","Female","approach_avoid_spark_v1","""event"",""trial"",""time""
""fullscreenenter"",""1"",""44198""
","
","
","""event"",""trial"",""time""
""fullscreenenter"",""1"",""44198""
","
","","","","","","","","","","","","","","","","","","","","",""
"fullscreen","1","44856","0.0-1.0","4273","2","13","Female","approach_avoid_spark_v1","""event"",""trial"",""time""
""fullscreenenter"",""1"",""44198""
","
","
","""event"",""trial"",""time""
""fullscreenenter"",""1"",""44198""
","
","true","","","","","","","","","","","","","","","","","","","",""
"preload","2","62071","0.0-2.0","4273","2","13","Female","approach_avoid_spark_v1","""event"",""trial"",""time""
""fullscreenenter"",""1"",""44198""
","
","
","""event"",""trial"",""time""
""fullscreenenter"",""1"",""44198""
","
","true","false","[]","[]","[]","","","","","","","","","","","","","","","",""
"audio-keyboard-response","3","81564","0.0-3.0","4273","2","13","Female","approach_avoid_spark_v1","""event"",""trial"",""time""
""fullscreenenter"",""1"",""44198""
","
","
","""event"",""trial"",""time""
""fullscreenenter"",""1"",""44198""
","
","","","","","","19490.666666666668","audio/beep_loop.wav"," ","","","","","","","","","","","","",""
"audio-button-response","4","83595","0.0-4.0","4273","2","13","Female","approach_avoid_spark_v1","""event"",""trial"",""time""
""fullscreenenter"",""1"",""44198""
","
","
","""event"",""trial"",""time""
""fullscreenenter"",""1"",""44198""
","
","","","","","","2019","audio/shark.wav","4","","","","","","","","","","","","",""
"audio-button-response","5","87607","0.0-5.0","4273","2","13","Female","approach_avoid_spark_v1","""event"",""trial"",""time""
""fullscreenenter"",""1"",""44198""
","
","
","""event"",""trial"",""time""
""fullscreenenter"",""1"",""44198""
","
","","","","","","2989","audio/turtle.wav","1","","","","","","","","","","","","",""
"preload","6","93015","0.0-6.0","4273","2","13","Female","approach_avoid_spark_v1","""event"",""trial"",""time""
""fullscreenenter"",""1"",""44198""
","
","
","""event"",""trial"",""time""
""fullscreenenter"",""1"",""44198""
","
","true","false","[]","[]","[]","","","","","","","","","","","","","","","",""
"html-keyboard-response","7","97591","0.0-7.0","4273","2","13","Female","approach_avoid_spark_v1","""event"",""trial"",""time""
""fullscreenenter"",""1"",""44198""
","
","
","""event"",""trial"",""time""
""fullscreenenter"",""1"",""44198""
","
","","","","","","4571.099999904633","Welcome to the experiment. Press any key to begin and to advance the instructions."," ","","","","","","","","","","","","",""
"learning-instructions","8","106521","0.0-8.0-0.0-0.0","4273","2","13","Female","approach_avoid_spark_v1","""event"",""trial"",""time""
""fullscreenenter"",""1"",""44198""
","
","
","""event"",""trial"",""time""
""fullscreenenter"",""1"",""44198""
","
","","","","","","1960.8999999761581","<p> Welcome! Today you are going to play 6 different rounds of a decision-making game. </p><p> Use the mouse to click next to continue. </p>","","0","instructions","","","","","","","","","","",""
"learning-instructions","9","154323","0.0-8.0-0.0-0.1","4273","2","13","Female","approach_avoid_spark_v1","""event"",""trial"",""time""
""fullscreenenter"",""1"",""44198""
","
","
","""event"",""trial"",""time""
""fullscreenenter"",""1"",""44198""
","
","","","","","","45058.700000047684","<p> You will start with a practice round to learn the rules. </p>","","0","instructions","","","","","","","","","","",""
"learning-instructions","10","162671","0.0-8.0-0.0-0.2","4273","2","13","Female","approach_avoid_spark_v1","""event"",""trial"",""time""
""fullscreenenter"",""1"",""44198""
","
","
","""event"",""trial"",""time""
""fullscreenenter"",""1"",""44198""
","
","","","","","","4378.100000023842","<p> Your goal in this round is to give out sports equipment to kids. </p></div>","","0","instructions","","","","","","","","","","",""
"learning-instructions","11","177066","0.0-8.0-0.0-0.3","4273","2","13","Female","approach_avoid_spark_v1","""event"",""trial"",""time""
""fullscreenenter"",""1"",""44198""
","
","
","""event"",""trial"",""time""
""fullscreenenter"",""1"",""44198""
","
","","","","","","6829.399999976158","<p> The kids only like some of the equipment.  </p><p> On each turn, you will see a piece of sports equipment.   </p><p> You need to decide whether to give it to the kids or not.  </p>","","0","instructions","","","","","","","","","","",""
"learning-instructions","12","183249","0.0-8.0-0.0-0.4","4273","2","13","Female","approach_avoid_spark_v1","""event"",""trial"",""time""
""fullscreenenter"",""1"",""44198""
","
","
","""event"",""trial"",""time""
""fullscreenenter"",""1"",""44198""
","
","","","","","","1413.1000000238419","<p> You can give them the equipment by pressing 1 and choose not to give it to them by pressing 0. </p><br><div class=""choice-instructions-grid""> <div class=""choice-option""><img src=""images/approach.png"" class=""choice-option-img"" stage=""instructions"" position=""0"" ><div class=""choice-option-text""> Press ""1."" </div></div><div class=""choice-option""><img src=""images/avoid.png"" class=""choice-option-img"" stage=""instructions"" position=""1"" ><div class=""choice-option-text""> Press ""0."" </div></div>","","0","instructions","","","","","","","","","","",""
"learning-instructions","13","192227","0.0-8.0-0.0-0.5","4273","2","13","Female","approach_avoid_spark_v1","""event"",""trial"",""time""
""fullscreenenter"",""1"",""44198""
","
","
","""event"",""trial"",""time""
""fullscreenenter"",""1"",""44198""
","
","","","","","","1563.1000000238419","<p> If you give them a piece of equipment they like, they will be happy! </p><p> But if you give them a piece of equipment they do not like, they will be sad. </p>","","0","instructions","","","","","","","","","","",""
"learning-instructions","14","204827","0.0-8.0-0.0-0.6","4273","2","13","Female","approach_avoid_spark_v1","""event"",""trial"",""time""
""fullscreenenter"",""1"",""44198""
","
","
","""event"",""trial"",""time""
""fullscreenenter"",""1"",""44198""
","
","","","","","","2063","<p> You will earn points based on how you make kids feel. </p><p> If you make them happy, you will WIN anywhere from 1 - 9 points, </p><p> but if you make them sad, you will LOSE anywhere from 1 - 9 points. </p>","","0","instructions","","","","","","","","","","",""
"learning-instructions","15","217074","0.0-8.0-0.0-0.7","4273","2","13","Female","approach_avoid_spark_v1","""event"",""trial"",""time""
""fullscreenenter"",""1"",""44198""
","
","
","""event"",""trial"",""time""
""fullscreenenter"",""1"",""44198""
","
","","","","","","2674","<p> You will see how many points you won or lost in the center of the screen. </p><p> Here is what you would see if you won 6 points: </p><p style=""color:green;font-size:50px;font-weight:bolder"">6</p><p style=""color:green"">The text is GREEN because you WON points.</p>","","0","instructions","","","","","","","","","","",""
"learning-instructions","16","232495","0.0-8.0-0.0-0.8","4273","2","13","Female","approach_avoid_spark_v1","""event"",""trial"",""time""
""fullscreenenter"",""1"",""44198""
","
","
","""event"",""trial"",""time""
""fullscreenenter"",""1"",""44198""
","
","","","","","","9898","<p> And here is what you would see if you lost 4 points: </p><p style=""color:red;font-size:50px;font-weight:bolder"">-4</p><p style=""color:red"">The text is RED because you LOST points. </p>","","0","instructions","","","","","","","","","","",""
"learning-instructions","17","250185","0.0-8.0-0.0-0.9","4273","2","13","Female","approach_avoid_spark_v1","""event"",""trial"",""time""
""fullscreenenter"",""1"",""44198""
","
","
","""event"",""trial"",""time""
""fullscreenenter"",""1"",""44198""
","
","","","","","","2959.7000000476837","<p> Some of the equipment will make the kids VERY happy or sad. </p><p> These pieces of equipment will make you win or lose LOTS of points. </p><p> Other pieces of equipment will only make the kids a little happy or sad. </p><p> These pieces of equipment will make you win or lose small amounts of points. </p>","","0","instructions","","","","","","","","","","",""
"learning-instructions","18","263861","0.0-8.0-0.0-0.10","4273","2","13","Female","approach_avoid_spark_v1","""event"",""trial"",""time""
""fullscreenenter"",""1"",""44198""
","
","
","""event"",""trial"",""time""
""fullscreenenter"",""1"",""44198""
","
","","","","","","3040.2000000476837","<p> If you choose not to give them the equipment, you will not win or lose any points. </p><p>  However, in the center of the screen, you will see the number of points you WOULD HAVE won or lost if you had given them the equipment. </p>","","0","instructions","","","","","","","","","","",""
"learning-instructions","19","292464","0.0-8.0-0.0-0.11","4273","2","13","Female","approach_avoid_spark_v1","""event"",""trial"",""time""
""fullscreenenter"",""1"",""44198""
","
","
","""event"",""trial"",""time""
""fullscreenenter"",""1"",""44198""
","
","","","","","","7067.200000047684","<p> Here is what you might see if you did not give the equipment to the kids but it would have made them happy: </p><p style=""color:grey; font-size:50px; display: inline-block; border-spacing: 15px; border-width:3px; border-style:solid; border-color:red"">  &nbsp; 7 &nbsp; </p><p> Remember, in this case, you would not win or lose ANY points because you did not give them the equipment.  </p><p style=""color:grey"">The text is GREY because you earned ZERO points. </p><p style=""color:red"">However, choosing to give the kids the equipment would have made you win points. The box around the text is RED because you chose the worse option. </p>","","0","instructions","","","","","","","","","","",""
"learning-instructions","20","323228","0.0-8.0-0.0-0.12","4273","2","13","Female","approach_avoid_spark_v1","""event"",""trial"",""time""
""fullscreenenter"",""1"",""44198""
","
","
","""event"",""trial"",""time""
""fullscreenenter"",""1"",""44198""
","
","","","","","","9680.100000023842","<p> Here is what you might see if you did not give the equipment to the kids but it would have made them sad: </p><p style=""color:grey;font-size:50px; display: inline-block; border-spacing: 15px; border-width:3px; border-style:solid; border-color:green"">  &nbsp; -8 &nbsp; </p><p> Remember, in this case, you would not win or lose ANY points because you did not give them the equipment.  </p><p style=""color:grey"">The text is GREY because you earned ZERO points. </p><p  style=""color:green""> Choosing to give the kids the equipment would have made you lose points. The box around the text is GREEN because you chose the better option.</p>","","0","instructions","","","","","","","","","","",""
"learning-instructions","21","333808","0.0-8.0-0.0-0.13","4273","2","13","Female","approach_avoid_spark_v1","""event"",""trial"",""time""
""fullscreenenter"",""1"",""44198""
","
","
","""event"",""trial"",""time""
""fullscreenenter"",""1"",""44198""
","
","","","","","","1157.8999999761581","<p> You will have 3 seconds to make each choice. Try to respond before time runs out! </p><p> You will lose 5 points each time you do not make a response. </p>","","0","instructions","","","","","","","","","","",""
"learning-instructions","22","340466","0.0-8.0-0.0-0.14","4273","2","13","Female","approach_avoid_spark_v1","""event"",""trial"",""time""
""fullscreenenter"",""1"",""44198""
","
","
","""event"",""trial"",""time""
""fullscreenenter"",""1"",""44198""
","
","","","","","","1227.4000000953674","<p> This is just a practice round, but in the real game, your bonus payment will depend on your total number of points.","","0","instructions","","","","","","","","","","",""
"learning-instructions","23","348140","0.0-8.0-0.0-0.15","4273","2","13","Female","approach_avoid_spark_v1","""event"",""trial"",""time""
""fullscreenenter"",""1"",""44198""
","
","
","""event"",""trial"",""time""
""fullscreenenter"",""1"",""44198""
","
","","","","","","1889.4000000953674","<p> Remember, you can give them the equipment by pressing 1 and choose not to give it to them by pressing 0. </p><br><div class=""choice-instructions-grid""> <div class=""choice-option""><img src=""images/approach.png"" class=""choice-option-img"" stage=""instructions"" position=""0"" ><div class=""choice-option-text""> Press ""1."" </div></div><div class=""choice-option""><img src=""images/avoid.png"" class=""choice-option-img"" stage=""instructions"" position=""1"" ><div class=""choice-option-text""> Press ""0."" </div></div>","","0","instructions","","","","","","","","","","",""
"html-button-response","24","350214","0.0-8.0-1.0","4273","2","13","Female","approach_avoid_spark_v1","""event"",""trial"",""time""
""fullscreenenter"",""1"",""44198""
","
","
","""event"",""trial"",""time""
""fullscreenenter"",""1"",""44198""
","
","","","","","","1967.7999999523163","<p> Ready to practice? </p>","0","","","","","","","","","","","","",""
"html-keyboard-response","25","350864","0.0-8.0-2.0-0.0","4273","2","13","Female","approach_avoid_spark_v1","""event"",""trial"",""time""
""fullscreenenter"",""1"",""44198""
","
","
","""event"",""trial"",""time""
""fullscreenenter"",""1"",""44198""
","
","","","","","","null","<div style=""font-size:60px;"">+</div>","null","","fixation","","","","","","","","","","",""
"aa-learning-trial","26","353886","0.0-8.0-2.0-1.0","4273","2","13","Female","approach_avoid_spark_v1","""event"",""trial"",""time""
""fullscreenenter"",""1"",""44198""
","
","
","""event"",""trial"",""time""
""fullscreenenter"",""1"",""44198""
","
","","","","","","1637.0999999046326","images/racket4.png","","","learning","-2","-2","1","1","practice","practice","practice","-1","","",""
"html-keyboard-response","27","354406","0.0-8.0-2.0-0.1","4273","2","13","Female","approach_avoid_spark_v1","""event"",""trial"",""time""
""fullscreenenter"",""1"",""44198""
","
","
","""event"",""trial"",""time""
""fullscreenenter"",""1"",""44198""
","
","","","","","","null","<div style=""font-size:60px;"">+</div>","null","","fixation","","","","","","","","","","",""
"aa-learning-trial","28","357419","0.0-8.0-2.0-1.1","4273","2","13","Female","approach_avoid_spark_v1","""event"",""trial"",""time""
""fullscreenenter"",""1"",""44198""
","
","
","""event"",""trial"",""time""
""fullscreenenter"",""1"",""44198""
","
","","","","","","962.7000000476837","images/ball3.png","","","learning","-2","0","0","0","practice","practice","practice","-1","","",""
"html-keyboard-response","29","357946","0.0-8.0-2.0-0.2","4273","2","13","Female","approach_avoid_spark_v1","""event"",""trial"",""time""
""fullscreenenter"",""1"",""44198""
","
","
","""event"",""trial"",""time""
""fullscreenenter"",""1"",""44198""
","
","","","","","","null","<div style=""font-size:60px;"">+</div>","null","","fixation","","","","","","","","","","",""
"aa-learning-trial","30","360979","0.0-8.0-2.0-1.2","4273","2","13","Female","approach_avoid_spark_v1","""event"",""trial"",""time""
""fullscreenenter"",""1"",""44198""
","
","
","""event"",""trial"",""time""
""fullscreenenter"",""1"",""44198""
","
","","","","","","624.2999999523163","images/ball2.png","","","learning","-8","0","0","0","practice","practice","practice","-1","","",""
"html-keyboard-response","31","361496","0.0-8.0-2.0-0.3","4273","2","13","Female","approach_avoid_spark_v1","""event"",""trial"",""time""
""fullscreenenter"",""1"",""44198""
","
","
","""event"",""trial"",""time""
""fullscreenenter"",""1"",""44198""
","
","","","","","","null","<div style=""font-size:60px;"">+</div>","null","","fixation","","","","","","","","","","",""
"aa-learning-trial","32","364518","0.0-8.0-2.0-1.3","4273","2","13","Female","approach_avoid_spark_v1","""event"",""trial"",""time""
""fullscreenenter"",""1"",""44198""
","
","
","""event"",""trial"",""time""
""fullscreenenter"",""1"",""44198""
","
","","","","","","738","images/racket1.png","","","learning","-7","-7","1","1","practice","practice","practice","-1","","",""
"html-keyboard-response","33","365026","0.0-8.0-2.0-0.4","4273","2","13","Female","approach_avoid_spark_v1","""event"",""trial"",""time""
""fullscreenenter"",""1"",""44198""
","
","
","""event"",""trial"",""time""
""fullscreenenter"",""1"",""44198""
","
","","","","","","null","<div style=""font-size:60px;"">+</div>","null","","fixation","","","","","","","","","","",""
"aa-learning-trial","34","368056","0.0-8.0-2.0-1.4","4273","2","13","Female","approach_avoid_spark_v1","""event"",""trial"",""time""
""fullscreenenter"",""1"",""44198""
","
","
","""event"",""trial"",""time""
""fullscreenenter"",""1"",""44198""
","
","","","","","","268.5","images/racket1.png","","","learning","-6","0","0","0","practice","practice","practice","-1","","",""
"html-keyboard-response","35","368589","0.0-8.0-2.0-0.5","4273","2","13","Female","approach_avoid_spark_v1","""event"",""trial"",""time""
""fullscreenenter"",""1"",""44198""
","
","
","""event"",""trial"",""time""
""fullscreenenter"",""1"",""44198""
","
","","","","","","null","<div style=""font-size:60px;"">+</div>","null","","fixation","","","","","","","","","","",""
"aa-learning-trial","36","371606","0.0-8.0-2.0-1.5","4273","2","13","Female","approach_avoid_spark_v1","""event"",""trial"",""time""
""fullscreenenter"",""1"",""44198""
","
","
","""event"",""trial"",""time""
""fullscreenenter"",""1"",""44198""
","
","","","","","","1101","images/racket3.png","","","learning","1","0","0","0","practice","practice","practice","-1","","",""
"html-keyboard-response","37","372121","0.0-8.0-2.0-0.6","4273","2","13","Female","approach_avoid_spark_v1","""event"",""trial"",""time""
""fullscreenenter"",""1"",""44198""
","
","
","""event"",""trial"",""time""
""fullscreenenter"",""1"",""44198""
","
","","","","","","null","<div style=""font-size:60px;"">+</div>","null","","fixation","","","","","","","","","","",""
"aa-learning-trial","38","375256","0.0-8.0-2.0-1.6","4273","2","13","Female","approach_avoid_spark_v1","""event"",""trial"",""time""
""fullscreenenter"",""1"",""44198""
","
","
","""event"",""trial"",""time""
""fullscreenenter"",""1"",""44198""
","
","","","","","","460.5","images/ball2.png","","","learning","-4","-4","1","1","practice","practice","practice","-1","","",""
"html-keyboard-response","39","375780","0.0-8.0-2.0-0.7","4273","2","13","Female","approach_avoid_spark_v1","""event"",""trial"",""time""
""fullscreenenter"",""1"",""44198""
","
","
","""event"",""trial"",""time""
""fullscreenenter"",""1"",""44198""
","
","","","","","","null","<div style=""font-size:60px;"">+</div>","null","","fixation","","","","","","","","","","",""
"aa-learning-trial","40","378792","0.0-8.0-2.0-1.7","4273","2","13","Female","approach_avoid_spark_v1","""event"",""trial"",""time""
""fullscreenenter"",""1"",""44198""
","
","
","""event"",""trial"",""time""
""fullscreenenter"",""1"",""44198""
","
","","","","","","605.5","images/racket3.png","","","learning","-9","0","0","0","practice","practice","practice","-1","","",""
"html-keyboard-response","41","379302","0.0-8.0-2.0-0.8","4273","2","13","Female","approach_avoid_spark_v1","""event"",""trial"",""time""
""fullscreenenter"",""1"",""44198""
","
","
","""event"",""trial"",""time""
""fullscreenenter"",""1"",""44198""
","
","","","","","","null","<div style=""font-size:60px;"">+</div>","null","","fixation","","","","","","","","","","",""
"aa-learning-trial","42","382320","0.0-8.0-2.0-1.8","4273","2","13","Female","approach_avoid_spark_v1","""event"",""trial"",""time""
""fullscreenenter"",""1"",""44198""
","
","
","""event"",""trial"",""time""
""fullscreenenter"",""1"",""44198""
","
","","","","","","696.6999999284744","images/racket2.png","","","learning","-6","0","0","0","practice","practice","practice","-1","","",""
"html-keyboard-response","43","382831","0.0-8.0-2.0-0.9","4273","2","13","Female","approach_avoid_spark_v1","""event"",""trial"",""time""
""fullscreenenter"",""1"",""44198""
","
","
","""event"",""trial"",""time""
""fullscreenenter"",""1"",""44198""
","
","","","","","","null","<div style=""font-size:60px;"">+</div>","null","","fixation","","","","","","","","","","",""
"aa-learning-trial","44","385839","0.0-8.0-2.0-1.9","4273","2","13","Female","approach_avoid_spark_v1","""event"",""trial"",""time""
""fullscreenenter"",""1"",""44198""
","
","
","""event"",""trial"",""time""
""fullscreenenter"",""1"",""44198""
","
","","","","","","260.7000000476837","images/ball3.png","","","learning","-3","0","0","0","practice","practice","practice","-1","","",""
"html-keyboard-response","45","386350","0.0-8.0-2.0-0.10","4273","2","13","Female","approach_avoid_spark_v1","""event"",""trial"",""time""
""fullscreenenter"",""1"",""44198""
","
","
","""event"",""trial"",""time""
""fullscreenenter"",""1"",""44198""
","
","","","","","","null","<div style=""font-size:60px;"">+</div>","null","","fixation","","","","","","","","","","",""
"aa-learning-trial","46","389368","0.0-8.0-2.0-1.10","4273","2","13","Female","approach_avoid_spark_v1","""event"",""trial"",""time""
""fullscreenenter"",""1"",""44198""
","
","
","""event"",""trial"",""time""
""fullscreenenter"",""1"",""44198""
","
","","","","","","594","images/ball3.png","","","learning","3","0","0","0","practice","practice","practice","-1","","",""
"html-keyboard-response","47","389878","0.0-8.0-2.0-0.11","4273","2","13","Female","approach_avoid_spark_v1","""event"",""trial"",""time""
""fullscreenenter"",""1"",""44198""
","
","
","""event"",""trial"",""time""
""fullscreenenter"",""1"",""44198""
","
","","","","","","null","<div style=""font-size:60px;"">+</div>","null","","fixation","","","","","","","","","","",""
"aa-learning-trial","48","392896","0.0-8.0-2.0-1.11","4273","2","13","Female","approach_avoid_spark_v1","""event"",""trial"",""time""
""fullscreenenter"",""1"",""44198""
","
","
","""event"",""trial"",""time""
""fullscreenenter"",""1"",""44198""
","
","","","","","","453.39999997615814","images/racket1.png","","","learning","7","0","0","0","practice","practice","practice","-1","","",""
"html-button-response","49","400085","0.0-8.0-3.0","4273","2","13","Female","approach_avoid_spark_v1","""event"",""trial"",""time""
""fullscreenenter"",""1"",""44198""
","
","
","""event"",""trial"",""time""
""fullscreenenter"",""1"",""44198""
","
","","","","","","7178.300000071526","<p> You earned -13 points in the practice round! </p>","0","","break","","","","","","","","","","",""
"learning-instructions","50","408391","0.0-8.0-4.0-0.0","4273","2","13","Female","approach_avoid_spark_v1","""event"",""trial"",""time""
""fullscreenenter"",""1"",""44198""
","
","
","""event"",""trial"",""time""
""fullscreenenter"",""1"",""44198""
","
","","","","","","1833","<p> It's almost time to start the real game. </p><p> Before you start, we're going to ask you a few questions about how the game works. </p>","","0","instructions","","","","","","","","","","",""
"preload","51","410516","0.0-8.0-5.0","4273","2","13","Female","approach_avoid_spark_v1","""event"",""trial"",""time""
""fullscreenenter"",""1"",""44198""
","
","
","""event"",""trial"",""time""
""fullscreenenter"",""1"",""44198""
","
","true","false","[]","[]","[]","","","","","","","","","","","","","","","",""
"comp-q","52","416727","0.0-8.0-6.0-0.0","4273","2","13","Female","approach_avoid_spark_v1","""event"",""trial"",""time""
""fullscreenenter"",""1"",""44198""
","
","
","""event"",""trial"",""time""
""fullscreenenter"",""1"",""44198""
","
","","","","","","1203.9000000953674","<p> <b> True or False? </b> </p><p> If you see a number in GREY, that means you earned that many points. </p>","","1","comp_question","","","","","","","","","true","",""
"comp-q","53","426462","0.0-8.0-6.0-1.0","4273","2","13","Female","approach_avoid_spark_v1","""event"",""trial"",""time""
""fullscreenenter"",""1"",""44198""
","
","
","""event"",""trial"",""time""
""fullscreenenter"",""1"",""44198""
","
","","","","","","1360.6999999284744","<p><b> That's right! </b> If you see a grey number, it means you earned ZERO points. <br> The grey numbers show the points you WOULD HAVE earned if you had made the other choice. </p>","","0","comp_answer","","","","","","","","","","",""
"comp-q","54","432221","0.0-8.0-7.0-0.0","4273","2","13","Female","approach_avoid_spark_v1","""event"",""trial"",""time""
""fullscreenenter"",""1"",""44198""
","
","
","""event"",""trial"",""time""
""fullscreenenter"",""1"",""44198""
","
","","","","","","1039.2999999523163","<p> <b> True or False? </b> </p><p> You will have as much time as you want to make each choice. </p>","","1","comp_question","","","","","","","","","true","",""
"comp-q","55","438647","0.0-8.0-7.0-1.0","4273","2","13","Female","approach_avoid_spark_v1","""event"",""trial"",""time""
""fullscreenenter"",""1"",""44198""
","
","
","""event"",""trial"",""time""
""fullscreenenter"",""1"",""44198""
","
","","","","","","2366.2000000476837","<p> <b> That's right! </b> You will only have 3 seconds to make each choice. </p>","","0","comp_answer","","","","","","","","","","",""
"comp-q","56","444498","0.0-8.0-8.0-0.0","4273","2","13","Female","approach_avoid_spark_v1","""event"",""trial"",""time""
""fullscreenenter"",""1"",""44198""
","
","
","""event"",""trial"",""time""
""fullscreenenter"",""1"",""44198""
","
","","","","","","1161.1000000238419","<p> <b> True or False? </b> </p><p> You should use the '1' and '0' keys to make your choices. </p>","","0","comp_question","","","","","","","","","true","",""
"comp-q","57","450031","0.0-8.0-8.0-1.0","4273","2","13","Female","approach_avoid_spark_v1","""event"",""trial"",""time""
""fullscreenenter"",""1"",""44198""
","
","
","""event"",""trial"",""time""
""fullscreenenter"",""1"",""44198""
","
","","","","","","911.6000000238419","<p> <b> That's right! </b> You should use the '1' and '0' keys to make each choice. </p>","","0","comp_answer","","","","","","","","","","",""
"learning-instructions","58","460429","0.0-8.0-9.0-0.0","4273","2","13","Female","approach_avoid_spark_v1","""event"",""trial"",""time""
""fullscreenenter"",""1"",""44198""
","
","
","""event"",""trial"",""time""
""fullscreenenter"",""1"",""44198""
","
","","","","","","4119.899999976158","<p> It's now time to start the real game. </p>Do your best, because the points you earn in the next rounds will influence your bonus payment. </p>","","0","instructions","","","","","","","","","","",""
"preload","59","460822","0.0-9.0-0.0","4273","2","13","Female","approach_avoid_spark_v1","""event"",""trial"",""time""
""fullscreenenter"",""1"",""44198""
","
","
","""event"",""trial"",""time""
""fullscreenenter"",""1"",""44198""
","
","true","false","[]","[]","[]","","","","","","","","","","","","","","","",""
"learning-instructions","60","493740","0.0-9.0-1.0-0.0","4273","2","13","Female","approach_avoid_spark_v1","""event"",""trial"",""time""
""fullscreenenter"",""1"",""44198""
","
","
","""event"",""trial"",""time""
""fullscreenenter"",""1"",""44198""
","
","","","","","","27717.799999952316","<p> Your goal in this round is to decorate your friend's new house with furniture. </p></div>","","0","instructions","","","","","","","","","","",""
"learning-instructions","61","510405","0.0-9.0-1.0-0.1","4273","2","13","Female","approach_avoid_spark_v1","""event"",""trial"",""time""
""fullscreenenter"",""1"",""44198""
","
","
","""event"",""trial"",""time""
""fullscreenenter"",""1"",""44198""
","
","","","","","","6743.899999976158","<p> Your friend likes some pieces of furniture but not others.  </p><p> On each turn, you will see a piece of furniture.   </p><p> You need to decide whether to put it in your friend's house or not.  </p>","","0","instructions","","","","","","","","","","",""
"learning-instructions","62","524122","0.0-9.0-1.0-0.2","4273","2","13","Female","approach_avoid_spark_v1","""event"",""trial"",""time""
""fullscreenenter"",""1"",""44198""
","
","
","""event"",""trial"",""time""
""fullscreenenter"",""1"",""44198""
","
","","","","","","7647","<p> You can put the furniture in her house by pressing 1 and deliver it elsewhere by pressing 0. </p><br><div class=""choice-instructions-grid""> <div class=""choice-option""><img src=""images/approach.png"" class=""choice-option-img"" stage=""instructions"" position=""0"" ><div class=""choice-option-text""> Press ""1."" </div></div><div class=""choice-option""><img src=""images/avoid.png"" class=""choice-option-img"" stage=""instructions"" position=""1"" ><div class=""choice-option-text""> Press ""0."" </div></div>","","0","instructions","","","","","","","","","","",""
"learning-instructions","63","550849","0.0-9.0-1.0-0.3","4273","2","13","Female","approach_avoid_spark_v1","""event"",""trial"",""time""
""fullscreenenter"",""1"",""44198""
","
","
","""event"",""trial"",""time""
""fullscreenenter"",""1"",""44198""
","
","","","","","","17827.799999952316","<p> If you decorate your friend's house with furniture she likes, she will be happy! </p><p> But if you give her furniture that she does not like, she will be annoyed. </p>","","0","instructions","","","","","","","","","","",""
"learning-instructions","64","568875","0.0-9.0-1.0-0.4","4273","2","13","Female","approach_avoid_spark_v1","""event"",""trial"",""time""
""fullscreenenter"",""1"",""44198""
","
","
","""event"",""trial"",""time""
""fullscreenenter"",""1"",""44198""
","
","","","","","","5719.200000047684","<p> You will earn points based on how you made your friend feel. </p><p> If you made her happy, you will WIN anywhere from 1 - 9 points, </p><p> but if you made her annoyed you will LOSE anywhere from 1 - 9 points. </p>","","0","instructions","","","","","","","","","","",""
"learning-instructions","65","578753","0.0-9.0-1.0-0.5","4273","2","13","Female","approach_avoid_spark_v1","""event"",""trial"",""time""
""fullscreenenter"",""1"",""44198""
","
","
","""event"",""trial"",""time""
""fullscreenenter"",""1"",""44198""
","
","","","","","","2319","<p> You will see how many points you won or lost in the center of the screen. </p><p> Here is what you would see if you won 5 points: </p><p style=""color:green;font-size:50px;font-weight:bolder"">5</p>","","0","instructions","","","","","","","","","","",""
"learning-instructions","66","600528","0.0-9.0-1.0-0.6","4273","2","13","Female","approach_avoid_spark_v1","""event"",""trial"",""time""
""fullscreenenter"",""1"",""44198""
","
","
","""event"",""trial"",""time""
""fullscreenenter"",""1"",""44198""
","
","","","","","","18214","<p> And here is what you would see if you lost 3 points: </p><p style=""color:red;font-size:50px;font-weight:bolder"">-3</p>","","0","instructions","","","","","","","","","","",""
"learning-instructions","67","621476","0.0-9.0-1.0-0.7","4273","2","13","Female","approach_avoid_spark_v1","""event"",""trial"",""time""
""fullscreenenter"",""1"",""44198""
","
","
","""event"",""trial"",""time""
""fullscreenenter"",""1"",""44198""
","
","","","","","","3399.8000000715256","<p> Some pieces of furniture will make her feel very happy or very annoyed. </p><p> These pieces of furniture will make you win or lose LOTS of points. </p><p> Other pieces of furniture will only make her feel a little happy or a little annoyed. </p><p> These pieces of furniture will make you win or lose small amounts of points. </p>","","0","instructions","","","","","","","","","","",""
"learning-instructions","68","639200","0.0-9.0-1.0-0.8","4273","2","13","Female","approach_avoid_spark_v1","""event"",""trial"",""time""
""fullscreenenter"",""1"",""44198""
","
","
","""event"",""trial"",""time""
""fullscreenenter"",""1"",""44198""
","
","","","","","","4854.800000071526","<p> If you choose to deliver a piece of furniture elsewhere, you will not win or lose any points. </p><p>  However, in the center of the screen, you will see the number of points you WOULD HAVE won or lost if you had given the furniture to your friend. </p>","","0","instructions","","","","","","","","","","",""
"learning-instructions","69","670127","0.0-9.0-1.0-0.9","4273","2","13","Female","approach_avoid_spark_v1","""event"",""trial"",""time""
""fullscreenenter"",""1"",""44198""
","
","
","""event"",""trial"",""time""
""fullscreenenter"",""1"",""44198""
","
","","","","","","18919","<p> Here is what you might see if you did not give a piece of furniture to your friend that would have made her happy: </p><p style=""color:grey; font-size:50px; display: inline-block; border-spacing: 15px; border-width:3px; border-style:solid; border-color:red"">  &nbsp; 6 &nbsp; </p><p> Remember, in this case, you would not win or lose ANY points because you did not give her the furniture.  </p>","","0","instructions","","","","","","","","","","",""
"learning-instructions","70","688867","0.0-9.0-1.0-0.10","4273","2","13","Female","approach_avoid_spark_v1","""event"",""trial"",""time""
""fullscreenenter"",""1"",""44198""
","
","
","""event"",""trial"",""time""
""fullscreenenter"",""1"",""44198""
","
","","","","","","11080","<p> Try to make the best choice for each piece of furniture because </p><p> at the end of the game, you will earn bonus money based on how many points you earned. </p>","","0","instructions","","","","","","","","","","",""
"learning-instructions","71","698027","0.0-9.0-1.0-0.11","4273","2","13","Female","approach_avoid_spark_v1","""event"",""trial"",""time""
""fullscreenenter"",""1"",""44198""
","
","
","""event"",""trial"",""time""
""fullscreenenter"",""1"",""44198""
","
","","","","","","938","<p> You will have 3 seconds to make each choice. Try to respond before time runs out! </p><p> You will lose 5 points each time you do not make a response. </p>","","0","instructions","","","","","","","","","","",""
"html-keyboard-response","72","698657","0.0-9.0-2.0-0.0","4273","2","13","Female","approach_avoid_spark_v1","""event"",""trial"",""time""
""fullscreenenter"",""1"",""44198""
","
","
","""event"",""trial"",""time""
""fullscreenenter"",""1"",""44198""
","
","","","","","","null","<div style=""font-size:60px;"">+</div>","null","","fixation","","","","","","","","","","",""
"aa-learning-trial","73","701679","0.0-9.0-2.0-1.0","4273","2","13","Female","approach_avoid_spark_v1","""event"",""trial"",""time""
""fullscreenenter"",""1"",""44198""
","
","
","""event"",""trial"",""time""
""fullscreenenter"",""1"",""44198""
","
","","","","","","1266","images/chair8.png","","","learning","-1","-1","1","1","chair","furniture","2","0","","bad","[-5]"
"html-keyboard-response","74","702184","0.0-9.0-2.0-0.1","4273","2","13","Female","approach_avoid_spark_v1","""event"",""trial"",""time""
""fullscreenenter"",""1"",""44198""
","
","
","""event"",""trial"",""time""
""fullscreenenter"",""1"",""44198""
","
","","","","","","null","<div style=""font-size:60px;"">+</div>","null","","fixation","","","","","","","","","","",""
"aa-learning-trial","75","705199","0.0-9.0-2.0-1.1","4273","2","13","Female","approach_avoid_spark_v1","""event"",""trial"",""time""
""fullscreenenter"",""1"",""44198""
","
","
","""event"",""trial"",""time""
""fullscreenenter"",""1"",""44198""
","
","","","","","","1101.2000000476837","images/sofa1.png","","","learning","-9","-9","1","1","sofa","furniture","2","0","","good","[4]"
"html-keyboard-response","76","705719","0.0-9.0-2.0-0.2","4273","2","13","Female","approach_avoid_spark_v1","""event"",""trial"",""time""
""fullscreenenter"",""1"",""44198""
","
","
","""event"",""trial"",""time""
""fullscreenenter"",""1"",""44198""
","
","","","","","","null","<div style=""font-size:60px;"">+</div>","null","","fixation","","","","","","","","","","",""
"aa-learning-trial","77","708735","0.0-9.0-2.0-1.2","4273","2","13","Female","approach_avoid_spark_v1","""event"",""trial"",""time""
""fullscreenenter"",""1"",""44198""
","
","
","""event"",""trial"",""time""
""fullscreenenter"",""1"",""44198""
","
","","","","","","721.2999999523163","images/chair5.png","","","learning","7","0","0","0","chair","furniture","2","0","","bad","[-5]"
"html-keyboard-response","78","709264","0.0-9.0-2.0-0.3","4273","2","13","Female","approach_avoid_spark_v1","""event"",""trial"",""time""
""fullscreenenter"",""1"",""44198""
","
","
","""event"",""trial"",""time""
""fullscreenenter"",""1"",""44198""
","
","","","","","","null","<div style=""font-size:60px;"">+</div>","null","","fixation","","","","","","","","","","",""
"aa-learning-trial","79","712287","0.0-9.0-2.0-1.3","4273","2","13","Female","approach_avoid_spark_v1","""event"",""trial"",""time""
""fullscreenenter"",""1"",""44198""
","
","
","""event"",""trial"",""time""
""fullscreenenter"",""1"",""44198""
","
","","","","","","716.1000000238419","images/chair5.png","","","learning","7","7","1","1","chair","furniture","2","0","","bad","[-5]"
"html-keyboard-response","80","712804","0.0-9.0-2.0-0.4","4273","2","13","Female","approach_avoid_spark_v1","""event"",""trial"",""time""
""fullscreenenter"",""1"",""44198""
","
","
","""event"",""trial"",""time""
""fullscreenenter"",""1"",""44198""
","
","","","","","","null","<div style=""font-size:60px;"">+</div>","null","","fixation","","","","","","","","","","",""
"aa-learning-trial","81","715827","0.0-9.0-2.0-1.4","4273","2","13","Female","approach_avoid_spark_v1","""event"",""trial"",""time""
""fullscreenenter"",""1"",""44198""
","
","
","""event"",""trial"",""time""
""fullscreenenter"",""1"",""44198""
","
","","","","","","636.8999999761581","images/sofa4.png","","","learning","-3","-3","1","1","sofa","furniture","2","0","","good","[4]"
"html-keyboard-response","82","716356","0.0-9.0-2.0-0.5","4273","2","13","Female","approach_avoid_spark_v1","""event"",""trial"",""time""
""fullscreenenter"",""1"",""44198""
","
","
","""event"",""trial"",""time""
""fullscreenenter"",""1"",""44198""
","
","","","","","","null","<div style=""font-size:60px;"">+</div>","null","","fixation","","","","","","","","","","",""
"aa-learning-trial","83","719382","0.0-9.0-2.0-1.5","4273","2","13","Female","approach_avoid_spark_v1","""event"",""trial"",""time""
""fullscreenenter"",""1"",""44198""
","
","
","""event"",""trial"",""time""
""fullscreenenter"",""1"",""44198""
","
","","","","","","1358.6999999284744","images/chair4.png","","","learning","4","0","0","0","chair","furniture","2","0","","bad","[-5]"
"html-keyboard-response","84","719904","0.0-9.0-2.0-0.6","4273","2","13","Female","approach_avoid_spark_v1","""event"",""trial"",""time""
""fullscreenenter"",""1"",""44198""
","
","
","""event"",""trial"",""time""
""fullscreenenter"",""1"",""44198""
","
","","","","","","null","<div style=""font-size:60px;"">+</div>","null","","fixation","","","","","","","","","","",""
"aa-learning-trial","85","722920","0.0-9.0-2.0-1.6","4273","2","13","Female","approach_avoid_spark_v1","""event"",""trial"",""time""
""fullscreenenter"",""1"",""44198""
","
","
","""event"",""trial"",""time""
""fullscreenenter"",""1"",""44198""
","
","","","","","","1218.7000000476837","images/sofa1.png","","","learning","-9","0","0","0","sofa","furniture","2","0","","good","[4]"
"html-keyboard-response","86","723444","0.0-9.0-2.0-0.7","4273","2","13","Female","approach_avoid_spark_v1","""event"",""trial"",""time""
""fullscreenenter"",""1"",""44198""
","
","
","""event"",""trial"",""time""
""fullscreenenter"",""1"",""44198""
","
","","","","","","null","<div style=""font-size:60px;"">+</div>","null","","fixation","","","","","","","","","","",""
"aa-learning-trial","87","726464","0.0-9.0-2.0-1.7","4273","2","13","Female","approach_avoid_spark_v1","""event"",""trial"",""time""
""fullscreenenter"",""1"",""44198""
","
","
","""event"",""trial"",""time""
""fullscreenenter"",""1"",""44198""
","
","","","","","","1119.6000000238419","images/bed4.png","","","learning","5","5","1","1","bed","furniture","2","0","","neutral","0"
"html-keyboard-response","88","726989","0.0-9.0-2.0-0.8","4273","2","13","Female","approach_avoid_spark_v1","""event"",""trial"",""time""
""fullscreenenter"",""1"",""44198""
","
","
","""event"",""trial"",""time""
""fullscreenenter"",""1"",""44198""
","
","","","","","","null","<div style=""font-size:60px;"">+</div>","null","","fixation","","","","","","","","","","",""
"aa-learning-trial","89","730008","0.0-9.0-2.0-1.8","4273","2","13","Female","approach_avoid_spark_v1","""event"",""trial"",""time""
""fullscreenenter"",""1"",""44198""
","
","
","""event"",""trial"",""time""
""fullscreenenter"",""1"",""44198""
","
","","","","","","1306.5999999046326","images/sofa6.png","","","learning","3","3","1","1","sofa","furniture","2","0","","good","[4]"
"html-keyboard-response","90","730518","0.0-9.0-2.0-0.9","4273","2","13","Female","approach_avoid_spark_v1","""event"",""trial"",""time""
""fullscreenenter"",""1"",""44198""
","
","
","""event"",""trial"",""time""
""fullscreenenter"",""1"",""44198""
","
","","","","","","null","<div style=""font-size:60px;"">+</div>","null","","fixation","","","","","","","","","","",""
"aa-learning-trial","91","733536","0.0-9.0-2.0-1.9","4273","2","13","Female","approach_avoid_spark_v1","""event"",""trial"",""time""
""fullscreenenter"",""1"",""44198""
","
","
","""event"",""trial"",""time""
""fullscreenenter"",""1"",""44198""
","
","","","","","","1017.6000000238419","images/bed8.png","","","learning","9","9","1","1","bed","furniture","2","0","","neutral","0"
"html-keyboard-response","92","734046","0.0-9.0-2.0-0.10","4273","2","13","Female","approach_avoid_spark_v1","""event"",""trial"",""time""
""fullscreenenter"",""1"",""44198""
","
","
","""event"",""trial"",""time""
""fullscreenenter"",""1"",""44198""
","
","","","","","","null","<div style=""font-size:60px;"">+</div>","null","","fixation","","","","","","","","","","",""
"aa-learning-trial","93","737073","0.0-9.0-2.0-1.10","4273","2","13","Female","approach_avoid_spark_v1","""event"",""trial"",""time""
""fullscreenenter"",""1"",""44198""
","
","
","""event"",""trial"",""time""
""fullscreenenter"",""1"",""44198""
","
","","","","","","770.1000000238419","images/chair4.png","","","learning","4","-5","-","","chair","furniture","2","0","","bad","[-5]"
"html-keyboard-response","94","737583","0.0-9.0-2.0-0.11","4273","2","13","Female","approach_avoid_spark_v1","""event"",""trial"",""time""
""fullscreenenter"",""1"",""44198""
","
","
","""event"",""trial"",""time""
""fullscreenenter"",""1"",""44198""
","
","","","","","","null","<div style=""font-size:60px;"">+</div>","null","","fixation","","","","","","","","","","",""
"aa-learning-trial","95","740599","0.0-9.0-2.0-1.11","4273","2","13","Female","approach_avoid_spark_v1","""event"",""trial"",""time""
""fullscreenenter"",""1"",""44198""
","
","
","""event"",""trial"",""time""
""fullscreenenter"",""1"",""44198""
","
","","","","","","1022.3999999761581","images/bed6.png","","","learning","-5","-5","1","1","bed","furniture","2","0","","neutral","0"
"html-keyboard-response","96","741110","0.0-9.0-2.0-0.12","4273","2","13","Female","approach_avoid_spark_v1","""event"",""trial"",""time""
""fullscreenenter"",""1"",""44198""
","
","
","""event"",""trial"",""time""
""fullscreenenter"",""1"",""44198""
","
","","","","","","null","<div style=""font-size:60px;"">+</div>","null","","fixation","","","","","","","","","","",""
"aa-learning-trial","97","744127","0.0-9.0-2.0-1.12","4273","2","13","Female","approach_avoid_spark_v1","""event"",""trial"",""time""
""fullscreenenter"",""1"",""44198""
","
","
","""event"",""trial"",""time""
""fullscreenenter"",""1"",""44198""
","
","","","","","","1176.1999999284744","images/sofa4.png","","","learning","-3","-3","1","1","sofa","furniture","2","0","","good","[4]"
"html-keyboard-response","98","744639","0.0-9.0-2.0-0.13","4273","2","13","Female","approach_avoid_spark_v1","""event"",""trial"",""time""
""fullscreenenter"",""1"",""44198""
","
","
","""event"",""trial"",""time""
""fullscreenenter"",""1"",""44198""
","
","","","","","","null","<div style=""font-size:60px;"">+</div>","null","","fixation","","","","","","","","","","",""
"aa-learning-trial","99","747656","0.0-9.0-2.0-1.13","4273","2","13","Female","approach_avoid_spark_v1","""event"",""trial"",""time""
""fullscreenenter"",""1"",""44198""
","
","
","""event"",""trial"",""time""
""fullscreenenter"",""1"",""44198""
","
","","","","","","1286.3000000715256","images/bed4.png","","","learning","5","5","1","1","bed","furniture","2","0","","neutral","0"
"html-keyboard-response","100","748166","0.0-9.0-2.0-0.14","4273","2","13","Female","approach_avoid_spark_v1","""event"",""trial"",""time""
""fullscreenenter"",""1"",""44198""
","
","
","""event"",""trial"",""time""
""fullscreenenter"",""1"",""44198""
","
","","","","","","null","<div style=""font-size:60px;"">+</div>","null","","fixation","","","","","","","","","","",""
"aa-learning-trial","101","751184","0.0-9.0-2.0-1.14","4273","2","13","Female","approach_avoid_spark_v1","""event"",""trial"",""time""
""fullscreenenter"",""1"",""44198""
","
","
","""event"",""trial"",""time""
""fullscreenenter"",""1"",""44198""
","
","","","","","","962.1000000238419","images/bed6.png","","","learning","-5","-5","-","","bed","furniture","2","0","","neutral","0"
"html-keyboard-response","102","751695","0.0-9.0-2.0-0.15","4273","2","13","Female","approach_avoid_spark_v1","""event"",""trial"",""time""
""fullscreenenter"",""1"",""44198""
","
","
","""event"",""trial"",""time""
""fullscreenenter"",""1"",""44198""
","
","","","","","","null","<div style=""font-size:60px;"">+</div>","null","","fixation","","","","","","","","","","",""
"aa-learning-trial","103","754712","0.0-9.0-2.0-1.15","4273","2","13","Female","approach_avoid_spark_v1","""event"",""trial"",""time""
""fullscreenenter"",""1"",""44198""
","
","
","""event"",""trial"",""time""
""fullscreenenter"",""1"",""44198""
","
","","","","","","781.1999999284744","images/bed6.png","","","learning","-5","-5","1","1","bed","furniture","2","0","","neutral","0"
"html-keyboard-response","104","755223","0.0-9.0-2.0-0.16","4273","2","13","Female","approach_avoid_spark_v1","""event"",""trial"",""time""
""fullscreenenter"",""1"",""44198""
","
","
","""event"",""trial"",""time""
""fullscreenenter"",""1"",""44198""
","
","","","","","","null","<div style=""font-size:60px;"">+</div>","null","","fixation","","","","","","","","","","",""
"aa-learning-trial","105","758239","0.0-9.0-2.0-1.16","4273","2","13","Female","approach_avoid_spark_v1","""event"",""trial"",""time""
""fullscreenenter"",""1"",""44198""
","
","
","""event"",""trial"",""time""
""fullscreenenter"",""1"",""44198""
","
","","","","","","924.3000000715256","images/sofa4.png","","","learning","-3","-3","1","1","sofa","furniture","2","0","","good","[4]"
"html-keyboard-response","106","758751","0.0-9.0-2.0-0.17","4273","2","13","Female","approach_avoid_spark_v1","""event"",""trial"",""time""
""fullscreenenter"",""1"",""44198""
","
","
","""event"",""trial"",""time""
""fullscreenenter"",""1"",""44198""
","
","","","","","","null","<div style=""font-size:60px;"">+</div>","null","","fixation","","","","","","","","","","",""
"aa-learning-trial","107","761767","0.0-9.0-2.0-1.17","4273","2","13","Female","approach_avoid_spark_v1","""event"",""trial"",""time""
""fullscreenenter"",""1"",""44198""
","
","
","""event"",""trial"",""time""
""fullscreenenter"",""1"",""44198""
","
","","","","","","954","images/bed8.png","","","learning","9","9","1","1","bed","furniture","2","0","","neutral","0"
"html-keyboard-response","108","762271","0.0-9.0-2.0-0.18","4273","2","13","Female","approach_avoid_spark_v1","""event"",""trial"",""time""
""fullscreenenter"",""1"",""44198""
","
","
","""event"",""trial"",""time""
""fullscreenenter"",""1"",""44198""
","
","","","","","","null","<div style=""font-size:60px;"">+</div>","null","","fixation","","","","","","","","","","",""
"aa-learning-trial","109","765287","0.0-9.0-2.0-1.18","4273","2","13","Female","approach_avoid_spark_v1","""event"",""trial"",""time""
""fullscreenenter"",""1"",""44198""
","
","
","""event"",""trial"",""time""
""fullscreenenter"",""1"",""44198""
","
","","","","","","810.8999999761581","images/sofa1.png","","","learning","-9","-9","1","1","sofa","furniture","2","0","","good","[4]"
"html-keyboard-response","110","765791","0.0-9.0-2.0-0.19","4273","2","13","Female","approach_avoid_spark_v1","""event"",""trial"",""time""
""fullscreenenter"",""1"",""44198""
","
","
","""event"",""trial"",""time""
""fullscreenenter"",""1"",""44198""
","
","","","","","","null","<div style=""font-size:60px;"">+</div>","null","","fixation","","","","","","","","","","",""
"aa-learning-trial","111","768801","0.0-9.0-2.0-1.19","4273","2","13","Female","approach_avoid_spark_v1","""event"",""trial"",""time""
""fullscreenenter"",""1"",""44198""
","
","
","""event"",""trial"",""time""
""fullscreenenter"",""1"",""44198""
","
","","","","","","984.3999999761581","images/chair4.png","","","learning","4","-5","-","","chair","furniture","2","0","","bad","[-5]"
"html-keyboard-response","112","769311","0.0-9.0-2.0-0.20","4273","2","13","Female","approach_avoid_spark_v1","""event"",""trial"",""time""
""fullscreenenter"",""1"",""44198""
","
","
","""event"",""trial"",""time""
""fullscreenenter"",""1"",""44198""
","
","","","","","","null","<div style=""font-size:60px;"">+</div>","null","","fixation","","","","","","","","","","",""
"aa-learning-trial","113","772319","0.0-9.0-2.0-1.20","4273","2","13","Female","approach_avoid_spark_v1","""event"",""trial"",""time""
""fullscreenenter"",""1"",""44198""
","
","
","""event"",""trial"",""time""
""fullscreenenter"",""1"",""44198""
","
","","","","","","1340.1000000238419","images/bed4.png","","","learning","5","5","1","1","bed","furniture","2","0","","neutral","0"
"html-keyboard-response","114","772831","0.0-9.0-2.0-0.21","4273","2","13","Female","approach_avoid_spark_v1","""event"",""trial"",""time""
""fullscreenenter"",""1"",""44198""
","
","
","""event"",""trial"",""time""
""fullscreenenter"",""1"",""44198""
","
","","","","","","null","<div style=""font-size:60px;"">+</div>","null","","fixation","","","","","","","","","","",""
"aa-learning-trial","115","775848","0.0-9.0-2.0-1.21","4273","2","13","Female","approach_avoid_spark_v1","""event"",""trial"",""time""
""fullscreenenter"",""1"",""44198""
","
","
","""event"",""trial"",""time""
""fullscreenenter"",""1"",""44198""
","
","","","","","","639.8000000715256","images/bed4.png","","","learning","5","5","1","1","bed","furniture","2","0","","neutral","0"
"html-keyboard-response","116","776359","0.0-9.0-2.0-0.22","4273","2","13","Female","approach_avoid_spark_v1","""event"",""trial"",""time""
""fullscreenenter"",""1"",""44198""
","
","
","""event"",""trial"",""time""
""fullscreenenter"",""1"",""44198""
","
","","","","","","null","<div style=""font-size:60px;"">+</div>","null","","fixation","","","","","","","","","","",""
"aa-learning-trial","117","779376","0.0-9.0-2.0-1.22","4273","2","13","Female","approach_avoid_spark_v1","""event"",""trial"",""time""
""fullscreenenter"",""1"",""44198""
","
","
","""event"",""trial"",""time""
""fullscreenenter"",""1"",""44198""
","
","","","","","","1207","images/bed6.png","","","learning","-5","-5","-","","bed","furniture","2","0","","neutral","0"
"html-keyboard-response","118","779886","0.0-9.0-2.0-0.23","4273","2","13","Female","approach_avoid_spark_v1","""event"",""trial"",""time""
""fullscreenenter"",""1"",""44198""
","
","
","""event"",""trial"",""time""
""fullscreenenter"",""1"",""44198""
","
","","","","","","null","<div style=""font-size:60px;"">+</div>","null","","fixation","","","","","","","","","","",""
"aa-learning-trial","119","782905","0.0-9.0-2.0-1.23","4273","2","13","Female","approach_avoid_spark_v1","""event"",""trial"",""time""
""fullscreenenter"",""1"",""44198""
","
","
","""event"",""trial"",""time""
""fullscreenenter"",""1"",""44198""
","
","","","","","","697.3000000715256","images/chair6.png","","","learning","-7","-7","1","1","chair","furniture","2","0","","bad","[-5]"
"html-keyboard-response","120","783415","0.0-9.0-2.0-0.24","4273","2","13","Female","approach_avoid_spark_v1","""event"",""trial"",""time""
""fullscreenenter"",""1"",""44198""
","
","
","""event"",""trial"",""time""
""fullscreenenter"",""1"",""44198""
","
","","","","","","null","<div style=""font-size:60px;"">+</div>","null","","fixation","","","","","","","","","","",""
"aa-learning-trial","121","786432","0.0-9.0-2.0-1.24","4273","2","13","Female","approach_avoid_spark_v1","""event"",""trial"",""time""
""fullscreenenter"",""1"",""44198""
","
","
","""event"",""trial"",""time""
""fullscreenenter"",""1"",""44198""
","
","","","","","","807.6999999284744","images/bed1.png","","","learning","-8","-8","1","1","bed","furniture","2","0","","neutral","0"
"html-keyboard-response","122","786942","0.0-9.0-2.0-0.25","4273","2","13","Female","approach_avoid_spark_v1","""event"",""trial"",""time""
""fullscreenenter"",""1"",""44198""
","
","
","""event"",""trial"",""time""
""fullscreenenter"",""1"",""44198""
","
","","","","","","null","<div style=""font-size:60px;"">+</div>","null","","fixation","","","","","","","","","","",""
"aa-learning-trial","123","789960","0.0-9.0-2.0-1.25","4273","2","13","Female","approach_avoid_spark_v1","""event"",""trial"",""time""
""fullscreenenter"",""1"",""44198""
","
","
","""event"",""trial"",""time""
""fullscreenenter"",""1"",""44198""
","
","","","","","","669.7999999523163","images/bed6.png","","","learning","-5","-5","1","1","bed","furniture","2","0","","neutral","0"
"html-keyboard-response","124","790470","0.0-9.0-2.0-0.26","4273","2","13","Female","approach_avoid_spark_v1","""event"",""trial"",""time""
""fullscreenenter"",""1"",""44198""
","
","
","""event"",""trial"",""time""
""fullscreenenter"",""1"",""44198""
","
","","","","","","null","<div style=""font-size:60px;"">+</div>","null","","fixation","","","","","","","","","","",""
"aa-learning-trial","125","793496","0.0-9.0-2.0-1.26","4273","2","13","Female","approach_avoid_spark_v1","""event"",""trial"",""time""
""fullscreenenter"",""1"",""44198""
","
","
","""event"",""trial"",""time""
""fullscreenenter"",""1"",""44198""
","
","","","","","","650.6999999284744","images/sofa1.png","","","learning","-9","-9","1","1","sofa","furniture","2","0","","good","[4]"
"html-keyboard-response","126","794006","0.0-9.0-2.0-0.27","4273","2","13","Female","approach_avoid_spark_v1","""event"",""trial"",""time""
""fullscreenenter"",""1"",""44198""
","
","
","""event"",""trial"",""time""
""fullscreenenter"",""1"",""44198""
","
","","","","","","null","<div style=""font-size:60px;"">+</div>","null","","fixation","","","","","","","","","","",""
"aa-learning-trial","127","797024","0.0-9.0-2.0-1.27","4273","2","13","Female","approach_avoid_spark_v1","""event"",""trial"",""time""
""fullscreenenter"",""1"",""44198""
","
","
","""event"",""trial"",""time""
""fullscreenenter"",""1"",""44198""
","
","","","","","","757.2999999523163","images/chair5.png","","","learning","7","7","1","1","chair","furniture","2","0","","bad","[-5]"
"html-keyboard-response","128","797535","0.0-9.0-2.0-0.28","4273","2","13","Female","approach_avoid_spark_v1","""event"",""trial"",""time""
""fullscreenenter"",""1"",""44198""
","
","
","""event"",""trial"",""time""
""fullscreenenter"",""1"",""44198""
","
","","","","","","null","<div style=""font-size:60px;"">+</div>","null","","fixation","","","","","","","","","","",""
"aa-learning-trial","129","800552","0.0-9.0-2.0-1.28","4273","2","13","Female","approach_avoid_spark_v1","""event"",""trial"",""time""
""fullscreenenter"",""1"",""44198""
","
","
","""event"",""trial"",""time""
""fullscreenenter"",""1"",""44198""
","
","","","","","","725.5","images/sofa6.png","","","learning","3","3","1","1","sofa","furniture","2","0","","good","[4]"
"html-keyboard-response","130","801062","0.0-9.0-2.0-0.29","4273","2","13","Female","approach_avoid_spark_v1","""event"",""trial"",""time""
""fullscreenenter"",""1"",""44198""
","
","
","""event"",""trial"",""time""
""fullscreenenter"",""1"",""44198""
","
","","","","","","null","<div style=""font-size:60px;"">+</div>","null","","fixation","","","","","","","","","","",""
"aa-learning-trial","131","804079","0.0-9.0-2.0-1.29","4273","2","13","Female","approach_avoid_spark_v1","""event"",""trial"",""time""
""fullscreenenter"",""1"",""44198""
","
","
","""event"",""trial"",""time""
""fullscreenenter"",""1"",""44198""
","
","","","","","","665.3999999761581","images/chair5.png","","","learning","7","7","1","1","chair","furniture","2","0","","bad","[-5]"
"html-keyboard-response","132","804589","0.0-9.0-2.0-0.30","4273","2","13","Female","approach_avoid_spark_v1","""event"",""trial"",""time""
""fullscreenenter"",""1"",""44198""
","
","
","""event"",""trial"",""time""
""fullscreenenter"",""1"",""44198""
","
","","","","","","null","<div style=""font-size:60px;"">+</div>","null","","fixation","","","","","","","","","","",""
"aa-learning-trial","133","807623","0.0-9.0-2.0-1.30","4273","2","13","Female","approach_avoid_spark_v1","""event"",""trial"",""time""
""fullscreenenter"",""1"",""44198""
","
","
","""event"",""trial"",""time""
""fullscreenenter"",""1"",""44198""
","
","","","","","","970.5","images/bed2.png","","","learning","2","-5","-","","bed","furniture","2","0","","neutral","0"
"html-keyboard-response","134","808134","0.0-9.0-2.0-0.31","4273","2","13","Female","approach_avoid_spark_v1","""event"",""trial"",""time""
""fullscreenenter"",""1"",""44198""
","
","
","""event"",""trial"",""time""
""fullscreenenter"",""1"",""44198""
","
","","","","","","null","<div style=""font-size:60px;"">+</div>","null","","fixation","","","","","","","","","","",""
"aa-learning-trial","135","811152","0.0-9.0-2.0-1.31","4273","2","13","Female","approach_avoid_spark_v1","""event"",""trial"",""time""
""fullscreenenter"",""1"",""44198""
","
","
","""event"",""trial"",""time""
""fullscreenenter"",""1"",""44198""
","
","","","","","","884.1000000238419","images/chair7.png","","","learning","-4","-5","-","","chair","furniture","2","0","","bad","[-5]"
"html-keyboard-response","136","811662","0.0-9.0-2.0-0.32","4273","2","13","Female","approach_avoid_spark_v1","""event"",""trial"",""time""
""fullscreenenter"",""1"",""44198""
","
","
","""event"",""trial"",""time""
""fullscreenenter"",""1"",""44198""
","
","","","","","","null","<div style=""font-size:60px;"">+</div>","null","","fixation","","","","","","","","","","",""
"aa-learning-trial","137","814679","0.0-9.0-2.0-1.32","4273","2","13","Female","approach_avoid_spark_v1","""event"",""trial"",""time""
""fullscreenenter"",""1"",""44198""
","
","
","""event"",""trial"",""time""
""fullscreenenter"",""1"",""44198""
","
","","","","","","1767.7999999523163","images/sofa4.png","","","learning","-3","-3","1","1","sofa","furniture","2","0","","good","[4]"
"html-keyboard-response","138","815197","0.0-9.0-2.0-0.33","4273","2","13","Female","approach_avoid_spark_v1","""event"",""trial"",""time""
""fullscreenenter"",""1"",""44198""
","
","
","""event"",""trial"",""time""
""fullscreenenter"",""1"",""44198""
","
","","","","","","null","<div style=""font-size:60px;"">+</div>","null","","fixation","","","","","","","","","","",""
"aa-learning-trial","139","818217","0.0-9.0-2.0-1.33","4273","2","13","Female","approach_avoid_spark_v1","""event"",""trial"",""time""
""fullscreenenter"",""1"",""44198""
","
","
","""event"",""trial"",""time""
""fullscreenenter"",""1"",""44198""
","
","","","","","","1088.1000000238419","images/bed6.png","","","learning","-5","-5","-","","bed","furniture","2","0","","neutral","0"
"html-keyboard-response","140","818725","0.0-9.0-2.0-0.34","4273","2","13","Female","approach_avoid_spark_v1","""event"",""trial"",""time""
""fullscreenenter"",""1"",""44198""
","
","
","""event"",""trial"",""time""
""fullscreenenter"",""1"",""44198""
","
","","","","","","null","<div style=""font-size:60px;"">+</div>","null","","fixation","","","","","","","","","","",""
"aa-learning-trial","141","821744","0.0-9.0-2.0-1.34","4273","2","13","Female","approach_avoid_spark_v1","""event"",""trial"",""time""
""fullscreenenter"",""1"",""44198""
","
","
","""event"",""trial"",""time""
""fullscreenenter"",""1"",""44198""
","
","","","","","","816","images/bed4.png","","","learning","5","5","1","1","bed","furniture","2","0","","neutral","0"
"html-keyboard-response","142","822254","0.0-9.0-2.0-0.35","4273","2","13","Female","approach_avoid_spark_v1","""event"",""trial"",""time""
""fullscreenenter"",""1"",""44198""
","
","
","""event"",""trial"",""time""
""fullscreenenter"",""1"",""44198""
","
","","","","","","null","<div style=""font-size:60px;"">+</div>","null","","fixation","","","","","","","","","","",""
"aa-learning-trial","143","825272","0.0-9.0-2.0-1.35","4273","2","13","Female","approach_avoid_spark_v1","""event"",""trial"",""time""
""fullscreenenter"",""1"",""44198""
","
","
","""event"",""trial"",""time""
""fullscreenenter"",""1"",""44198""
","
","","","","","","1111","images/sofa8.png","","","learning","-2","-2","1","1","sofa","furniture","2","0","","good","[4]"
"html-keyboard-response","144","825784","0.0-9.0-2.0-0.36","4273","2","13","Female","approach_avoid_spark_v1","""event"",""trial"",""time""
""fullscreenenter"",""1"",""44198""
","
","
","""event"",""trial"",""time""
""fullscreenenter"",""1"",""44198""
","
","","","","","","null","<div style=""font-size:60px;"">+</div>","null","","fixation","","","","","","","","","","",""
"aa-learning-trial","145","828799","0.0-9.0-2.0-1.36","4273","2","13","Female","approach_avoid_spark_v1","""event"",""trial"",""time""
""fullscreenenter"",""1"",""44198""
","
","
","""event"",""trial"",""time""
""fullscreenenter"",""1"",""44198""
","
","","","","","","1222.5","images/chair4.png","","","learning","4","4","1","1","chair","furniture","2","0","","bad","[-5]"
"html-keyboard-response","146","829310","0.0-9.0-2.0-0.37","4273","2","13","Female","approach_avoid_spark_v1","""event"",""trial"",""time""
""fullscreenenter"",""1"",""44198""
","
","
","""event"",""trial"",""time""
""fullscreenenter"",""1"",""44198""
","
","","","","","","null","<div style=""font-size:60px;"">+</div>","null","","fixation","","","","","","","","","","",""
"aa-learning-trial","147","832328","0.0-9.0-2.0-1.37","4273","2","13","Female","approach_avoid_spark_v1","""event"",""trial"",""time""
""fullscreenenter"",""1"",""44198""
","
","
","""event"",""trial"",""time""
""fullscreenenter"",""1"",""44198""
","
","","","","","","928.5","images/sofa7.png","","","learning","8","-5","-","","sofa","furniture","2","0","","good","[4]"
"html-keyboard-response","148","832838","0.0-9.0-2.0-0.38","4273","2","13","Female","approach_avoid_spark_v1","""event"",""trial"",""time""
""fullscreenenter"",""1"",""44198""
","
","
","""event"",""trial"",""time""
""fullscreenenter"",""1"",""44198""
","
","","","","","","null","<div style=""font-size:60px;"">+</div>","null","","fixation","","","","","","","","","","",""
"aa-learning-trial","149","835864","0.0-9.0-2.0-1.38","4273","2","13","Female","approach_avoid_spark_v1","""event"",""trial"",""time""
""fullscreenenter"",""1"",""44198""
","
","
","""event"",""trial"",""time""
""fullscreenenter"",""1"",""44198""
","
","","","","","","846.8999999761581","images/sofa1.png","","","learning","-9","-9","1","1","sofa","furniture","2","0","","good","[4]"
"html-keyboard-response","150","836374","0.0-9.0-2.0-0.39","4273","2","13","Female","approach_avoid_spark_v1","""event"",""trial"",""time""
""fullscreenenter"",""1"",""44198""
","
","
","""event"",""trial"",""time""
""fullscreenenter"",""1"",""44198""
","
","","","","","","null","<div style=""font-size:60px;"">+</div>","null","","fixation","","","","","","","","","","",""
"aa-learning-trial","151","839392","0.0-9.0-2.0-1.39","4273","2","13","Female","approach_avoid_spark_v1","""event"",""trial"",""time""
""fullscreenenter"",""1"",""44198""
","
","
","""event"",""trial"",""time""
""fullscreenenter"",""1"",""44198""
","
","","","","","","1101.4000000953674","images/sofa1.png","","","learning","-9","-5","-","","sofa","furniture","2","0","","good","[4]"
"html-keyboard-response","152","839902","0.0-9.0-2.0-0.40","4273","2","13","Female","approach_avoid_spark_v1","""event"",""trial"",""time""
""fullscreenenter"",""1"",""44198""
","
","
","""event"",""trial"",""time""
""fullscreenenter"",""1"",""44198""
","
","","","","","","null","<div style=""font-size:60px;"">+</div>","null","","fixation","","","","","","","","","","",""
"aa-learning-trial","153","842919","0.0-9.0-2.0-1.40","4273","2","13","Female","approach_avoid_spark_v1","""event"",""trial"",""time""
""fullscreenenter"",""1"",""44198""
","
","
","""event"",""trial"",""time""
""fullscreenenter"",""1"",""44198""
","
","","","","","","867.3999999761581","images/bed8.png","","","learning","9","9","1","1","bed","furniture","2","0","","neutral","0"
"html-keyboard-response","154","843429","0.0-9.0-2.0-0.41","4273","2","13","Female","approach_avoid_spark_v1","""event"",""trial"",""time""
""fullscreenenter"",""1"",""44198""
","
","
","""event"",""trial"",""time""
""fullscreenenter"",""1"",""44198""
","
","","","","","","null","<div style=""font-size:60px;"">+</div>","null","","fixation","","","","","","","","","","",""
"aa-learning-trial","155","846448","0.0-9.0-2.0-1.41","4273","2","13","Female","approach_avoid_spark_v1","""event"",""trial"",""time""
""fullscreenenter"",""1"",""44198""
","
","
","""event"",""trial"",""time""
""fullscreenenter"",""1"",""44198""
","
","","","","","","597.2000000476837","images/chair5.png","","","learning","7","7","1","1","chair","furniture","2","0","","bad","[-5]"
"html-keyboard-response","156","846957","0.0-9.0-2.0-0.42","4273","2","13","Female","approach_avoid_spark_v1","""event"",""trial"",""time""
""fullscreenenter"",""1"",""44198""
","
","
","""event"",""trial"",""time""
""fullscreenenter"",""1"",""44198""
","
","","","","","","null","<div style=""font-size:60px;"">+</div>","null","","fixation","","","","","","","","","","",""
"aa-learning-trial","157","849967","0.0-9.0-2.0-1.42","4273","2","13","Female","approach_avoid_spark_v1","""event"",""trial"",""time""
""fullscreenenter"",""1"",""44198""
","
","
","""event"",""trial"",""time""
""fullscreenenter"",""1"",""44198""
","
","","","","","","630","images/chair5.png","","","learning","7","7","1","1","chair","furniture","2","0","","bad","[-5]"
"html-keyboard-response","158","850492","0.0-9.0-2.0-0.43","4273","2","13","Female","approach_avoid_spark_v1","""event"",""trial"",""time""
""fullscreenenter"",""1"",""44198""
","
","
","""event"",""trial"",""time""
""fullscreenenter"",""1"",""44198""
","
","","","","","","null","<div style=""font-size:60px;"">+</div>","null","","fixation","","","","","","","","","","",""
"aa-learning-trial","159","853513","0.0-9.0-2.0-1.43","4273","2","13","Female","approach_avoid_spark_v1","""event"",""trial"",""time""
""fullscreenenter"",""1"",""44198""
","
","
","""event"",""trial"",""time""
""fullscreenenter"",""1"",""44198""
","
","","","","","","1001.2000000476837","images/sofa6.png","","","learning","3","3","1","1","sofa","furniture","2","0","","good","[4]"
"html-keyboard-response","160","854022","0.0-9.0-2.0-0.44","4273","2","13","Female","approach_avoid_spark_v1","""event"",""trial"",""time""
""fullscreenenter"",""1"",""44198""
","
","
","""event"",""trial"",""time""
""fullscreenenter"",""1"",""44198""
","
","","","","","","null","<div style=""font-size:60px;"">+</div>","null","","fixation","","","","","","","","","","",""
"aa-learning-trial","161","857042","0.0-9.0-2.0-1.44","4273","2","13","Female","approach_avoid_spark_v1","""event"",""trial"",""time""
""fullscreenenter"",""1"",""44198""
","
","
","""event"",""trial"",""time""
""fullscreenenter"",""1"",""44198""
","
","","","","","","1043.5","images/chair4.png","","","learning","4","4","1","1","chair","furniture","2","0","","bad","[-5]"
"html-keyboard-response","162","857551","0.0-9.0-2.0-0.45","4273","2","13","Female","approach_avoid_spark_v1","""event"",""trial"",""time""
""fullscreenenter"",""1"",""44198""
","
","
","""event"",""trial"",""time""
""fullscreenenter"",""1"",""44198""
","
","","","","","","null","<div style=""font-size:60px;"">+</div>","null","","fixation","","","","","","","","","","",""
"aa-learning-trial","163","860568","0.0-9.0-2.0-1.45","4273","2","13","Female","approach_avoid_spark_v1","""event"",""trial"",""time""
""fullscreenenter"",""1"",""44198""
","
","
","""event"",""trial"",""time""
""fullscreenenter"",""1"",""44198""
","
","","","","","","1027.8999999761581","images/sofa4.png","","","learning","-3","-3","1","1","sofa","furniture","2","0","","good","[4]"
"html-keyboard-response","164","861077","0.0-9.0-2.0-0.46","4273","2","13","Female","approach_avoid_spark_v1","""event"",""trial"",""time""
""fullscreenenter"",""1"",""44198""
","
","
","""event"",""trial"",""time""
""fullscreenenter"",""1"",""44198""
","
","","","","","","null","<div style=""font-size:60px;"">+</div>","null","","fixation","","","","","","","","","","",""
"aa-learning-trial","165","864096","0.0-9.0-2.0-1.46","4273","2","13","Female","approach_avoid_spark_v1","""event"",""trial"",""time""
""fullscreenenter"",""1"",""44198""
","
","
","""event"",""trial"",""time""
""fullscreenenter"",""1"",""44198""
","
","","","","","","1222","images/sofa4.png","","","learning","-3","-5","-","","sofa","furniture","2","0","","good","[4]"
"html-keyboard-response","166","864606","0.0-9.0-2.0-0.47","4273","2","13","Female","approach_avoid_spark_v1","""event"",""trial"",""time""
""fullscreenenter"",""1"",""44198""
","
","
","""event"",""trial"",""time""
""fullscreenenter"",""1"",""44198""
","
","","","","","","null","<div style=""font-size:60px;"">+</div>","null","","fixation","","","","","","","","","","",""
"aa-learning-trial","167","867624","0.0-9.0-2.0-1.47","4273","2","13","Female","approach_avoid_spark_v1","""event"",""trial"",""time""
""fullscreenenter"",""1"",""44198""
","
","
","""event"",""trial"",""time""
""fullscreenenter"",""1"",""44198""
","
","","","","","","1215.8000000715256","images/chair8.png","","","learning","-1","-5","-","","chair","furniture","2","0","","bad","[-5]"
"html-keyboard-response","168","868136","0.0-9.0-2.0-0.48","4273","2","13","Female","approach_avoid_spark_v1","""event"",""trial"",""time""
""fullscreenenter"",""1"",""44198""
","
","
","""event"",""trial"",""time""
""fullscreenenter"",""1"",""44198""
","
","","","","","","null","<div style=""font-size:60px;"">+</div>","null","","fixation","","","","","","","","","","",""
"aa-learning-trial","169","871152","0.0-9.0-2.0-1.48","4273","2","13","Female","approach_avoid_spark_v1","""event"",""trial"",""time""
""fullscreenenter"",""1"",""44198""
","
","
","""event"",""trial"",""time""
""fullscreenenter"",""1"",""44198""
","
","","","","","","816.8999999761581","images/chair4.png","","","learning","4","4","1","1","chair","furniture","2","0","","bad","[-5]"
"html-keyboard-response","170","871662","0.0-9.0-2.0-0.49","4273","2","13","Female","approach_avoid_spark_v1","""event"",""trial"",""time""
""fullscreenenter"",""1"",""44198""
","
","
","""event"",""trial"",""time""
""fullscreenenter"",""1"",""44198""
","
","","","","","","null","<div style=""font-size:60px;"">+</div>","null","","fixation","","","","","","","","","","",""
"aa-learning-trial","171","874679","0.0-9.0-2.0-1.49","4273","2","13","Female","approach_avoid_spark_v1","""event"",""trial"",""time""
""fullscreenenter"",""1"",""44198""
","
","
","""event"",""trial"",""time""
""fullscreenenter"",""1"",""44198""
","
","","","","","","846.8999999761581","images/chair8.png","","","learning","-1","-5","-","","chair","furniture","2","0","","bad","[-5]"
"html-keyboard-response","172","875190","0.0-9.0-2.0-0.50","4273","2","13","Female","approach_avoid_spark_v1","""event"",""trial"",""time""
""fullscreenenter"",""1"",""44198""
","
","
","""event"",""trial"",""time""
""fullscreenenter"",""1"",""44198""
","
","","","","","","null","<div style=""font-size:60px;"">+</div>","null","","fixation","","","","","","","","","","",""
"aa-learning-trial","173","878199","0.0-9.0-2.0-1.50","4273","2","13","Female","approach_avoid_spark_v1","""event"",""trial"",""time""
""fullscreenenter"",""1"",""44198""
","
","
","""event"",""trial"",""time""
""fullscreenenter"",""1"",""44198""
","
","","","","","","712","images/bed4.png","","","learning","5","5","1","1","bed","furniture","2","0","","neutral","0"
"html-button-response","174","913090","0.0-9.0-3.0","4273","2","13","Female","approach_avoid_spark_v1","""event"",""trial"",""time""
""fullscreenenter"",""1"",""44198""
","
","
","""event"",""trial"",""time""
""fullscreenenter"",""1"",""44198""
","
","","","","","","34883.89999997616","<p> You have completed the round! <p> In this round, you earned -31 points! </p>","0","","break","","","","","","","","","","",""
"html-button-response","175","914330","0.0-10.0","4273","2","13","Female","approach_avoid_spark_v1","""event"",""trial"",""time""
""fullscreenenter"",""1"",""44198""
","
","
","""event"",""trial"",""time""
""fullscreenenter"",""1"",""44198""
","
","","","","","","1233.1999999284744","<p> Now it's time to play another round. </p>","0","","transition_screen","","","","","","","","","","",""
"preload","176","914501","0.0-11.0-0.0","4273","2","13","Female","approach_avoid_spark_v1","""event"",""trial"",""time""
""fullscreenenter"",""1"",""44198""
","
","
","""event"",""trial"",""time""
""fullscreenenter"",""1"",""44198""
","
","true","false","[]","[]","[]","","","","","","","","","","","","","","","",""
"learning-instructions","177","920802","0.0-11.0-1.0-0.0","4273","2","13","Female","approach_avoid_spark_v1","""event"",""trial"",""time""
""fullscreenenter"",""1"",""44198""
","
","
","""event"",""trial"",""time""
""fullscreenenter"",""1"",""44198""
","
","","","","","","2441.100000023842","<p> Your goal in this round is to eat tasty fruit. </p></div>","","0","instructions","","","","","","","","","","",""
"learning-instructions","178","932051","0.0-11.0-1.0-0.1","4273","2","13","Female","approach_avoid_spark_v1","""event"",""trial"",""time""
""fullscreenenter"",""1"",""44198""
","
","
","""event"",""trial"",""time""
""fullscreenenter"",""1"",""44198""
","
","","","","","","1671.4000000953674","<p> Some of the fruits you will see are tasty. Others are rotten on the inside.  </p><p> On each turn, you will see a fruit.   </p><p> You need to decide whether to eat it or not.  </p>","","0","instructions","","","","","","","","","","",""
"learning-instructions","179","938260","0.0-11.0-1.0-0.2","4273","2","13","Female","approach_avoid_spark_v1","""event"",""trial"",""time""
""fullscreenenter"",""1"",""44198""
","
","
","""event"",""trial"",""time""
""fullscreenenter"",""1"",""44198""
","
","","","","","","1149.6000000238419","<p> You can eat the fruit by pressing 1 and choose not to eat it by pressing 0. </p><br><div class=""choice-instructions-grid""> <div class=""choice-option""><img src=""images/approach.png"" class=""choice-option-img"" stage=""instructions"" position=""0"" ><div class=""choice-option-text""> Press ""1."" </div></div><div class=""choice-option""><img src=""images/avoid.png"" class=""choice-option-img"" stage=""instructions"" position=""1"" ><div class=""choice-option-text""> Press ""0."" </div></div>","","0","instructions","","","","","","","","","","",""
"learning-instructions","180","948705","0.0-11.0-1.0-0.3","4273","2","13","Female","approach_avoid_spark_v1","""event"",""trial"",""time""
""fullscreenenter"",""1"",""44198""
","
","
","""event"",""trial"",""time""
""fullscreenenter"",""1"",""44198""
","
","","","","","","3234.100000023842","<p> If you eat the fruit and it was tasty, you will win points! </p><p> But if you eat the fruit and it was rotten, you will lose points. </p>","","0","instructions","","","","","","","","","","",""
"learning-instructions","181","964965","0.0-11.0-1.0-0.4","4273","2","13","Female","approach_avoid_spark_v1","""event"",""trial"",""time""
""fullscreenenter"",""1"",""44198""
","
","
","""event"",""trial"",""time""
""fullscreenenter"",""1"",""44198""
","
","","","","","","4645.100000023842","<p> You will earn points based on how tasty or rotten the fruit was. </p><p> If it was tasty, you will WIN anywhere from 1 - 9 points, </p><p> but if it was rotten, you will LOSE anywhere from 1 - 9 points. </p>","","0","instructions","","","","","","","","","","",""
"learning-instructions","182","976871","0.0-11.0-1.0-0.5","4273","2","13","Female","approach_avoid_spark_v1","""event"",""trial"",""time""
""fullscreenenter"",""1"",""44198""
","
","
","""event"",""trial"",""time""
""fullscreenenter"",""1"",""44198""
","
","","","","","","5240.799999952316","<p> You will see how many points you won or lost in the center of the screen. </p><p> Here is what you would see if you earned 5 points: </p><p style=""color:green;font-size:50px;font-weight:bolder"">5</p>","","0","instructions","","","","","","","","","","",""
"learning-instructions","183","981576","0.0-11.0-1.0-0.6","4273","2","13","Female","approach_avoid_spark_v1","""event"",""trial"",""time""
""fullscreenenter"",""1"",""44198""
","
","
","""event"",""trial"",""time""
""fullscreenenter"",""1"",""44198""
","
","","","","","","1852.8999999761581","<p> And here is what you would see if you lost 3 points: </p><p style=""color:red;font-size:50px;font-weight:bolder"">-3</p>","","0","instructions","","","","","","","","","","",""
"learning-instructions","184","996172","0.0-11.0-1.0-0.7","4273","2","13","Female","approach_avoid_spark_v1","""event"",""trial"",""time""
""fullscreenenter"",""1"",""44198""
","
","
","""event"",""trial"",""time""
""fullscreenenter"",""1"",""44198""
","
","","","","","","810.5","<p> Some fruit is very tasty or very rotten. </p><p> These fruits will make you win or lose LOTS of points. </p><p> Other fruits are only kind of tasty or kind of rotten. </p><p> These fruits will make you win or lose small amounts of points. </p>","","0","instructions","","","","","","","","","","",""
"learning-instructions","185","1016350","0.0-11.0-1.0-0.8","4273","2","13","Female","approach_avoid_spark_v1","""event"",""trial"",""time""
""fullscreenenter"",""1"",""44198""
","
","
","""event"",""trial"",""time""
""fullscreenenter"",""1"",""44198""
","
","","","","","","9737.5","<p> If you choose to not eat the fruit, you will not win or lose any points. </p><p>  However, in the center of the screen, you will see the number of points you WOULD HAVE earned if you had eaten the fruit. </p>","","0","instructions","","","","","","","","","","",""
"learning-instructions","186","1035716","0.0-11.0-1.0-0.9","4273","2","13","Female","approach_avoid_spark_v1","""event"",""trial"",""time""
""fullscreenenter"",""1"",""44198""
","
","
","""event"",""trial"",""time""
""fullscreenenter"",""1"",""44198""
","
","","","","","","9463","<p> Here is what you might see if you did not eat the fruit but the fruit was tasty: </p><p style=""color:grey; font-size:50px; display: inline-block; border-spacing: 15px; border-width:3px; border-style:solid; border-color:red"">  &nbsp; 6 &nbsp; </p><p> Remember, in this case, you would not win or lose ANY points because you did not eat the fruit.  </p>","","0","instructions","","","","","","","","","","",""
"learning-instructions","187","1045638","0.0-11.0-1.0-0.10","4273","2","13","Female","approach_avoid_spark_v1","""event"",""trial"",""time""
""fullscreenenter"",""1"",""44198""
","
","
","""event"",""trial"",""time""
""fullscreenenter"",""1"",""44198""
","
","","","","","","2035.6999999284744","<p> Try to make the best choice for each fruit because </p><p> at the end of the game, you will earn bonus money based on how many points you earned. </p>","","0","instructions","","","","","","","","","","",""
"learning-instructions","188","1055350","0.0-11.0-1.0-0.11","4273","2","13","Female","approach_avoid_spark_v1","""event"",""trial"",""time""
""fullscreenenter"",""1"",""44198""
","
","
","""event"",""trial"",""time""
""fullscreenenter"",""1"",""44198""
","
","","","","","","1510.0999999046326","<p> You will have 3 seconds to make each choice. Try to respond before time runs out! </p><p> You will lose 5 points each time you do not make a response. </p>","","0","instructions","","","","","","","","","","",""
"html-keyboard-response","189","1055984","0.0-11.0-2.0-0.0","4273","2","13","Female","approach_avoid_spark_v1","""event"",""trial"",""time""
""fullscreenenter"",""1"",""44198""
","
","
","""event"",""trial"",""time""
""fullscreenenter"",""1"",""44198""
","
","","","","","","null","<div style=""font-size:60px;"">+</div>","null","","fixation","","","","","","","","","","",""
"aa-learning-trial","190","1059000","0.0-11.0-2.0-1.0","4273","2","13","Female","approach_avoid_spark_v1","""event"",""trial"",""time""
""fullscreenenter"",""1"",""44198""
","
","
","""event"",""trial"",""time""
""fullscreenenter"",""1"",""44198""
","
","","","","","","2495.600000023842","images/orange3.png","","","learning","4","4","1","1","orange","fruit","1","1","","good","[4]"
"html-keyboard-response","191","1059509","0.0-11.0-2.0-0.1","4273","2","13","Female","approach_avoid_spark_v1","""event"",""trial"",""time""
""fullscreenenter"",""1"",""44198""
","
","
","""event"",""trial"",""time""
""fullscreenenter"",""1"",""44198""
","
","","","","","","null","<div style=""font-size:60px;"">+</div>","null","","fixation","","","","","","","","","","",""
"aa-learning-trial","192","1062531","0.0-11.0-2.0-1.1","4273","2","13","Female","approach_avoid_spark_v1","""event"",""trial"",""time""
""fullscreenenter"",""1"",""44198""
","
","
","""event"",""trial"",""time""
""fullscreenenter"",""1"",""44198""
","
","","","","","","1549.3999999761581","images/banana1.png","","","learning","-2","-5","=","","banana","fruit","1","1","","bad","[-5]"
"html-keyboard-response","193","1063048","0.0-11.0-2.0-0.2","4273","2","13","Female","approach_avoid_spark_v1","""event"",""trial"",""time""
""fullscreenenter"",""1"",""44198""
","
","
","""event"",""trial"",""time""
""fullscreenenter"",""1"",""44198""
","
","","","","","","null","<div style=""font-size:60px;"">+</div>","null","","fixation","","","","","","","","","","",""
"aa-learning-trial","194","1066076","0.0-11.0-2.0-1.2","4273","2","13","Female","approach_avoid_spark_v1","""event"",""trial"",""time""
""fullscreenenter"",""1"",""44198""
","
","
","""event"",""trial"",""time""
""fullscreenenter"",""1"",""44198""
","
","","","","","","680.3999999761581","images/straw2.png","","","learning","[1]","1","1","1","straw","fruit","1","1","","neutral","0"
"html-keyboard-response","195","1066601","0.0-11.0-2.0-0.3","4273","2","13","Female","approach_avoid_spark_v1","""event"",""trial"",""time""
""fullscreenenter"",""1"",""44198""
","
","
","""event"",""trial"",""time""
""fullscreenenter"",""1"",""44198""
","
","","","","","","null","<div style=""font-size:60px;"">+</div>","null","","fixation","","","","","","","","","","",""
"aa-learning-trial","196","1069615","0.0-11.0-2.0-1.3","4273","2","13","Female","approach_avoid_spark_v1","""event"",""trial"",""time""
""fullscreenenter"",""1"",""44198""
","
","
","""event"",""trial"",""time""
""fullscreenenter"",""1"",""44198""
","
","","","","","","524.6000000238419","images/orange5.png","","","learning","4","4","1","1","orange","fruit","1","1","","good","[4]"
"html-keyboard-response","197","1070139","0.0-11.0-2.0-0.4","4273","2","13","Female","approach_avoid_spark_v1","""event"",""trial"",""time""
""fullscreenenter"",""1"",""44198""
","
","
","""event"",""trial"",""time""
""fullscreenenter"",""1"",""44198""
","
","","","","","","null","<div style=""font-size:60px;"">+</div>","null","","fixation","","","","","","","","","","",""
"aa-learning-trial","198","1073152","0.0-11.0-2.0-1.4","4273","2","13","Female","approach_avoid_spark_v1","""event"",""trial"",""time""
""fullscreenenter"",""1"",""44198""
","
","
","""event"",""trial"",""time""
""fullscreenenter"",""1"",""44198""
","
","","","","","","650.8999999761581","images/straw8.png","","","learning","-2","-2","1","1","straw","fruit","1","1","","neutral","0"
"html-keyboard-response","199","1073680","0.0-11.0-2.0-0.5","4273","2","13","Female","approach_avoid_spark_v1","""event"",""trial"",""time""
""fullscreenenter"",""1"",""44198""
","
","
","""event"",""trial"",""time""
""fullscreenenter"",""1"",""44198""
","
","","","","","","null","<div style=""font-size:60px;"">+</div>","null","","fixation","","","","","","","","","","",""
"aa-learning-trial","200","1076700","0.0-11.0-2.0-1.5","4273","2","13","Female","approach_avoid_spark_v1","""event"",""trial"",""time""
""fullscreenenter"",""1"",""44198""
","
","
","""event"",""trial"",""time""
""fullscreenenter"",""1"",""44198""
","
","","","","","","1297.5999999046326","images/orange5.png","","","learning","4","4","1","1","orange","fruit","1","1","","good","[4]"
"html-keyboard-response","201","1077219","0.0-11.0-2.0-0.6","4273","2","13","Female","approach_avoid_spark_v1","""event"",""trial"",""time""
""fullscreenenter"",""1"",""44198""
","
","
","""event"",""trial"",""time""
""fullscreenenter"",""1"",""44198""
","
","","","","","","null","<div style=""font-size:60px;"">+</div>","null","","fixation","","","","","","","","","","",""
"aa-learning-trial","202","1080236","0.0-11.0-2.0-1.6","4273","2","13","Female","approach_avoid_spark_v1","""event"",""trial"",""time""
""fullscreenenter"",""1"",""44198""
","
","
","""event"",""trial"",""time""
""fullscreenenter"",""1"",""44198""
","
","","","","","","840.1000000238419","images/straw2.png","","","learning","[1]","1","1","1","straw","fruit","1","1","","neutral","0"
"html-keyboard-response","203","1080762","0.0-11.0-2.0-0.7","4273","2","13","Female","approach_avoid_spark_v1","""event"",""trial"",""time""
""fullscreenenter"",""1"",""44198""
","
","
","""event"",""trial"",""time""
""fullscreenenter"",""1"",""44198""
","
","","","","","","null","<div style=""font-size:60px;"">+</div>","null","","fixation","","","","","","","","","","",""
"aa-learning-trial","204","1083792","0.0-11.0-2.0-1.7","4273","2","13","Female","approach_avoid_spark_v1","""event"",""trial"",""time""
""fullscreenenter"",""1"",""44198""
","
","
","""event"",""trial"",""time""
""fullscreenenter"",""1"",""44198""
","
","","","","","","1004.6000000238419","images/straw7.png","","","learning","-1","-1","1","1","straw","fruit","1","1","","neutral","0"
"html-keyboard-response","205","1084302","0.0-11.0-2.0-0.8","4273","2","13","Female","approach_avoid_spark_v1","""event"",""trial"",""time""
""fullscreenenter"",""1"",""44198""
","
","
","""event"",""trial"",""time""
""fullscreenenter"",""1"",""44198""
","
","","","","","","null","<div style=""font-size:60px;"">+</div>","null","","fixation","","","","","","","","","","",""
"aa-learning-trial","206","1087319","0.0-11.0-2.0-1.8","4273","2","13","Female","approach_avoid_spark_v1","""event"",""trial"",""time""
""fullscreenenter"",""1"",""44198""
","
","
","""event"",""trial"",""time""
""fullscreenenter"",""1"",""44198""
","
","","","","","","518.5999999046326","images/banana1.png","","","learning","-6","0","0","0","banana","fruit","1","1","","bad","[-5]"
"html-keyboard-response","207","1087830","0.0-11.0-2.0-0.9","4273","2","13","Female","approach_avoid_spark_v1","""event"",""trial"",""time""
""fullscreenenter"",""1"",""44198""
","
","
","""event"",""trial"",""time""
""fullscreenenter"",""1"",""44198""
","
","","","","","","null","<div style=""font-size:60px;"">+</div>","null","","fixation","","","","","","","","","","",""
"aa-learning-trial","208","1090848","0.0-11.0-2.0-1.9","4273","2","13","Female","approach_avoid_spark_v1","""event"",""trial"",""time""
""fullscreenenter"",""1"",""44198""
","
","
","""event"",""trial"",""time""
""fullscreenenter"",""1"",""44198""
","
","","","","","","572.1000000238419","images/straw8.png","","","learning","2","0","0","0","straw","fruit","1","1","","neutral","0"
"html-keyboard-response","209","1091358","0.0-11.0-2.0-0.10","4273","2","13","Female","approach_avoid_spark_v1","""event"",""trial"",""time""
""fullscreenenter"",""1"",""44198""
","
","
","""event"",""trial"",""time""
""fullscreenenter"",""1"",""44198""
","
","","","","","","null","<div style=""font-size:60px;"">+</div>","null","","fixation","","","","","","","","","","",""
"aa-learning-trial","210","1094385","0.0-11.0-2.0-1.10","4273","2","13","Female","approach_avoid_spark_v1","""event"",""trial"",""time""
""fullscreenenter"",""1"",""44198""
","
","
","""event"",""trial"",""time""
""fullscreenenter"",""1"",""44198""
","
","","","","","","876.2000000476837","images/orange4.png","","","learning","3","0","0","0","orange","fruit","1","1","","good","[4]"
"html-keyboard-response","211","1094894","0.0-11.0-2.0-0.11","4273","2","13","Female","approach_avoid_spark_v1","""event"",""trial"",""time""
""fullscreenenter"",""1"",""44198""
","
","
","""event"",""trial"",""time""
""fullscreenenter"",""1"",""44198""
","
","","","","","","null","<div style=""font-size:60px;"">+</div>","null","","fixation","","","","","","","","","","",""
"aa-learning-trial","212","1097911","0.0-11.0-2.0-1.11","4273","2","13","Female","approach_avoid_spark_v1","""event"",""trial"",""time""
""fullscreenenter"",""1"",""44198""
","
","
","""event"",""trial"",""time""
""fullscreenenter"",""1"",""44198""
","
","","","","","","679.8000000715256","images/banana4.png","","","learning","-4","0","0","0","banana","fruit","1","1","","bad","[-5]"
"html-keyboard-response","213","1098422","0.0-11.0-2.0-0.12","4273","2","13","Female","approach_avoid_spark_v1","""event"",""trial"",""time""
""fullscreenenter"",""1"",""44198""
","
","
","""event"",""trial"",""time""
""fullscreenenter"",""1"",""44198""
","
","","","","","","null","<div style=""font-size:60px;"">+</div>","null","","fixation","","","","","","","","","","",""
"aa-learning-trial","214","1101442","0.0-11.0-2.0-1.12","4273","2","13","Female","approach_avoid_spark_v1","""event"",""trial"",""time""
""fullscreenenter"",""1"",""44198""
","
","
","""event"",""trial"",""time""
""fullscreenenter"",""1"",""44198""
","
","","","","","","813.3000000715256","images/banana4.png","","","learning","-3","0","0","0","banana","fruit","1","1","","bad","[-5]"
"html-keyboard-response","215","1101950","0.0-11.0-2.0-0.13","4273","2","13","Female","approach_avoid_spark_v1","""event"",""trial"",""time""
""fullscreenenter"",""1"",""44198""
","
","
","""event"",""trial"",""time""
""fullscreenenter"",""1"",""44198""
","
","","","","","","null","<div style=""font-size:60px;"">+</div>","null","","fixation","","","","","","","","","","",""
"aa-learning-trial","216","1104968","0.0-11.0-2.0-1.13","4273","2","13","Female","approach_avoid_spark_v1","""event"",""trial"",""time""
""fullscreenenter"",""1"",""44198""
","
","
","""event"",""trial"",""time""
""fullscreenenter"",""1"",""44198""
","
","","","","","","1270.2999999523163","images/orange4.png","","","learning","5","5","1","1","orange","fruit","1","1","","good","[4]"
"html-keyboard-response","217","1105478","0.0-11.0-2.0-0.14","4273","2","13","Female","approach_avoid_spark_v1","""event"",""trial"",""time""
""fullscreenenter"",""1"",""44198""
","
","
","""event"",""trial"",""time""
""fullscreenenter"",""1"",""44198""
","
","","","","","","null","<div style=""font-size:60px;"">+</div>","null","","fixation","","","","","","","","","","",""
"aa-learning-trial","218","1108485","0.0-11.0-2.0-1.14","4273","2","13","Female","approach_avoid_spark_v1","""event"",""trial"",""time""
""fullscreenenter"",""1"",""44198""
","
","
","""event"",""trial"",""time""
""fullscreenenter"",""1"",""44198""
","
","","","","","","1050.9000000953674","images/banana8.png","","","learning","-5","0","0","0","banana","fruit","1","1","","bad","[-5]"
"html-keyboard-response","219","1108989","0.0-11.0-2.0-0.15","4273","2","13","Female","approach_avoid_spark_v1","""event"",""trial"",""time""
""fullscreenenter"",""1"",""44198""
","
","
","""event"",""trial"",""time""
""fullscreenenter"",""1"",""44198""
","
","","","","","","null","<div style=""font-size:60px;"">+</div>","null","","fixation","","","","","","","","","","",""
"aa-learning-trial","220","1112019","0.0-11.0-2.0-1.15","4273","2","13","Female","approach_avoid_spark_v1","""event"",""trial"",""time""
""fullscreenenter"",""1"",""44198""
","
","
","""event"",""trial"",""time""
""fullscreenenter"",""1"",""44198""
","
","","","","","","792.8999999761581","images/orange5.png","","","learning","5","5","1","1","orange","fruit","1","1","","good","[4]"
"html-keyboard-response","221","1112535","0.0-11.0-2.0-0.16","4273","2","13","Female","approach_avoid_spark_v1","""event"",""trial"",""time""
""fullscreenenter"",""1"",""44198""
","
","
","""event"",""trial"",""time""
""fullscreenenter"",""1"",""44198""
","
","","","","","","null","<div style=""font-size:60px;"">+</div>","null","","fixation","","","","","","","","","","",""
"aa-learning-trial","222","1115553","0.0-11.0-2.0-1.16","4273","2","13","Female","approach_avoid_spark_v1","""event"",""trial"",""time""
""fullscreenenter"",""1"",""44198""
","
","
","""event"",""trial"",""time""
""fullscreenenter"",""1"",""44198""
","
","","","","","","1030.8999999761581","images/orange4.png","","","learning","2","2","1","1","orange","fruit","1","1","","good","[4]"
"html-keyboard-response","223","1116061","0.0-11.0-2.0-0.17","4273","2","13","Female","approach_avoid_spark_v1","""event"",""trial"",""time""
""fullscreenenter"",""1"",""44198""
","
","
","""event"",""trial"",""time""
""fullscreenenter"",""1"",""44198""
","
","","","","","","null","<div style=""font-size:60px;"">+</div>","null","","fixation","","","","","","","","","","",""
"aa-learning-trial","224","1119079","0.0-11.0-2.0-1.17","4273","2","13","Female","approach_avoid_spark_v1","""event"",""trial"",""time""
""fullscreenenter"",""1"",""44198""
","
","
","""event"",""trial"",""time""
""fullscreenenter"",""1"",""44198""
","
","","","","","","2130.600000023842","images/orange4.png","","","learning","5","0","0","0","orange","fruit","1","1","","good","[4]"
"html-keyboard-response","225","1119591","0.0-11.0-2.0-0.18","4273","2","13","Female","approach_avoid_spark_v1","""event"",""trial"",""time""
""fullscreenenter"",""1"",""44198""
","
","
","""event"",""trial"",""time""
""fullscreenenter"",""1"",""44198""
","
","","","","","","null","<div style=""font-size:60px;"">+</div>","null","","fixation","","","","","","","","","","",""
"aa-learning-trial","226","1122606","0.0-11.0-2.0-1.18","4273","2","13","Female","approach_avoid_spark_v1","""event"",""trial"",""time""
""fullscreenenter"",""1"",""44198""
","
","
","""event"",""trial"",""time""
""fullscreenenter"",""1"",""44198""
","
","","","","","","530.3000000715256","images/banana1.png","","","learning","-3","0","0","0","banana","fruit","1","1","","bad","[-5]"
"html-keyboard-response","227","1123119","0.0-11.0-2.0-0.19","4273","2","13","Female","approach_avoid_spark_v1","""event"",""trial"",""time""
""fullscreenenter"",""1"",""44198""
","
","
","""event"",""trial"",""time""
""fullscreenenter"",""1"",""44198""
","
","","","","","","null","<div style=""font-size:60px;"">+</div>","null","","fixation","","","","","","","","","","",""
"aa-learning-trial","228","1126135","0.0-11.0-2.0-1.19","4273","2","13","Female","approach_avoid_spark_v1","""event"",""trial"",""time""
""fullscreenenter"",""1"",""44198""
","
","
","""event"",""trial"",""time""
""fullscreenenter"",""1"",""44198""
","
","","","","","","627.6000000238419","images/orange3.png","","","learning","5","5","1","1","orange","fruit","1","1","","good","[4]"
"html-keyboard-response","229","1126657","0.0-11.0-2.0-0.20","4273","2","13","Female","approach_avoid_spark_v1","""event"",""trial"",""time""
""fullscreenenter"",""1"",""44198""
","
","
","""event"",""trial"",""time""
""fullscreenenter"",""1"",""44198""
","
","","","","","","null","<div style=""font-size:60px;"">+</div>","null","","fixation","","","","","","","","","","",""
"aa-learning-trial","230","1129680","0.0-11.0-2.0-1.20","4273","2","13","Female","approach_avoid_spark_v1","""event"",""trial"",""time""
""fullscreenenter"",""1"",""44198""
","
","
","""event"",""trial"",""time""
""fullscreenenter"",""1"",""44198""
","
","","","","","","1068.3000000715256","images/orange5.png","","","learning","4","0","0","0","orange","fruit","1","1","","good","[4]"
"html-keyboard-response","231","1130190","0.0-11.0-2.0-0.21","4273","2","13","Female","approach_avoid_spark_v1","""event"",""trial"",""time""
""fullscreenenter"",""1"",""44198""
","
","
","""event"",""trial"",""time""
""fullscreenenter"",""1"",""44198""
","
","","","","","","null","<div style=""font-size:60px;"">+</div>","null","","fixation","","","","","","","","","","",""
"aa-learning-trial","232","1133209","0.0-11.0-2.0-1.21","4273","2","13","Female","approach_avoid_spark_v1","""event"",""trial"",""time""
""fullscreenenter"",""1"",""44198""
","
","
","""event"",""trial"",""time""
""fullscreenenter"",""1"",""44198""
","
","","","","","","684.8999999761581","images/orange5.png","","","learning","5","5","1","1","orange","fruit","1","1","","good","[4]"
"html-keyboard-response","233","1133718","0.0-11.0-2.0-0.22","4273","2","13","Female","approach_avoid_spark_v1","""event"",""trial"",""time""
""fullscreenenter"",""1"",""44198""
","
","
","""event"",""trial"",""time""
""fullscreenenter"",""1"",""44198""
","
","","","","","","null","<div style=""font-size:60px;"">+</div>","null","","fixation","","","","","","","","","","",""
"aa-learning-trial","234","1136738","0.0-11.0-2.0-1.22","4273","2","13","Female","approach_avoid_spark_v1","""event"",""trial"",""time""
""fullscreenenter"",""1"",""44198""
","
","
","""event"",""trial"",""time""
""fullscreenenter"",""1"",""44198""
","
","","","","","","784","images/straw8.png","","","learning","[-1]","-1","1","1","straw","fruit","1","1","","neutral","0"
