"trial_type","trial_index","time_elapsed","internal_node_id","subject_id","task_condition","age","gender","task_version","interactions","blur_events","focus_events","fullscreenenter_events","fullscreenexit_events","success","timeout","failed_images","failed_audio","failed_video","rt","stimulus","response","button_pressed","task_part","approach_reward","points","key_press","option_selected","stim_cat","task_block","block_condition","block_number","correct","cat_type","mean_cat_reward"
"pavlovia","0","8","0.0-0.0","5938","1","16","Female","approach_avoid_spark_v1","""event"",""trial"",""time""
""fullscreenenter"",""1"",""2464""
","
","
","""event"",""trial"",""time""
""fullscreenenter"",""1"",""2464""
","
","","","","","","","","","","","","","","","","","","","","",""
"fullscreen","1","3457","0.0-1.0","5938","1","16","Female","approach_avoid_spark_v1","""event"",""trial"",""time""
""fullscreenenter"",""1"",""2464""
","
","
","""event"",""trial"",""time""
""fullscreenenter"",""1"",""2464""
","
","true","","","","","","","","","","","","","","","","","","","",""
"preload","2","16213","0.0-2.0","5938","1","16","Female","approach_avoid_spark_v1","""event"",""trial"",""time""
""fullscreenenter"",""1"",""2464""
","
","
","""event"",""trial"",""time""
""fullscreenenter"",""1"",""2464""
","
","true","false","[]","[]","[]","","","","","","","","","","","","","","","",""
"audio-keyboard-response","3","26121","0.0-3.0","5938","1","16","Female","approach_avoid_spark_v1","""event"",""trial"",""time""
""fullscreenenter"",""1"",""2464""
","
","
","""event"",""trial"",""time""
""fullscreenenter"",""1"",""2464""
","
","","","","","","9909.333333333332","audio/beep_loop.wav"," ","","","","","","","","","","","","",""
"audio-button-response","4","29557","0.0-4.0","5938","1","16","Female","approach_avoid_spark_v1","""event"",""trial"",""time""
""fullscreenenter"",""1"",""2464""
","
","
","""event"",""trial"",""time""
""fullscreenenter"",""1"",""2464""
","
","","","","","","3432","audio/shark.wav","4","","","","","","","","","","","","",""
"audio-button-response","5","32070","0.0-5.0","5938","1","16","Female","approach_avoid_spark_v1","""event"",""trial"",""time""
""fullscreenenter"",""1"",""2464""
","
","
","""event"",""trial"",""time""
""fullscreenenter"",""1"",""2464""
","
","","","","","","1501","audio/turtle.wav","1","","","","","","","","","","","","",""
"preload","6","36037","0.0-6.0","5938","1","16","Female","approach_avoid_spark_v1","""event"",""trial"",""time""
""fullscreenenter"",""1"",""2464""
","
","
","""event"",""trial"",""time""
""fullscreenenter"",""1"",""2464""
","
","true","false","[]","[]","[]","","","","","","","","","","","","","","","",""
"html-keyboard-response","7","39127","0.0-7.0","5938","1","16","Female","approach_avoid_spark_v1","""event"",""trial"",""time""
""fullscreenenter"",""1"",""2464""
","
","
","""event"",""trial"",""time""
""fullscreenenter"",""1"",""2464""
","
","","","","","","3088.2000000001863","Welcome to the experiment. Press any key to begin and to advance the instructions."," ","","","","","","","","","","","","",""
"learning-instructions","8","47758","0.0-8.0-0.0-0.0","5938","1","16","Female","approach_avoid_spark_v1","""event"",""trial"",""time""
""fullscreenenter"",""1"",""2464""
","
","
","""event"",""trial"",""time""
""fullscreenenter"",""1"",""2464""
","
","","","","","","1673.8999999999069","<p> Welcome! Today you are going to play 6 different rounds of a decision-making game. </p><p> Use the mouse to click next to continue. </p>","","0","instructions","","","","","","","","","","",""
"learning-instructions","9","51606","0.0-8.0-0.0-0.1","5938","1","16","Female","approach_avoid_spark_v1","""event"",""trial"",""time""
""fullscreenenter"",""1"",""2464""
","
","
","""event"",""trial"",""time""
""fullscreenenter"",""1"",""2464""
","
","","","","","","1105.2999999998137","<p> You will start with a practice round to learn the rules. </p>","","0","instructions","","","","","","","","","","",""
"learning-instructions","10","56478","0.0-8.0-0.0-0.2","5938","1","16","Female","approach_avoid_spark_v1","""event"",""trial"",""time""
""fullscreenenter"",""1"",""2464""
","
","
","""event"",""trial"",""time""
""fullscreenenter"",""1"",""2464""
","
","","","","","","1408.1999999997206","<p> Your goal in this round is to give out sports equipment to kids. </p></div>","","0","instructions","","","","","","","","","","",""
"learning-instructions","11","64846","0.0-8.0-0.0-0.3","5938","1","16","Female","approach_avoid_spark_v1","""event"",""trial"",""time""
""fullscreenenter"",""1"",""2464""
","
","
","""event"",""trial"",""time""
""fullscreenenter"",""1"",""2464""
","
","","","","","","815.7999999998137","<p> The kids only like some of the equipment.  </p><p> On each turn, you will see a piece of sports equipment.   </p><p> You need to decide whether to give it to the kids or not.  </p>","","0","instructions","","","","","","","","","","",""
"learning-instructions","12","72918","0.0-8.0-0.0-0.4","5938","1","16","Female","approach_avoid_spark_v1","""event"",""trial"",""time""
""fullscreenenter"",""1"",""2464""
","
","
","""event"",""trial"",""time""
""fullscreenenter"",""1"",""2464""
","
","","","","","","3316.399999999907","<p> You can give them the equipment by pressing 1 and choose not to give it to them by pressing 0. </p><br><div class=""choice-instructions-grid""> <div class=""choice-option""><img src=""images/approach.png"" class=""choice-option-img"" stage=""instructions"" position=""0"" ><div class=""choice-option-text""> Press ""1."" </div></div><div class=""choice-option""><img src=""images/avoid.png"" class=""choice-option-img"" stage=""instructions"" position=""1"" ><div class=""choice-option-text""> Press ""0."" </div></div>","","0","instructions","","","","","","","","","","",""
"learning-instructions","13","81238","0.0-8.0-0.0-0.5","5938","1","16","Female","approach_avoid_spark_v1","""event"",""trial"",""time""
""fullscreenenter"",""1"",""2464""
","
","
","""event"",""trial"",""time""
""fullscreenenter"",""1"",""2464""
","
","","","","","","937.1000000000931","<p> If you give them a piece of equipment they like, they will be happy! </p><p> But if you give them a piece of equipment they do not like, they will be sad. </p>","","0","instructions","","","","","","","","","","",""
"learning-instructions","14","92574","0.0-8.0-0.0-0.6","5938","1","16","Female","approach_avoid_spark_v1","""event"",""trial"",""time""
""fullscreenenter"",""1"",""2464""
","
","
","""event"",""trial"",""time""
""fullscreenenter"",""1"",""2464""
","
","","","","","","813.2999999998137","<p> You will earn points based on how you make kids feel. </p><p> If you make them happy, you will WIN anywhere from 1 - 9 points, </p><p> but if you make them sad, you will LOSE anywhere from 1 - 9 points. </p>","","0","instructions","","","","","","","","","","",""
"learning-instructions","15","102854","0.0-8.0-0.0-0.7","5938","1","16","Female","approach_avoid_spark_v1","""event"",""trial"",""time""
""fullscreenenter"",""1"",""2464""
","
","
","""event"",""trial"",""time""
""fullscreenenter"",""1"",""2464""
","
","","","","","","713.2999999998137","<p> You will see how many points you won or lost in the center of the screen. </p><p> Here is what you would see if you won 6 points: </p><p style=""color:green;font-size:50px;font-weight:bolder"">6</p><p style=""color:green"">The text is GREEN because you WON points.</p>","","0","instructions","","","","","","","","","","",""
"learning-instructions","16","108886","0.0-8.0-0.0-0.8","5938","1","16","Female","approach_avoid_spark_v1","""event"",""trial"",""time""
""fullscreenenter"",""1"",""2464""
","
","
","""event"",""trial"",""time""
""fullscreenenter"",""1"",""2464""
","
","","","","","","534.8999999999069","<p> And here is what you would see if you lost 4 points: </p><p style=""color:red;font-size:50px;font-weight:bolder"">-4</p><p style=""color:red"">The text is RED because you LOST points. </p>","","0","instructions","","","","","","","","","","",""
"learning-instructions","17","126398","0.0-8.0-0.0-0.9","5938","1","16","Female","approach_avoid_spark_v1","""event"",""trial"",""time""
""fullscreenenter"",""1"",""2464""
","
","
","""event"",""trial"",""time""
""fullscreenenter"",""1"",""2464""
","
","","","","","","2797","<p> Some of the equipment will make the kids VERY happy or sad. </p><p> These pieces of equipment will make you win or lose LOTS of points. </p><p> Other pieces of equipment will only make the kids a little happy or sad. </p><p> These pieces of equipment will make you win or lose small amounts of points. </p>","","0","instructions","","","","","","","","","","",""
"learning-instructions","18","137829","0.0-8.0-0.0-0.10","5938","1","16","Female","approach_avoid_spark_v1","""event"",""trial"",""time""
""fullscreenenter"",""1"",""2464""
","
","
","""event"",""trial"",""time""
""fullscreenenter"",""1"",""2464""
","
","","","","","","808.3999999999069","<p> If you choose not to give them the equipment, you will not win or lose any points. </p><p>  However, in the center of the screen, you will see the number of points you WOULD HAVE won or lost if you had given them the equipment. </p>","","0","instructions","","","","","","","","","","",""
"learning-instructions","19","160646","0.0-8.0-0.0-0.11","5938","1","16","Female","approach_avoid_spark_v1","""event"",""trial"",""time""
""fullscreenenter"",""1"",""2464""
","
","
","""event"",""trial"",""time""
""fullscreenenter"",""1"",""2464""
","
","","","","","","1295.4000000003725","<p> Here is what you might see if you did not give the equipment to the kids but it would have made them happy: </p><p style=""color:grey; font-size:50px; display: inline-block; border-spacing: 15px; border-width:3px; border-style:solid; border-color:red"">  &nbsp; 7 &nbsp; </p><p> Remember, in this case, you would not win or lose ANY points because you did not give them the equipment.  </p><p style=""color:grey"">The text is GREY because you earned ZERO points. </p><p style=""color:red"">However, choosing to give the kids the equipment would have made you win points. The box around the text is RED because you chose the worse option. </p>","","0","instructions","","","","","","","","","","",""
"learning-instructions","20","182934","0.0-8.0-0.0-0.12","5938","1","16","Female","approach_avoid_spark_v1","""event"",""trial"",""time""
""fullscreenenter"",""1"",""2464""
","
","
","""event"",""trial"",""time""
""fullscreenenter"",""1"",""2464""
","
","","","","","","1202.6000000000931","<p> Here is what you might see if you did not give the equipment to the kids but it would have made them sad: </p><p style=""color:grey;font-size:50px; display: inline-block; border-spacing: 15px; border-width:3px; border-style:solid; border-color:green"">  &nbsp; -8 &nbsp; </p><p> Remember, in this case, you would not win or lose ANY points because you did not give them the equipment.  </p><p style=""color:grey"">The text is GREY because you earned ZERO points. </p><p  style=""color:green""> Choosing to give the kids the equipment would have made you lose points. The box around the text is GREEN because you chose the better option.</p>","","0","instructions","","","","","","","","","","",""
"learning-instructions","21","196717","0.0-8.0-0.0-0.13","5938","1","16","Female","approach_avoid_spark_v1","""event"",""trial"",""time""
""fullscreenenter"",""1"",""2464""
","
","
","""event"",""trial"",""time""
""fullscreenenter"",""1"",""2464""
","
","","","","","","1646.5","<p> You will have 3 seconds to make each choice. Try to respond before time runs out! </p><p> You will lose 5 points each time you do not make a response. </p>","","0","instructions","","","","","","","","","","",""
"learning-instructions","22","203318","0.0-8.0-0.0-0.14","5938","1","16","Female","approach_avoid_spark_v1","""event"",""trial"",""time""
""fullscreenenter"",""1"",""2464""
","
","
","""event"",""trial"",""time""
""fullscreenenter"",""1"",""2464""
","
","","","","","","1187.2000000001863","<p> This is just a practice round, but in the real game, your bonus payment will depend on your total number of points.","","0","instructions","","","","","","","","","","",""
"learning-instructions","23","210278","0.0-8.0-0.0-0.15","5938","1","16","Female","approach_avoid_spark_v1","""event"",""trial"",""time""
""fullscreenenter"",""1"",""2464""
","
","
","""event"",""trial"",""time""
""fullscreenenter"",""1"",""2464""
","
","","","","","","1186.5","<p> Remember, you can give them the equipment by pressing 1 and choose not to give it to them by pressing 0. </p><br><div class=""choice-instructions-grid""> <div class=""choice-option""><img src=""images/approach.png"" class=""choice-option-img"" stage=""instructions"" position=""0"" ><div class=""choice-option-text""> Press ""1."" </div></div><div class=""choice-option""><img src=""images/avoid.png"" class=""choice-option-img"" stage=""instructions"" position=""1"" ><div class=""choice-option-text""> Press ""0."" </div></div>","","0","instructions","","","","","","","","","","",""
"html-button-response","24","211781","0.0-8.0-1.0","5938","1","16","Female","approach_avoid_spark_v1","""event"",""trial"",""time""
""fullscreenenter"",""1"",""2464""
","
","
","""event"",""trial"",""time""
""fullscreenenter"",""1"",""2464""
","
","","","","","","1383.5","<p> Ready to practice? </p>","0","","","","","","","","","","","","",""
"html-keyboard-response","25","212389","0.0-8.0-2.0-0.0","5938","1","16","Female","approach_avoid_spark_v1","""event"",""trial"",""time""
""fullscreenenter"",""1"",""2464""
","
","
","""event"",""trial"",""time""
""fullscreenenter"",""1"",""2464""
","
","","","","","","null","<div style=""font-size:60px;"">+</div>","null","","fixation","","","","","","","","","","",""
"aa-learning-trial","26","215413","0.0-8.0-2.0-1.0","5938","1","16","Female","approach_avoid_spark_v1","""event"",""trial"",""time""
""fullscreenenter"",""1"",""2464""
","
","
","""event"",""trial"",""time""
""fullscreenenter"",""1"",""2464""
","
","","","","","","2475.7999999998137","images/ball2.png","","","learning","-2","-2","1","1","practice","practice","practice","-1","","",""
"html-keyboard-response","27","215928","0.0-8.0-2.0-0.1","5938","1","16","Female","approach_avoid_spark_v1","""event"",""trial"",""time""
""fullscreenenter"",""1"",""2464""
","
","
","""event"",""trial"",""time""
""fullscreenenter"",""1"",""2464""
","
","","","","","","null","<div style=""font-size:60px;"">+</div>","null","","fixation","","","","","","","","","","",""
"aa-learning-trial","28","218936","0.0-8.0-2.0-1.1","5938","1","16","Female","approach_avoid_spark_v1","""event"",""trial"",""time""
""fullscreenenter"",""1"",""2464""
","
","
","""event"",""trial"",""time""
""fullscreenenter"",""1"",""2464""
","
","","","","","","1145","images/ball3.png","","","learning","3","0","0","0","practice","practice","practice","-1","","",""
"html-keyboard-response","29","219452","0.0-8.0-2.0-0.2","5938","1","16","Female","approach_avoid_spark_v1","""event"",""trial"",""time""
""fullscreenenter"",""1"",""2464""
","
","
","""event"",""trial"",""time""
""fullscreenenter"",""1"",""2464""
","
","","","","","","null","<div style=""font-size:60px;"">+</div>","null","","fixation","","","","","","","","","","",""
"aa-learning-trial","30","222464","0.0-8.0-2.0-1.2","5938","1","16","Female","approach_avoid_spark_v1","""event"",""trial"",""time""
""fullscreenenter"",""1"",""2464""
","
","
","""event"",""trial"",""time""
""fullscreenenter"",""1"",""2464""
","
","","","","","","1141.5","images/ball1.png","","","learning","-6","-6","1","1","practice","practice","practice","-1","","",""
"html-keyboard-response","31","222980","0.0-8.0-2.0-0.3","5938","1","16","Female","approach_avoid_spark_v1","""event"",""trial"",""time""
""fullscreenenter"",""1"",""2464""
","
","
","""event"",""trial"",""time""
""fullscreenenter"",""1"",""2464""
","
","","","","","","null","<div style=""font-size:60px;"">+</div>","null","","fixation","","","","","","","","","","",""
"aa-learning-trial","32","225990","0.0-8.0-2.0-1.3","5938","1","16","Female","approach_avoid_spark_v1","""event"",""trial"",""time""
""fullscreenenter"",""1"",""2464""
","
","
","""event"",""trial"",""time""
""fullscreenenter"",""1"",""2464""
","
","","","","","","1284.8999999999069","images/ball3.png","","","learning","5","0","0","0","practice","practice","practice","-1","","",""
"html-keyboard-response","33","226507","0.0-8.0-2.0-0.4","5938","1","16","Female","approach_avoid_spark_v1","""event"",""trial"",""time""
""fullscreenenter"",""1"",""2464""
","
","
","""event"",""trial"",""time""
""fullscreenenter"",""1"",""2464""
","
","","","","","","null","<div style=""font-size:60px;"">+</div>","null","","fixation","","","","","","","","","","",""
"aa-learning-trial","34","229521","0.0-8.0-2.0-1.4","5938","1","16","Female","approach_avoid_spark_v1","""event"",""trial"",""time""
""fullscreenenter"",""1"",""2464""
","
","
","""event"",""trial"",""time""
""fullscreenenter"",""1"",""2464""
","
","","","","","","1391.3000000002794","images/ball3.png","","","learning","3","0","0","0","practice","practice","practice","-1","","",""
"html-keyboard-response","35","230037","0.0-8.0-2.0-0.5","5938","1","16","Female","approach_avoid_spark_v1","""event"",""trial"",""time""
""fullscreenenter"",""1"",""2464""
","
","
","""event"",""trial"",""time""
""fullscreenenter"",""1"",""2464""
","
","","","","","","null","<div style=""font-size:60px;"">+</div>","null","","fixation","","","","","","","","","","",""
"aa-learning-trial","36","233046","0.0-8.0-2.0-1.5","5938","1","16","Female","approach_avoid_spark_v1","""event"",""trial"",""time""
""fullscreenenter"",""1"",""2464""
","
","
","""event"",""trial"",""time""
""fullscreenenter"",""1"",""2464""
","
","","","","","","996.8999999999069","images/racket1.png","","","learning","-6","-6","1","1","practice","practice","practice","-1","","",""
"html-keyboard-response","37","233550","0.0-8.0-2.0-0.6","5938","1","16","Female","approach_avoid_spark_v1","""event"",""trial"",""time""
""fullscreenenter"",""1"",""2464""
","
","
","""event"",""trial"",""time""
""fullscreenenter"",""1"",""2464""
","
","","","","","","null","<div style=""font-size:60px;"">+</div>","null","","fixation","","","","","","","","","","",""
"aa-learning-trial","38","236559","0.0-8.0-2.0-1.6","5938","1","16","Female","approach_avoid_spark_v1","""event"",""trial"",""time""
""fullscreenenter"",""1"",""2464""
","
","
","""event"",""trial"",""time""
""fullscreenenter"",""1"",""2464""
","
","","","","","","1651.3000000002794","images/racket4.png","","","learning","-3","0","0","0","practice","practice","practice","-1","","",""
"html-keyboard-response","39","237077","0.0-8.0-2.0-0.7","5938","1","16","Female","approach_avoid_spark_v1","""event"",""trial"",""time""
""fullscreenenter"",""1"",""2464""
","
","
","""event"",""trial"",""time""
""fullscreenenter"",""1"",""2464""
","
","","","","","","null","<div style=""font-size:60px;"">+</div>","null","","fixation","","","","","","","","","","",""
"aa-learning-trial","40","240083","0.0-8.0-2.0-1.7","5938","1","16","Female","approach_avoid_spark_v1","""event"",""trial"",""time""
""fullscreenenter"",""1"",""2464""
","
","
","""event"",""trial"",""time""
""fullscreenenter"",""1"",""2464""
","
","","","","","","763.7000000001863","images/racket2.png","","","learning","-1","0","0","0","practice","practice","practice","-1","","",""
"html-keyboard-response","41","240588","0.0-8.0-2.0-0.8","5938","1","16","Female","approach_avoid_spark_v1","""event"",""trial"",""time""
""fullscreenenter"",""1"",""2464""
","
","
","""event"",""trial"",""time""
""fullscreenenter"",""1"",""2464""
","
","","","","","","null","<div style=""font-size:60px;"">+</div>","null","","fixation","","","","","","","","","","",""
"aa-learning-trial","42","243596","0.0-8.0-2.0-1.8","5938","1","16","Female","approach_avoid_spark_v1","""event"",""trial"",""time""
""fullscreenenter"",""1"",""2464""
","
","
","""event"",""trial"",""time""
""fullscreenenter"",""1"",""2464""
","
","","","","","","639.2000000001863","images/racket4.png","","","learning","7","0","0","0","practice","practice","practice","-1","","",""
"html-keyboard-response","43","244101","0.0-8.0-2.0-0.9","5938","1","16","Female","approach_avoid_spark_v1","""event"",""trial"",""time""
""fullscreenenter"",""1"",""2464""
","
","
","""event"",""trial"",""time""
""fullscreenenter"",""1"",""2464""
","
","","","","","","null","<div style=""font-size:60px;"">+</div>","null","","fixation","","","","","","","","","","",""
"aa-learning-trial","44","247109","0.0-8.0-2.0-1.9","5938","1","16","Female","approach_avoid_spark_v1","""event"",""trial"",""time""
""fullscreenenter"",""1"",""2464""
","
","
","""event"",""trial"",""time""
""fullscreenenter"",""1"",""2464""
","
","","","","","","692.3999999999069","images/ball1.png","","","learning","5","5","1","1","practice","practice","practice","-1","","",""
"html-keyboard-response","45","247612","0.0-8.0-2.0-0.10","5938","1","16","Female","approach_avoid_spark_v1","""event"",""trial"",""time""
""fullscreenenter"",""1"",""2464""
","
","
","""event"",""trial"",""time""
""fullscreenenter"",""1"",""2464""
","
","","","","","","null","<div style=""font-size:60px;"">+</div>","null","","fixation","","","","","","","","","","",""
"aa-learning-trial","46","250620","0.0-8.0-2.0-1.10","5938","1","16","Female","approach_avoid_spark_v1","""event"",""trial"",""time""
""fullscreenenter"",""1"",""2464""
","
","
","""event"",""trial"",""time""
""fullscreenenter"",""1"",""2464""
","
","","","","","","620.5999999996275","images/ball3.png","","","learning","-9","-9","1","1","practice","practice","practice","-1","","",""
"html-keyboard-response","47","251124","0.0-8.0-2.0-0.11","5938","1","16","Female","approach_avoid_spark_v1","""event"",""trial"",""time""
""fullscreenenter"",""1"",""2464""
","
","
","""event"",""trial"",""time""
""fullscreenenter"",""1"",""2464""
","
","","","","","","null","<div style=""font-size:60px;"">+</div>","null","","fixation","","","","","","","","","","",""
"aa-learning-trial","48","254133","0.0-8.0-2.0-1.11","5938","1","16","Female","approach_avoid_spark_v1","""event"",""trial"",""time""
""fullscreenenter"",""1"",""2464""
","
","
","""event"",""trial"",""time""
""fullscreenenter"",""1"",""2464""
","
","","","","","","1189.3999999999069","images/ball4.png","","","learning","-3","-3","1","1","practice","practice","practice","-1","","",""
"html-button-response","49","257286","0.0-8.0-3.0","5938","1","16","Female","approach_avoid_spark_v1","""event"",""trial"",""time""
""fullscreenenter"",""1"",""2464""
","
","
","""event"",""trial"",""time""
""fullscreenenter"",""1"",""2464""
","
","","","","","","3149.600000000093","<p> You earned -21 points in the practice round! </p>","0","","break","","","","","","","","","","",""
"learning-instructions","50","265278","0.0-8.0-4.0-0.0","5938","1","16","Female","approach_avoid_spark_v1","""event"",""trial"",""time""
""fullscreenenter"",""1"",""2464""
","
","
","""event"",""trial"",""time""
""fullscreenenter"",""1"",""2464""
","
","","","","","","2020.9000000003725","<p> It's almost time to start the real game. </p><p> Before you start, we're going to ask you a few questions about how the game works. </p>","","0","instructions","","","","","","","","","","",""
"preload","51","274661","0.0-8.0-5.0","5938","1","16","Female","approach_avoid_spark_v1","""event"",""trial"",""time""
""fullscreenenter"",""1"",""2464""
","
","
","""event"",""trial"",""time""
""fullscreenenter"",""1"",""2464""
","
","true","false","[]","[]","[]","","","","","","","","","","","","","","","",""
"comp-q","52","281230","0.0-8.0-6.0-0.0","5938","1","16","Female","approach_avoid_spark_v1","""event"",""trial"",""time""
""fullscreenenter"",""1"",""2464""
","
","
","""event"",""trial"",""time""
""fullscreenenter"",""1"",""2464""
","
","","","","","","1572.6999999997206","<p> <b> True or False? </b> </p><p> If you see a number in GREY, that means you earned that many points. </p>","","1","comp_question","","","","","","","","","true","",""
"comp-q","53","290749","0.0-8.0-6.0-1.0","5938","1","16","Female","approach_avoid_spark_v1","""event"",""trial"",""time""
""fullscreenenter"",""1"",""2464""
","
","
","""event"",""trial"",""time""
""fullscreenenter"",""1"",""2464""
","
","","","","","","1143.7000000001863","<p><b> That's right! </b> If you see a grey number, it means you earned ZERO points. <br> The grey numbers show the points you WOULD HAVE earned if you had made the other choice. </p>","","0","comp_answer","","","","","","","","","","",""
"comp-q","54","297157","0.0-8.0-7.0-0.0","5938","1","16","Female","approach_avoid_spark_v1","""event"",""trial"",""time""
""fullscreenenter"",""1"",""2464""
","
","
","""event"",""trial"",""time""
""fullscreenenter"",""1"",""2464""
","
","","","","","","1711.9000000003725","<p> <b> True or False? </b> </p><p> You will have as much time as you want to make each choice. </p>","","1","comp_question","","","","","","","","","true","",""
"comp-q","55","303021","0.0-8.0-7.0-1.0","5938","1","16","Female","approach_avoid_spark_v1","""event"",""trial"",""time""
""fullscreenenter"",""1"",""2464""
","
","
","""event"",""trial"",""time""
""fullscreenenter"",""1"",""2464""
","
","","","","","","1815.5","<p> <b> That's right! </b> You will only have 3 seconds to make each choice. </p>","","0","comp_answer","","","","","","","","","","",""
"comp-q","56","308709","0.0-8.0-8.0-0.0","5938","1","16","Female","approach_avoid_spark_v1","""event"",""trial"",""time""
""fullscreenenter"",""1"",""2464""
","
","
","""event"",""trial"",""time""
""fullscreenenter"",""1"",""2464""
","
","","","","","","1032.1999999997206","<p> <b> True or False? </b> </p><p> You should use the '1' and '0' keys to make your choices. </p>","","0","comp_question","","","","","","","","","true","",""
"comp-q","57","314269","0.0-8.0-8.0-1.0","5938","1","16","Female","approach_avoid_spark_v1","""event"",""trial"",""time""
""fullscreenenter"",""1"",""2464""
","
","
","""event"",""trial"",""time""
""fullscreenenter"",""1"",""2464""
","
","","","","","","943.4000000003725","<p> <b> That's right! </b> You should use the '1' and '0' keys to make each choice. </p>","","0","comp_answer","","","","","","","","","","",""
"learning-instructions","58","322493","0.0-8.0-9.0-0.0","5938","1","16","Female","approach_avoid_spark_v1","""event"",""trial"",""time""
""fullscreenenter"",""1"",""2464""
","
","
","""event"",""trial"",""time""
""fullscreenenter"",""1"",""2464""
","
","","","","","","1937.2000000001863","<p> It's now time to start the real game. </p>Do your best, because the points you earn in the next rounds will influence your bonus payment. </p>","","0","instructions","","","","","","","","","","",""
"preload","59","322651","0.0-9.0-0.0","5938","1","16","Female","approach_avoid_spark_v1","""event"",""trial"",""time""
""fullscreenenter"",""1"",""2464""
","
","
","""event"",""trial"",""time""
""fullscreenenter"",""1"",""2464""
","
","true","false","[]","[]","[]","","","","","","","","","","","","","","","",""
"learning-instructions","60","327261","0.0-9.0-1.0-0.0","5938","1","16","Female","approach_avoid_spark_v1","""event"",""trial"",""time""
""fullscreenenter"",""1"",""2464""
","
","
","""event"",""trial"",""time""
""fullscreenenter"",""1"",""2464""
","
","","","","","","885.1000000000931","<p> Your goal in this round is to take care of lots of animals. </p></div>","","0","instructions","","","","","","","","","","",""
"learning-instructions","61","338445","0.0-9.0-1.0-0.1","5938","1","16","Female","approach_avoid_spark_v1","""event"",""trial"",""time""
""fullscreenenter"",""1"",""2464""
","
","
","""event"",""trial"",""time""
""fullscreenenter"",""1"",""2464""
","
","","","","","","1258.6000000000931","<p> Some animals want to be pet, while other animals want to be left alone.  </p><p> On each turn, you will see an animal.   </p><p> You need to decide whether to pet it or not.  </p>","","0","instructions","","","","","","","","","","",""
"learning-instructions","62","343989","0.0-9.0-1.0-0.2","5938","1","16","Female","approach_avoid_spark_v1","""event"",""trial"",""time""
""fullscreenenter"",""1"",""2464""
","
","
","""event"",""trial"",""time""
""fullscreenenter"",""1"",""2464""
","
","","","","","","532.1000000000931","<p> You can pet the animal by pressing 1 and leave the animal alone by pressing 0. </p><br><div class=""choice-instructions-grid""> <div class=""choice-option""><img src=""images/approach.png"" class=""choice-option-img"" stage=""instructions"" position=""0"" ><div class=""choice-option-text""> Press ""1."" </div></div><div class=""choice-option""><img src=""images/avoid.png"" class=""choice-option-img"" stage=""instructions"" position=""1"" ><div class=""choice-option-text""> Press ""0."" </div></div>","","0","instructions","","","","","","","","","","",""
"learning-instructions","63","353877","0.0-9.0-1.0-0.3","5938","1","16","Female","approach_avoid_spark_v1","""event"",""trial"",""time""
""fullscreenenter"",""1"",""2464""
","
","
","""event"",""trial"",""time""
""fullscreenenter"",""1"",""2464""
","
","","","","","","951.3000000002794","<p> If you pet an animal that wants to be pet, you will make it feel happy! </p><p> But if you pet an animal that wants to be left alone, you will make it feel angry. </p>","","0","instructions","","","","","","","","","","",""
"learning-instructions","64","369412","0.0-9.0-1.0-0.4","5938","1","16","Female","approach_avoid_spark_v1","""event"",""trial"",""time""
""fullscreenenter"",""1"",""2464""
","
","
","""event"",""trial"",""time""
""fullscreenenter"",""1"",""2464""
","
","","","","","","3356.4000000003725","<p> You will earn points based on how you made the animal feel. </p><p> If you made it feel happy, you will WIN anywhere from 1 - 9 points, </p><p> but if you made it feel angry, you will LOSE anywhere from 1 - 9 points. </p>","","0","instructions","","","","","","","","","","",""
"learning-instructions","65","378493","0.0-9.0-1.0-0.5","5938","1","16","Female","approach_avoid_spark_v1","""event"",""trial"",""time""
""fullscreenenter"",""1"",""2464""
","
","
","""event"",""trial"",""time""
""fullscreenenter"",""1"",""2464""
","
","","","","","","1286.8999999999069","<p> You will see how many points you won or lost in the center of the screen. </p><p> Here is what you would see if you won 5 points: </p><p style=""color:green;font-size:50px;font-weight:bolder"">5</p>","","0","instructions","","","","","","","","","","",""
"learning-instructions","66","382309","0.0-9.0-1.0-0.6","5938","1","16","Female","approach_avoid_spark_v1","""event"",""trial"",""time""
""fullscreenenter"",""1"",""2464""
","
","
","""event"",""trial"",""time""
""fullscreenenter"",""1"",""2464""
","
","","","","","","473.09999999962747","<p> And here is what you would see if you lost 3 points: </p><p style=""color:red;font-size:50px;font-weight:bolder"">-3</p>","","0","instructions","","","","","","","","","","",""
"learning-instructions","67","402696","0.0-9.0-1.0-0.7","5938","1","16","Female","approach_avoid_spark_v1","""event"",""trial"",""time""
""fullscreenenter"",""1"",""2464""
","
","
","""event"",""trial"",""time""
""fullscreenenter"",""1"",""2464""
","
","","","","","","2914.600000000093","<p> Some animals will become very happy or very angry. </p><p> These animals will make you win or lose LOTS of points. </p><p> Other animals have less strong feelings. </p><p> These animals will make you win or lose small amounts of points. </p>","","0","instructions","","","","","","","","","","",""
"learning-instructions","68","416672","0.0-9.0-1.0-0.8","5938","1","16","Female","approach_avoid_spark_v1","""event"",""trial"",""time""
""fullscreenenter"",""1"",""2464""
","
","
","""event"",""trial"",""time""
""fullscreenenter"",""1"",""2464""
","
","","","","","","1529.8999999999069","<p> If you choose to leave the animal alone, you will not win or lose any points. </p><p>  However, in the center of the screen, you will see the number of points you WOULD HAVE won or lost if you had pet the animal. </p>","","0","instructions","","","","","","","","","","",""
"learning-instructions","69","430856","0.0-9.0-1.0-0.9","5938","1","16","Female","approach_avoid_spark_v1","""event"",""trial"",""time""
""fullscreenenter"",""1"",""2464""
","
","
","""event"",""trial"",""time""
""fullscreenenter"",""1"",""2464""
","
","","","","","","2344","<p> Here is what you might see if you did not pet the animal but the animal wanted to be pet: </p><p style=""color:grey; font-size:50px; display: inline-block; border-spacing: 15px; border-width:3px; border-style:solid; border-color:red"">  &nbsp; 6 &nbsp; </p><p> Remember, in this case, you would not win or lose ANY points because you did not pet the animal.  </p>","","0","instructions","","","","","","","","","","",""
"learning-instructions","70","439201","0.0-9.0-1.0-0.10","5938","1","16","Female","approach_avoid_spark_v1","""event"",""trial"",""time""
""fullscreenenter"",""1"",""2464""
","
","
","""event"",""trial"",""time""
""fullscreenenter"",""1"",""2464""
","
","","","","","","1219","<p> Try to make the best choice for each animal because </p><p> at the end of the game, you will earn bonus money based on how many points you earned. </p>","","0","instructions","","","","","","","","","","",""
"learning-instructions","71","448164","0.0-9.0-1.0-0.11","5938","1","16","Female","approach_avoid_spark_v1","""event"",""trial"",""time""
""fullscreenenter"",""1"",""2464""
","
","
","""event"",""trial"",""time""
""fullscreenenter"",""1"",""2464""
","
","","","","","","758.2000000001863","<p> You will have 3 seconds to make each choice. Try to respond before time runs out! </p><p> You will lose 5 points each time you do not make a response. </p>","","0","instructions","","","","","","","","","","",""
"html-keyboard-response","72","448775","0.0-9.0-2.0-0.0","5938","1","16","Female","approach_avoid_spark_v1","""event"",""trial"",""time""
""fullscreenenter"",""1"",""2464""
","
","
","""event"",""trial"",""time""
""fullscreenenter"",""1"",""2464""
","
","","","","","","null","<div style=""font-size:60px;"">+</div>","null","","fixation","","","","","","","","","","",""
"aa-learning-trial","73","451792","0.0-9.0-2.0-1.0","5938","1","16","Female","approach_avoid_spark_v1","""event"",""trial"",""time""
""fullscreenenter"",""1"",""2464""
","
","
","""event"",""trial"",""time""
""fullscreenenter"",""1"",""2464""
","
","","","","","","1334.2000000001863","images/rodent5.png","","","learning","5","0","0","0","rodent","pets","1","0","","good","[6]"
"html-keyboard-response","74","452299","0.0-9.0-2.0-0.1","5938","1","16","Female","approach_avoid_spark_v1","""event"",""trial"",""time""
""fullscreenenter"",""1"",""2464""
","
","
","""event"",""trial"",""time""
""fullscreenenter"",""1"",""2464""
","
","","","","","","null","<div style=""font-size:60px;"">+</div>","null","","fixation","","","","","","","","","","",""
"aa-learning-trial","75","455317","0.0-9.0-2.0-1.1","5938","1","16","Female","approach_avoid_spark_v1","""event"",""trial"",""time""
""fullscreenenter"",""1"",""2464""
","
","
","""event"",""trial"",""time""
""fullscreenenter"",""1"",""2464""
","
","","","","","","1739.8999999999069","images/dog1.png","","","learning","-7","0","0","0","dog","pets","1","0","","bad","[-6]"
"html-keyboard-response","76","455819","0.0-9.0-2.0-0.2","5938","1","16","Female","approach_avoid_spark_v1","""event"",""trial"",""time""
""fullscreenenter"",""1"",""2464""
","
","
","""event"",""trial"",""time""
""fullscreenenter"",""1"",""2464""
","
","","","","","","null","<div style=""font-size:60px;"">+</div>","null","","fixation","","","","","","","","","","",""
"aa-learning-trial","77","458840","0.0-9.0-2.0-1.2","5938","1","16","Female","approach_avoid_spark_v1","""event"",""trial"",""time""
""fullscreenenter"",""1"",""2464""
","
","
","""event"",""trial"",""time""
""fullscreenenter"",""1"",""2464""
","
","","","","","","1667.8999999999069","images/dog1.png","","","learning","-5","-5","1","1","dog","pets","1","0","","bad","[-6]"
"html-keyboard-response","78","459348","0.0-9.0-2.0-0.3","5938","1","16","Female","approach_avoid_spark_v1","""event"",""trial"",""time""
""fullscreenenter"",""1"",""2464""
","
","
","""event"",""trial"",""time""
""fullscreenenter"",""1"",""2464""
","
","","","","","","null","<div style=""font-size:60px;"">+</div>","null","","fixation","","","","","","","","","","",""
"aa-learning-trial","79","462367","0.0-9.0-2.0-1.3","5938","1","16","Female","approach_avoid_spark_v1","""event"",""trial"",""time""
""fullscreenenter"",""1"",""2464""
","
","
","""event"",""trial"",""time""
""fullscreenenter"",""1"",""2464""
","
","","","","","","1348.5","images/rodent5.png","","","learning","6","6","1","1","rodent","pets","1","0","","good","[6]"
"html-keyboard-response","80","462884","0.0-9.0-2.0-0.4","5938","1","16","Female","approach_avoid_spark_v1","""event"",""trial"",""time""
""fullscreenenter"",""1"",""2464""
","
","
","""event"",""trial"",""time""
""fullscreenenter"",""1"",""2464""
","
","","","","","","null","<div style=""font-size:60px;"">+</div>","null","","fixation","","","","","","","","","","",""
"aa-learning-trial","81","465893","0.0-9.0-2.0-1.4","5938","1","16","Female","approach_avoid_spark_v1","""event"",""trial"",""time""
""fullscreenenter"",""1"",""2464""
","
","
","""event"",""trial"",""time""
""fullscreenenter"",""1"",""2464""
","
","","","","","","1596.1000000000931","images/rodent2.png","","","learning","8","8","1","1","rodent","pets","1","0","","good","[6]"
"html-keyboard-response","82","466398","0.0-9.0-2.0-0.5","5938","1","16","Female","approach_avoid_spark_v1","""event"",""trial"",""time""
""fullscreenenter"",""1"",""2464""
","
","
","""event"",""trial"",""time""
""fullscreenenter"",""1"",""2464""
","
","","","","","","null","<div style=""font-size:60px;"">+</div>","null","","fixation","","","","","","","","","","",""
"aa-learning-trial","83","469403","0.0-9.0-2.0-1.5","5938","1","16","Female","approach_avoid_spark_v1","""event"",""trial"",""time""
""fullscreenenter"",""1"",""2464""
","
","
","""event"",""trial"",""time""
""fullscreenenter"",""1"",""2464""
","
","","","","","","1155.7999999998137","images/cat7.png","","","learning","-2","0","0","0","cat","pets","1","0","","neutral","0"
"html-keyboard-response","84","469906","0.0-9.0-2.0-0.6","5938","1","16","Female","approach_avoid_spark_v1","""event"",""trial"",""time""
""fullscreenenter"",""1"",""2464""
","
","
","""event"",""trial"",""time""
""fullscreenenter"",""1"",""2464""
","
","","","","","","null","<div style=""font-size:60px;"">+</div>","null","","fixation","","","","","","","","","","",""
"aa-learning-trial","85","472917","0.0-9.0-2.0-1.6","5938","1","16","Female","approach_avoid_spark_v1","""event"",""trial"",""time""
""fullscreenenter"",""1"",""2464""
","
","
","""event"",""trial"",""time""
""fullscreenenter"",""1"",""2464""
","
","","","","","","720.1000000000931","images/dog8.png","","","learning","-8","-8","1","1","dog","pets","1","0","","bad","[-6]"
"html-keyboard-response","86","473430","0.0-9.0-2.0-0.7","5938","1","16","Female","approach_avoid_spark_v1","""event"",""trial"",""time""
""fullscreenenter"",""1"",""2464""
","
","
","""event"",""trial"",""time""
""fullscreenenter"",""1"",""2464""
","
","","","","","","null","<div style=""font-size:60px;"">+</div>","null","","fixation","","","","","","","","","","",""
"aa-learning-trial","87","476449","0.0-9.0-2.0-1.7","5938","1","16","Female","approach_avoid_spark_v1","""event"",""trial"",""time""
""fullscreenenter"",""1"",""2464""
","
","
","""event"",""trial"",""time""
""fullscreenenter"",""1"",""2464""
","
","","","","","","825.3999999999069","images/rodent2.png","","","learning","5","5","1","1","rodent","pets","1","0","","good","[6]"
"html-keyboard-response","88","476965","0.0-9.0-2.0-0.8","5938","1","16","Female","approach_avoid_spark_v1","""event"",""trial"",""time""
""fullscreenenter"",""1"",""2464""
","
","
","""event"",""trial"",""time""
""fullscreenenter"",""1"",""2464""
","
","","","","","","null","<div style=""font-size:60px;"">+</div>","null","","fixation","","","","","","","","","","",""
"aa-learning-trial","89","479972","0.0-9.0-2.0-1.8","5938","1","16","Female","approach_avoid_spark_v1","""event"",""trial"",""time""
""fullscreenenter"",""1"",""2464""
","
","
","""event"",""trial"",""time""
""fullscreenenter"",""1"",""2464""
","
","","","","","","938.7999999998137","images/cat2.png","","","learning","1","0","0","0","cat","pets","1","0","","neutral","0"
"html-keyboard-response","90","480476","0.0-9.0-2.0-0.9","5938","1","16","Female","approach_avoid_spark_v1","""event"",""trial"",""time""
""fullscreenenter"",""1"",""2464""
","
","
","""event"",""trial"",""time""
""fullscreenenter"",""1"",""2464""
","
","","","","","","null","<div style=""font-size:60px;"">+</div>","null","","fixation","","","","","","","","","","",""
"aa-learning-trial","91","483483","0.0-9.0-2.0-1.9","5938","1","16","Female","approach_avoid_spark_v1","""event"",""trial"",""time""
""fullscreenenter"",""1"",""2464""
","
","
","""event"",""trial"",""time""
""fullscreenenter"",""1"",""2464""
","
","","","","","","1276.1000000000931","images/rodent3.png","","","learning","7","0","0","0","rodent","pets","1","0","","good","[6]"
"html-keyboard-response","92","483987","0.0-9.0-2.0-0.10","5938","1","16","Female","approach_avoid_spark_v1","""event"",""trial"",""time""
""fullscreenenter"",""1"",""2464""
","
","
","""event"",""trial"",""time""
""fullscreenenter"",""1"",""2464""
","
","","","","","","null","<div style=""font-size:60px;"">+</div>","null","","fixation","","","","","","","","","","",""
"aa-learning-trial","93","486996","0.0-9.0-2.0-1.10","5938","1","16","Female","approach_avoid_spark_v1","""event"",""trial"",""time""
""fullscreenenter"",""1"",""2464""
","
","
","""event"",""trial"",""time""
""fullscreenenter"",""1"",""2464""
","
","","","","","","1351.1000000000931","images/cat2.png","","","learning","1","1","1","1","cat","pets","1","0","","neutral","0"
"html-keyboard-response","94","487499","0.0-9.0-2.0-0.11","5938","1","16","Female","approach_avoid_spark_v1","""event"",""trial"",""time""
""fullscreenenter"",""1"",""2464""
","
","
","""event"",""trial"",""time""
""fullscreenenter"",""1"",""2464""
","
","","","","","","null","<div style=""font-size:60px;"">+</div>","null","","fixation","","","","","","","","","","",""
"aa-learning-trial","95","490508","0.0-9.0-2.0-1.11","5938","1","16","Female","approach_avoid_spark_v1","""event"",""trial"",""time""
""fullscreenenter"",""1"",""2464""
","
","
","""event"",""trial"",""time""
""fullscreenenter"",""1"",""2464""
","
","","","","","","1260.7999999998137","images/cat8.png","","","learning","-2","-2","1","1","cat","pets","1","0","","neutral","0"
"html-keyboard-response","96","491011","0.0-9.0-2.0-0.12","5938","1","16","Female","approach_avoid_spark_v1","""event"",""trial"",""time""
""fullscreenenter"",""1"",""2464""
","
","
","""event"",""trial"",""time""
""fullscreenenter"",""1"",""2464""
","
","","","","","","null","<div style=""font-size:60px;"">+</div>","null","","fixation","","","","","","","","","","",""
"aa-learning-trial","97","494020","0.0-9.0-2.0-1.12","5938","1","16","Female","approach_avoid_spark_v1","""event"",""trial"",""time""
""fullscreenenter"",""1"",""2464""
","
","
","""event"",""trial"",""time""
""fullscreenenter"",""1"",""2464""
","
","","","","","","1110.1000000000931","images/dog3.png","","","learning","-6","-6","1","1","dog","pets","1","0","","bad","[-6]"
"html-keyboard-response","98","494524","0.0-9.0-2.0-0.13","5938","1","16","Female","approach_avoid_spark_v1","""event"",""trial"",""time""
""fullscreenenter"",""1"",""2464""
","
","
","""event"",""trial"",""time""
""fullscreenenter"",""1"",""2464""
","
","","","","","","null","<div style=""font-size:60px;"">+</div>","null","","fixation","","","","","","","","","","",""
"aa-learning-trial","99","497532","0.0-9.0-2.0-1.13","5938","1","16","Female","approach_avoid_spark_v1","""event"",""trial"",""time""
""fullscreenenter"",""1"",""2464""
","
","
","""event"",""trial"",""time""
""fullscreenenter"",""1"",""2464""
","
","","","","","","956.5999999996275","images/cat7.png","","","learning","2","0","0","0","cat","pets","1","0","","neutral","0"
"html-keyboard-response","100","498035","0.0-9.0-2.0-0.14","5938","1","16","Female","approach_avoid_spark_v1","""event"",""trial"",""time""
""fullscreenenter"",""1"",""2464""
","
","
","""event"",""trial"",""time""
""fullscreenenter"",""1"",""2464""
","
","","","","","","null","<div style=""font-size:60px;"">+</div>","null","","fixation","","","","","","","","","","",""
"aa-learning-trial","101","501043","0.0-9.0-2.0-1.14","5938","1","16","Female","approach_avoid_spark_v1","""event"",""trial"",""time""
""fullscreenenter"",""1"",""2464""
","
","
","""event"",""trial"",""time""
""fullscreenenter"",""1"",""2464""
","
","","","","","","1228.6000000000931","images/dog3.png","","","learning","-7","0","0","0","dog","pets","1","0","","bad","[-6]"
"html-keyboard-response","102","501547","0.0-9.0-2.0-0.15","5938","1","16","Female","approach_avoid_spark_v1","""event"",""trial"",""time""
""fullscreenenter"",""1"",""2464""
","
","
","""event"",""trial"",""time""
""fullscreenenter"",""1"",""2464""
","
","","","","","","null","<div style=""font-size:60px;"">+</div>","null","","fixation","","","","","","","","","","",""
"aa-learning-trial","103","504556","0.0-9.0-2.0-1.15","5938","1","16","Female","approach_avoid_spark_v1","""event"",""trial"",""time""
""fullscreenenter"",""1"",""2464""
","
","
","""event"",""trial"",""time""
""fullscreenenter"",""1"",""2464""
","
","","","","","","1364.2000000001863","images/cat7.png","","","learning","-2","0","0","0","cat","pets","1","0","","neutral","0"
"html-keyboard-response","104","505059","0.0-9.0-2.0-0.16","5938","1","16","Female","approach_avoid_spark_v1","""event"",""trial"",""time""
""fullscreenenter"",""1"",""2464""
","
","
","""event"",""trial"",""time""
""fullscreenenter"",""1"",""2464""
","
","","","","","","null","<div style=""font-size:60px;"">+</div>","null","","fixation","","","","","","","","","","",""
"aa-learning-trial","105","508067","0.0-9.0-2.0-1.16","5938","1","16","Female","approach_avoid_spark_v1","""event"",""trial"",""time""
""fullscreenenter"",""1"",""2464""
","
","
","""event"",""trial"",""time""
""fullscreenenter"",""1"",""2464""
","
","","","","","","758.6000000000931","images/dog1.png","","","learning","-4","0","0","0","dog","pets","1","0","","bad","[-6]"
"html-keyboard-response","106","508571","0.0-9.0-2.0-0.17","5938","1","16","Female","approach_avoid_spark_v1","""event"",""trial"",""time""
""fullscreenenter"",""1"",""2464""
","
","
","""event"",""trial"",""time""
""fullscreenenter"",""1"",""2464""
","
","","","","","","null","<div style=""font-size:60px;"">+</div>","null","","fixation","","","","","","","","","","",""
"aa-learning-trial","107","511579","0.0-9.0-2.0-1.17","5938","1","16","Female","approach_avoid_spark_v1","""event"",""trial"",""time""
""fullscreenenter"",""1"",""2464""
","
","
","""event"",""trial"",""time""
""fullscreenenter"",""1"",""2464""
","
","","","","","","780.6999999997206","images/cat7.png","","","learning","1","0","0","0","cat","pets","1","0","","neutral","0"
"html-keyboard-response","108","512084","0.0-9.0-2.0-0.18","5938","1","16","Female","approach_avoid_spark_v1","""event"",""trial"",""time""
""fullscreenenter"",""1"",""2464""
","
","
","""event"",""trial"",""time""
""fullscreenenter"",""1"",""2464""
","
","","","","","","null","<div style=""font-size:60px;"">+</div>","null","","fixation","","","","","","","","","","",""
"aa-learning-trial","109","515092","0.0-9.0-2.0-1.18","5938","1","16","Female","approach_avoid_spark_v1","""event"",""trial"",""time""
""fullscreenenter"",""1"",""2464""
","
","
","""event"",""trial"",""time""
""fullscreenenter"",""1"",""2464""
","
","","","","","","1070.7000000001863","images/dog3.png","","","learning","-7","-7","1","1","dog","pets","1","0","","bad","[-6]"
"html-keyboard-response","110","515594","0.0-9.0-2.0-0.19","5938","1","16","Female","approach_avoid_spark_v1","""event"",""trial"",""time""
""fullscreenenter"",""1"",""2464""
","
","
","""event"",""trial"",""time""
""fullscreenenter"",""1"",""2464""
","
","","","","","","null","<div style=""font-size:60px;"">+</div>","null","","fixation","","","","","","","","","","",""
"aa-learning-trial","111","518603","0.0-9.0-2.0-1.19","5938","1","16","Female","approach_avoid_spark_v1","""event"",""trial"",""time""
""fullscreenenter"",""1"",""2464""
","
","
","""event"",""trial"",""time""
""fullscreenenter"",""1"",""2464""
","
","","","","","","1940.1000000000931","images/rodent5.png","","","learning","5","0","0","0","rodent","pets","1","0","","good","[6]"
"html-keyboard-response","112","519108","0.0-9.0-2.0-0.20","5938","1","16","Female","approach_avoid_spark_v1","""event"",""trial"",""time""
""fullscreenenter"",""1"",""2464""
","
","
","""event"",""trial"",""time""
""fullscreenenter"",""1"",""2464""
","
","","","","","","null","<div style=""font-size:60px;"">+</div>","null","","fixation","","","","","","","","","","",""
"aa-learning-trial","113","522116","0.0-9.0-2.0-1.20","5938","1","16","Female","approach_avoid_spark_v1","""event"",""trial"",""time""
""fullscreenenter"",""1"",""2464""
","
","
","""event"",""trial"",""time""
""fullscreenenter"",""1"",""2464""
","
","","","","","","1412.5","images/cat6.png","","","learning","4","4","1","1","cat","pets","1","0","","neutral","0"
"html-keyboard-response","114","522619","0.0-9.0-2.0-0.21","5938","1","16","Female","approach_avoid_spark_v1","""event"",""trial"",""time""
""fullscreenenter"",""1"",""2464""
","
","
","""event"",""trial"",""time""
""fullscreenenter"",""1"",""2464""
","
","","","","","","null","<div style=""font-size:60px;"">+</div>","null","","fixation","","","","","","","","","","",""
"aa-learning-trial","115","525629","0.0-9.0-2.0-1.21","5938","1","16","Female","approach_avoid_spark_v1","""event"",""trial"",""time""
""fullscreenenter"",""1"",""2464""
","
","
","""event"",""trial"",""time""
""fullscreenenter"",""1"",""2464""
","
","","","","","","868.8999999999069","images/dog7.png","","","learning","-8","-8","1","1","dog","pets","1","0","","bad","[-6]"
"html-keyboard-response","116","526139","0.0-9.0-2.0-0.22","5938","1","16","Female","approach_avoid_spark_v1","""event"",""trial"",""time""
""fullscreenenter"",""1"",""2464""
","
","
","""event"",""trial"",""time""
""fullscreenenter"",""1"",""2464""
","
","","","","","","null","<div style=""font-size:60px;"">+</div>","null","","fixation","","","","","","","","","","",""
"aa-learning-trial","117","529148","0.0-9.0-2.0-1.22","5938","1","16","Female","approach_avoid_spark_v1","""event"",""trial"",""time""
""fullscreenenter"",""1"",""2464""
","
","
","""event"",""trial"",""time""
""fullscreenenter"",""1"",""2464""
","
","","","","","","1502.6000000000931","images/cat1.png","","","learning","[1]","1","1","1","cat","pets","1","0","","neutral","0"
"html-keyboard-response","118","529652","0.0-9.0-2.0-0.23","5938","1","16","Female","approach_avoid_spark_v1","""event"",""trial"",""time""
""fullscreenenter"",""1"",""2464""
","
","
","""event"",""trial"",""time""
""fullscreenenter"",""1"",""2464""
","
","","","","","","null","<div style=""font-size:60px;"">+</div>","null","","fixation","","","","","","","","","","",""
"aa-learning-trial","119","532659","0.0-9.0-2.0-1.23","5938","1","16","Female","approach_avoid_spark_v1","""event"",""trial"",""time""
""fullscreenenter"",""1"",""2464""
","
","
","""event"",""trial"",""time""
""fullscreenenter"",""1"",""2464""
","
","","","","","","916.1999999997206","images/cat2.png","","","learning","1","1","1","1","cat","pets","1","0","","neutral","0"
"html-keyboard-response","120","533164","0.0-9.0-2.0-0.24","5938","1","16","Female","approach_avoid_spark_v1","""event"",""trial"",""time""
""fullscreenenter"",""1"",""2464""
","
","
","""event"",""trial"",""time""
""fullscreenenter"",""1"",""2464""
","
","","","","","","null","<div style=""font-size:60px;"">+</div>","null","","fixation","","","","","","","","","","",""
"aa-learning-trial","121","536172","0.0-9.0-2.0-1.24","5938","1","16","Female","approach_avoid_spark_v1","""event"",""trial"",""time""
""fullscreenenter"",""1"",""2464""
","
","
","""event"",""trial"",""time""
""fullscreenenter"",""1"",""2464""
","
","","","","","","1189.0999999996275","images/rodent3.png","","","learning","5","5","1","1","rodent","pets","1","0","","good","[6]"
"html-keyboard-response","122","536675","0.0-9.0-2.0-0.25","5938","1","16","Female","approach_avoid_spark_v1","""event"",""trial"",""time""
""fullscreenenter"",""1"",""2464""
","
","
","""event"",""trial"",""time""
""fullscreenenter"",""1"",""2464""
","
","","","","","","null","<div style=""font-size:60px;"">+</div>","null","","fixation","","","","","","","","","","",""
"aa-learning-trial","123","539684","0.0-9.0-2.0-1.25","5938","1","16","Female","approach_avoid_spark_v1","""event"",""trial"",""time""
""fullscreenenter"",""1"",""2464""
","
","
","""event"",""trial"",""time""
""fullscreenenter"",""1"",""2464""
","
","","","","","","931.6999999997206","images/dog3.png","","","learning","-7","0","0","0","dog","pets","1","0","","bad","[-6]"
"html-keyboard-response","124","540187","0.0-9.0-2.0-0.26","5938","1","16","Female","approach_avoid_spark_v1","""event"",""trial"",""time""
""fullscreenenter"",""1"",""2464""
","
","
","""event"",""trial"",""time""
""fullscreenenter"",""1"",""2464""
","
","","","","","","null","<div style=""font-size:60px;"">+</div>","null","","fixation","","","","","","","","","","",""
"aa-learning-trial","125","543195","0.0-9.0-2.0-1.26","5938","1","16","Female","approach_avoid_spark_v1","""event"",""trial"",""time""
""fullscreenenter"",""1"",""2464""
","
","
","""event"",""trial"",""time""
""fullscreenenter"",""1"",""2464""
","
","","","","","","767.5","images/dog3.png","","","learning","-7","0","0","0","dog","pets","1","0","","bad","[-6]"
"html-keyboard-response","126","543699","0.0-9.0-2.0-0.27","5938","1","16","Female","approach_avoid_spark_v1","""event"",""trial"",""time""
""fullscreenenter"",""1"",""2464""
","
","
","""event"",""trial"",""time""
""fullscreenenter"",""1"",""2464""
","
","","","","","","null","<div style=""font-size:60px;"">+</div>","null","","fixation","","","","","","","","","","",""
"aa-learning-trial","127","546708","0.0-9.0-2.0-1.27","5938","1","16","Female","approach_avoid_spark_v1","""event"",""trial"",""time""
""fullscreenenter"",""1"",""2464""
","
","
","""event"",""trial"",""time""
""fullscreenenter"",""1"",""2464""
","
","","","","","","607.3000000002794","images/rodent3.png","","","learning","8","8","1","1","rodent","pets","1","0","","good","[6]"
"html-keyboard-response","128","547212","0.0-9.0-2.0-0.28","5938","1","16","Female","approach_avoid_spark_v1","""event"",""trial"",""time""
""fullscreenenter"",""1"",""2464""
","
","
","""event"",""trial"",""time""
""fullscreenenter"",""1"",""2464""
","
","","","","","","null","<div style=""font-size:60px;"">+</div>","null","","fixation","","","","","","","","","","",""
"aa-learning-trial","129","550220","0.0-9.0-2.0-1.28","5938","1","16","Female","approach_avoid_spark_v1","""event"",""trial"",""time""
""fullscreenenter"",""1"",""2464""
","
","
","""event"",""trial"",""time""
""fullscreenenter"",""1"",""2464""
","
","","","","","","940.7000000001863","images/rodent5.png","","","learning","4","4","1","1","rodent","pets","1","0","","good","[6]"
"html-keyboard-response","130","550724","0.0-9.0-2.0-0.29","5938","1","16","Female","approach_avoid_spark_v1","""event"",""trial"",""time""
""fullscreenenter"",""1"",""2464""
","
","
","""event"",""trial"",""time""
""fullscreenenter"",""1"",""2464""
","
","","","","","","null","<div style=""font-size:60px;"">+</div>","null","","fixation","","","","","","","","","","",""
"aa-learning-trial","131","553732","0.0-9.0-2.0-1.29","5938","1","16","Female","approach_avoid_spark_v1","""event"",""trial"",""time""
""fullscreenenter"",""1"",""2464""
","
","
","""event"",""trial"",""time""
""fullscreenenter"",""1"",""2464""
","
","","","","","","1067.5","images/cat2.png","","","learning","[1]","1","1","1","cat","pets","1","0","","neutral","0"
"html-keyboard-response","132","554235","0.0-9.0-2.0-0.30","5938","1","16","Female","approach_avoid_spark_v1","""event"",""trial"",""time""
""fullscreenenter"",""1"",""2464""
","
","
","""event"",""trial"",""time""
""fullscreenenter"",""1"",""2464""
","
","","","","","","null","<div style=""font-size:60px;"">+</div>","null","","fixation","","","","","","","","","","",""
"aa-learning-trial","133","557243","0.0-9.0-2.0-1.30","5938","1","16","Female","approach_avoid_spark_v1","""event"",""trial"",""time""
""fullscreenenter"",""1"",""2464""
","
","
","""event"",""trial"",""time""
""fullscreenenter"",""1"",""2464""
","
","","","","","","1150.7000000001863","images/rodent2.png","","","learning","6","6","1","1","rodent","pets","1","0","","good","[6]"
"html-keyboard-response","134","557747","0.0-9.0-2.0-0.31","5938","1","16","Female","approach_avoid_spark_v1","""event"",""trial"",""time""
""fullscreenenter"",""1"",""2464""
","
","
","""event"",""trial"",""time""
""fullscreenenter"",""1"",""2464""
","
","","","","","","null","<div style=""font-size:60px;"">+</div>","null","","fixation","","","","","","","","","","",""
"aa-learning-trial","135","560755","0.0-9.0-2.0-1.31","5938","1","16","Female","approach_avoid_spark_v1","""event"",""trial"",""time""
""fullscreenenter"",""1"",""2464""
","
","
","""event"",""trial"",""time""
""fullscreenenter"",""1"",""2464""
","
","","","","","","717.0999999996275","images/rodent2.png","","","learning","9","9","1","1","rodent","pets","1","0","","good","[6]"
"html-keyboard-response","136","561260","0.0-9.0-2.0-0.32","5938","1","16","Female","approach_avoid_spark_v1","""event"",""trial"",""time""
""fullscreenenter"",""1"",""2464""
","
","
","""event"",""trial"",""time""
""fullscreenenter"",""1"",""2464""
","
","","","","","","null","<div style=""font-size:60px;"">+</div>","null","","fixation","","","","","","","","","","",""
"aa-learning-trial","137","564268","0.0-9.0-2.0-1.32","5938","1","16","Female","approach_avoid_spark_v1","""event"",""trial"",""time""
""fullscreenenter"",""1"",""2464""
","
","
","""event"",""trial"",""time""
""fullscreenenter"",""1"",""2464""
","
","","","","","","1205.1000000000931","images/rodent5.png","","","learning","3","3","1","1","rodent","pets","1","0","","good","[6]"
"html-keyboard-response","138","564771","0.0-9.0-2.0-0.33","5938","1","16","Female","approach_avoid_spark_v1","""event"",""trial"",""time""
""fullscreenenter"",""1"",""2464""
","
","
","""event"",""trial"",""time""
""fullscreenenter"",""1"",""2464""
","
","","","","","","null","<div style=""font-size:60px;"">+</div>","null","","fixation","","","","","","","","","","",""
"aa-learning-trial","139","567780","0.0-9.0-2.0-1.33","5938","1","16","Female","approach_avoid_spark_v1","""event"",""trial"",""time""
""fullscreenenter"",""1"",""2464""
","
","
","""event"",""trial"",""time""
""fullscreenenter"",""1"",""2464""
","
","","","","","","1316.6000000000931","images/cat7.png","","","learning","-1","0","0","0","cat","pets","1","0","","neutral","0"
"html-keyboard-response","140","568283","0.0-9.0-2.0-0.34","5938","1","16","Female","approach_avoid_spark_v1","""event"",""trial"",""time""
""fullscreenenter"",""1"",""2464""
","
","
","""event"",""trial"",""time""
""fullscreenenter"",""1"",""2464""
","
","","","","","","null","<div style=""font-size:60px;"">+</div>","null","","fixation","","","","","","","","","","",""
"aa-learning-trial","141","571292","0.0-9.0-2.0-1.34","5938","1","16","Female","approach_avoid_spark_v1","""event"",""trial"",""time""
""fullscreenenter"",""1"",""2464""
","
","
","""event"",""trial"",""time""
""fullscreenenter"",""1"",""2464""
","
","","","","","","936.8999999999069","images/dog1.png","","","learning","-5","0","0","0","dog","pets","1","0","","bad","[-6]"
"html-keyboard-response","142","571796","0.0-9.0-2.0-0.35","5938","1","16","Female","approach_avoid_spark_v1","""event"",""trial"",""time""
""fullscreenenter"",""1"",""2464""
","
","
","""event"",""trial"",""time""
""fullscreenenter"",""1"",""2464""
","
","","","","","","null","<div style=""font-size:60px;"">+</div>","null","","fixation","","","","","","","","","","",""
"aa-learning-trial","143","574804","0.0-9.0-2.0-1.35","5938","1","16","Female","approach_avoid_spark_v1","""event"",""trial"",""time""
""fullscreenenter"",""1"",""2464""
","
","
","""event"",""trial"",""time""
""fullscreenenter"",""1"",""2464""
","
","","","","","","619.8999999999069","images/dog8.png","","","learning","-5","0","0","0","dog","pets","1","0","","bad","[-6]"
"html-keyboard-response","144","575308","0.0-9.0-2.0-0.36","5938","1","16","Female","approach_avoid_spark_v1","""event"",""trial"",""time""
""fullscreenenter"",""1"",""2464""
","
","
","""event"",""trial"",""time""
""fullscreenenter"",""1"",""2464""
","
","","","","","","null","<div style=""font-size:60px;"">+</div>","null","","fixation","","","","","","","","","","",""
"aa-learning-trial","145","578313","0.0-9.0-2.0-1.36","5938","1","16","Female","approach_avoid_spark_v1","""event"",""trial"",""time""
""fullscreenenter"",""1"",""2464""
","
","
","""event"",""trial"",""time""
""fullscreenenter"",""1"",""2464""
","
","","","","","","694.2999999998137","images/rodent2.png","","","learning","6","6","1","1","rodent","pets","1","0","","good","[6]"
"html-keyboard-response","146","578820","0.0-9.0-2.0-0.37","5938","1","16","Female","approach_avoid_spark_v1","""event"",""trial"",""time""
""fullscreenenter"",""1"",""2464""
","
","
","""event"",""trial"",""time""
""fullscreenenter"",""1"",""2464""
","
","","","","","","null","<div style=""font-size:60px;"">+</div>","null","","fixation","","","","","","","","","","",""
"aa-learning-trial","147","581827","0.0-9.0-2.0-1.37","5938","1","16","Female","approach_avoid_spark_v1","""event"",""trial"",""time""
""fullscreenenter"",""1"",""2464""
","
","
","""event"",""trial"",""time""
""fullscreenenter"",""1"",""2464""
","
","","","","","","652.5","images/dog1.png","","","learning","-4","0","0","0","dog","pets","1","0","","bad","[-6]"
"html-keyboard-response","148","582329","0.0-9.0-2.0-0.38","5938","1","16","Female","approach_avoid_spark_v1","""event"",""trial"",""time""
""fullscreenenter"",""1"",""2464""
","
","
","""event"",""trial"",""time""
""fullscreenenter"",""1"",""2464""
","
","","","","","","null","<div style=""font-size:60px;"">+</div>","null","","fixation","","","","","","","","","","",""
"aa-learning-trial","149","585339","0.0-9.0-2.0-1.38","5938","1","16","Female","approach_avoid_spark_v1","""event"",""trial"",""time""
""fullscreenenter"",""1"",""2464""
","
","
","""event"",""trial"",""time""
""fullscreenenter"",""1"",""2464""
","
","","","","","","645.7000000001863","images/rodent5.png","","","learning","4","4","1","1","rodent","pets","1","0","","good","[6]"
"html-keyboard-response","150","585843","0.0-9.0-2.0-0.39","5938","1","16","Female","approach_avoid_spark_v1","""event"",""trial"",""time""
""fullscreenenter"",""1"",""2464""
","
","
","""event"",""trial"",""time""
""fullscreenenter"",""1"",""2464""
","
","","","","","","null","<div style=""font-size:60px;"">+</div>","null","","fixation","","","","","","","","","","",""
"aa-learning-trial","151","588851","0.0-9.0-2.0-1.39","5938","1","16","Female","approach_avoid_spark_v1","""event"",""trial"",""time""
""fullscreenenter"",""1"",""2464""
","
","
","""event"",""trial"",""time""
""fullscreenenter"",""1"",""2464""
","
","","","","","","1093.2999999998137","images/rodent6.png","","","learning","5","0","0","0","rodent","pets","1","0","","good","[6]"
"html-keyboard-response","152","589355","0.0-9.0-2.0-0.40","5938","1","16","Female","approach_avoid_spark_v1","""event"",""trial"",""time""
""fullscreenenter"",""1"",""2464""
","
","
","""event"",""trial"",""time""
""fullscreenenter"",""1"",""2464""
","
","","","","","","null","<div style=""font-size:60px;"">+</div>","null","","fixation","","","","","","","","","","",""
"aa-learning-trial","153","592363","0.0-9.0-2.0-1.40","5938","1","16","Female","approach_avoid_spark_v1","""event"",""trial"",""time""
""fullscreenenter"",""1"",""2464""
","
","
","""event"",""trial"",""time""
""fullscreenenter"",""1"",""2464""
","
","","","","","","1325.1999999997206","images/cat8.png","","","learning","2","0","0","0","cat","pets","1","0","","neutral","0"
"html-keyboard-response","154","592867","0.0-9.0-2.0-0.41","5938","1","16","Female","approach_avoid_spark_v1","""event"",""trial"",""time""
""fullscreenenter"",""1"",""2464""
","
","
","""event"",""trial"",""time""
""fullscreenenter"",""1"",""2464""
","
","","","","","","null","<div style=""font-size:60px;"">+</div>","null","","fixation","","","","","","","","","","",""
"aa-learning-trial","155","595875","0.0-9.0-2.0-1.41","5938","1","16","Female","approach_avoid_spark_v1","""event"",""trial"",""time""
""fullscreenenter"",""1"",""2464""
","
","
","""event"",""trial"",""time""
""fullscreenenter"",""1"",""2464""
","
","","","","","","1396.3999999999069","images/dog6.png","","","learning","-6","-6","1","1","dog","pets","1","0","","bad","[-6]"
"html-keyboard-response","156","596380","0.0-9.0-2.0-0.42","5938","1","16","Female","approach_avoid_spark_v1","""event"",""trial"",""time""
""fullscreenenter"",""1"",""2464""
","
","
","""event"",""trial"",""time""
""fullscreenenter"",""1"",""2464""
","
","","","","","","null","<div style=""font-size:60px;"">+</div>","null","","fixation","","","","","","","","","","",""
"aa-learning-trial","157","599387","0.0-9.0-2.0-1.42","5938","1","16","Female","approach_avoid_spark_v1","""event"",""trial"",""time""
""fullscreenenter"",""1"",""2464""
","
","
","""event"",""trial"",""time""
""fullscreenenter"",""1"",""2464""
","
","","","","","","852.1999999997206","images/dog8.png","","","learning","-6","0","0","0","dog","pets","1","0","","bad","[-6]"
"html-keyboard-response","158","599891","0.0-9.0-2.0-0.43","5938","1","16","Female","approach_avoid_spark_v1","""event"",""trial"",""time""
""fullscreenenter"",""1"",""2464""
","
","
","""event"",""trial"",""time""
""fullscreenenter"",""1"",""2464""
","
","","","","","","null","<div style=""font-size:60px;"">+</div>","null","","fixation","","","","","","","","","","",""
"aa-learning-trial","159","602899","0.0-9.0-2.0-1.43","5938","1","16","Female","approach_avoid_spark_v1","""event"",""trial"",""time""
""fullscreenenter"",""1"",""2464""
","
","
","""event"",""trial"",""time""
""fullscreenenter"",""1"",""2464""
","
","","","","","","2023","images/cat2.png","","","learning","2","2","1","1","cat","pets","1","0","","neutral","0"
"html-keyboard-response","160","603403","0.0-9.0-2.0-0.44","5938","1","16","Female","approach_avoid_spark_v1","""event"",""trial"",""time""
""fullscreenenter"",""1"",""2464""
","
","
","""event"",""trial"",""time""
""fullscreenenter"",""1"",""2464""
","
","","","","","","null","<div style=""font-size:60px;"">+</div>","null","","fixation","","","","","","","","","","",""
"aa-learning-trial","161","606412","0.0-9.0-2.0-1.44","5938","1","16","Female","approach_avoid_spark_v1","""event"",""trial"",""time""
""fullscreenenter"",""1"",""2464""
","
","
","""event"",""trial"",""time""
""fullscreenenter"",""1"",""2464""
","
","","","","","","837.6999999997206","images/dog1.png","","","learning","-7","0","0","0","dog","pets","1","0","","bad","[-6]"
"html-keyboard-response","162","606915","0.0-9.0-2.0-0.45","5938","1","16","Female","approach_avoid_spark_v1","""event"",""trial"",""time""
""fullscreenenter"",""1"",""2464""
","
","
","""event"",""trial"",""time""
""fullscreenenter"",""1"",""2464""
","
","","","","","","null","<div style=""font-size:60px;"">+</div>","null","","fixation","","","","","","","","","","",""
"aa-learning-trial","163","609923","0.0-9.0-2.0-1.45","5938","1","16","Female","approach_avoid_spark_v1","""event"",""trial"",""time""
""fullscreenenter"",""1"",""2464""
","
","
","""event"",""trial"",""time""
""fullscreenenter"",""1"",""2464""
","
","","","","","","1197.2000000001863","images/cat8.png","","","learning","[1]","1","1","1","cat","pets","1","0","","neutral","0"
"html-keyboard-response","164","610427","0.0-9.0-2.0-0.46","5938","1","16","Female","approach_avoid_spark_v1","""event"",""trial"",""time""
""fullscreenenter"",""1"",""2464""
","
","
","""event"",""trial"",""time""
""fullscreenenter"",""1"",""2464""
","
","","","","","","null","<div style=""font-size:60px;"">+</div>","null","","fixation","","","","","","","","","","",""
"aa-learning-trial","165","613435","0.0-9.0-2.0-1.46","5938","1","16","Female","approach_avoid_spark_v1","""event"",""trial"",""time""
""fullscreenenter"",""1"",""2464""
","
","
","""event"",""trial"",""time""
""fullscreenenter"",""1"",""2464""
","
","","","","","","1036","images/dog3.png","","","learning","-6","0","0","0","dog","pets","1","0","","bad","[-6]"
"html-keyboard-response","166","613939","0.0-9.0-2.0-0.47","5938","1","16","Female","approach_avoid_spark_v1","""event"",""trial"",""time""
""fullscreenenter"",""1"",""2464""
","
","
","""event"",""trial"",""time""
""fullscreenenter"",""1"",""2464""
","
","","","","","","null","<div style=""font-size:60px;"">+</div>","null","","fixation","","","","","","","","","","",""
"aa-learning-trial","167","616947","0.0-9.0-2.0-1.47","5938","1","16","Female","approach_avoid_spark_v1","""event"",""trial"",""time""
""fullscreenenter"",""1"",""2464""
","
","
","""event"",""trial"",""time""
""fullscreenenter"",""1"",""2464""
","
","","","","","","1004.2999999998137","images/cat7.png","","","learning","-1","0","0","0","cat","pets","1","0","","neutral","0"
"html-keyboard-response","168","617451","0.0-9.0-2.0-0.48","5938","1","16","Female","approach_avoid_spark_v1","""event"",""trial"",""time""
""fullscreenenter"",""1"",""2464""
","
","
","""event"",""trial"",""time""
""fullscreenenter"",""1"",""2464""
","
","","","","","","null","<div style=""font-size:60px;"">+</div>","null","","fixation","","","","","","","","","","",""
"aa-learning-trial","169","620460","0.0-9.0-2.0-1.48","5938","1","16","Female","approach_avoid_spark_v1","""event"",""trial"",""time""
""fullscreenenter"",""1"",""2464""
","
","
","""event"",""trial"",""time""
""fullscreenenter"",""1"",""2464""
","
","","","","","","957.5","images/cat2.png","","","learning","-1","0","0","0","cat","pets","1","0","","neutral","0"
"html-keyboard-response","170","620963","0.0-9.0-2.0-0.49","5938","1","16","Female","approach_avoid_spark_v1","""event"",""trial"",""time""
""fullscreenenter"",""1"",""2464""
","
","
","""event"",""trial"",""time""
""fullscreenenter"",""1"",""2464""
","
","","","","","","null","<div style=""font-size:60px;"">+</div>","null","","fixation","","","","","","","","","","",""
"aa-learning-trial","171","623971","0.0-9.0-2.0-1.49","5938","1","16","Female","approach_avoid_spark_v1","""event"",""trial"",""time""
""fullscreenenter"",""1"",""2464""
","
","
","""event"",""trial"",""time""
""fullscreenenter"",""1"",""2464""
","
","","","","","","795.2000000001863","images/rodent2.png","","","learning","8","8","1","1","rodent","pets","1","0","","good","[6]"
"html-keyboard-response","172","624475","0.0-9.0-2.0-0.50","5938","1","16","Female","approach_avoid_spark_v1","""event"",""trial"",""time""
""fullscreenenter"",""1"",""2464""
","
","
","""event"",""trial"",""time""
""fullscreenenter"",""1"",""2464""
","
","","","","","","null","<div style=""font-size:60px;"">+</div>","null","","fixation","","","","","","","","","","",""
"aa-learning-trial","173","627483","0.0-9.0-2.0-1.50","5938","1","16","Female","approach_avoid_spark_v1","""event"",""trial"",""time""
""fullscreenenter"",""1"",""2464""
","
","
","""event"",""trial"",""time""
""fullscreenenter"",""1"",""2464""
","
","","","","","","1620.2999999998137","images/rodent8.png","","","learning","5","5","1","1","rodent","pets","1","0","","good","[6]"
"html-button-response","174","631852","0.0-9.0-3.0","5938","1","16","Female","approach_avoid_spark_v1","""event"",""trial"",""time""
""fullscreenenter"",""1"",""2464""
","
","
","""event"",""trial"",""time""
""fullscreenenter"",""1"",""2464""
","
","","","","","","4365.100000000093","<p> You have completed the round! <p> In this round, you earned 46 points! </p>","0","","break","","","","","","","","","","",""
"html-button-response","175","633044","0.0-10.0","5938","1","16","Female","approach_avoid_spark_v1","""event"",""trial"",""time""
""fullscreenenter"",""1"",""2464""
","
","
","""event"",""trial"",""time""
""fullscreenenter"",""1"",""2464""
","
","","","","","","1190.8999999999069","<p> Now it's time to play another round. </p>","0","","transition_screen","","","","","","","","","","",""
"preload","176","633188","0.0-11.0-0.0","5938","1","16","Female","approach_avoid_spark_v1","""event"",""trial"",""time""
""fullscreenenter"",""1"",""2464""
","
","
","""event"",""trial"",""time""
""fullscreenenter"",""1"",""2464""
","
","true","false","[]","[]","[]","","","","","","","","","","","","","","","",""
"learning-instructions","177","645476","0.0-11.0-1.0-0.0","5938","1","16","Female","approach_avoid_spark_v1","""event"",""trial"",""time""
""fullscreenenter"",""1"",""2464""
","
","
","""event"",""trial"",""time""
""fullscreenenter"",""1"",""2464""
","
","","","","","","7291.299999999814","<p> Your goal in this round is to take care of lots of farm animals. </p></div>","","0","instructions","","","","","","","","","","",""
"learning-instructions","178","658820","0.0-11.0-1.0-0.1","5938","1","16","Female","approach_avoid_spark_v1","""event"",""trial"",""time""
""fullscreenenter"",""1"",""2464""
","
","
","""event"",""trial"",""time""
""fullscreenenter"",""1"",""2464""
","
","","","","","","3105.3000000002794","<p> Some farm animals are hungry, while other farm animals are already full.  </p><p> On each turn, you will see a farm animal.   </p><p> You need to decide whether to feed it or not.  </p>","","0","instructions","","","","","","","","","","",""
"learning-instructions","179","666444","0.0-11.0-1.0-0.2","5938","1","16","Female","approach_avoid_spark_v1","""event"",""trial"",""time""
""fullscreenenter"",""1"",""2464""
","
","
","""event"",""trial"",""time""
""fullscreenenter"",""1"",""2464""
","
","","","","","","1347.6000000000931","<p> You can feed the farm animal by pressing 1 and leave the farm animal alone by pressing 0. </p><br><div class=""choice-instructions-grid""> <div class=""choice-option""><img src=""images/approach.png"" class=""choice-option-img"" stage=""instructions"" position=""0"" ><div class=""choice-option-text""> Press ""1."" </div></div><div class=""choice-option""><img src=""images/avoid.png"" class=""choice-option-img"" stage=""instructions"" position=""1"" ><div class=""choice-option-text""> Press ""0."" </div></div>","","0","instructions","","","","","","","","","","",""
"learning-instructions","180","676892","0.0-11.0-1.0-0.3","5938","1","16","Female","approach_avoid_spark_v1","""event"",""trial"",""time""
""fullscreenenter"",""1"",""2464""
","
","
","""event"",""trial"",""time""
""fullscreenenter"",""1"",""2464""
","
","","","","","","1017","<p> If you feed a hungry farm animal, you will make it feel satisfied! </p><p> But if you feed the farm animal and it was already full, you will make it feel sick. </p>","","0","instructions","","","","","","","","","","",""
"learning-instructions","181","691244","0.0-11.0-1.0-0.4","5938","1","16","Female","approach_avoid_spark_v1","""event"",""trial"",""time""
""fullscreenenter"",""1"",""2464""
","
","
","""event"",""trial"",""time""
""fullscreenenter"",""1"",""2464""
","
","","","","","","1938.6999999997206","<p> You will earn points based on how you made the farm animal feel. </p><p> If you made it satisfied, you will WIN anywhere from 1 - 9 points, </p><p> but if you made it sick, you will LOSE anywhere from 1 - 9 points. </p>","","0","instructions","","","","","","","","","","",""
"learning-instructions","182","699659","0.0-11.0-1.0-0.5","5938","1","16","Female","approach_avoid_spark_v1","""event"",""trial"",""time""
""fullscreenenter"",""1"",""2464""
","
","
","""event"",""trial"",""time""
""fullscreenenter"",""1"",""2464""
","
","","","","","","1764.6000000000931","<p> You will see how many points you won or lost in the center of the screen. </p><p> Here is what you would see if you won 5 points: </p><p style=""color:green;font-size:50px;font-weight:bolder"">5</p>","","0","instructions","","","","","","","","","","",""
"learning-instructions","183","703219","0.0-11.0-1.0-0.6","5938","1","16","Female","approach_avoid_spark_v1","""event"",""trial"",""time""
""fullscreenenter"",""1"",""2464""
","
","
","""event"",""trial"",""time""
""fullscreenenter"",""1"",""2464""
","
","","","","","","714.1000000000931","<p> And here is what you would see if you lost 3 points: </p><p style=""color:red;font-size:50px;font-weight:bolder"">-3</p>","","0","instructions","","","","","","","","","","",""
"learning-instructions","184","722883","0.0-11.0-1.0-0.7","5938","1","16","Female","approach_avoid_spark_v1","""event"",""trial"",""time""
""fullscreenenter"",""1"",""2464""
","
","
","""event"",""trial"",""time""
""fullscreenenter"",""1"",""2464""
","
","","","","","","4248.5","<p> Some farm animals will become very satisfied or very sick. </p><p> These farm animals will make you win or lose LOTS of points. </p><p> Other farm animals have less strong feelings. </p><p> These farm animals will make you win or lose small amounts of points. </p>","","0","instructions","","","","","","","","","","",""
"learning-instructions","185","745196","0.0-11.0-1.0-0.8","5938","1","16","Female","approach_avoid_spark_v1","""event"",""trial"",""time""
""fullscreenenter"",""1"",""2464""
","
","
","""event"",""trial"",""time""
""fullscreenenter"",""1"",""2464""
","
","","","","","","10061.399999999907","<p> If you choose to leave the farm animal alone, you will not win or lose any points. </p><p>  However, in the center of the screen, you will see the number of points you WOULD HAVE won or lost if you had fed the farm animal. </p>","","0","instructions","","","","","","","","","","",""
"learning-instructions","186","760460","0.0-11.0-1.0-0.9","5938","1","16","Female","approach_avoid_spark_v1","""event"",""trial"",""time""
""fullscreenenter"",""1"",""2464""
","
","
","""event"",""trial"",""time""
""fullscreenenter"",""1"",""2464""
","
","","","","","","3854.1999999997206","<p> Here is what you might see if you did not feed the farm animal but the animal was hungry: </p><p style=""color:grey; font-size:50px; display: inline-block; border-spacing: 15px; border-width:3px; border-style:solid; border-color:red"">  &nbsp; 6 &nbsp; </p><p> Remember, in this case, you would not win or lose ANY points because you did not feed the farm animal.  </p>","","0","instructions","","","","","","","","","","",""
"learning-instructions","187","769379","0.0-11.0-1.0-0.10","5938","1","16","Female","approach_avoid_spark_v1","""event"",""trial"",""time""
""fullscreenenter"",""1"",""2464""
","
","
","""event"",""trial"",""time""
""fullscreenenter"",""1"",""2464""
","
","","","","","","874.2999999998137","<p> Try to make the best choice for each farm animal because </p><p> at the end of the game, you will earn bonus money based on how many points you earned. </p>","","0","instructions","","","","","","","","","","",""
"learning-instructions","188","783284","0.0-11.0-1.0-0.11","5938","1","16","Female","approach_avoid_spark_v1","""event"",""trial"",""time""
""fullscreenenter"",""1"",""2464""
","
","
","""event"",""trial"",""time""
""fullscreenenter"",""1"",""2464""
","
","","","","","","5688.399999999907","<p> You will have 3 seconds to make each choice. Try to respond before time runs out! </p><p> You will lose 5 points each time you do not make a response. </p>","","0","instructions","","","","","","","","","","",""
"html-keyboard-response","189","783917","0.0-11.0-2.0-0.0","5938","1","16","Female","approach_avoid_spark_v1","""event"",""trial"",""time""
""fullscreenenter"",""1"",""2464""
","
","
","""event"",""trial"",""time""
""fullscreenenter"",""1"",""2464""
","
","","","","","","null","<div style=""font-size:60px;"">+</div>","null","","fixation","","","","","","","","","","",""
"aa-learning-trial","190","786944","0.0-11.0-2.0-1.0","5938","1","16","Female","approach_avoid_spark_v1","""event"",""trial"",""time""
""fullscreenenter"",""1"",""2464""
","
","
","""event"",""trial"",""time""
""fullscreenenter"",""1"",""2464""
","
","","","","","","1800.5","images/horse2.png","","","learning","7","0","0","0","horse","animals","2","1","","bad","[-4]"
"html-keyboard-response","191","787461","0.0-11.0-2.0-0.1","5938","1","16","Female","approach_avoid_spark_v1","""event"",""trial"",""time""
""fullscreenenter"",""1"",""2464""
","
","
","""event"",""trial"",""time""
""fullscreenenter"",""1"",""2464""
","
","","","","","","null","<div style=""font-size:60px;"">+</div>","null","","fixation","","","","","","","","","","",""
"aa-learning-trial","192","790469","0.0-11.0-2.0-1.1","5938","1","16","Female","approach_avoid_spark_v1","""event"",""trial"",""time""
""fullscreenenter"",""1"",""2464""
","
","
","""event"",""trial"",""time""
""fullscreenenter"",""1"",""2464""
","
","","","","","","1386.3000000002794","images/cow7.png","","","learning","2","2","1","1","cow","animals","2","1","","good","[4]"
"html-keyboard-response","193","790972","0.0-11.0-2.0-0.2","5938","1","16","Female","approach_avoid_spark_v1","""event"",""trial"",""time""
""fullscreenenter"",""1"",""2464""
","
","
","""event"",""trial"",""time""
""fullscreenenter"",""1"",""2464""
","
","","","","","","null","<div style=""font-size:60px;"">+</div>","null","","fixation","","","","","","","","","","",""
"aa-learning-trial","194","793985","0.0-11.0-2.0-1.2","5938","1","16","Female","approach_avoid_spark_v1","""event"",""trial"",""time""
""fullscreenenter"",""1"",""2464""
","
","
","""event"",""trial"",""time""
""fullscreenenter"",""1"",""2464""
","
","","","","","","562.6999999997206","images/horse2.png","","","learning","7","7","1","1","horse","animals","2","1","","bad","[-4]"
"html-keyboard-response","195","794504","0.0-11.0-2.0-0.3","5938","1","16","Female","approach_avoid_spark_v1","""event"",""trial"",""time""
""fullscreenenter"",""1"",""2464""
","
","
","""event"",""trial"",""time""
""fullscreenenter"",""1"",""2464""
","
","","","","","","null","<div style=""font-size:60px;"">+</div>","null","","fixation","","","","","","","","","","",""
"aa-learning-trial","196","797519","0.0-11.0-2.0-1.3","5938","1","16","Female","approach_avoid_spark_v1","""event"",""trial"",""time""
""fullscreenenter"",""1"",""2464""
","
","
","""event"",""trial"",""time""
""fullscreenenter"",""1"",""2464""
","
","","","","","","751.2000000001863","images/cow7.png","","","learning","2","2","1","1","cow","animals","2","1","","good","[4]"
"html-keyboard-response","197","798022","0.0-11.0-2.0-0.4","5938","1","16","Female","approach_avoid_spark_v1","""event"",""trial"",""time""
""fullscreenenter"",""1"",""2464""
","
","
","""event"",""trial"",""time""
""fullscreenenter"",""1"",""2464""
","
","","","","","","null","<div style=""font-size:60px;"">+</div>","null","","fixation","","","","","","","","","","",""
"aa-learning-trial","198","801027","0.0-11.0-2.0-1.4","5938","1","16","Female","approach_avoid_spark_v1","""event"",""trial"",""time""
""fullscreenenter"",""1"",""2464""
","
","
","""event"",""trial"",""time""
""fullscreenenter"",""1"",""2464""
","
","","","","","","1353.2000000001863","images/goat1.png","","","learning","5","0","0","0","goat","animals","2","1","","neutral","0"
"html-keyboard-response","199","801531","0.0-11.0-2.0-0.5","5938","1","16","Female","approach_avoid_spark_v1","""event"",""trial"",""time""
""fullscreenenter"",""1"",""2464""
","
","
","""event"",""trial"",""time""
""fullscreenenter"",""1"",""2464""
","
","","","","","","null","<div style=""font-size:60px;"">+</div>","null","","fixation","","","","","","","","","","",""
"aa-learning-trial","200","804555","0.0-11.0-2.0-1.5","5938","1","16","Female","approach_avoid_spark_v1","""event"",""trial"",""time""
""fullscreenenter"",""1"",""2464""
","
","
","""event"",""trial"",""time""
""fullscreenenter"",""1"",""2464""
","
","","","","","","1301.7999999998137","images/goat4.png","","","learning","1","1","1","1","goat","animals","2","1","","neutral","0"
"html-keyboard-response","201","805060","0.0-11.0-2.0-0.6","5938","1","16","Female","approach_avoid_spark_v1","""event"",""trial"",""time""
""fullscreenenter"",""1"",""2464""
","
","
","""event"",""trial"",""time""
""fullscreenenter"",""1"",""2464""
","
","","","","","","null","<div style=""font-size:60px;"">+</div>","null","","fixation","","","","","","","","","","",""
"aa-learning-trial","202","808068","0.0-11.0-2.0-1.6","5938","1","16","Female","approach_avoid_spark_v1","""event"",""trial"",""time""
""fullscreenenter"",""1"",""2464""
","
","
","""event"",""trial"",""time""
""fullscreenenter"",""1"",""2464""
","
","","","","","","1306.4000000003725","images/horse7.png","","","learning","-2","0","0","0","horse","animals","2","1","","bad","[-4]"
"html-keyboard-response","203","808571","0.0-11.0-2.0-0.7","5938","1","16","Female","approach_avoid_spark_v1","""event"",""trial"",""time""
""fullscreenenter"",""1"",""2464""
","
","
","""event"",""trial"",""time""
""fullscreenenter"",""1"",""2464""
","
","","","","","","null","<div style=""font-size:60px;"">+</div>","null","","fixation","","","","","","","","","","",""
"aa-learning-trial","204","811580","0.0-11.0-2.0-1.7","5938","1","16","Female","approach_avoid_spark_v1","""event"",""trial"",""time""
""fullscreenenter"",""1"",""2464""
","
","
","""event"",""trial"",""time""
""fullscreenenter"",""1"",""2464""
","
","","","","","","1819.4000000003725","images/goat1.png","","","learning","5","5","1","1","goat","animals","2","1","","neutral","0"
"html-keyboard-response","205","812084","0.0-11.0-2.0-0.8","5938","1","16","Female","approach_avoid_spark_v1","""event"",""trial"",""time""
""fullscreenenter"",""1"",""2464""
","
","
","""event"",""trial"",""time""
""fullscreenenter"",""1"",""2464""
","
","","","","","","null","<div style=""font-size:60px;"">+</div>","null","","fixation","","","","","","","","","","",""
"aa-learning-trial","206","815091","0.0-11.0-2.0-1.8","5938","1","16","Female","approach_avoid_spark_v1","""event"",""trial"",""time""
""fullscreenenter"",""1"",""2464""
","
","
","""event"",""trial"",""time""
""fullscreenenter"",""1"",""2464""
","
","","","","","","1555","images/horse3.png","","","learning","-4","0","0","0","horse","animals","2","1","","bad","[-4]"
"html-keyboard-response","207","815595","0.0-11.0-2.0-0.9","5938","1","16","Female","approach_avoid_spark_v1","""event"",""trial"",""time""
""fullscreenenter"",""1"",""2464""
","
","
","""event"",""trial"",""time""
""fullscreenenter"",""1"",""2464""
","
","","","","","","null","<div style=""font-size:60px;"">+</div>","null","","fixation","","","","","","","","","","",""
"aa-learning-trial","208","818604","0.0-11.0-2.0-1.9","5938","1","16","Female","approach_avoid_spark_v1","""event"",""trial"",""time""
""fullscreenenter"",""1"",""2464""
","
","
","""event"",""trial"",""time""
""fullscreenenter"",""1"",""2464""
","
","","","","","","877","images/cow2.png","","","learning","-5","-5","1","1","cow","animals","2","1","","good","[4]"
"html-keyboard-response","209","819107","0.0-11.0-2.0-0.10","5938","1","16","Female","approach_avoid_spark_v1","""event"",""trial"",""time""
""fullscreenenter"",""1"",""2464""
","
","
","""event"",""trial"",""time""
""fullscreenenter"",""1"",""2464""
","
","","","","","","null","<div style=""font-size:60px;"">+</div>","null","","fixation","","","","","","","","","","",""
"aa-learning-trial","210","822116","0.0-11.0-2.0-1.10","5938","1","16","Female","approach_avoid_spark_v1","""event"",""trial"",""time""
""fullscreenenter"",""1"",""2464""
","
","
","""event"",""trial"",""time""
""fullscreenenter"",""1"",""2464""
","
","","","","","","859.7999999998137","images/goat4.png","","","learning","1","1","1","1","goat","animals","2","1","","neutral","0"
"html-keyboard-response","211","822619","0.0-11.0-2.0-0.11","5938","1","16","Female","approach_avoid_spark_v1","""event"",""trial"",""time""
""fullscreenenter"",""1"",""2464""
","
","
","""event"",""trial"",""time""
""fullscreenenter"",""1"",""2464""
","
","","","","","","null","<div style=""font-size:60px;"">+</div>","null","","fixation","","","","","","","","","","",""
"aa-learning-trial","212","825628","0.0-11.0-2.0-1.11","5938","1","16","Female","approach_avoid_spark_v1","""event"",""trial"",""time""
""fullscreenenter"",""1"",""2464""
","
","
","""event"",""trial"",""time""
""fullscreenenter"",""1"",""2464""
","
","","","","","","803.0999999996275","images/cow2.png","","","learning","-5","0","0","0","cow","animals","2","1","","good","[4]"
"html-keyboard-response","213","826131","0.0-11.0-2.0-0.12","5938","1","16","Female","approach_avoid_spark_v1","""event"",""trial"",""time""
""fullscreenenter"",""1"",""2464""
","
","
","""event"",""trial"",""time""
""fullscreenenter"",""1"",""2464""
","
","","","","","","null","<div style=""font-size:60px;"">+</div>","null","","fixation","","","","","","","","","","",""
"aa-learning-trial","214","829140","0.0-11.0-2.0-1.12","5938","1","16","Female","approach_avoid_spark_v1","""event"",""trial"",""time""
""fullscreenenter"",""1"",""2464""
","
","
","""event"",""trial"",""time""
""fullscreenenter"",""1"",""2464""
","
","","","","","","1019.8000000007451","images/cow4.png","","","learning","-7","-7","1","1","cow","animals","2","1","","good","[4]"
"html-keyboard-response","215","829645","0.0-11.0-2.0-0.13","5938","1","16","Female","approach_avoid_spark_v1","""event"",""trial"",""time""
""fullscreenenter"",""1"",""2464""
","
","
","""event"",""trial"",""time""
""fullscreenenter"",""1"",""2464""
","
","","","","","","null","<div style=""font-size:60px;"">+</div>","null","","fixation","","","","","","","","","","",""
"aa-learning-trial","216","832651","0.0-11.0-2.0-1.13","5938","1","16","Female","approach_avoid_spark_v1","""event"",""trial"",""time""
""fullscreenenter"",""1"",""2464""
","
","
","""event"",""trial"",""time""
""fullscreenenter"",""1"",""2464""
","
","","","","","","1458.7999999998137","images/goat6.png","","","learning","-3","0","0","0","goat","animals","2","1","","neutral","0"
"html-keyboard-response","217","833155","0.0-11.0-2.0-0.14","5938","1","16","Female","approach_avoid_spark_v1","""event"",""trial"",""time""
""fullscreenenter"",""1"",""2464""
","
","
","""event"",""trial"",""time""
""fullscreenenter"",""1"",""2464""
","
","","","","","","null","<div style=""font-size:60px;"">+</div>","null","","fixation","","","","","","","","","","",""
"aa-learning-trial","218","836163","0.0-11.0-2.0-1.14","5938","1","16","Female","approach_avoid_spark_v1","""event"",""trial"",""time""
""fullscreenenter"",""1"",""2464""
","
","
","""event"",""trial"",""time""
""fullscreenenter"",""1"",""2464""
","
","","","","","","1427.199999999255","images/horse3.png","","","learning","-4","-4","1","1","horse","animals","2","1","","bad","[-4]"
"html-keyboard-response","219","836667","0.0-11.0-2.0-0.15","5938","1","16","Female","approach_avoid_spark_v1","""event"",""trial"",""time""
""fullscreenenter"",""1"",""2464""
","
","
","""event"",""trial"",""time""
""fullscreenenter"",""1"",""2464""
","
","","","","","","null","<div style=""font-size:60px;"">+</div>","null","","fixation","","","","","","","","","","",""
"aa-learning-trial","220","839676","0.0-11.0-2.0-1.15","5938","1","16","Female","approach_avoid_spark_v1","""event"",""trial"",""time""
""fullscreenenter"",""1"",""2464""
","
","
","""event"",""trial"",""time""
""fullscreenenter"",""1"",""2464""
","
","","","","","","563.6000000005588","images/horse3.png","","","learning","-4","0","0","0","horse","animals","2","1","","bad","[-4]"
"html-keyboard-response","221","840180","0.0-11.0-2.0-0.16","5938","1","16","Female","approach_avoid_spark_v1","""event"",""trial"",""time""
""fullscreenenter"",""1"",""2464""
","
","
","""event"",""trial"",""time""
""fullscreenenter"",""1"",""2464""
","
","","","","","","null","<div style=""font-size:60px;"">+</div>","null","","fixation","","","","","","","","","","",""
"aa-learning-trial","222","843188","0.0-11.0-2.0-1.16","5938","1","16","Female","approach_avoid_spark_v1","""event"",""trial"",""time""
""fullscreenenter"",""1"",""2464""
","
","
","""event"",""trial"",""time""
""fullscreenenter"",""1"",""2464""
","
","","","","","","1026","images/goat6.png","","","learning","-3","0","0","0","goat","animals","2","1","","neutral","0"
"html-keyboard-response","223","843692","0.0-11.0-2.0-0.17","5938","1","16","Female","approach_avoid_spark_v1","""event"",""trial"",""time""
""fullscreenenter"",""1"",""2464""
","
","
","""event"",""trial"",""time""
""fullscreenenter"",""1"",""2464""
","
","","","","","","null","<div style=""font-size:60px;"">+</div>","null","","fixation","","","","","","","","","","",""
"aa-learning-trial","224","846700","0.0-11.0-2.0-1.17","5938","1","16","Female","approach_avoid_spark_v1","""event"",""trial"",""time""
""fullscreenenter"",""1"",""2464""
","
","
","""event"",""trial"",""time""
""fullscreenenter"",""1"",""2464""
","
","","","","","","1235.2000000001863","images/cow4.png","","","learning","-7","0","0","0","cow","animals","2","1","","good","[4]"
"html-keyboard-response","225","847203","0.0-11.0-2.0-0.18","5938","1","16","Female","approach_avoid_spark_v1","""event"",""trial"",""time""
""fullscreenenter"",""1"",""2464""
","
","
","""event"",""trial"",""time""
""fullscreenenter"",""1"",""2464""
","
","","","","","","null","<div style=""font-size:60px;"">+</div>","null","","fixation","","","","","","","","","","",""
"aa-learning-trial","226","850212","0.0-11.0-2.0-1.18","5938","1","16","Female","approach_avoid_spark_v1","""event"",""trial"",""time""
""fullscreenenter"",""1"",""2464""
","
","
","""event"",""trial"",""time""
""fullscreenenter"",""1"",""2464""
","
","","","","","","971.2000000001863","images/goat1.png","","","learning","5","5","1","1","goat","animals","2","1","","neutral","0"
"html-keyboard-response","227","850716","0.0-11.0-2.0-0.19","5938","1","16","Female","approach_avoid_spark_v1","""event"",""trial"",""time""
""fullscreenenter"",""1"",""2464""
","
","
","""event"",""trial"",""time""
""fullscreenenter"",""1"",""2464""
","
","","","","","","null","<div style=""font-size:60px;"">+</div>","null","","fixation","","","","","","","","","","",""
"aa-learning-trial","228","853725","0.0-11.0-2.0-1.19","5938","1","16","Female","approach_avoid_spark_v1","""event"",""trial"",""time""
""fullscreenenter"",""1"",""2464""
","
","
","""event"",""trial"",""time""
""fullscreenenter"",""1"",""2464""
","
","","","","","","842.4000000003725","images/goat1.png","","","learning","5","5","1","1","goat","animals","2","1","","neutral","0"
"html-keyboard-response","229","854236","0.0-11.0-2.0-0.20","5938","1","16","Female","approach_avoid_spark_v1","""event"",""trial"",""time""
""fullscreenenter"",""1"",""2464""
","
","
","""event"",""trial"",""time""
""fullscreenenter"",""1"",""2464""
","
","","","","","","null","<div style=""font-size:60px;"">+</div>","null","","fixation","","","","","","","","","","",""
"aa-learning-trial","230","857244","0.0-11.0-2.0-1.20","5938","1","16","Female","approach_avoid_spark_v1","""event"",""trial"",""time""
""fullscreenenter"",""1"",""2464""
","
","
","""event"",""trial"",""time""
""fullscreenenter"",""1"",""2464""
","
","","","","","","1250.1000000005588","images/goat4.png","","","learning","1","1","1","1","goat","animals","2","1","","neutral","0"
"html-keyboard-response","231","857747","0.0-11.0-2.0-0.21","5938","1","16","Female","approach_avoid_spark_v1","""event"",""trial"",""time""
""fullscreenenter"",""1"",""2464""
","
","
","""event"",""trial"",""time""
""fullscreenenter"",""1"",""2464""
","
","","","","","","null","<div style=""font-size:60px;"">+</div>","null","","fixation","","","","","","","","","","",""
"aa-learning-trial","232","860756","0.0-11.0-2.0-1.21","5938","1","16","Female","approach_avoid_spark_v1","""event"",""trial"",""time""
""fullscreenenter"",""1"",""2464""
","
","
","""event"",""trial"",""time""
""fullscreenenter"",""1"",""2464""
","
","","","","","","909","images/cow7.png","","","learning","2","2","1","1","cow","animals","2","1","","good","[4]"
"html-keyboard-response","233","861260","0.0-11.0-2.0-0.22","5938","1","16","Female","approach_avoid_spark_v1","""event"",""trial"",""time""
""fullscreenenter"",""1"",""2464""
","
","
","""event"",""trial"",""time""
""fullscreenenter"",""1"",""2464""
","
","","","","","","null","<div style=""font-size:60px;"">+</div>","null","","fixation","","","","","","","","","","",""
"aa-learning-trial","234","864268","0.0-11.0-2.0-1.22","5938","1","16","Female","approach_avoid_spark_v1","""event"",""trial"",""time""
""fullscreenenter"",""1"",""2464""
","
","
","""event"",""trial"",""time""
""fullscreenenter"",""1"",""2464""
","
","","","","","","434.09999999962747","images/horse2.png","","","learning","7","7","1","1","horse","animals","2","1","","bad","[-4]"
"html-keyboard-response","235","864771","0.0-11.0-2.0-0.23","5938","1","16","Female","approach_avoid_spark_v1","""event"",""trial"",""time""
""fullscreenenter"",""1"",""2464""
","
","
","""event"",""trial"",""time""
""fullscreenenter"",""1"",""2464""
","
","","","","","","null","<div style=""font-size:60px;"">+</div>","null","","fixation","","","","","","","","","","",""
"aa-learning-trial","236","867780","0.0-11.0-2.0-1.23","5938","1","16","Female","approach_avoid_spark_v1","""event"",""trial"",""time""
""fullscreenenter"",""1"",""2464""
","
","
","""event"",""trial"",""time""
""fullscreenenter"",""1"",""2464""
","
","","","","","","1170.4000000003725","images/goat4.png","","","learning","1","1","1","1","goat","animals","2","1","","neutral","0"
