"trial_type","trial_index","time_elapsed","internal_node_id","subject_id","task_condition","age","gender","task_version","interactions","blur_events","focus_events","fullscreenenter_events","fullscreenexit_events","success","timeout","failed_images","failed_audio","failed_video","rt","stimulus","response","button_pressed","task_part","approach_reward","points","key_press","option_selected","stim_cat","task_block","block_condition","block_number","correct","cat_type","mean_cat_reward"
"pavlovia","0","12","0.0-0.0","3715","2","8","Male","approach_avoid_spark_v1","""event"",""trial"",""time""
""fullscreenenter"",""1"",""8530""
","
","
","""event"",""trial"",""time""
""fullscreenenter"",""1"",""8530""
","
","","","","","","","","","","","","","","","","","","","","",""
"fullscreen","1","9515","0.0-1.0","3715","2","8","Male","approach_avoid_spark_v1","""event"",""trial"",""time""
""fullscreenenter"",""1"",""8530""
","
","
","""event"",""trial"",""time""
""fullscreenenter"",""1"",""8530""
","
","true","","","","","","","","","","","","","","","","","","","",""
"preload","2","13744","0.0-2.0","3715","2","8","Male","approach_avoid_spark_v1","""event"",""trial"",""time""
""fullscreenenter"",""1"",""8530""
","
","
","""event"",""trial"",""time""
""fullscreenenter"",""1"",""8530""
","
","true","false","[]","[]","[]","","","","","","","","","","","","","","","",""
"audio-keyboard-response","3","19607","0.0-3.0","3715","2","8","Male","approach_avoid_spark_v1","""event"",""trial"",""time""
""fullscreenenter"",""1"",""8530""
","
","
","""event"",""trial"",""time""
""fullscreenenter"",""1"",""8530""
","
","","","","","","5858.666666666666","audio/beep_loop.wav"," ","","","","","","","","","","","","",""
"audio-button-response","4","28041","0.0-4.0","3715","2","8","Male","approach_avoid_spark_v1","""event"",""trial"",""time""
""fullscreenenter"",""1"",""8530""
","
","
","""event"",""trial"",""time""
""fullscreenenter"",""1"",""8530""
","
","","","","","","8429","audio/shark.wav","4","","","","","","","","","","","","",""
"audio-button-response","5","30375","0.0-5.0","3715","2","8","Male","approach_avoid_spark_v1","""event"",""trial"",""time""
""fullscreenenter"",""1"",""8530""
","
","
","""event"",""trial"",""time""
""fullscreenenter"",""1"",""8530""
","
","","","","","","1320","audio/turtle.wav","1","","","","","","","","","","","","",""
"preload","6","33256","0.0-6.0","3715","2","8","Male","approach_avoid_spark_v1","""event"",""trial"",""time""
""fullscreenenter"",""1"",""8530""
","
","
","""event"",""trial"",""time""
""fullscreenenter"",""1"",""8530""
","
","true","false","[]","[]","[]","","","","","","","","","","","","","","","",""
"html-keyboard-response","7","37094","0.0-7.0","3715","2","8","Male","approach_avoid_spark_v1","""event"",""trial"",""time""
""fullscreenenter"",""1"",""8530""
","
","
","""event"",""trial"",""time""
""fullscreenenter"",""1"",""8530""
","
","","","","","","3836.7999999523163","Welcome to the experiment. Press any key to begin and to advance the instructions."," ","","","","","","","","","","","","",""
"learning-instructions","8","73475","0.0-8.0-0.0-0.0","3715","2","8","Male","approach_avoid_spark_v1","""event"",""trial"",""time""
""fullscreenenter"",""1"",""8530""
","
","
","""event"",""trial"",""time""
""fullscreenenter"",""1"",""8530""
","
","","","","","","29418.299999952316","<p> Welcome! Today you are going to play 6 different rounds of a decision-making game. </p><p> Use the mouse to click next to continue. </p>","","0","instructions","","","","","","","","","","",""
"learning-instructions","9","79244","0.0-8.0-0.0-0.1","3715","2","8","Male","approach_avoid_spark_v1","""event"",""trial"",""time""
""fullscreenenter"",""1"",""8530""
","
","
","""event"",""trial"",""time""
""fullscreenenter"",""1"",""8530""
","
","","","","","","3027.5","<p> You will start with a practice round to learn the rules. </p>","","0","instructions","","","","","","","","","","",""
"learning-instructions","10","84635","0.0-8.0-0.0-0.2","3715","2","8","Male","approach_avoid_spark_v1","""event"",""trial"",""time""
""fullscreenenter"",""1"",""8530""
","
","
","""event"",""trial"",""time""
""fullscreenenter"",""1"",""8530""
","
","","","","","","1928.9000000953674","<p> Your goal in this round is to give out sports equipment to kids. </p></div>","","0","instructions","","","","","","","","","","",""
"learning-instructions","11","93968","0.0-8.0-0.0-0.3","3715","2","8","Male","approach_avoid_spark_v1","""event"",""trial"",""time""
""fullscreenenter"",""1"",""8530""
","
","
","""event"",""trial"",""time""
""fullscreenenter"",""1"",""8530""
","
","","","","","","1784","<p> The kids only like some of the equipment.  </p><p> On each turn, you will see a piece of sports equipment.   </p><p> You need to decide whether to give it to the kids or not.  </p>","","0","instructions","","","","","","","","","","",""
"learning-instructions","12","99738","0.0-8.0-0.0-0.4","3715","2","8","Male","approach_avoid_spark_v1","""event"",""trial"",""time""
""fullscreenenter"",""1"",""8530""
","
","
","""event"",""trial"",""time""
""fullscreenenter"",""1"",""8530""
","
","","","","","","1001.5999999046326","<p> You can give them the equipment by pressing 1 and choose not to give it to them by pressing 0. </p><br><div class=""choice-instructions-grid""> <div class=""choice-option""><img src=""images/approach.png"" class=""choice-option-img"" stage=""instructions"" position=""0"" ><div class=""choice-option-text""> Press ""1."" </div></div><div class=""choice-option""><img src=""images/avoid.png"" class=""choice-option-img"" stage=""instructions"" position=""1"" ><div class=""choice-option-text""> Press ""0."" </div></div>","","0","instructions","","","","","","","","","","",""
"learning-instructions","13","108044","0.0-8.0-0.0-0.5","3715","2","8","Male","approach_avoid_spark_v1","""event"",""trial"",""time""
""fullscreenenter"",""1"",""8530""
","
","
","""event"",""trial"",""time""
""fullscreenenter"",""1"",""8530""
","
","","","","","","910.7999999523163","<p> If you give them a piece of equipment they like, they will be happy! </p><p> But if you give them a piece of equipment they do not like, they will be sad. </p>","","0","instructions","","","","","","","","","","",""
"learning-instructions","14","119336","0.0-8.0-0.0-0.6","3715","2","8","Male","approach_avoid_spark_v1","""event"",""trial"",""time""
""fullscreenenter"",""1"",""8530""
","
","
","""event"",""trial"",""time""
""fullscreenenter"",""1"",""8530""
","
","","","","","","781.6000001430511","<p> You will earn points based on how you make kids feel. </p><p> If you make them happy, you will WIN anywhere from 1 - 9 points, </p><p> but if you make them sad, you will LOSE anywhere from 1 - 9 points. </p>","","0","instructions","","","","","","","","","","",""
"learning-instructions","15","129409","0.0-8.0-0.0-0.7","3715","2","8","Male","approach_avoid_spark_v1","""event"",""trial"",""time""
""fullscreenenter"",""1"",""8530""
","
","
","""event"",""trial"",""time""
""fullscreenenter"",""1"",""8530""
","
","","","","","","521.2000000476837","<p> You will see how many points you won or lost in the center of the screen. </p><p> Here is what you would see if you won 6 points: </p><p style=""color:green;font-size:50px;font-weight:bolder"">6</p><p style=""color:green"">The text is GREEN because you WON points.</p>","","0","instructions","","","","","","","","","","",""
"learning-instructions","16","135645","0.0-8.0-0.0-0.8","3715","2","8","Male","approach_avoid_spark_v1","""event"",""trial"",""time""
""fullscreenenter"",""1"",""8530""
","
","
","""event"",""trial"",""time""
""fullscreenenter"",""1"",""8530""
","
","","","","","","738.2999999523163","<p> And here is what you would see if you lost 4 points: </p><p style=""color:red;font-size:50px;font-weight:bolder"">-4</p><p style=""color:red"">The text is RED because you LOST points. </p>","","0","instructions","","","","","","","","","","",""
"learning-instructions","17","152899","0.0-8.0-0.0-0.9","3715","2","8","Male","approach_avoid_spark_v1","""event"",""trial"",""time""
""fullscreenenter"",""1"",""8530""
","
","
","""event"",""trial"",""time""
""fullscreenenter"",""1"",""8530""
","
","","","","","","2542.100000143051","<p> Some of the equipment will make the kids VERY happy or sad. </p><p> These pieces of equipment will make you win or lose LOTS of points. </p><p> Other pieces of equipment will only make the kids a little happy or sad. </p><p> These pieces of equipment will make you win or lose small amounts of points. </p>","","0","instructions","","","","","","","","","","",""
"learning-instructions","18","164170","0.0-8.0-0.0-0.10","3715","2","8","Male","approach_avoid_spark_v1","""event"",""trial"",""time""
""fullscreenenter"",""1"",""8530""
","
","
","""event"",""trial"",""time""
""fullscreenenter"",""1"",""8530""
","
","","","","","","635.5999999046326","<p> If you choose not to give them the equipment, you will not win or lose any points. </p><p>  However, in the center of the screen, you will see the number of points you WOULD HAVE won or lost if you had given them the equipment. </p>","","0","instructions","","","","","","","","","","",""
"learning-instructions","19","187184","0.0-8.0-0.0-0.11","3715","2","8","Male","approach_avoid_spark_v1","""event"",""trial"",""time""
""fullscreenenter"",""1"",""8530""
","
","
","""event"",""trial"",""time""
""fullscreenenter"",""1"",""8530""
","
","","","","","","1487.2000000476837","<p> Here is what you might see if you did not give the equipment to the kids but it would have made them happy: </p><p style=""color:grey; font-size:50px; display: inline-block; border-spacing: 15px; border-width:3px; border-style:solid; border-color:red"">  &nbsp; 7 &nbsp; </p><p> Remember, in this case, you would not win or lose ANY points because you did not give them the equipment.  </p><p style=""color:grey"">The text is GREY because you earned ZERO points. </p><p style=""color:red"">However, choosing to give the kids the equipment would have made you win points. The box around the text is RED because you chose the worse option. </p>","","0","instructions","","","","","","","","","","",""
"learning-instructions","20","210000","0.0-8.0-0.0-0.12","3715","2","8","Male","approach_avoid_spark_v1","""event"",""trial"",""time""
""fullscreenenter"",""1"",""8530""
","
","
","""event"",""trial"",""time""
""fullscreenenter"",""1"",""8530""
","
","","","","","","1734.7999999523163","<p> Here is what you might see if you did not give the equipment to the kids but it would have made them sad: </p><p style=""color:grey;font-size:50px; display: inline-block; border-spacing: 15px; border-width:3px; border-style:solid; border-color:green"">  &nbsp; -8 &nbsp; </p><p> Remember, in this case, you would not win or lose ANY points because you did not give them the equipment.  </p><p style=""color:grey"">The text is GREY because you earned ZERO points. </p><p  style=""color:green""> Choosing to give the kids the equipment would have made you lose points. The box around the text is GREEN because you chose the better option.</p>","","0","instructions","","","","","","","","","","",""
"learning-instructions","21","220303","0.0-8.0-0.0-0.13","3715","2","8","Male","approach_avoid_spark_v1","""event"",""trial"",""time""
""fullscreenenter"",""1"",""8530""
","
","
","""event"",""trial"",""time""
""fullscreenenter"",""1"",""8530""
","
","","","","","","1457.6000001430511","<p> You will have 3 seconds to make each choice. Try to respond before time runs out! </p><p> You will lose 5 points each time you do not make a response. </p>","","0","instructions","","","","","","","","","","",""
"learning-instructions","22","226807","0.0-8.0-0.0-0.14","3715","2","8","Male","approach_avoid_spark_v1","""event"",""trial"",""time""
""fullscreenenter"",""1"",""8530""
","
","
","""event"",""trial"",""time""
""fullscreenenter"",""1"",""8530""
","
","","","","","","1094.0999999046326","<p> This is just a practice round, but in the real game, your bonus payment will depend on your total number of points.","","0","instructions","","","","","","","","","","",""
"learning-instructions","23","233254","0.0-8.0-0.0-0.15","3715","2","8","Male","approach_avoid_spark_v1","""event"",""trial"",""time""
""fullscreenenter"",""1"",""8530""
","
","
","""event"",""trial"",""time""
""fullscreenenter"",""1"",""8530""
","
","","","","","","676.9000000953674","<p> Remember, you can give them the equipment by pressing 1 and choose not to give it to them by pressing 0. </p><br><div class=""choice-instructions-grid""> <div class=""choice-option""><img src=""images/approach.png"" class=""choice-option-img"" stage=""instructions"" position=""0"" ><div class=""choice-option-text""> Press ""1."" </div></div><div class=""choice-option""><img src=""images/avoid.png"" class=""choice-option-img"" stage=""instructions"" position=""1"" ><div class=""choice-option-text""> Press ""0."" </div></div>","","0","instructions","","","","","","","","","","",""
"html-button-response","24","234722","0.0-8.0-1.0","3715","2","8","Male","approach_avoid_spark_v1","""event"",""trial"",""time""
""fullscreenenter"",""1"",""8530""
","
","
","""event"",""trial"",""time""
""fullscreenenter"",""1"",""8530""
","
","","","","","","1357.5","<p> Ready to practice? </p>","0","","","","","","","","","","","","",""
"html-keyboard-response","25","235341","0.0-8.0-2.0-0.0","3715","2","8","Male","approach_avoid_spark_v1","""event"",""trial"",""time""
""fullscreenenter"",""1"",""8530""
","
","
","""event"",""trial"",""time""
""fullscreenenter"",""1"",""8530""
","
","","","","","","null","<div style=""font-size:60px;"">+</div>","null","","fixation","","","","","","","","","","",""
"aa-learning-trial","26","238348","0.0-8.0-2.0-1.0","3715","2","8","Male","approach_avoid_spark_v1","""event"",""trial"",""time""
""fullscreenenter"",""1"",""8530""
","
","
","""event"",""trial"",""time""
""fullscreenenter"",""1"",""8530""
","
","","","","","","null","images/racket3.png","","","learning","-6","-5","","null","practice","practice","practice","-1","","",""
"html-keyboard-response","27","238854","0.0-8.0-2.0-0.1","3715","2","8","Male","approach_avoid_spark_v1","""event"",""trial"",""time""
""fullscreenenter"",""1"",""8530""
","
","
","""event"",""trial"",""time""
""fullscreenenter"",""1"",""8530""
","
","","","","","","null","<div style=""font-size:60px;"">+</div>","null","","fixation","","","","","","","","","","",""
"aa-learning-trial","28","241862","0.0-8.0-2.0-1.1","3715","2","8","Male","approach_avoid_spark_v1","""event"",""trial"",""time""
""fullscreenenter"",""1"",""8530""
","
","
","""event"",""trial"",""time""
""fullscreenenter"",""1"",""8530""
","
","","","","","","null","images/ball2.png","","","learning","-1","-5","","null","practice","practice","practice","-1","","",""
"html-keyboard-response","29","242366","0.0-8.0-2.0-0.2","3715","2","8","Male","approach_avoid_spark_v1","""event"",""trial"",""time""
""fullscreenenter"",""1"",""8530""
","
","
","""event"",""trial"",""time""
""fullscreenenter"",""1"",""8530""
","
","","","","","","null","<div style=""font-size:60px;"">+</div>","null","","fixation","","","","","","","","","","",""
"aa-learning-trial","30","245371","0.0-8.0-2.0-1.2","3715","2","8","Male","approach_avoid_spark_v1","""event"",""trial"",""time""
""fullscreenenter"",""1"",""8530""
","
","
","""event"",""trial"",""time""
""fullscreenenter"",""1"",""8530""
","
","","","","","","null","images/ball2.png","","","learning","5","-5","","null","practice","practice","practice","-1","","",""
"html-keyboard-response","31","245879","0.0-8.0-2.0-0.3","3715","2","8","Male","approach_avoid_spark_v1","""event"",""trial"",""time""
""fullscreenenter"",""1"",""8530""
","
","
","""event"",""trial"",""time""
""fullscreenenter"",""1"",""8530""
","
","","","","","","null","<div style=""font-size:60px;"">+</div>","null","","fixation","","","","","","","","","","",""
"aa-learning-trial","32","248884","0.0-8.0-2.0-1.3","3715","2","8","Male","approach_avoid_spark_v1","""event"",""trial"",""time""
""fullscreenenter"",""1"",""8530""
","
","
","""event"",""trial"",""time""
""fullscreenenter"",""1"",""8530""
","
","","","","","","null","images/racket1.png","","","learning","-9","-5","","null","practice","practice","practice","-1","","",""
"html-keyboard-response","33","249389","0.0-8.0-2.0-0.4","3715","2","8","Male","approach_avoid_spark_v1","""event"",""trial"",""time""
""fullscreenenter"",""1"",""8530""
","
","
","""event"",""trial"",""time""
""fullscreenenter"",""1"",""8530""
","
","","","","","","null","<div style=""font-size:60px;"">+</div>","null","","fixation","","","","","","","","","","",""
"aa-learning-trial","34","252412","0.0-8.0-2.0-1.4","3715","2","8","Male","approach_avoid_spark_v1","""event"",""trial"",""time""
""fullscreenenter"",""1"",""8530""
","
","
","""event"",""trial"",""time""
""fullscreenenter"",""1"",""8530""
","
","","","","","","null","images/racket4.png","","","learning","-9","-5","","null","practice","practice","practice","-1","","",""
"html-keyboard-response","35","252930","0.0-8.0-2.0-0.5","3715","2","8","Male","approach_avoid_spark_v1","""event"",""trial"",""time""
""fullscreenenter"",""1"",""8530""
","
","
","""event"",""trial"",""time""
""fullscreenenter"",""1"",""8530""
","
","","","","","","null","<div style=""font-size:60px;"">+</div>","null","","fixation","","","","","","","","","","",""
"aa-learning-trial","36","255943","0.0-8.0-2.0-1.5","3715","2","8","Male","approach_avoid_spark_v1","""event"",""trial"",""time""
""fullscreenenter"",""1"",""8530""
","
","
","""event"",""trial"",""time""
""fullscreenenter"",""1"",""8530""
","
","","","","","","null","images/ball4.png","","","learning","-5","-5","","null","practice","practice","practice","-1","","",""
"html-keyboard-response","37","256457","0.0-8.0-2.0-0.6","3715","2","8","Male","approach_avoid_spark_v1","""event"",""trial"",""time""
""fullscreenenter"",""1"",""8530""
","
","
","""event"",""trial"",""time""
""fullscreenenter"",""1"",""8530""
","
","","","","","","null","<div style=""font-size:60px;"">+</div>","null","","fixation","","","","","","","","","","",""
"aa-learning-trial","38","259462","0.0-8.0-2.0-1.6","3715","2","8","Male","approach_avoid_spark_v1","""event"",""trial"",""time""
""fullscreenenter"",""1"",""8530""
","
","
","""event"",""trial"",""time""
""fullscreenenter"",""1"",""8530""
","
","","","","","","null","images/ball4.png","","","learning","-3","-5","","null","practice","practice","practice","-1","","",""
"html-keyboard-response","39","259981","0.0-8.0-2.0-0.7","3715","2","8","Male","approach_avoid_spark_v1","""event"",""trial"",""time""
""fullscreenenter"",""1"",""8530""
","
","
","""event"",""trial"",""time""
""fullscreenenter"",""1"",""8530""
","
","","","","","","null","<div style=""font-size:60px;"">+</div>","null","","fixation","","","","","","","","","","",""
"aa-learning-trial","40","262991","0.0-8.0-2.0-1.7","3715","2","8","Male","approach_avoid_spark_v1","""event"",""trial"",""time""
""fullscreenenter"",""1"",""8530""
","
","
","""event"",""trial"",""time""
""fullscreenenter"",""1"",""8530""
","
","","","","","","null","images/ball1.png","","","learning","9","-5","","null","practice","practice","practice","-1","","",""
"html-keyboard-response","41","263495","0.0-8.0-2.0-0.8","3715","2","8","Male","approach_avoid_spark_v1","""event"",""trial"",""time""
""fullscreenenter"",""1"",""8530""
","
","
","""event"",""trial"",""time""
""fullscreenenter"",""1"",""8530""
","
","","","","","","null","<div style=""font-size:60px;"">+</div>","null","","fixation","","","","","","","","","","",""
"aa-learning-trial","42","266511","0.0-8.0-2.0-1.8","3715","2","8","Male","approach_avoid_spark_v1","""event"",""trial"",""time""
""fullscreenenter"",""1"",""8530""
","
","
","""event"",""trial"",""time""
""fullscreenenter"",""1"",""8530""
","
","","","","","","null","images/racket3.png","","","learning","-9","-5","","null","practice","practice","practice","-1","","",""
"html-keyboard-response","43","267025","0.0-8.0-2.0-0.9","3715","2","8","Male","approach_avoid_spark_v1","""event"",""trial"",""time""
""fullscreenenter"",""1"",""8530""
","
","
","""event"",""trial"",""time""
""fullscreenenter"",""1"",""8530""
","
","","","","","","null","<div style=""font-size:60px;"">+</div>","null","","fixation","","","","","","","","","","",""
"aa-learning-trial","44","270036","0.0-8.0-2.0-1.9","3715","2","8","Male","approach_avoid_spark_v1","""event"",""trial"",""time""
""fullscreenenter"",""1"",""8530""
","
","
","""event"",""trial"",""time""
""fullscreenenter"",""1"",""8530""
","
","","","","","","null","images/ball4.png","","","learning","8","-5","","null","practice","practice","practice","-1","","",""
"html-keyboard-response","45","270545","0.0-8.0-2.0-0.10","3715","2","8","Male","approach_avoid_spark_v1","""event"",""trial"",""time""
""fullscreenenter"",""1"",""8530""
","
","
","""event"",""trial"",""time""
""fullscreenenter"",""1"",""8530""
","
","","","","","","null","<div style=""font-size:60px;"">+</div>","null","","fixation","","","","","","","","","","",""
"aa-learning-trial","46","273552","0.0-8.0-2.0-1.10","3715","2","8","Male","approach_avoid_spark_v1","""event"",""trial"",""time""
""fullscreenenter"",""1"",""8530""
","
","
","""event"",""trial"",""time""
""fullscreenenter"",""1"",""8530""
","
","","","","","","null","images/ball2.png","","","learning","-4","-5","","null","practice","practice","practice","-1","","",""
"html-keyboard-response","47","274054","0.0-8.0-2.0-0.11","3715","2","8","Male","approach_avoid_spark_v1","""event"",""trial"",""time""
""fullscreenenter"",""1"",""8530""
","
","
","""event"",""trial"",""time""
""fullscreenenter"",""1"",""8530""
","
","","","","","","null","<div style=""font-size:60px;"">+</div>","null","","fixation","","","","","","","","","","",""
"aa-learning-trial","48","277062","0.0-8.0-2.0-1.11","3715","2","8","Male","approach_avoid_spark_v1","""event"",""trial"",""time""
""fullscreenenter"",""1"",""8530""
","
","
","""event"",""trial"",""time""
""fullscreenenter"",""1"",""8530""
","
","","","","","","null","images/ball2.png","","","learning","8","-5","","null","practice","practice","practice","-1","","",""
"html-button-response","49","292218","0.0-8.0-3.0","3715","2","8","Male","approach_avoid_spark_v1","""event"",""trial"",""time""
""fullscreenenter"",""1"",""8530""
","
","
","""event"",""trial"",""time""
""fullscreenenter"",""1"",""8530""
","
","","","","","","15148.799999952316","<p> You earned -60 points in the practice round! </p>","0","","break","","","","","","","","","","",""
"learning-instructions","50","301892","0.0-8.0-4.0-0.0","3715","2","8","Male","approach_avoid_spark_v1","""event"",""trial"",""time""
""fullscreenenter"",""1"",""8530""
","
","
","""event"",""trial"",""time""
""fullscreenenter"",""1"",""8530""
","
","","","","","","2391.2000000476837","<p> It's almost time to start the real game. </p><p> Before you start, we're going to ask you a few questions about how the game works. </p>","","0","instructions","","","","","","","","","","",""
"preload","51","303095","0.0-8.0-5.0","3715","2","8","Male","approach_avoid_spark_v1","""event"",""trial"",""time""
""fullscreenenter"",""1"",""8530""
","
","
","""event"",""trial"",""time""
""fullscreenenter"",""1"",""8530""
","
","true","false","[]","[]","[]","","","","","","","","","","","","","","","",""
"comp-q","52","309921","0.0-8.0-6.0-0.0","3715","2","8","Male","approach_avoid_spark_v1","""event"",""trial"",""time""
""fullscreenenter"",""1"",""8530""
","
","
","""event"",""trial"",""time""
""fullscreenenter"",""1"",""8530""
","
","","","","","","1828.2000000476837","<p> <b> True or False? </b> </p><p> If you see a number in GREY, that means you earned that many points. </p>","","1","comp_question","","","","","","","","","true","",""
"comp-q","53","320070","0.0-8.0-6.0-1.0","3715","2","8","Male","approach_avoid_spark_v1","""event"",""trial"",""time""
""fullscreenenter"",""1"",""8530""
","
","
","""event"",""trial"",""time""
""fullscreenenter"",""1"",""8530""
","
","","","","","","1779.1999998092651","<p><b> That's right! </b> If you see a grey number, it means you earned ZERO points. <br> The grey numbers show the points you WOULD HAVE earned if you had made the other choice. </p>","","0","comp_answer","","","","","","","","","","",""
"comp-q","54","325591","0.0-8.0-7.0-0.0","3715","2","8","Male","approach_avoid_spark_v1","""event"",""trial"",""time""
""fullscreenenter"",""1"",""8530""
","
","
","""event"",""trial"",""time""
""fullscreenenter"",""1"",""8530""
","
","","","","","","829.5","<p> <b> True or False? </b> </p><p> You will have as much time as you want to make each choice. </p>","","1","comp_question","","","","","","","","","true","",""
"comp-q","55","330660","0.0-8.0-7.0-1.0","3715","2","8","Male","approach_avoid_spark_v1","""event"",""trial"",""time""
""fullscreenenter"",""1"",""8530""
","
","
","""event"",""trial"",""time""
""fullscreenenter"",""1"",""8530""
","
","","","","","","1017.6999998092651","<p> <b> That's right! </b> You will only have 3 seconds to make each choice. </p>","","0","comp_answer","","","","","","","","","","",""
"comp-q","56","337071","0.0-8.0-8.0-0.0","3715","2","8","Male","approach_avoid_spark_v1","""event"",""trial"",""time""
""fullscreenenter"",""1"",""8530""
","
","
","""event"",""trial"",""time""
""fullscreenenter"",""1"",""8530""
","
","","","","","","1748.7000000476837","<p> <b> True or False? </b> </p><p> You should use the '1' and '0' keys to make your choices. </p>","","0","comp_question","","","","","","","","","true","",""
"comp-q","57","342710","0.0-8.0-8.0-1.0","3715","2","8","Male","approach_avoid_spark_v1","""event"",""trial"",""time""
""fullscreenenter"",""1"",""8530""
","
","
","""event"",""trial"",""time""
""fullscreenenter"",""1"",""8530""
","
","","","","","","1031.1000001430511","<p> <b> That's right! </b> You should use the '1' and '0' keys to make each choice. </p>","","0","comp_answer","","","","","","","","","","",""
"learning-instructions","58","351366","0.0-8.0-9.0-0.0","3715","2","8","Male","approach_avoid_spark_v1","""event"",""trial"",""time""
""fullscreenenter"",""1"",""8530""
","
","
","""event"",""trial"",""time""
""fullscreenenter"",""1"",""8530""
","
","","","","","","2374.300000190735","<p> It's now time to start the real game. </p>Do your best, because the points you earn in the next rounds will influence your bonus payment. </p>","","0","instructions","","","","","","","","","","",""
"preload","59","351494","0.0-9.0-0.0","3715","2","8","Male","approach_avoid_spark_v1","""event"",""trial"",""time""
""fullscreenenter"",""1"",""8530""
","
","
","""event"",""trial"",""time""
""fullscreenenter"",""1"",""8530""
","
","true","false","[]","[]","[]","","","","","","","","","","","","","","","",""
"learning-instructions","60","356721","0.0-9.0-1.0-0.0","3715","2","8","Male","approach_avoid_spark_v1","""event"",""trial"",""time""
""fullscreenenter"",""1"",""8530""
","
","
","""event"",""trial"",""time""
""fullscreenenter"",""1"",""8530""
","
","","","","","","1579.5999999046326","<p> Your goal in this round is to take care of lots of animals. </p></div>","","0","instructions","","","","","","","","","","",""
"learning-instructions","61","366619","0.0-9.0-1.0-0.1","3715","2","8","Male","approach_avoid_spark_v1","""event"",""trial"",""time""
""fullscreenenter"",""1"",""8530""
","
","
","""event"",""trial"",""time""
""fullscreenenter"",""1"",""8530""
","
","","","","","","596.2000000476837","<p> Some animals want to be pet, while other animals want to be left alone.  </p><p> On each turn, you will see an animal.   </p><p> You need to decide whether to pet it or not.  </p>","","0","instructions","","","","","","","","","","",""
"learning-instructions","62","372457","0.0-9.0-1.0-0.2","3715","2","8","Male","approach_avoid_spark_v1","""event"",""trial"",""time""
""fullscreenenter"",""1"",""8530""
","
","
","""event"",""trial"",""time""
""fullscreenenter"",""1"",""8530""
","
","","","","","","958.2999999523163","<p> You can pet the animal by pressing 1 and leave the animal alone by pressing 0. </p><br><div class=""choice-instructions-grid""> <div class=""choice-option""><img src=""images/approach.png"" class=""choice-option-img"" stage=""instructions"" position=""0"" ><div class=""choice-option-text""> Press ""1."" </div></div><div class=""choice-option""><img src=""images/avoid.png"" class=""choice-option-img"" stage=""instructions"" position=""1"" ><div class=""choice-option-text""> Press ""0."" </div></div>","","0","instructions","","","","","","","","","","",""
"learning-instructions","63","381597","0.0-9.0-1.0-0.3","3715","2","8","Male","approach_avoid_spark_v1","""event"",""trial"",""time""
""fullscreenenter"",""1"",""8530""
","
","
","""event"",""trial"",""time""
""fullscreenenter"",""1"",""8530""
","
","","","","","","727.3999998569489","<p> If you pet an animal that wants to be pet, you will make it feel happy! </p><p> But if you pet an animal that wants to be left alone, you will make it feel angry. </p>","","0","instructions","","","","","","","","","","",""
"learning-instructions","64","395573","0.0-9.0-1.0-0.4","3715","2","8","Male","approach_avoid_spark_v1","""event"",""trial"",""time""
""fullscreenenter"",""1"",""8530""
","
","
","""event"",""trial"",""time""
""fullscreenenter"",""1"",""8530""
","
","","","","","","2030.7999999523163","<p> You will earn points based on how you made the animal feel. </p><p> If you made it feel happy, you will WIN anywhere from 1 - 9 points, </p><p> but if you made it feel angry, you will LOSE anywhere from 1 - 9 points. </p>","","0","instructions","","","","","","","","","","",""
"learning-instructions","65","403953","0.0-9.0-1.0-0.5","3715","2","8","Male","approach_avoid_spark_v1","""event"",""trial"",""time""
""fullscreenenter"",""1"",""8530""
","
","
","""event"",""trial"",""time""
""fullscreenenter"",""1"",""8530""
","
","","","","","","1071.5999999046326","<p> You will see how many points you won or lost in the center of the screen. </p><p> Here is what you would see if you won 5 points: </p><p style=""color:green;font-size:50px;font-weight:bolder"">5</p>","","0","instructions","","","","","","","","","","",""
"learning-instructions","66","408373","0.0-9.0-1.0-0.6","3715","2","8","Male","approach_avoid_spark_v1","""event"",""trial"",""time""
""fullscreenenter"",""1"",""8530""
","
","
","""event"",""trial"",""time""
""fullscreenenter"",""1"",""8530""
","
","","","","","","1072.3000001907349","<p> And here is what you would see if you lost 3 points: </p><p style=""color:red;font-size:50px;font-weight:bolder"">-3</p>","","0","instructions","","","","","","","","","","",""
"learning-instructions","67","423230","0.0-9.0-1.0-0.7","3715","2","8","Male","approach_avoid_spark_v1","""event"",""trial"",""time""
""fullscreenenter"",""1"",""8530""
","
","
","""event"",""trial"",""time""
""fullscreenenter"",""1"",""8530""
","
","","","","","","1510.4000000953674","<p> Some animals will become very happy or very angry. </p><p> These animals will make you win or lose LOTS of points. </p><p> Other animals have less strong feelings. </p><p> These animals will make you win or lose small amounts of points. </p>","","0","instructions","","","","","","","","","","",""
"learning-instructions","68","435474","0.0-9.0-1.0-0.8","3715","2","8","Male","approach_avoid_spark_v1","""event"",""trial"",""time""
""fullscreenenter"",""1"",""8530""
","
","
","""event"",""trial"",""time""
""fullscreenenter"",""1"",""8530""
","
","","","","","","1424.1999998092651","<p> If you choose to leave the animal alone, you will not win or lose any points. </p><p>  However, in the center of the screen, you will see the number of points you WOULD HAVE won or lost if you had pet the animal. </p>","","0","instructions","","","","","","","","","","",""
"learning-instructions","69","447860","0.0-9.0-1.0-0.9","3715","2","8","Male","approach_avoid_spark_v1","""event"",""trial"",""time""
""fullscreenenter"",""1"",""8530""
","
","
","""event"",""trial"",""time""
""fullscreenenter"",""1"",""8530""
","
","","","","","","1131.6000001430511","<p> Here is what you might see if you did not pet the animal but the animal wanted to be pet: </p><p style=""color:grey; font-size:50px; display: inline-block; border-spacing: 15px; border-width:3px; border-style:solid; border-color:red"">  &nbsp; 6 &nbsp; </p><p> Remember, in this case, you would not win or lose ANY points because you did not pet the animal.  </p>","","0","instructions","","","","","","","","","","",""
"learning-instructions","70","455233","0.0-9.0-1.0-0.10","3715","2","8","Male","approach_avoid_spark_v1","""event"",""trial"",""time""
""fullscreenenter"",""1"",""8530""
","
","
","""event"",""trial"",""time""
""fullscreenenter"",""1"",""8530""
","
","","","","","","544.3999998569489","<p> Try to make the best choice for each animal because </p><p> at the end of the game, you will earn bonus money based on how many points you earned. </p>","","0","instructions","","","","","","","","","","",""
"learning-instructions","71","464719","0.0-9.0-1.0-0.11","3715","2","8","Male","approach_avoid_spark_v1","""event"",""trial"",""time""
""fullscreenenter"",""1"",""8530""
","
","
","""event"",""trial"",""time""
""fullscreenenter"",""1"",""8530""
","
","","","","","","1298.3999998569489","<p> You will have 3 seconds to make each choice. Try to respond before time runs out! </p><p> You will lose 5 points each time you do not make a response. </p>","","0","instructions","","","","","","","","","","",""
"html-keyboard-response","72","465325","0.0-9.0-2.0-0.0","3715","2","8","Male","approach_avoid_spark_v1","""event"",""trial"",""time""
""fullscreenenter"",""1"",""8530""
","
","
","""event"",""trial"",""time""
""fullscreenenter"",""1"",""8530""
","
","","","","","","null","<div style=""font-size:60px;"">+</div>","null","","fixation","","","","","","","","","","",""
"aa-learning-trial","73","468332","0.0-9.0-2.0-1.0","3715","2","8","Male","approach_avoid_spark_v1","""event"",""trial"",""time""
""fullscreenenter"",""1"",""8530""
","
","
","""event"",""trial"",""time""
""fullscreenenter"",""1"",""8530""
","
","","","","","","null","images/rodent5.png","","","learning","8","-5","","null","rodent","pets","2","0","","neutral","0"
"html-keyboard-response","74","468837","0.0-9.0-2.0-0.1","3715","2","8","Male","approach_avoid_spark_v1","""event"",""trial"",""time""
""fullscreenenter"",""1"",""8530""
","
","
","""event"",""trial"",""time""
""fullscreenenter"",""1"",""8530""
","
","","","","","","null","<div style=""font-size:60px;"">+</div>","null","","fixation","","","","","","","","","","",""
"aa-learning-trial","75","471857","0.0-9.0-2.0-1.1","3715","2","8","Male","approach_avoid_spark_v1","""event"",""trial"",""time""
""fullscreenenter"",""1"",""8530""
","
","
","""event"",""trial"",""time""
""fullscreenenter"",""1"",""8530""
","
","","","","","","null","images/dog5.png","","","learning","4","-5","","null","dog","pets","2","0","","good","[5]"
"html-keyboard-response","76","472367","0.0-9.0-2.0-0.2","3715","2","8","Male","approach_avoid_spark_v1","""event"",""trial"",""time""
""fullscreenenter"",""1"",""8530""
","
","
","""event"",""trial"",""time""
""fullscreenenter"",""1"",""8530""
","
","","","","","","null","<div style=""font-size:60px;"">+</div>","null","","fixation","","","","","","","","","","",""
"aa-learning-trial","77","475377","0.0-9.0-2.0-1.2","3715","2","8","Male","approach_avoid_spark_v1","""event"",""trial"",""time""
""fullscreenenter"",""1"",""8530""
","
","
","""event"",""trial"",""time""
""fullscreenenter"",""1"",""8530""
","
","","","","","","null","images/dog3.png","","","learning","-9","-5","","null","dog","pets","2","0","","good","[5]"
"html-keyboard-response","78","475880","0.0-9.0-2.0-0.3","3715","2","8","Male","approach_avoid_spark_v1","""event"",""trial"",""time""
""fullscreenenter"",""1"",""8530""
","
","
","""event"",""trial"",""time""
""fullscreenenter"",""1"",""8530""
","
","","","","","","null","<div style=""font-size:60px;"">+</div>","null","","fixation","","","","","","","","","","",""
"aa-learning-trial","79","478907","0.0-9.0-2.0-1.3","3715","2","8","Male","approach_avoid_spark_v1","""event"",""trial"",""time""
""fullscreenenter"",""1"",""8530""
","
","
","""event"",""trial"",""time""
""fullscreenenter"",""1"",""8530""
","
","","","","","","null","images/dog3.png","","","learning","-9","-5","","null","dog","pets","2","0","","good","[5]"
"html-keyboard-response","80","479418","0.0-9.0-2.0-0.4","3715","2","8","Male","approach_avoid_spark_v1","""event"",""trial"",""time""
""fullscreenenter"",""1"",""8530""
","
","
","""event"",""trial"",""time""
""fullscreenenter"",""1"",""8530""
","
","","","","","","null","<div style=""font-size:60px;"">+</div>","null","","fixation","","","","","","","","","","",""
"aa-learning-trial","81","482447","0.0-9.0-2.0-1.4","3715","2","8","Male","approach_avoid_spark_v1","""event"",""trial"",""time""
""fullscreenenter"",""1"",""8530""
","
","
","""event"",""trial"",""time""
""fullscreenenter"",""1"",""8530""
","
","","","","","","null","images/rabbit3.png","","","learning","3","-5","","null","rabbit","pets","2","0","","bad","[-5]"
"html-keyboard-response","82","482967","0.0-9.0-2.0-0.5","3715","2","8","Male","approach_avoid_spark_v1","""event"",""trial"",""time""
""fullscreenenter"",""1"",""8530""
","
","
","""event"",""trial"",""time""
""fullscreenenter"",""1"",""8530""
","
","","","","","","null","<div style=""font-size:60px;"">+</div>","null","","fixation","","","","","","","","","","",""
"aa-learning-trial","83","485977","0.0-9.0-2.0-1.5","3715","2","8","Male","approach_avoid_spark_v1","""event"",""trial"",""time""
""fullscreenenter"",""1"",""8530""
","
","
","""event"",""trial"",""time""
""fullscreenenter"",""1"",""8530""
","
","","","","","","null","images/rabbit7.png","","","learning","-5","-5","","null","rabbit","pets","2","0","","bad","[-5]"
"html-keyboard-response","84","486492","0.0-9.0-2.0-0.6","3715","2","8","Male","approach_avoid_spark_v1","""event"",""trial"",""time""
""fullscreenenter"",""1"",""8530""
","
","
","""event"",""trial"",""time""
""fullscreenenter"",""1"",""8530""
","
","","","","","","null","<div style=""font-size:60px;"">+</div>","null","","fixation","","","","","","","","","","",""
"aa-learning-trial","85","489508","0.0-9.0-2.0-1.6","3715","2","8","Male","approach_avoid_spark_v1","""event"",""trial"",""time""
""fullscreenenter"",""1"",""8530""
","
","
","""event"",""trial"",""time""
""fullscreenenter"",""1"",""8530""
","
","","","","","","null","images/dog8.png","","","learning","9","-5","","null","dog","pets","2","0","","good","[5]"
"html-keyboard-response","86","490017","0.0-9.0-2.0-0.7","3715","2","8","Male","approach_avoid_spark_v1","""event"",""trial"",""time""
""fullscreenenter"",""1"",""8530""
","
","
","""event"",""trial"",""time""
""fullscreenenter"",""1"",""8530""
","
","","","","","","null","<div style=""font-size:60px;"">+</div>","null","","fixation","","","","","","","","","","",""
"aa-learning-trial","87","493038","0.0-9.0-2.0-1.7","3715","2","8","Male","approach_avoid_spark_v1","""event"",""trial"",""time""
""fullscreenenter"",""1"",""8530""
","
","
","""event"",""trial"",""time""
""fullscreenenter"",""1"",""8530""
","
","","","","","","null","images/rodent7.png","","","learning","-6","-5","","null","rodent","pets","2","0","","neutral","0"
"html-keyboard-response","88","493546","0.0-9.0-2.0-0.8","3715","2","8","Male","approach_avoid_spark_v1","""event"",""trial"",""time""
""fullscreenenter"",""1"",""8530""
","
","
","""event"",""trial"",""time""
""fullscreenenter"",""1"",""8530""
","
","","","","","","null","<div style=""font-size:60px;"">+</div>","null","","fixation","","","","","","","","","","",""
"aa-learning-trial","89","496559","0.0-9.0-2.0-1.8","3715","2","8","Male","approach_avoid_spark_v1","""event"",""trial"",""time""
""fullscreenenter"",""1"",""8530""
","
","
","""event"",""trial"",""time""
""fullscreenenter"",""1"",""8530""
","
","","","","","","null","images/dog5.png","","","learning","4","-5","","null","dog","pets","2","0","","good","[5]"
"html-keyboard-response","90","497068","0.0-9.0-2.0-0.9","3715","2","8","Male","approach_avoid_spark_v1","""event"",""trial"",""time""
""fullscreenenter"",""1"",""8530""
","
","
","""event"",""trial"",""time""
""fullscreenenter"",""1"",""8530""
","
","","","","","","null","<div style=""font-size:60px;"">+</div>","null","","fixation","","","","","","","","","","",""
"aa-learning-trial","91","500077","0.0-9.0-2.0-1.9","3715","2","8","Male","approach_avoid_spark_v1","""event"",""trial"",""time""
""fullscreenenter"",""1"",""8530""
","
","
","""event"",""trial"",""time""
""fullscreenenter"",""1"",""8530""
","
","","","","","","null","images/rabbit1.png","","","learning","6","-5","","null","rabbit","pets","2","0","","bad","[-5]"
"html-keyboard-response","92","500587","0.0-9.0-2.0-0.10","3715","2","8","Male","approach_avoid_spark_v1","""event"",""trial"",""time""
""fullscreenenter"",""1"",""8530""
","
","
","""event"",""trial"",""time""
""fullscreenenter"",""1"",""8530""
","
","","","","","","null","<div style=""font-size:60px;"">+</div>","null","","fixation","","","","","","","","","","",""
"aa-learning-trial","93","503597","0.0-9.0-2.0-1.10","3715","2","8","Male","approach_avoid_spark_v1","""event"",""trial"",""time""
""fullscreenenter"",""1"",""8530""
","
","
","""event"",""trial"",""time""
""fullscreenenter"",""1"",""8530""
","
","","","","","","null","images/rabbit7.png","","","learning","-5","-5","","null","rabbit","pets","2","0","","bad","[-5]"
"html-keyboard-response","94","504105","0.0-9.0-2.0-0.11","3715","2","8","Male","approach_avoid_spark_v1","""event"",""trial"",""time""
""fullscreenenter"",""1"",""8530""
","
","
","""event"",""trial"",""time""
""fullscreenenter"",""1"",""8530""
","
","","","","","","null","<div style=""font-size:60px;"">+</div>","null","","fixation","","","","","","","","","","",""
"aa-learning-trial","95","507123","0.0-9.0-2.0-1.11","3715","2","8","Male","approach_avoid_spark_v1","""event"",""trial"",""time""
""fullscreenenter"",""1"",""8530""
","
","
","""event"",""trial"",""time""
""fullscreenenter"",""1"",""8530""
","
","","","","","","null","images/rodent5.png","","","learning","8","-5","","null","rodent","pets","2","0","","neutral","0"
"html-keyboard-response","96","507643","0.0-9.0-2.0-0.12","3715","2","8","Male","approach_avoid_spark_v1","""event"",""trial"",""time""
""fullscreenenter"",""1"",""8530""
","
","
","""event"",""trial"",""time""
""fullscreenenter"",""1"",""8530""
","
","","","","","","null","<div style=""font-size:60px;"">+</div>","null","","fixation","","","","","","","","","","",""
"aa-learning-trial","97","510653","0.0-9.0-2.0-1.12","3715","2","8","Male","approach_avoid_spark_v1","""event"",""trial"",""time""
""fullscreenenter"",""1"",""8530""
","
","
","""event"",""trial"",""time""
""fullscreenenter"",""1"",""8530""
","
","","","","","","null","images/rabbit3.png","","","learning","3","-5","","null","rabbit","pets","2","0","","bad","[-5]"
"html-keyboard-response","98","511159","0.0-9.0-2.0-0.13","3715","2","8","Male","approach_avoid_spark_v1","""event"",""trial"",""time""
""fullscreenenter"",""1"",""8530""
","
","
","""event"",""trial"",""time""
""fullscreenenter"",""1"",""8530""
","
","","","","","","null","<div style=""font-size:60px;"">+</div>","null","","fixation","","","","","","","","","","",""
"aa-learning-trial","99","514170","0.0-9.0-2.0-1.13","3715","2","8","Male","approach_avoid_spark_v1","""event"",""trial"",""time""
""fullscreenenter"",""1"",""8530""
","
","
","""event"",""trial"",""time""
""fullscreenenter"",""1"",""8530""
","
","","","","","","null","images/rodent2.png","","","learning","-2","-5","","null","rodent","pets","2","0","","neutral","0"
"html-keyboard-response","100","514677","0.0-9.0-2.0-0.14","3715","2","8","Male","approach_avoid_spark_v1","""event"",""trial"",""time""
""fullscreenenter"",""1"",""8530""
","
","
","""event"",""trial"",""time""
""fullscreenenter"",""1"",""8530""
","
","","","","","","null","<div style=""font-size:60px;"">+</div>","null","","fixation","","","","","","","","","","",""
"aa-learning-trial","101","517693","0.0-9.0-2.0-1.14","3715","2","8","Male","approach_avoid_spark_v1","""event"",""trial"",""time""
""fullscreenenter"",""1"",""8530""
","
","
","""event"",""trial"",""time""
""fullscreenenter"",""1"",""8530""
","
","","","","","","null","images/rodent7.png","","","learning","-6","-5","","null","rodent","pets","2","0","","neutral","0"
"html-keyboard-response","102","518208","0.0-9.0-2.0-0.15","3715","2","8","Male","approach_avoid_spark_v1","""event"",""trial"",""time""
""fullscreenenter"",""1"",""8530""
","
","
","""event"",""trial"",""time""
""fullscreenenter"",""1"",""8530""
","
","","","","","","null","<div style=""font-size:60px;"">+</div>","null","","fixation","","","","","","","","","","",""
"aa-learning-trial","103","521222","0.0-9.0-2.0-1.15","3715","2","8","Male","approach_avoid_spark_v1","""event"",""trial"",""time""
""fullscreenenter"",""1"",""8530""
","
","
","""event"",""trial"",""time""
""fullscreenenter"",""1"",""8530""
","
","","","","","","null","images/dog4.png","","","learning","-4","-5","","null","dog","pets","2","0","","good","[5]"
"html-keyboard-response","104","521726","0.0-9.0-2.0-0.16","3715","2","8","Male","approach_avoid_spark_v1","""event"",""trial"",""time""
""fullscreenenter"",""1"",""8530""
","
","
","""event"",""trial"",""time""
""fullscreenenter"",""1"",""8530""
","
","","","","","","null","<div style=""font-size:60px;"">+</div>","null","","fixation","","","","","","","","","","",""
"aa-learning-trial","105","524743","0.0-9.0-2.0-1.16","3715","2","8","Male","approach_avoid_spark_v1","""event"",""trial"",""time""
""fullscreenenter"",""1"",""8530""
","
","
","""event"",""trial"",""time""
""fullscreenenter"",""1"",""8530""
","
","","","","","","null","images/rodent5.png","","","learning","8","-5","","null","rodent","pets","2","0","","neutral","0"
"html-keyboard-response","106","525248","0.0-9.0-2.0-0.17","3715","2","8","Male","approach_avoid_spark_v1","""event"",""trial"",""time""
""fullscreenenter"",""1"",""8530""
","
","
","""event"",""trial"",""time""
""fullscreenenter"",""1"",""8530""
","
","","","","","","null","<div style=""font-size:60px;"">+</div>","null","","fixation","","","","","","","","","","",""
"aa-learning-trial","107","528260","0.0-9.0-2.0-1.17","3715","2","8","Male","approach_avoid_spark_v1","""event"",""trial"",""time""
""fullscreenenter"",""1"",""8530""
","
","
","""event"",""trial"",""time""
""fullscreenenter"",""1"",""8530""
","
","","","","","","null","images/rabbit7.png","","","learning","-5","-5","","null","rabbit","pets","2","0","","bad","[-5]"
"html-keyboard-response","108","528764","0.0-9.0-2.0-0.18","3715","2","8","Male","approach_avoid_spark_v1","""event"",""trial"",""time""
""fullscreenenter"",""1"",""8530""
","
","
","""event"",""trial"",""time""
""fullscreenenter"",""1"",""8530""
","
","","","","","","null","<div style=""font-size:60px;"">+</div>","null","","fixation","","","","","","","","","","",""
"aa-learning-trial","109","531777","0.0-9.0-2.0-1.18","3715","2","8","Male","approach_avoid_spark_v1","""event"",""trial"",""time""
""fullscreenenter"",""1"",""8530""
","
","
","""event"",""trial"",""time""
""fullscreenenter"",""1"",""8530""
","
","","","","","","null","images/rodent5.png","","","learning","8","-5","","null","rodent","pets","2","0","","neutral","0"
"html-keyboard-response","110","532284","0.0-9.0-2.0-0.19","3715","2","8","Male","approach_avoid_spark_v1","""event"",""trial"",""time""
""fullscreenenter"",""1"",""8530""
","
","
","""event"",""trial"",""time""
""fullscreenenter"",""1"",""8530""
","
","","","","","","null","<div style=""font-size:60px;"">+</div>","null","","fixation","","","","","","","","","","",""
"aa-learning-trial","111","535297","0.0-9.0-2.0-1.19","3715","2","8","Male","approach_avoid_spark_v1","""event"",""trial"",""time""
""fullscreenenter"",""1"",""8530""
","
","
","""event"",""trial"",""time""
""fullscreenenter"",""1"",""8530""
","
","","","","","","null","images/rodent7.png","","","learning","-6","-5","","null","rodent","pets","2","0","","neutral","0"
"html-keyboard-response","112","535811","0.0-9.0-2.0-0.20","3715","2","8","Male","approach_avoid_spark_v1","""event"",""trial"",""time""
""fullscreenenter"",""1"",""8530""
","
","
","""event"",""trial"",""time""
""fullscreenenter"",""1"",""8530""
","
","","","","","","null","<div style=""font-size:60px;"">+</div>","null","","fixation","","","","","","","","","","",""
"aa-learning-trial","113","538826","0.0-9.0-2.0-1.20","3715","2","8","Male","approach_avoid_spark_v1","""event"",""trial"",""time""
""fullscreenenter"",""1"",""8530""
","
","
","""event"",""trial"",""time""
""fullscreenenter"",""1"",""8530""
","
","","","","","","null","images/rodent2.png","","","learning","-2","-5","","null","rodent","pets","2","0","","neutral","0"
"html-keyboard-response","114","539342","0.0-9.0-2.0-0.21","3715","2","8","Male","approach_avoid_spark_v1","""event"",""trial"",""time""
""fullscreenenter"",""1"",""8530""
","
","
","""event"",""trial"",""time""
""fullscreenenter"",""1"",""8530""
","
","","","","","","null","<div style=""font-size:60px;"">+</div>","null","","fixation","","","","","","","","","","",""
"aa-learning-trial","115","542357","0.0-9.0-2.0-1.21","3715","2","8","Male","approach_avoid_spark_v1","""event"",""trial"",""time""
""fullscreenenter"",""1"",""8530""
","
","
","""event"",""trial"",""time""
""fullscreenenter"",""1"",""8530""
","
","","","","","","null","images/rodent4.png","","","learning","-3","-5","","null","rodent","pets","2","0","","neutral","0"
"html-keyboard-response","116","542877","0.0-9.0-2.0-0.22","3715","2","8","Male","approach_avoid_spark_v1","""event"",""trial"",""time""
""fullscreenenter"",""1"",""8530""
","
","
","""event"",""trial"",""time""
""fullscreenenter"",""1"",""8530""
","
","","","","","","null","<div style=""font-size:60px;"">+</div>","null","","fixation","","","","","","","","","","",""
"aa-learning-trial","117","545892","0.0-9.0-2.0-1.22","3715","2","8","Male","approach_avoid_spark_v1","""event"",""trial"",""time""
""fullscreenenter"",""1"",""8530""
","
","
","""event"",""trial"",""time""
""fullscreenenter"",""1"",""8530""
","
","","","","","","null","images/dog3.png","","","learning","-9","-5","","null","dog","pets","2","0","","good","[5]"
"html-keyboard-response","118","546407","0.0-9.0-2.0-0.23","3715","2","8","Male","approach_avoid_spark_v1","""event"",""trial"",""time""
""fullscreenenter"",""1"",""8530""
","
","
","""event"",""trial"",""time""
""fullscreenenter"",""1"",""8530""
","
","","","","","","null","<div style=""font-size:60px;"">+</div>","null","","fixation","","","","","","","","","","",""
"aa-learning-trial","119","549417","0.0-9.0-2.0-1.23","3715","2","8","Male","approach_avoid_spark_v1","""event"",""trial"",""time""
""fullscreenenter"",""1"",""8530""
","
","
","""event"",""trial"",""time""
""fullscreenenter"",""1"",""8530""
","
","","","","","","null","images/rodent2.png","","","learning","-2","-5","","null","rodent","pets","2","0","","neutral","0"
"html-keyboard-response","120","549923","0.0-9.0-2.0-0.24","3715","2","8","Male","approach_avoid_spark_v1","""event"",""trial"",""time""
""fullscreenenter"",""1"",""8530""
","
","
","""event"",""trial"",""time""
""fullscreenenter"",""1"",""8530""
","
","","","","","","null","<div style=""font-size:60px;"">+</div>","null","","fixation","","","","","","","","","","",""
"aa-learning-trial","121","552938","0.0-9.0-2.0-1.24","3715","2","8","Male","approach_avoid_spark_v1","""event"",""trial"",""time""
""fullscreenenter"",""1"",""8530""
","
","
","""event"",""trial"",""time""
""fullscreenenter"",""1"",""8530""
","
","","","","","","null","images/dog8.png","","","learning","9","-5","","null","dog","pets","2","0","","good","[5]"
"html-keyboard-response","122","553444","0.0-9.0-2.0-0.25","3715","2","8","Male","approach_avoid_spark_v1","""event"",""trial"",""time""
""fullscreenenter"",""1"",""8530""
","
","
","""event"",""trial"",""time""
""fullscreenenter"",""1"",""8530""
","
","","","","","","null","<div style=""font-size:60px;"">+</div>","null","","fixation","","","","","","","","","","",""
"aa-learning-trial","123","556453","0.0-9.0-2.0-1.25","3715","2","8","Male","approach_avoid_spark_v1","""event"",""trial"",""time""
""fullscreenenter"",""1"",""8530""
","
","
","""event"",""trial"",""time""
""fullscreenenter"",""1"",""8530""
","
","","","","","","null","images/dog7.png","","","learning","1","-5","","null","dog","pets","2","0","","good","[5]"
"html-keyboard-response","124","556966","0.0-9.0-2.0-0.26","3715","2","8","Male","approach_avoid_spark_v1","""event"",""trial"",""time""
""fullscreenenter"",""1"",""8530""
","
","
","""event"",""trial"",""time""
""fullscreenenter"",""1"",""8530""
","
","","","","","","null","<div style=""font-size:60px;"">+</div>","null","","fixation","","","","","","","","","","",""
"aa-learning-trial","125","559981","0.0-9.0-2.0-1.26","3715","2","8","Male","approach_avoid_spark_v1","""event"",""trial"",""time""
""fullscreenenter"",""1"",""8530""
","
","
","""event"",""trial"",""time""
""fullscreenenter"",""1"",""8530""
","
","","","","","","null","images/rodent7.png","","","learning","-6","-5","","null","rodent","pets","2","0","","neutral","0"
"html-keyboard-response","126","560491","0.0-9.0-2.0-0.27","3715","2","8","Male","approach_avoid_spark_v1","""event"",""trial"",""time""
""fullscreenenter"",""1"",""8530""
","
","
","""event"",""trial"",""time""
""fullscreenenter"",""1"",""8530""
","
","","","","","","null","<div style=""font-size:60px;"">+</div>","null","","fixation","","","","","","","","","","",""
"aa-learning-trial","127","563513","0.0-9.0-2.0-1.27","3715","2","8","Male","approach_avoid_spark_v1","""event"",""trial"",""time""
""fullscreenenter"",""1"",""8530""
","
","
","""event"",""trial"",""time""
""fullscreenenter"",""1"",""8530""
","
","","","","","","null","images/dog3.png","","","learning","-9","-5","","null","dog","pets","2","0","","good","[5]"
"html-keyboard-response","128","564034","0.0-9.0-2.0-0.28","3715","2","8","Male","approach_avoid_spark_v1","""event"",""trial"",""time""
""fullscreenenter"",""1"",""8530""
","
","
","""event"",""trial"",""time""
""fullscreenenter"",""1"",""8530""
","
","","","","","","null","<div style=""font-size:60px;"">+</div>","null","","fixation","","","","","","","","","","",""
"aa-learning-trial","129","567049","0.0-9.0-2.0-1.28","3715","2","8","Male","approach_avoid_spark_v1","""event"",""trial"",""time""
""fullscreenenter"",""1"",""8530""
","
","
","""event"",""trial"",""time""
""fullscreenenter"",""1"",""8530""
","
","","","","","","null","images/rabbit7.png","","","learning","-5","-5","","null","rabbit","pets","2","0","","bad","[-5]"
"html-keyboard-response","130","567567","0.0-9.0-2.0-0.29","3715","2","8","Male","approach_avoid_spark_v1","""event"",""trial"",""time""
""fullscreenenter"",""1"",""8530""
","
","
","""event"",""trial"",""time""
""fullscreenenter"",""1"",""8530""
","
","","","","","","null","<div style=""font-size:60px;"">+</div>","null","","fixation","","","","","","","","","","",""
"aa-learning-trial","131","570579","0.0-9.0-2.0-1.29","3715","2","8","Male","approach_avoid_spark_v1","""event"",""trial"",""time""
""fullscreenenter"",""1"",""8530""
","
","
","""event"",""trial"",""time""
""fullscreenenter"",""1"",""8530""
","
","","","","","","null","images/rabbit3.png","","","learning","3","-5","","null","rabbit","pets","2","0","","bad","[-5]"
"html-keyboard-response","132","571084","0.0-9.0-2.0-0.30","3715","2","8","Male","approach_avoid_spark_v1","""event"",""trial"",""time""
""fullscreenenter"",""1"",""8530""
","
","
","""event"",""trial"",""time""
""fullscreenenter"",""1"",""8530""
","
","","","","","","null","<div style=""font-size:60px;"">+</div>","null","","fixation","","","","","","","","","","",""
"aa-learning-trial","133","574105","0.0-9.0-2.0-1.30","3715","2","8","Male","approach_avoid_spark_v1","""event"",""trial"",""time""
""fullscreenenter"",""1"",""8530""
","
","
","""event"",""trial"",""time""
""fullscreenenter"",""1"",""8530""
","
","","","","","","null","images/rabbit4.png","","","learning","-1","-5","","null","rabbit","pets","2","0","","bad","[-5]"
"html-keyboard-response","134","574617","0.0-9.0-2.0-0.31","3715","2","8","Male","approach_avoid_spark_v1","""event"",""trial"",""time""
""fullscreenenter"",""1"",""8530""
","
","
","""event"",""trial"",""time""
""fullscreenenter"",""1"",""8530""
","
","","","","","","null","<div style=""font-size:60px;"">+</div>","null","","fixation","","","","","","","","","","",""
"aa-learning-trial","135","577633","0.0-9.0-2.0-1.31","3715","2","8","Male","approach_avoid_spark_v1","""event"",""trial"",""time""
""fullscreenenter"",""1"",""8530""
","
","
","""event"",""trial"",""time""
""fullscreenenter"",""1"",""8530""
","
","","","","","","null","images/dog5.png","","","learning","4","-5","","null","dog","pets","2","0","","good","[5]"
"html-keyboard-response","136","578145","0.0-9.0-2.0-0.32","3715","2","8","Male","approach_avoid_spark_v1","""event"",""trial"",""time""
""fullscreenenter"",""1"",""8530""
","
","
","""event"",""trial"",""time""
""fullscreenenter"",""1"",""8530""
","
","","","","","","null","<div style=""font-size:60px;"">+</div>","null","","fixation","","","","","","","","","","",""
"aa-learning-trial","137","581159","0.0-9.0-2.0-1.32","3715","2","8","Male","approach_avoid_spark_v1","""event"",""trial"",""time""
""fullscreenenter"",""1"",""8530""
","
","
","""event"",""trial"",""time""
""fullscreenenter"",""1"",""8530""
","
","","","","","","null","images/rabbit1.png","","","learning","6","-5","","null","rabbit","pets","2","0","","bad","[-5]"
"html-keyboard-response","138","581671","0.0-9.0-2.0-0.33","3715","2","8","Male","approach_avoid_spark_v1","""event"",""trial"",""time""
""fullscreenenter"",""1"",""8530""
","
","
","""event"",""trial"",""time""
""fullscreenenter"",""1"",""8530""
","
","","","","","","null","<div style=""font-size:60px;"">+</div>","null","","fixation","","","","","","","","","","",""
"aa-learning-trial","139","584691","0.0-9.0-2.0-1.33","3715","2","8","Male","approach_avoid_spark_v1","""event"",""trial"",""time""
""fullscreenenter"",""1"",""8530""
","
","
","""event"",""trial"",""time""
""fullscreenenter"",""1"",""8530""
","
","","","","","","null","images/rodent7.png","","","learning","-6","-5","","null","rodent","pets","2","0","","neutral","0"
"html-keyboard-response","140","585201","0.0-9.0-2.0-0.34","3715","2","8","Male","approach_avoid_spark_v1","""event"",""trial"",""time""
""fullscreenenter"",""1"",""8530""
","
","
","""event"",""trial"",""time""
""fullscreenenter"",""1"",""8530""
","
","","","","","","null","<div style=""font-size:60px;"">+</div>","null","","fixation","","","","","","","","","","",""
"aa-learning-trial","141","588214","0.0-9.0-2.0-1.34","3715","2","8","Male","approach_avoid_spark_v1","""event"",""trial"",""time""
""fullscreenenter"",""1"",""8530""
","
","
","""event"",""trial"",""time""
""fullscreenenter"",""1"",""8530""
","
","","","","","","null","images/rabbit7.png","","","learning","-5","-5","","null","rabbit","pets","2","0","","bad","[-5]"
"html-keyboard-response","142","588735","0.0-9.0-2.0-0.35","3715","2","8","Male","approach_avoid_spark_v1","""event"",""trial"",""time""
""fullscreenenter"",""1"",""8530""
","
","
","""event"",""trial"",""time""
""fullscreenenter"",""1"",""8530""
","
","","","","","","null","<div style=""font-size:60px;"">+</div>","null","","fixation","","","","","","","","","","",""
"aa-learning-trial","143","591751","0.0-9.0-2.0-1.35","3715","2","8","Male","approach_avoid_spark_v1","""event"",""trial"",""time""
""fullscreenenter"",""1"",""8530""
","
","
","""event"",""trial"",""time""
""fullscreenenter"",""1"",""8530""
","
","","","","","","null","images/dog3.png","","","learning","-9","-5","","null","dog","pets","2","0","","good","[5]"
"html-keyboard-response","144","592271","0.0-9.0-2.0-0.36","3715","2","8","Male","approach_avoid_spark_v1","""event"",""trial"",""time""
""fullscreenenter"",""1"",""8530""
","
","
","""event"",""trial"",""time""
""fullscreenenter"",""1"",""8530""
","
","","","","","","null","<div style=""font-size:60px;"">+</div>","null","","fixation","","","","","","","","","","",""
"aa-learning-trial","145","595287","0.0-9.0-2.0-1.36","3715","2","8","Male","approach_avoid_spark_v1","""event"",""trial"",""time""
""fullscreenenter"",""1"",""8530""
","
","
","""event"",""trial"",""time""
""fullscreenenter"",""1"",""8530""
","
","","","","","","null","images/rabbit3.png","","","learning","3","-5","","null","rabbit","pets","2","0","","bad","[-5]"
"html-keyboard-response","146","595795","0.0-9.0-2.0-0.37","3715","2","8","Male","approach_avoid_spark_v1","""event"",""trial"",""time""
""fullscreenenter"",""1"",""8530""
","
","
","""event"",""trial"",""time""
""fullscreenenter"",""1"",""8530""
","
","","","","","","null","<div style=""font-size:60px;"">+</div>","null","","fixation","","","","","","","","","","",""
"aa-learning-trial","147","598815","0.0-9.0-2.0-1.37","3715","2","8","Male","approach_avoid_spark_v1","""event"",""trial"",""time""
""fullscreenenter"",""1"",""8530""
","
","
","""event"",""trial"",""time""
""fullscreenenter"",""1"",""8530""
","
","","","","","","null","images/dog5.png","","","learning","4","-5","","null","dog","pets","2","0","","good","[5]"
"html-keyboard-response","148","599320","0.0-9.0-2.0-0.38","3715","2","8","Male","approach_avoid_spark_v1","""event"",""trial"",""time""
""fullscreenenter"",""1"",""8530""
","
","
","""event"",""trial"",""time""
""fullscreenenter"",""1"",""8530""
","
","","","","","","null","<div style=""font-size:60px;"">+</div>","null","","fixation","","","","","","","","","","",""
"aa-learning-trial","149","602341","0.0-9.0-2.0-1.38","3715","2","8","Male","approach_avoid_spark_v1","""event"",""trial"",""time""
""fullscreenenter"",""1"",""8530""
","
","
","""event"",""trial"",""time""
""fullscreenenter"",""1"",""8530""
","
","","","","","","null","images/rodent5.png","","","learning","8","-5","","null","rodent","pets","2","0","","neutral","0"
"html-keyboard-response","150","602861","0.0-9.0-2.0-0.39","3715","2","8","Male","approach_avoid_spark_v1","""event"",""trial"",""time""
""fullscreenenter"",""1"",""8530""
","
","
","""event"",""trial"",""time""
""fullscreenenter"",""1"",""8530""
","
","","","","","","null","<div style=""font-size:60px;"">+</div>","null","","fixation","","","","","","","","","","",""
"aa-learning-trial","151","605872","0.0-9.0-2.0-1.39","3715","2","8","Male","approach_avoid_spark_v1","""event"",""trial"",""time""
""fullscreenenter"",""1"",""8530""
","
","
","""event"",""trial"",""time""
""fullscreenenter"",""1"",""8530""
","
","","","","","","null","images/rabbit6.png","","","learning","-7","-5","","null","rabbit","pets","2","0","","bad","[-5]"
"html-keyboard-response","152","606378","0.0-9.0-2.0-0.40","3715","2","8","Male","approach_avoid_spark_v1","""event"",""trial"",""time""
""fullscreenenter"",""1"",""8530""
","
","
","""event"",""trial"",""time""
""fullscreenenter"",""1"",""8530""
","
","","","","","","null","<div style=""font-size:60px;"">+</div>","null","","fixation","","","","","","","","","","",""
"aa-learning-trial","153","609391","0.0-9.0-2.0-1.40","3715","2","8","Male","approach_avoid_spark_v1","""event"",""trial"",""time""
""fullscreenenter"",""1"",""8530""
","
","
","""event"",""trial"",""time""
""fullscreenenter"",""1"",""8530""
","
","","","","","","null","images/rodent5.png","","","learning","8","-5","","null","rodent","pets","2","0","","neutral","0"
"html-keyboard-response","154","609895","0.0-9.0-2.0-0.41","3715","2","8","Male","approach_avoid_spark_v1","""event"",""trial"",""time""
""fullscreenenter"",""1"",""8530""
","
","
","""event"",""trial"",""time""
""fullscreenenter"",""1"",""8530""
","
","","","","","","null","<div style=""font-size:60px;"">+</div>","null","","fixation","","","","","","","","","","",""
"aa-learning-trial","155","612908","0.0-9.0-2.0-1.41","3715","2","8","Male","approach_avoid_spark_v1","""event"",""trial"",""time""
""fullscreenenter"",""1"",""8530""
","
","
","""event"",""trial"",""time""
""fullscreenenter"",""1"",""8530""
","
","","","","","","null","images/dog3.png","","","learning","-9","-5","","null","dog","pets","2","0","","good","[5]"
"html-keyboard-response","156","613421","0.0-9.0-2.0-0.42","3715","2","8","Male","approach_avoid_spark_v1","""event"",""trial"",""time""
""fullscreenenter"",""1"",""8530""
","
","
","""event"",""trial"",""time""
""fullscreenenter"",""1"",""8530""
","
","","","","","","null","<div style=""font-size:60px;"">+</div>","null","","fixation","","","","","","","","","","",""
"aa-learning-trial","157","616441","0.0-9.0-2.0-1.42","3715","2","8","Male","approach_avoid_spark_v1","""event"",""trial"",""time""
""fullscreenenter"",""1"",""8530""
","
","
","""event"",""trial"",""time""
""fullscreenenter"",""1"",""8530""
","
","","","","","","null","images/rodent7.png","","","learning","-6","-5","","null","rodent","pets","2","0","","neutral","0"
"html-keyboard-response","158","616947","0.0-9.0-2.0-0.43","3715","2","8","Male","approach_avoid_spark_v1","""event"",""trial"",""time""
""fullscreenenter"",""1"",""8530""
","
","
","""event"",""trial"",""time""
""fullscreenenter"",""1"",""8530""
","
","","","","","","null","<div style=""font-size:60px;"">+</div>","null","","fixation","","","","","","","","","","",""
"aa-learning-trial","159","619957","0.0-9.0-2.0-1.43","3715","2","8","Male","approach_avoid_spark_v1","""event"",""trial"",""time""
""fullscreenenter"",""1"",""8530""
","
","
","""event"",""trial"",""time""
""fullscreenenter"",""1"",""8530""
","
","","","","","","null","images/rodent1.png","","","learning","5","-5","","null","rodent","pets","2","0","","neutral","0"
"html-keyboard-response","160","620474","0.0-9.0-2.0-0.44","3715","2","8","Male","approach_avoid_spark_v1","""event"",""trial"",""time""
""fullscreenenter"",""1"",""8530""
","
","
","""event"",""trial"",""time""
""fullscreenenter"",""1"",""8530""
","
","","","","","","null","<div style=""font-size:60px;"">+</div>","null","","fixation","","","","","","","","","","",""
"aa-learning-trial","161","623483","0.0-9.0-2.0-1.44","3715","2","8","Male","approach_avoid_spark_v1","""event"",""trial"",""time""
""fullscreenenter"",""1"",""8530""
","
","
","""event"",""trial"",""time""
""fullscreenenter"",""1"",""8530""
","
","","","","","","null","images/dog5.png","","","learning","4","-5","","null","dog","pets","2","0","","good","[5]"
"html-keyboard-response","162","623990","0.0-9.0-2.0-0.45","3715","2","8","Male","approach_avoid_spark_v1","""event"",""trial"",""time""
""fullscreenenter"",""1"",""8530""
","
","
","""event"",""trial"",""time""
""fullscreenenter"",""1"",""8530""
","
","","","","","","null","<div style=""font-size:60px;"">+</div>","null","","fixation","","","","","","","","","","",""
"aa-learning-trial","163","627005","0.0-9.0-2.0-1.45","3715","2","8","Male","approach_avoid_spark_v1","""event"",""trial"",""time""
""fullscreenenter"",""1"",""8530""
","
","
","""event"",""trial"",""time""
""fullscreenenter"",""1"",""8530""
","
","","","","","","null","images/dog5.png","","","learning","4","-5","","null","dog","pets","2","0","","good","[5]"
"html-keyboard-response","164","627517","0.0-9.0-2.0-0.46","3715","2","8","Male","approach_avoid_spark_v1","""event"",""trial"",""time""
""fullscreenenter"",""1"",""8530""
","
","
","""event"",""trial"",""time""
""fullscreenenter"",""1"",""8530""
","
","","","","","","null","<div style=""font-size:60px;"">+</div>","null","","fixation","","","","","","","","","","",""
"aa-learning-trial","165","630524","0.0-9.0-2.0-1.46","3715","2","8","Male","approach_avoid_spark_v1","""event"",""trial"",""time""
""fullscreenenter"",""1"",""8530""
","
","
","""event"",""trial"",""time""
""fullscreenenter"",""1"",""8530""
","
","","","","","","null","images/rabbit3.png","","","learning","3","-5","","null","rabbit","pets","2","0","","bad","[-5]"
"html-keyboard-response","166","631035","0.0-9.0-2.0-0.47","3715","2","8","Male","approach_avoid_spark_v1","""event"",""trial"",""time""
""fullscreenenter"",""1"",""8530""
","
","
","""event"",""trial"",""time""
""fullscreenenter"",""1"",""8530""
","
","","","","","","null","<div style=""font-size:60px;"">+</div>","null","","fixation","","","","","","","","","","",""
"aa-learning-trial","167","634058","0.0-9.0-2.0-1.47","3715","2","8","Male","approach_avoid_spark_v1","""event"",""trial"",""time""
""fullscreenenter"",""1"",""8530""
","
","
","""event"",""trial"",""time""
""fullscreenenter"",""1"",""8530""
","
","","","","","","null","images/rabbit1.png","","","learning","6","-5","","null","rabbit","pets","2","0","","bad","[-5]"
"html-keyboard-response","168","634570","0.0-9.0-2.0-0.48","3715","2","8","Male","approach_avoid_spark_v1","""event"",""trial"",""time""
""fullscreenenter"",""1"",""8530""
","
","
","""event"",""trial"",""time""
""fullscreenenter"",""1"",""8530""
","
","","","","","","null","<div style=""font-size:60px;"">+</div>","null","","fixation","","","","","","","","","","",""
"aa-learning-trial","169","637586","0.0-9.0-2.0-1.48","3715","2","8","Male","approach_avoid_spark_v1","""event"",""trial"",""time""
""fullscreenenter"",""1"",""8530""
","
","
","""event"",""trial"",""time""
""fullscreenenter"",""1"",""8530""
","
","","","","","","null","images/rabbit3.png","","","learning","3","-5","","null","rabbit","pets","2","0","","bad","[-5]"
"html-keyboard-response","170","638094","0.0-9.0-2.0-0.49","3715","2","8","Male","approach_avoid_spark_v1","""event"",""trial"",""time""
""fullscreenenter"",""1"",""8530""
","
","
","""event"",""trial"",""time""
""fullscreenenter"",""1"",""8530""
","
","","","","","","null","<div style=""font-size:60px;"">+</div>","null","","fixation","","","","","","","","","","",""
"aa-learning-trial","171","641117","0.0-9.0-2.0-1.49","3715","2","8","Male","approach_avoid_spark_v1","""event"",""trial"",""time""
""fullscreenenter"",""1"",""8530""
","
","
","""event"",""trial"",""time""
""fullscreenenter"",""1"",""8530""
","
","","","","","","null","images/dog8.png","","","learning","9","-5","","null","dog","pets","2","0","","good","[5]"
"html-keyboard-response","172","641635","0.0-9.0-2.0-0.50","3715","2","8","Male","approach_avoid_spark_v1","""event"",""trial"",""time""
""fullscreenenter"",""1"",""8530""
","
","
","""event"",""trial"",""time""
""fullscreenenter"",""1"",""8530""
","
","","","","","","null","<div style=""font-size:60px;"">+</div>","null","","fixation","","","","","","","","","","",""
"aa-learning-trial","173","644653","0.0-9.0-2.0-1.50","3715","2","8","Male","approach_avoid_spark_v1","""event"",""trial"",""time""
""fullscreenenter"",""1"",""8530""
","
","
","""event"",""trial"",""time""
""fullscreenenter"",""1"",""8530""
","
","","","","","","null","images/rabbit7.png","","","learning","-5","-5","","null","rabbit","pets","2","0","","bad","[-5]"
"html-button-response","174","710476","0.0-9.0-3.0","3715","2","8","Male","approach_avoid_spark_v1","""event"",""trial"",""time""
""fullscreenenter"",""1"",""8530""
","
","
","""event"",""trial"",""time""
""fullscreenenter"",""1"",""8530""
","
","","","","","","65818.60000014305","<p> You have completed the round! <p> In this round, you earned -255 points! </p>","0","","break","","","","","","","","","","",""
"html-button-response","175","713388","0.0-10.0","3715","2","8","Male","approach_avoid_spark_v1","""event"",""trial"",""time""
""fullscreenenter"",""1"",""8530""
","
","
","""event"",""trial"",""time""
""fullscreenenter"",""1"",""8530""
","
","","","","","","2909","<p> Now it's time to play another round. </p>","0","","transition_screen","","","","","","","","","","",""
"preload","176","713562","0.0-11.0-0.0","3715","2","8","Male","approach_avoid_spark_v1","""event"",""trial"",""time""
""fullscreenenter"",""1"",""8530""
","
","
","""event"",""trial"",""time""
""fullscreenenter"",""1"",""8530""
","
","true","false","[]","[]","[]","","","","","","","","","","","","","","","",""
"learning-instructions","177","721377","0.0-11.0-1.0-0.0","3715","2","8","Male","approach_avoid_spark_v1","""event"",""trial"",""time""
""fullscreenenter"",""1"",""8530""
","
","
","""event"",""trial"",""time""
""fullscreenenter"",""1"",""8530""
","
","","","","","","1837.1000001430511","<p> Your goal in this round is to decorate your friend's new house with furniture. </p></div>","","0","instructions","","","","","","","","","","",""
"learning-instructions","178","731638","0.0-11.0-1.0-0.1","3715","2","8","Male","approach_avoid_spark_v1","""event"",""trial"",""time""
""fullscreenenter"",""1"",""8530""
","
","
","""event"",""trial"",""time""
""fullscreenenter"",""1"",""8530""
","
","","","","","","749.9000000953674","<p> Your friend likes some pieces of furniture but not others.  </p><p> On each turn, you will see a piece of furniture.   </p><p> You need to decide whether to put it in your friend's house or not.  </p>","","0","instructions","","","","","","","","","","",""
"learning-instructions","179","754265","0.0-11.0-1.0-0.2","3715","2","8","Male","approach_avoid_spark_v1","""event"",""trial"",""time""
""fullscreenenter"",""1"",""8530""
","
","
","""event"",""trial"",""time""
""fullscreenenter"",""1"",""8530""
","
","","","","","","17168.200000047684","<p> You can put the furniture in her house by pressing 1 and deliver it elsewhere by pressing 0. </p><br><div class=""choice-instructions-grid""> <div class=""choice-option""><img src=""images/approach.png"" class=""choice-option-img"" stage=""instructions"" position=""0"" ><div class=""choice-option-text""> Press ""1."" </div></div><div class=""choice-option""><img src=""images/avoid.png"" class=""choice-option-img"" stage=""instructions"" position=""1"" ><div class=""choice-option-text""> Press ""0."" </div></div>","","0","instructions","","","","","","","","","","",""
"learning-instructions","180","765653","0.0-11.0-1.0-0.3","3715","2","8","Male","approach_avoid_spark_v1","""event"",""trial"",""time""
""fullscreenenter"",""1"",""8530""
","
","
","""event"",""trial"",""time""
""fullscreenenter"",""1"",""8530""
","
","","","","","","2855.2000000476837","<p> If you decorate your friend's house with furniture she likes, she will be happy! </p><p> But if you give her furniture that she does not like, she will be annoyed. </p>","","0","instructions","","","","","","","","","","",""
"learning-instructions","181","779165","0.0-11.0-1.0-0.4","3715","2","8","Male","approach_avoid_spark_v1","""event"",""trial"",""time""
""fullscreenenter"",""1"",""8530""
","
","
","""event"",""trial"",""time""
""fullscreenenter"",""1"",""8530""
","
","","","","","","1645.4000000953674","<p> You will earn points based on how you made your friend feel. </p><p> If you made her happy, you will WIN anywhere from 1 - 9 points, </p><p> but if you made her annoyed you will LOSE anywhere from 1 - 9 points. </p>","","0","instructions","","","","","","","","","","",""
"learning-instructions","182","787962","0.0-11.0-1.0-0.5","3715","2","8","Male","approach_avoid_spark_v1","""event"",""trial"",""time""
""fullscreenenter"",""1"",""8530""
","
","
","""event"",""trial"",""time""
""fullscreenenter"",""1"",""8530""
","
","","","","","","2144.100000143051","<p> You will see how many points you won or lost in the center of the screen. </p><p> Here is what you would see if you won 5 points: </p><p style=""color:green;font-size:50px;font-weight:bolder"">5</p>","","0","instructions","","","","","","","","","","",""
"learning-instructions","183","791692","0.0-11.0-1.0-0.6","3715","2","8","Male","approach_avoid_spark_v1","""event"",""trial"",""time""
""fullscreenenter"",""1"",""8530""
","
","
","""event"",""trial"",""time""
""fullscreenenter"",""1"",""8530""
","
","","","","","","894.7999999523163","<p> And here is what you would see if you lost 3 points: </p><p style=""color:red;font-size:50px;font-weight:bolder"">-3</p>","","0","instructions","","","","","","","","","","",""
"learning-instructions","184","814676","0.0-11.0-1.0-0.7","3715","2","8","Male","approach_avoid_spark_v1","""event"",""trial"",""time""
""fullscreenenter"",""1"",""8530""
","
","
","""event"",""trial"",""time""
""fullscreenenter"",""1"",""8530""
","
","","","","","","6068.200000047684","<p> Some pieces of furniture will make her feel very happy or very annoyed. </p><p> These pieces of furniture will make you win or lose LOTS of points. </p><p> Other pieces of furniture will only make her feel a little happy or a little annoyed. </p><p> These pieces of furniture will make you win or lose small amounts of points. </p>","","0","instructions","","","","","","","","","","",""
"learning-instructions","185","827700","0.0-11.0-1.0-0.8","3715","2","8","Male","approach_avoid_spark_v1","""event"",""trial"",""time""
""fullscreenenter"",""1"",""8530""
","
","
","""event"",""trial"",""time""
""fullscreenenter"",""1"",""8530""
","
","","","","","","633.2000000476837","<p> If you choose to deliver a piece of furniture elsewhere, you will not win or lose any points. </p><p>  However, in the center of the screen, you will see the number of points you WOULD HAVE won or lost if you had given the furniture to your friend. </p>","","0","instructions","","","","","","","","","","",""
"learning-instructions","186","840846","0.0-11.0-1.0-0.9","3715","2","8","Male","approach_avoid_spark_v1","""event"",""trial"",""time""
""fullscreenenter"",""1"",""8530""
","
","
","""event"",""trial"",""time""
""fullscreenenter"",""1"",""8530""
","
","","","","","","1971","<p> Here is what you might see if you did not give a piece of furniture to your friend that would have made her happy: </p><p style=""color:grey; font-size:50px; display: inline-block; border-spacing: 15px; border-width:3px; border-style:solid; border-color:red"">  &nbsp; 6 &nbsp; </p><p> Remember, in this case, you would not win or lose ANY points because you did not give her the furniture.  </p>","","0","instructions","","","","","","","","","","",""
"learning-instructions","187","849031","0.0-11.0-1.0-0.10","3715","2","8","Male","approach_avoid_spark_v1","""event"",""trial"",""time""
""fullscreenenter"",""1"",""8530""
","
","
","""event"",""trial"",""time""
""fullscreenenter"",""1"",""8530""
","
","","","","","","883.3999998569489","<p> Try to make the best choice for each piece of furniture because </p><p> at the end of the game, you will earn bonus money based on how many points you earned. </p>","","0","instructions","","","","","","","","","","",""
"learning-instructions","188","858839","0.0-11.0-1.0-0.11","3715","2","8","Male","approach_avoid_spark_v1","""event"",""trial"",""time""
""fullscreenenter"",""1"",""8530""
","
","
","""event"",""trial"",""time""
""fullscreenenter"",""1"",""8530""
","
","","","","","","1623.5","<p> You will have 3 seconds to make each choice. Try to respond before time runs out! </p><p> You will lose 5 points each time you do not make a response. </p>","","0","instructions","","","","","","","","","","",""
"html-keyboard-response","189","859459","0.0-11.0-2.0-0.0","3715","2","8","Male","approach_avoid_spark_v1","""event"",""trial"",""time""
""fullscreenenter"",""1"",""8530""
","
","
","""event"",""trial"",""time""
""fullscreenenter"",""1"",""8530""
","
","","","","","","null","<div style=""font-size:60px;"">+</div>","null","","fixation","","","","","","","","","","",""
"aa-learning-trial","190","862468","0.0-11.0-2.0-1.0","3715","2","8","Male","approach_avoid_spark_v1","""event"",""trial"",""time""
""fullscreenenter"",""1"",""8530""
","
","
","""event"",""trial"",""time""
""fullscreenenter"",""1"",""8530""
","
","","","","","","null","images/bed4.png","","","learning","-7","-5","","null","bed","furniture","1","1","","bad","[-6]"
"html-keyboard-response","191","862973","0.0-11.0-2.0-0.1","3715","2","8","Male","approach_avoid_spark_v1","""event"",""trial"",""time""
""fullscreenenter"",""1"",""8530""
","
","
","""event"",""trial"",""time""
""fullscreenenter"",""1"",""8530""
","
","","","","","","null","<div style=""font-size:60px;"">+</div>","null","","fixation","","","","","","","","","","",""
"aa-learning-trial","192","865979","0.0-11.0-2.0-1.1","3715","2","8","Male","approach_avoid_spark_v1","""event"",""trial"",""time""
""fullscreenenter"",""1"",""8530""
","
","
","""event"",""trial"",""time""
""fullscreenenter"",""1"",""8530""
","
","","","","","","null","images/table3.png","","","learning","4","-5","","null","table","furniture","1","1","","good","[4]"
"html-keyboard-response","193","866493","0.0-11.0-2.0-0.2","3715","2","8","Male","approach_avoid_spark_v1","""event"",""trial"",""time""
""fullscreenenter"",""1"",""8530""
","
","
","""event"",""trial"",""time""
""fullscreenenter"",""1"",""8530""
","
","","","","","","null","<div style=""font-size:60px;"">+</div>","null","","fixation","","","","","","","","","","",""
"aa-learning-trial","194","869513","0.0-11.0-2.0-1.2","3715","2","8","Male","approach_avoid_spark_v1","""event"",""trial"",""time""
""fullscreenenter"",""1"",""8530""
","
","
","""event"",""trial"",""time""
""fullscreenenter"",""1"",""8530""
","
","","","","","","null","images/sofa4.png","","","learning","-2","-5","","null","sofa","furniture","1","1","","neutral","0"
"html-keyboard-response","195","870034","0.0-11.0-2.0-0.3","3715","2","8","Male","approach_avoid_spark_v1","""event"",""trial"",""time""
""fullscreenenter"",""1"",""8530""
","
","
","""event"",""trial"",""time""
""fullscreenenter"",""1"",""8530""
","
","","","","","","null","<div style=""font-size:60px;"">+</div>","null","","fixation","","","","","","","","","","",""
"aa-learning-trial","196","873049","0.0-11.0-2.0-1.3","3715","2","8","Male","approach_avoid_spark_v1","""event"",""trial"",""time""
""fullscreenenter"",""1"",""8530""
","
","
","""event"",""trial"",""time""
""fullscreenenter"",""1"",""8530""
","
","","","","","","null","images/table4.png","","","learning","4","-5","","null","table","furniture","1","1","","good","[4]"
"html-keyboard-response","197","873553","0.0-11.0-2.0-0.4","3715","2","8","Male","approach_avoid_spark_v1","""event"",""trial"",""time""
""fullscreenenter"",""1"",""8530""
","
","
","""event"",""trial"",""time""
""fullscreenenter"",""1"",""8530""
","
","","","","","","null","<div style=""font-size:60px;"">+</div>","null","","fixation","","","","","","","","","","",""
"aa-learning-trial","198","876573","0.0-11.0-2.0-1.4","3715","2","8","Male","approach_avoid_spark_v1","""event"",""trial"",""time""
""fullscreenenter"",""1"",""8530""
","
","
","""event"",""trial"",""time""
""fullscreenenter"",""1"",""8530""
","
","","","","","","null","images/table3.png","","","learning","3","-5","","null","table","furniture","1","1","","good","[4]"
"html-keyboard-response","199","877093","0.0-11.0-2.0-0.5","3715","2","8","Male","approach_avoid_spark_v1","""event"",""trial"",""time""
""fullscreenenter"",""1"",""8530""
","
","
","""event"",""trial"",""time""
""fullscreenenter"",""1"",""8530""
","
","","","","","","null","<div style=""font-size:60px;"">+</div>","null","","fixation","","","","","","","","","","",""
"aa-learning-trial","200","880104","0.0-11.0-2.0-1.5","3715","2","8","Male","approach_avoid_spark_v1","""event"",""trial"",""time""
""fullscreenenter"",""1"",""8530""
","
","
","""event"",""trial"",""time""
""fullscreenenter"",""1"",""8530""
","
","","","","","","null","images/bed5.png","","","learning","-7","-5","","null","bed","furniture","1","1","","bad","[-6]"
"html-keyboard-response","201","880624","0.0-11.0-2.0-0.6","3715","2","8","Male","approach_avoid_spark_v1","""event"",""trial"",""time""
""fullscreenenter"",""1"",""8530""
","
","
","""event"",""trial"",""time""
""fullscreenenter"",""1"",""8530""
","
","","","","","","null","<div style=""font-size:60px;"">+</div>","null","","fixation","","","","","","","","","","",""
"aa-learning-trial","202","883632","0.0-11.0-2.0-1.6","3715","2","8","Male","approach_avoid_spark_v1","""event"",""trial"",""time""
""fullscreenenter"",""1"",""8530""
","
","
","""event"",""trial"",""time""
""fullscreenenter"",""1"",""8530""
","
","","","","","","null","images/bed5.png","","","learning","-4","-5","","null","bed","furniture","1","1","","bad","[-6]"
"html-keyboard-response","203","884138","0.0-11.0-2.0-0.7","3715","2","8","Male","approach_avoid_spark_v1","""event"",""trial"",""time""
""fullscreenenter"",""1"",""8530""
","
","
","""event"",""trial"",""time""
""fullscreenenter"",""1"",""8530""
","
","","","","","","null","<div style=""font-size:60px;"">+</div>","null","","fixation","","","","","","","","","","",""
"aa-learning-trial","204","887153","0.0-11.0-2.0-1.7","3715","2","8","Male","approach_avoid_spark_v1","""event"",""trial"",""time""
""fullscreenenter"",""1"",""8530""
","
","
","""event"",""trial"",""time""
""fullscreenenter"",""1"",""8530""
","
","","","","","","null","images/bed8.png","","","learning","-6","-5","","null","bed","furniture","1","1","","bad","[-6]"
"html-keyboard-response","205","887661","0.0-11.0-2.0-0.8","3715","2","8","Male","approach_avoid_spark_v1","""event"",""trial"",""time""
""fullscreenenter"",""1"",""8530""
","
","
","""event"",""trial"",""time""
""fullscreenenter"",""1"",""8530""
","
","","","","","","null","<div style=""font-size:60px;"">+</div>","null","","fixation","","","","","","","","","","",""
"aa-learning-trial","206","890672","0.0-11.0-2.0-1.8","3715","2","8","Male","approach_avoid_spark_v1","""event"",""trial"",""time""
""fullscreenenter"",""1"",""8530""
","
","
","""event"",""trial"",""time""
""fullscreenenter"",""1"",""8530""
","
","","","","","","null","images/table4.png","","","learning","4","-5","","null","table","furniture","1","1","","good","[4]"
"html-keyboard-response","207","891185","0.0-11.0-2.0-0.9","3715","2","8","Male","approach_avoid_spark_v1","""event"",""trial"",""time""
""fullscreenenter"",""1"",""8530""
","
","
","""event"",""trial"",""time""
""fullscreenenter"",""1"",""8530""
","
","","","","","","null","<div style=""font-size:60px;"">+</div>","null","","fixation","","","","","","","","","","",""
"aa-learning-trial","208","894197","0.0-11.0-2.0-1.9","3715","2","8","Male","approach_avoid_spark_v1","""event"",""trial"",""time""
""fullscreenenter"",""1"",""8530""
","
","
","""event"",""trial"",""time""
""fullscreenenter"",""1"",""8530""
","
","","","","","","null","images/sofa1.png","","","learning","[1]","-5","","null","sofa","furniture","1","1","","neutral","0"
"html-keyboard-response","209","894710","0.0-11.0-2.0-0.10","3715","2","8","Male","approach_avoid_spark_v1","""event"",""trial"",""time""
""fullscreenenter"",""1"",""8530""
","
","
","""event"",""trial"",""time""
""fullscreenenter"",""1"",""8530""
","
","","","","","","null","<div style=""font-size:60px;"">+</div>","null","","fixation","","","","","","","","","","",""
"aa-learning-trial","210","897727","0.0-11.0-2.0-1.10","3715","2","8","Male","approach_avoid_spark_v1","""event"",""trial"",""time""
""fullscreenenter"",""1"",""8530""
","
","
","""event"",""trial"",""time""
""fullscreenenter"",""1"",""8530""
","
","","","","","","null","images/sofa3.png","","","learning","1","-5","","null","sofa","furniture","1","1","","neutral","0"
"html-keyboard-response","211","898243","0.0-11.0-2.0-0.11","3715","2","8","Male","approach_avoid_spark_v1","""event"",""trial"",""time""
""fullscreenenter"",""1"",""8530""
","
","
","""event"",""trial"",""time""
""fullscreenenter"",""1"",""8530""
","
","","","","","","null","<div style=""font-size:60px;"">+</div>","null","","fixation","","","","","","","","","","",""
"aa-learning-trial","212","901262","0.0-11.0-2.0-1.11","3715","2","8","Male","approach_avoid_spark_v1","""event"",""trial"",""time""
""fullscreenenter"",""1"",""8530""
","
","
","""event"",""trial"",""time""
""fullscreenenter"",""1"",""8530""
","
","","","","","","null","images/sofa3.png","","","learning","-2","-5","","null","sofa","furniture","1","1","","neutral","0"
"html-keyboard-response","213","901779","0.0-11.0-2.0-0.12","3715","2","8","Male","approach_avoid_spark_v1","""event"",""trial"",""time""
""fullscreenenter"",""1"",""8530""
","
","
","""event"",""trial"",""time""
""fullscreenenter"",""1"",""8530""
","
","","","","","","null","<div style=""font-size:60px;"">+</div>","null","","fixation","","","","","","","","","","",""
"aa-learning-trial","214","904801","0.0-11.0-2.0-1.12","3715","2","8","Male","approach_avoid_spark_v1","""event"",""trial"",""time""
""fullscreenenter"",""1"",""8530""
","
","
","""event"",""trial"",""time""
""fullscreenenter"",""1"",""8530""
","
","","","","","","null","images/table5.png","","","learning","3","-5","","null","table","furniture","1","1","","good","[4]"
"html-keyboard-response","215","905314","0.0-11.0-2.0-0.13","3715","2","8","Male","approach_avoid_spark_v1","""event"",""trial"",""time""
""fullscreenenter"",""1"",""8530""
","
","
","""event"",""trial"",""time""
""fullscreenenter"",""1"",""8530""
","
","","","","","","null","<div style=""font-size:60px;"">+</div>","null","","fixation","","","","","","","","","","",""
"aa-learning-trial","216","908330","0.0-11.0-2.0-1.13","3715","2","8","Male","approach_avoid_spark_v1","""event"",""trial"",""time""
""fullscreenenter"",""1"",""8530""
","
","
","""event"",""trial"",""time""
""fullscreenenter"",""1"",""8530""
","
","","","","","","null","images/bed8.png","","","learning","-4","-5","","null","bed","furniture","1","1","","bad","[-6]"
"html-keyboard-response","217","908845","0.0-11.0-2.0-0.14","3715","2","8","Male","approach_avoid_spark_v1","""event"",""trial"",""time""
""fullscreenenter"",""1"",""8530""
","
","
","""event"",""trial"",""time""
""fullscreenenter"",""1"",""8530""
","
","","","","","","null","<div style=""font-size:60px;"">+</div>","null","","fixation","","","","","","","","","","",""
"aa-learning-trial","218","911867","0.0-11.0-2.0-1.14","3715","2","8","Male","approach_avoid_spark_v1","""event"",""trial"",""time""
""fullscreenenter"",""1"",""8530""
","
","
","""event"",""trial"",""time""
""fullscreenenter"",""1"",""8530""
","
","","","","","","null","images/sofa4.png","","","learning","-1","-5","","null","sofa","furniture","1","1","","neutral","0"
"html-keyboard-response","219","912371","0.0-11.0-2.0-0.15","3715","2","8","Male","approach_avoid_spark_v1","""event"",""trial"",""time""
""fullscreenenter"",""1"",""8530""
","
","
","""event"",""trial"",""time""
""fullscreenenter"",""1"",""8530""
","
","","","","","","null","<div style=""font-size:60px;"">+</div>","null","","fixation","","","","","","","","","","",""
"aa-learning-trial","220","915383","0.0-11.0-2.0-1.15","3715","2","8","Male","approach_avoid_spark_v1","""event"",""trial"",""time""
""fullscreenenter"",""1"",""8530""
","
","
","""event"",""trial"",""time""
""fullscreenenter"",""1"",""8530""
","
","","","","","","null","images/bed8.png","","","learning","-7","-5","","null","bed","furniture","1","1","","bad","[-6]"
"html-keyboard-response","221","915889","0.0-11.0-2.0-0.16","3715","2","8","Male","approach_avoid_spark_v1","""event"",""trial"",""time""
""fullscreenenter"",""1"",""8530""
","
","
","""event"",""trial"",""time""
""fullscreenenter"",""1"",""8530""
","
","","","","","","null","<div style=""font-size:60px;"">+</div>","null","","fixation","","","","","","","","","","",""
"aa-learning-trial","222","918902","0.0-11.0-2.0-1.16","3715","2","8","Male","approach_avoid_spark_v1","""event"",""trial"",""time""
""fullscreenenter"",""1"",""8530""
","
","
","""event"",""trial"",""time""
""fullscreenenter"",""1"",""8530""
","
","","","","","","null","images/bed5.png","","","learning","-5","-5","","null","bed","furniture","1","1","","bad","[-6]"
"html-keyboard-response","223","919408","0.0-11.0-2.0-0.17","3715","2","8","Male","approach_avoid_spark_v1","""event"",""trial"",""time""
""fullscreenenter"",""1"",""8530""
","
","
","""event"",""trial"",""time""
""fullscreenenter"",""1"",""8530""
","
","","","","","","null","<div style=""font-size:60px;"">+</div>","null","","fixation","","","","","","","","","","",""
"aa-learning-trial","224","922426","0.0-11.0-2.0-1.17","3715","2","8","Male","approach_avoid_spark_v1","""event"",""trial"",""time""
""fullscreenenter"",""1"",""8530""
","
","
","""event"",""trial"",""time""
""fullscreenenter"",""1"",""8530""
","
","","","","","","null","images/bed6.png","","","learning","-6","-5","","null","bed","furniture","1","1","","bad","[-6]"
"html-keyboard-response","225","922940","0.0-11.0-2.0-0.18","3715","2","8","Male","approach_avoid_spark_v1","""event"",""trial"",""time""
""fullscreenenter"",""1"",""8530""
","
","
","""event"",""trial"",""time""
""fullscreenenter"",""1"",""8530""
","
","","","","","","null","<div style=""font-size:60px;"">+</div>","null","","fixation","","","","","","","","","","",""
"aa-learning-trial","226","925953","0.0-11.0-2.0-1.18","3715","2","8","Male","approach_avoid_spark_v1","""event"",""trial"",""time""
""fullscreenenter"",""1"",""8530""
","
","
","""event"",""trial"",""time""
""fullscreenenter"",""1"",""8530""
","
","","","","","","null","images/bed5.png","","","learning","-5","-5","","null","bed","furniture","1","1","","bad","[-6]"
"html-keyboard-response","227","926464","0.0-11.0-2.0-0.19","3715","2","8","Male","approach_avoid_spark_v1","""event"",""trial"",""time""
""fullscreenenter"",""1"",""8530""
","
","
","""event"",""trial"",""time""
""fullscreenenter"",""1"",""8530""
","
","","","","","","null","<div style=""font-size:60px;"">+</div>","null","","fixation","","","","","","","","","","",""
"aa-learning-trial","228","929480","0.0-11.0-2.0-1.19","3715","2","8","Male","approach_avoid_spark_v1","""event"",""trial"",""time""
""fullscreenenter"",""1"",""8530""
","
","
","""event"",""trial"",""time""
""fullscreenenter"",""1"",""8530""
","
","","","","","","null","images/sofa4.png","","","learning","[-1]","-5","","null","sofa","furniture","1","1","","neutral","0"
"html-keyboard-response","229","929993","0.0-11.0-2.0-0.20","3715","2","8","Male","approach_avoid_spark_v1","""event"",""trial"",""time""
""fullscreenenter"",""1"",""8530""
","
","
","""event"",""trial"",""time""
""fullscreenenter"",""1"",""8530""
","
","","","","","","null","<div style=""font-size:60px;"">+</div>","null","","fixation","","","","","","","","","","",""
"aa-learning-trial","230","933007","0.0-11.0-2.0-1.20","3715","2","8","Male","approach_avoid_spark_v1","""event"",""trial"",""time""
""fullscreenenter"",""1"",""8530""
","
","
","""event"",""trial"",""time""
""fullscreenenter"",""1"",""8530""
","
","","","","","","null","images/bed8.png","","","learning","-4","-5","","null","bed","furniture","1","1","","bad","[-6]"
"html-keyboard-response","231","933521","0.0-11.0-2.0-0.21","3715","2","8","Male","approach_avoid_spark_v1","""event"",""trial"",""time""
""fullscreenenter"",""1"",""8530""
","
","
","""event"",""trial"",""time""
""fullscreenenter"",""1"",""8530""
","
","","","","","","null","<div style=""font-size:60px;"">+</div>","null","","fixation","","","","","","","","","","",""
"aa-learning-trial","232","936532","0.0-11.0-2.0-1.21","3715","2","8","Male","approach_avoid_spark_v1","""event"",""trial"",""time""
""fullscreenenter"",""1"",""8530""
","
","
","""event"",""trial"",""time""
""fullscreenenter"",""1"",""8530""
","
","","","","","","null","images/bed5.png","","","learning","-7","-5","","null","bed","furniture","1","1","","bad","[-6]"
"html-keyboard-response","233","937040","0.0-11.0-2.0-0.22","3715","2","8","Male","approach_avoid_spark_v1","""event"",""trial"",""time""
""fullscreenenter"",""1"",""8530""
","
","
","""event"",""trial"",""time""
""fullscreenenter"",""1"",""8530""
","
","","","","","","null","<div style=""font-size:60px;"">+</div>","null","","fixation","","","","","","","","","","",""
"aa-learning-trial","234","940059","0.0-11.0-2.0-1.22","3715","2","8","Male","approach_avoid_spark_v1","""event"",""trial"",""time""
""fullscreenenter"",""1"",""8530""
","
","
","""event"",""trial"",""time""
""fullscreenenter"",""1"",""8530""
","
","","","","","","null","images/sofa1.png","","","learning","-1","-5","","null","sofa","furniture","1","1","","neutral","0"
"html-keyboard-response","235","940564","0.0-11.0-2.0-0.23","3715","2","8","Male","approach_avoid_spark_v1","""event"",""trial"",""time""
""fullscreenenter"",""1"",""8530""
","
","
","""event"",""trial"",""time""
""fullscreenenter"",""1"",""8530""
","
","","","","","","null","<div style=""font-size:60px;"">+</div>","null","","fixation","","","","","","","","","","",""
"aa-learning-trial","236","943579","0.0-11.0-2.0-1.23","3715","2","8","Male","approach_avoid_spark_v1","""event"",""trial"",""time""
""fullscreenenter"",""1"",""8530""
","
","
","""event"",""trial"",""time""
""fullscreenenter"",""1"",""8530""
","
","","","","","","null","images/table4.png","","","learning","3","-5","","null","table","furniture","1","1","","good","[4]"
"html-keyboard-response","237","944094","0.0-11.0-2.0-0.24","3715","2","8","Male","approach_avoid_spark_v1","""event"",""trial"",""time""
""fullscreenenter"",""1"",""8530""
","
","
","""event"",""trial"",""time""
""fullscreenenter"",""1"",""8530""
","
","","","","","","null","<div style=""font-size:60px;"">+</div>","null","","fixation","","","","","","","","","","",""
"aa-learning-trial","238","947111","0.0-11.0-2.0-1.24","3715","2","8","Male","approach_avoid_spark_v1","""event"",""trial"",""time""
""fullscreenenter"",""1"",""8530""
","
","
","""event"",""trial"",""time""
""fullscreenenter"",""1"",""8530""
","
","","","","","","null","images/bed8.png","","","learning","-5","-5","","null","bed","furniture","1","1","","bad","[-6]"
"html-keyboard-response","239","947614","0.0-11.0-2.0-0.25","3715","2","8","Male","approach_avoid_spark_v1","""event"",""trial"",""time""
""fullscreenenter"",""1"",""8530""
","
","
","""event"",""trial"",""time""
""fullscreenenter"",""1"",""8530""
","
","","","","","","null","<div style=""font-size:60px;"">+</div>","null","","fixation","","","","","","","","","","",""
