"trial_type","trial_index","time_elapsed","internal_node_id","subject_id","task_condition","age","gender","task_version","interactions","blur_events","focus_events","fullscreenenter_events","fullscreenexit_events","success","timeout","failed_images","failed_audio","failed_video","rt","stimulus","response","button_pressed","task_part","approach_reward","points","key_press","option_selected","stim_cat","task_block","block_condition","block_number","correct","cat_type","mean_cat_reward"
"pavlovia","0","4","0.0-0.0","3791","2","9","Female","approach_avoid_spark_v1","""event"",""trial"",""time""
""fullscreenenter"",""1"",""56698""
","
","
","""event"",""trial"",""time""
""fullscreenenter"",""1"",""56698""
","
","","","","","","","","","","","","","","","","","","","","",""
"fullscreen","1","57692","0.0-1.0","3791","2","9","Female","approach_avoid_spark_v1","""event"",""trial"",""time""
""fullscreenenter"",""1"",""56698""
","
","
","""event"",""trial"",""time""
""fullscreenenter"",""1"",""56698""
","
","true","","","","","","","","","","","","","","","","","","","",""
"preload","2","61514","0.0-2.0","3791","2","9","Female","approach_avoid_spark_v1","""event"",""trial"",""time""
""fullscreenenter"",""1"",""56698""
","
","
","""event"",""trial"",""time""
""fullscreenenter"",""1"",""56698""
","
","true","false","[]","[]","[]","","","","","","","","","","","","","","","",""
"audio-keyboard-response","3","67949","0.0-3.0","3791","2","9","Female","approach_avoid_spark_v1","""event"",""trial"",""time""
""fullscreenenter"",""1"",""56698""
","
","
","""event"",""trial"",""time""
""fullscreenenter"",""1"",""56698""
","
","","","","","","6431.9274376417225","audio/beep_loop.wav"," ","","","","","","","","","","","","",""
"audio-button-response","4","71448","0.0-4.0","3791","2","9","Female","approach_avoid_spark_v1","""event"",""trial"",""time""
""fullscreenenter"",""1"",""56698""
","
","
","""event"",""trial"",""time""
""fullscreenenter"",""1"",""56698""
","
","","","","","","3495","audio/shark.wav","4","","","","","","","","","","","","",""
"audio-button-response","5","74432","0.0-5.0","3791","2","9","Female","approach_avoid_spark_v1","""event"",""trial"",""time""
""fullscreenenter"",""1"",""56698""
","
","
","""event"",""trial"",""time""
""fullscreenenter"",""1"",""56698""
","
","","","","","","1974","audio/turtle.wav","1","","","","","","","","","","","","",""
"preload","6","77078","0.0-6.0","3791","2","9","Female","approach_avoid_spark_v1","""event"",""trial"",""time""
""fullscreenenter"",""1"",""56698""
","
","
","""event"",""trial"",""time""
""fullscreenenter"",""1"",""56698""
","
","true","false","[]","[]","[]","","","","","","","","","","","","","","","",""
"html-keyboard-response","7","82508","0.0-7.0","3791","2","9","Female","approach_avoid_spark_v1","""event"",""trial"",""time""
""fullscreenenter"",""1"",""56698""
","
","
","""event"",""trial"",""time""
""fullscreenenter"",""1"",""56698""
","
","","","","","","5426.699999988079","Welcome to the experiment. Press any key to begin and to advance the instructions."," ","","","","","","","","","","","","",""
"learning-instructions","8","91867","0.0-8.0-0.0-0.0","3791","2","9","Female","approach_avoid_spark_v1","""event"",""trial"",""time""
""fullscreenenter"",""1"",""56698""
","
","
","""event"",""trial"",""time""
""fullscreenenter"",""1"",""56698""
","
","","","","","","2404.300000011921","<p> Welcome! Today you are going to play 6 different rounds of a decision-making game. </p><p> Use the mouse to click next to continue. </p>","","0","instructions","","","","","","","","","","",""
"learning-instructions","9","95816","0.0-8.0-0.0-0.1","3791","2","9","Female","approach_avoid_spark_v1","""event"",""trial"",""time""
""fullscreenenter"",""1"",""56698""
","
","
","""event"",""trial"",""time""
""fullscreenenter"",""1"",""56698""
","
","","","","","","1222.7000000178814","<p> You will start with a practice round to learn the rules. </p>","","0","instructions","","","","","","","","","","",""
"learning-instructions","10","100416","0.0-8.0-0.0-0.2","3791","2","9","Female","approach_avoid_spark_v1","""event"",""trial"",""time""
""fullscreenenter"",""1"",""56698""
","
","
","""event"",""trial"",""time""
""fullscreenenter"",""1"",""56698""
","
","","","","","","1150.0999999940395","<p> Your goal in this round is to give out sports equipment to kids. </p></div>","","0","instructions","","","","","","","","","","",""
"learning-instructions","11","109249","0.0-8.0-0.0-0.3","3791","2","9","Female","approach_avoid_spark_v1","""event"",""trial"",""time""
""fullscreenenter"",""1"",""56698""
","
","
","""event"",""trial"",""time""
""fullscreenenter"",""1"",""56698""
","
","","","","","","1288.0999999940395","<p> The kids only like some of the equipment.  </p><p> On each turn, you will see a piece of sports equipment.   </p><p> You need to decide whether to give it to the kids or not.  </p>","","0","instructions","","","","","","","","","","",""
"learning-instructions","12","115882","0.0-8.0-0.0-0.4","3791","2","9","Female","approach_avoid_spark_v1","""event"",""trial"",""time""
""fullscreenenter"",""1"",""56698""
","
","
","""event"",""trial"",""time""
""fullscreenenter"",""1"",""56698""
","
","","","","","","1883.9000000059605","<p> You can give them the equipment by pressing 1 and choose not to give it to them by pressing 0. </p><br><div class=""choice-instructions-grid""> <div class=""choice-option""><img src=""images/approach.png"" class=""choice-option-img"" stage=""instructions"" position=""0"" ><div class=""choice-option-text""> Press ""1."" </div></div><div class=""choice-option""><img src=""images/avoid.png"" class=""choice-option-img"" stage=""instructions"" position=""1"" ><div class=""choice-option-text""> Press ""0."" </div></div>","","0","instructions","","","","","","","","","","",""
"learning-instructions","13","124450","0.0-8.0-0.0-0.5","3791","2","9","Female","approach_avoid_spark_v1","""event"",""trial"",""time""
""fullscreenenter"",""1"",""56698""
","
","
","""event"",""trial"",""time""
""fullscreenenter"",""1"",""56698""
","
","","","","","","1187.199999988079","<p> If you give them a piece of equipment they like, they will be happy! </p><p> But if you give them a piece of equipment they do not like, they will be sad. </p>","","0","instructions","","","","","","","","","","",""
"learning-instructions","14","137484","0.0-8.0-0.0-0.6","3791","2","9","Female","approach_avoid_spark_v1","""event"",""trial"",""time""
""fullscreenenter"",""1"",""56698""
","
","
","""event"",""trial"",""time""
""fullscreenenter"",""1"",""56698""
","
","","","","","","2530.2000000178814","<p> You will earn points based on how you make kids feel. </p><p> If you make them happy, you will WIN anywhere from 1 - 9 points, </p><p> but if you make them sad, you will LOSE anywhere from 1 - 9 points. </p>","","0","instructions","","","","","","","","","","",""
"learning-instructions","15","149051","0.0-8.0-0.0-0.7","3791","2","9","Female","approach_avoid_spark_v1","""event"",""trial"",""time""
""fullscreenenter"",""1"",""56698""
","
","
","""event"",""trial"",""time""
""fullscreenenter"",""1"",""56698""
","
","","","","","","2006.199999988079","<p> You will see how many points you won or lost in the center of the screen. </p><p> Here is what you would see if you won 6 points: </p><p style=""color:green;font-size:50px;font-weight:bolder"">6</p><p style=""color:green"">The text is GREEN because you WON points.</p>","","0","instructions","","","","","","","","","","",""
"learning-instructions","16","163284","0.0-8.0-0.0-0.8","3791","2","9","Female","approach_avoid_spark_v1","""event"",""trial"",""time""
""fullscreenenter"",""1"",""56698""
","
","
","""event"",""trial"",""time""
""fullscreenenter"",""1"",""56698""
","
","","","","","","8728.199999988079","<p> And here is what you would see if you lost 4 points: </p><p style=""color:red;font-size:50px;font-weight:bolder"">-4</p><p style=""color:red"">The text is RED because you LOST points. </p>","","0","instructions","","","","","","","","","","",""
"learning-instructions","17","179035","0.0-8.0-0.0-0.9","3791","2","9","Female","approach_avoid_spark_v1","""event"",""trial"",""time""
""fullscreenenter"",""1"",""56698""
","
","
","""event"",""trial"",""time""
""fullscreenenter"",""1"",""56698""
","
","","","","","","1039.199999988079","<p> Some of the equipment will make the kids VERY happy or sad. </p><p> These pieces of equipment will make you win or lose LOTS of points. </p><p> Other pieces of equipment will only make the kids a little happy or sad. </p><p> These pieces of equipment will make you win or lose small amounts of points. </p>","","0","instructions","","","","","","","","","","",""
"learning-instructions","18","191969","0.0-8.0-0.0-0.10","3791","2","9","Female","approach_avoid_spark_v1","""event"",""trial"",""time""
""fullscreenenter"",""1"",""56698""
","
","
","""event"",""trial"",""time""
""fullscreenenter"",""1"",""56698""
","
","","","","","","2305.5","<p> If you choose not to give them the equipment, you will not win or lose any points. </p><p>  However, in the center of the screen, you will see the number of points you WOULD HAVE won or lost if you had given them the equipment. </p>","","0","instructions","","","","","","","","","","",""
"learning-instructions","19","214852","0.0-8.0-0.0-0.11","3791","2","9","Female","approach_avoid_spark_v1","""event"",""trial"",""time""
""fullscreenenter"",""1"",""56698""
","
","
","""event"",""trial"",""time""
""fullscreenenter"",""1"",""56698""
","
","","","","","","1354.7000000178814","<p> Here is what you might see if you did not give the equipment to the kids but it would have made them happy: </p><p style=""color:grey; font-size:50px; display: inline-block; border-spacing: 15px; border-width:3px; border-style:solid; border-color:red"">  &nbsp; 7 &nbsp; </p><p> Remember, in this case, you would not win or lose ANY points because you did not give them the equipment.  </p><p style=""color:grey"">The text is GREY because you earned ZERO points. </p><p style=""color:red"">However, choosing to give the kids the equipment would have made you win points. The box around the text is RED because you chose the worse option. </p>","","0","instructions","","","","","","","","","","",""
"learning-instructions","20","240269","0.0-8.0-0.0-0.12","3791","2","9","Female","approach_avoid_spark_v1","""event"",""trial"",""time""
""fullscreenenter"",""1"",""56698""
","
","
","""event"",""trial"",""time""
""fullscreenenter"",""1"",""56698""
","
","","","","","","4348.5999999940395","<p> Here is what you might see if you did not give the equipment to the kids but it would have made them sad: </p><p style=""color:grey;font-size:50px; display: inline-block; border-spacing: 15px; border-width:3px; border-style:solid; border-color:green"">  &nbsp; -8 &nbsp; </p><p> Remember, in this case, you would not win or lose ANY points because you did not give them the equipment.  </p><p style=""color:grey"">The text is GREY because you earned ZERO points. </p><p  style=""color:green""> Choosing to give the kids the equipment would have made you lose points. The box around the text is GREEN because you chose the better option.</p>","","0","instructions","","","","","","","","","","",""
"learning-instructions","21","250370","0.0-8.0-0.0-0.13","3791","2","9","Female","approach_avoid_spark_v1","""event"",""trial"",""time""
""fullscreenenter"",""1"",""56698""
","
","
","""event"",""trial"",""time""
""fullscreenenter"",""1"",""56698""
","
","","","","","","1173.7999999821186","<p> You will have 3 seconds to make each choice. Try to respond before time runs out! </p><p> You will lose 5 points each time you do not make a response. </p>","","0","instructions","","","","","","","","","","",""
"learning-instructions","22","260619","0.0-8.0-0.0-0.14","3791","2","9","Female","approach_avoid_spark_v1","""event"",""trial"",""time""
""fullscreenenter"",""1"",""56698""
","
","
","""event"",""trial"",""time""
""fullscreenenter"",""1"",""56698""
","
","","","","","","4840.700000017881","<p> This is just a practice round, but in the real game, your bonus payment will depend on your total number of points.","","0","instructions","","","","","","","","","","",""
"learning-instructions","23","267320","0.0-8.0-0.0-0.15","3791","2","9","Female","approach_avoid_spark_v1","""event"",""trial"",""time""
""fullscreenenter"",""1"",""56698""
","
","
","""event"",""trial"",""time""
""fullscreenenter"",""1"",""56698""
","
","","","","","","941.2999999821186","<p> Remember, you can give them the equipment by pressing 1 and choose not to give it to them by pressing 0. </p><br><div class=""choice-instructions-grid""> <div class=""choice-option""><img src=""images/approach.png"" class=""choice-option-img"" stage=""instructions"" position=""0"" ><div class=""choice-option-text""> Press ""1."" </div></div><div class=""choice-option""><img src=""images/avoid.png"" class=""choice-option-img"" stage=""instructions"" position=""1"" ><div class=""choice-option-text""> Press ""0."" </div></div>","","0","instructions","","","","","","","","","","",""
"html-button-response","24","275822","0.0-8.0-1.0","3791","2","9","Female","approach_avoid_spark_v1","""event"",""trial"",""time""
""fullscreenenter"",""1"",""56698""
","
","
","""event"",""trial"",""time""
""fullscreenenter"",""1"",""56698""
","
","","","","","","8392.5","<p> Ready to practice? </p>","0","","","","","","","","","","","","",""
"html-keyboard-response","25","276432","0.0-8.0-2.0-0.0","3791","2","9","Female","approach_avoid_spark_v1","""event"",""trial"",""time""
""fullscreenenter"",""1"",""56698""
","
","
","""event"",""trial"",""time""
""fullscreenenter"",""1"",""56698""
","
","","","","","","null","<div style=""font-size:60px;"">+</div>","null","","fixation","","","","","","","","","","",""
"aa-learning-trial","26","279437","0.0-8.0-2.0-1.0","3791","2","9","Female","approach_avoid_spark_v1","""event"",""trial"",""time""
""fullscreenenter"",""1"",""56698""
","
","
","""event"",""trial"",""time""
""fullscreenenter"",""1"",""56698""
","
","","","","","","1803.0999999940395","images/ball4.png","","","learning","7","7","1","1","practice","practice","practice","-1","","",""
"html-keyboard-response","27","279944","0.0-8.0-2.0-0.1","3791","2","9","Female","approach_avoid_spark_v1","""event"",""trial"",""time""
""fullscreenenter"",""1"",""56698""
","
","
","""event"",""trial"",""time""
""fullscreenenter"",""1"",""56698""
","
","","","","","","null","<div style=""font-size:60px;"">+</div>","null","","fixation","","","","","","","","","","",""
"aa-learning-trial","28","282953","0.0-8.0-2.0-1.1","3791","2","9","Female","approach_avoid_spark_v1","""event"",""trial"",""time""
""fullscreenenter"",""1"",""56698""
","
","
","""event"",""trial"",""time""
""fullscreenenter"",""1"",""56698""
","
","","","","","","1883.699999988079","images/ball1.png","","","learning","4","4","1","1","practice","practice","practice","-1","","",""
"html-keyboard-response","29","283455","0.0-8.0-2.0-0.2","3791","2","9","Female","approach_avoid_spark_v1","""event"",""trial"",""time""
""fullscreenenter"",""1"",""56698""
","
","
","""event"",""trial"",""time""
""fullscreenenter"",""1"",""56698""
","
","","","","","","null","<div style=""font-size:60px;"">+</div>","null","","fixation","","","","","","","","","","",""
"aa-learning-trial","30","286465","0.0-8.0-2.0-1.2","3791","2","9","Female","approach_avoid_spark_v1","""event"",""trial"",""time""
""fullscreenenter"",""1"",""56698""
","
","
","""event"",""trial"",""time""
""fullscreenenter"",""1"",""56698""
","
","","","","","","754.0999999940395","images/racket4.png","","","learning","8","0","0","0","practice","practice","practice","-1","","",""
"html-keyboard-response","31","286967","0.0-8.0-2.0-0.3","3791","2","9","Female","approach_avoid_spark_v1","""event"",""trial"",""time""
""fullscreenenter"",""1"",""56698""
","
","
","""event"",""trial"",""time""
""fullscreenenter"",""1"",""56698""
","
","","","","","","null","<div style=""font-size:60px;"">+</div>","null","","fixation","","","","","","","","","","",""
"aa-learning-trial","32","289977","0.0-8.0-2.0-1.3","3791","2","9","Female","approach_avoid_spark_v1","""event"",""trial"",""time""
""fullscreenenter"",""1"",""56698""
","
","
","""event"",""trial"",""time""
""fullscreenenter"",""1"",""56698""
","
","","","","","","283.40000000596046","images/racket4.png","","","learning","1","1","1","1","practice","practice","practice","-1","","",""
"html-keyboard-response","33","290479","0.0-8.0-2.0-0.4","3791","2","9","Female","approach_avoid_spark_v1","""event"",""trial"",""time""
""fullscreenenter"",""1"",""56698""
","
","
","""event"",""trial"",""time""
""fullscreenenter"",""1"",""56698""
","
","","","","","","null","<div style=""font-size:60px;"">+</div>","null","","fixation","","","","","","","","","","",""
"aa-learning-trial","34","293491","0.0-8.0-2.0-1.4","3791","2","9","Female","approach_avoid_spark_v1","""event"",""trial"",""time""
""fullscreenenter"",""1"",""56698""
","
","
","""event"",""trial"",""time""
""fullscreenenter"",""1"",""56698""
","
","","","","","","1379.7000000178814","images/ball2.png","","","learning","-5","-5","1","1","practice","practice","practice","-1","","",""
"html-keyboard-response","35","294002","0.0-8.0-2.0-0.5","3791","2","9","Female","approach_avoid_spark_v1","""event"",""trial"",""time""
""fullscreenenter"",""1"",""56698""
","
","
","""event"",""trial"",""time""
""fullscreenenter"",""1"",""56698""
","
","","","","","","null","<div style=""font-size:60px;"">+</div>","null","","fixation","","","","","","","","","","",""
"aa-learning-trial","36","297010","0.0-8.0-2.0-1.5","3791","2","9","Female","approach_avoid_spark_v1","""event"",""trial"",""time""
""fullscreenenter"",""1"",""56698""
","
","
","""event"",""trial"",""time""
""fullscreenenter"",""1"",""56698""
","
","","","","","","1412.0999999940395","images/racket3.png","","","learning","-4","0","0","0","practice","practice","practice","-1","","",""
"html-keyboard-response","37","297521","0.0-8.0-2.0-0.6","3791","2","9","Female","approach_avoid_spark_v1","""event"",""trial"",""time""
""fullscreenenter"",""1"",""56698""
","
","
","""event"",""trial"",""time""
""fullscreenenter"",""1"",""56698""
","
","","","","","","null","<div style=""font-size:60px;"">+</div>","null","","fixation","","","","","","","","","","",""
"aa-learning-trial","38","300528","0.0-8.0-2.0-1.6","3791","2","9","Female","approach_avoid_spark_v1","""event"",""trial"",""time""
""fullscreenenter"",""1"",""56698""
","
","
","""event"",""trial"",""time""
""fullscreenenter"",""1"",""56698""
","
","","","","","","1481.2000000178814","images/racket2.png","","","learning","3","3","1","1","practice","practice","practice","-1","","",""
"html-keyboard-response","39","301033","0.0-8.0-2.0-0.7","3791","2","9","Female","approach_avoid_spark_v1","""event"",""trial"",""time""
""fullscreenenter"",""1"",""56698""
","
","
","""event"",""trial"",""time""
""fullscreenenter"",""1"",""56698""
","
","","","","","","null","<div style=""font-size:60px;"">+</div>","null","","fixation","","","","","","","","","","",""
"aa-learning-trial","40","304040","0.0-8.0-2.0-1.7","3791","2","9","Female","approach_avoid_spark_v1","""event"",""trial"",""time""
""fullscreenenter"",""1"",""56698""
","
","
","""event"",""trial"",""time""
""fullscreenenter"",""1"",""56698""
","
","","","","","","961.8999999761581","images/ball1.png","","","learning","-1","-1","1","1","practice","practice","practice","-1","","",""
"html-keyboard-response","41","304545","0.0-8.0-2.0-0.8","3791","2","9","Female","approach_avoid_spark_v1","""event"",""trial"",""time""
""fullscreenenter"",""1"",""56698""
","
","
","""event"",""trial"",""time""
""fullscreenenter"",""1"",""56698""
","
","","","","","","null","<div style=""font-size:60px;"">+</div>","null","","fixation","","","","","","","","","","",""
"aa-learning-trial","42","307552","0.0-8.0-2.0-1.8","3791","2","9","Female","approach_avoid_spark_v1","""event"",""trial"",""time""
""fullscreenenter"",""1"",""56698""
","
","
","""event"",""trial"",""time""
""fullscreenenter"",""1"",""56698""
","
","","","","","","560.0999999940395","images/ball3.png","","","learning","9","9","1","1","practice","practice","practice","-1","","",""
"html-keyboard-response","43","308057","0.0-8.0-2.0-0.9","3791","2","9","Female","approach_avoid_spark_v1","""event"",""trial"",""time""
""fullscreenenter"",""1"",""56698""
","
","
","""event"",""trial"",""time""
""fullscreenenter"",""1"",""56698""
","
","","","","","","null","<div style=""font-size:60px;"">+</div>","null","","fixation","","","","","","","","","","",""
"aa-learning-trial","44","311064","0.0-8.0-2.0-1.9","3791","2","9","Female","approach_avoid_spark_v1","""event"",""trial"",""time""
""fullscreenenter"",""1"",""56698""
","
","
","""event"",""trial"",""time""
""fullscreenenter"",""1"",""56698""
","
","","","","","","850.7000000178814","images/racket3.png","","","learning","7","0","0","0","practice","practice","practice","-1","","",""
"html-keyboard-response","45","311568","0.0-8.0-2.0-0.10","3791","2","9","Female","approach_avoid_spark_v1","""event"",""trial"",""time""
""fullscreenenter"",""1"",""56698""
","
","
","""event"",""trial"",""time""
""fullscreenenter"",""1"",""56698""
","
","","","","","","null","<div style=""font-size:60px;"">+</div>","null","","fixation","","","","","","","","","","",""
"aa-learning-trial","46","314576","0.0-8.0-2.0-1.10","3791","2","9","Female","approach_avoid_spark_v1","""event"",""trial"",""time""
""fullscreenenter"",""1"",""56698""
","
","
","""event"",""trial"",""time""
""fullscreenenter"",""1"",""56698""
","
","","","","","","790.8000000119209","images/ball2.png","","","learning","-7","-7","1","1","practice","practice","practice","-1","","",""
"html-keyboard-response","47","315080","0.0-8.0-2.0-0.11","3791","2","9","Female","approach_avoid_spark_v1","""event"",""trial"",""time""
""fullscreenenter"",""1"",""56698""
","
","
","""event"",""trial"",""time""
""fullscreenenter"",""1"",""56698""
","
","","","","","","null","<div style=""font-size:60px;"">+</div>","null","","fixation","","","","","","","","","","",""
"aa-learning-trial","48","318088","0.0-8.0-2.0-1.11","3791","2","9","Female","approach_avoid_spark_v1","""event"",""trial"",""time""
""fullscreenenter"",""1"",""56698""
","
","
","""event"",""trial"",""time""
""fullscreenenter"",""1"",""56698""
","
","","","","","","null","images/racket2.png","","","learning","-2","-5","","null","practice","practice","practice","-1","","",""
"html-button-response","49","320372","0.0-8.0-3.0","3791","2","9","Female","approach_avoid_spark_v1","""event"",""trial"",""time""
""fullscreenenter"",""1"",""56698""
","
","
","""event"",""trial"",""time""
""fullscreenenter"",""1"",""56698""
","
","","","","","","2281.2000000178814","<p> You earned 6 points in the practice round! </p>","0","","break","","","","","","","","","","",""
"learning-instructions","50","328722","0.0-8.0-4.0-0.0","3791","2","9","Female","approach_avoid_spark_v1","""event"",""trial"",""time""
""fullscreenenter"",""1"",""56698""
","
","
","""event"",""trial"",""time""
""fullscreenenter"",""1"",""56698""
","
","","","","","","2290.300000011921","<p> It's almost time to start the real game. </p><p> Before you start, we're going to ask you a few questions about how the game works. </p>","","0","instructions","","","","","","","","","","",""
"preload","51","329924","0.0-8.0-5.0","3791","2","9","Female","approach_avoid_spark_v1","""event"",""trial"",""time""
""fullscreenenter"",""1"",""56698""
","
","
","""event"",""trial"",""time""
""fullscreenenter"",""1"",""56698""
","
","true","false","[]","[]","[]","","","","","","","","","","","","","","","",""
"comp-q","52","338222","0.0-8.0-6.0-0.0","3791","2","9","Female","approach_avoid_spark_v1","""event"",""trial"",""time""
""fullscreenenter"",""1"",""56698""
","
","
","""event"",""trial"",""time""
""fullscreenenter"",""1"",""56698""
","
","","","","","","3304.2000000178814","<p> <b> True or False? </b> </p><p> If you see a number in GREY, that means you earned that many points. </p>","","1","comp_question","","","","","","","","","true","",""
"comp-q","53","353889","0.0-8.0-6.0-1.0","3791","2","9","Female","approach_avoid_spark_v1","""event"",""trial"",""time""
""fullscreenenter"",""1"",""56698""
","
","
","""event"",""trial"",""time""
""fullscreenenter"",""1"",""56698""
","
","","","","","","7310.300000011921","<p><b> That's right! </b> If you see a grey number, it means you earned ZERO points. <br> The grey numbers show the points you WOULD HAVE earned if you had made the other choice. </p>","","0","comp_answer","","","","","","","","","","",""
"comp-q","54","360189","0.0-8.0-7.0-0.0","3791","2","9","Female","approach_avoid_spark_v1","""event"",""trial"",""time""
""fullscreenenter"",""1"",""56698""
","
","
","""event"",""trial"",""time""
""fullscreenenter"",""1"",""56698""
","
","","","","","","1605","<p> <b> True or False? </b> </p><p> You will have as much time as you want to make each choice. </p>","","1","comp_question","","","","","","","","","true","",""
"comp-q","55","368138","0.0-8.0-7.0-1.0","3791","2","9","Female","approach_avoid_spark_v1","""event"",""trial"",""time""
""fullscreenenter"",""1"",""56698""
","
","
","""event"",""trial"",""time""
""fullscreenenter"",""1"",""56698""
","
","","","","","","3907.2000000178814","<p> <b> That's right! </b> You will only have 3 seconds to make each choice. </p>","","0","comp_answer","","","","","","","","","","",""
"comp-q","56","375640","0.0-8.0-8.0-0.0","3791","2","9","Female","approach_avoid_spark_v1","""event"",""trial"",""time""
""fullscreenenter"",""1"",""56698""
","
","
","""event"",""trial"",""time""
""fullscreenenter"",""1"",""56698""
","
","","","","","","2840.0999999940395","<p> <b> True or False? </b> </p><p> You should use the '1' and '0' keys to make your choices. </p>","","0","comp_question","","","","","","","","","true","",""
"comp-q","57","382489","0.0-8.0-8.0-1.0","3791","2","9","Female","approach_avoid_spark_v1","""event"",""trial"",""time""
""fullscreenenter"",""1"",""56698""
","
","
","""event"",""trial"",""time""
""fullscreenenter"",""1"",""56698""
","
","","","","","","2236.5999999940395","<p> <b> That's right! </b> You should use the '1' and '0' keys to make each choice. </p>","","0","comp_answer","","","","","","","","","","",""
"learning-instructions","58","391374","0.0-8.0-9.0-0.0","3791","2","9","Female","approach_avoid_spark_v1","""event"",""trial"",""time""
""fullscreenenter"",""1"",""56698""
","
","
","""event"",""trial"",""time""
""fullscreenenter"",""1"",""56698""
","
","","","","","","2617.199999988079","<p> It's now time to start the real game. </p>Do your best, because the points you earn in the next rounds will influence your bonus payment. </p>","","0","instructions","","","","","","","","","","",""
"preload","59","391495","0.0-9.0-0.0","3791","2","9","Female","approach_avoid_spark_v1","""event"",""trial"",""time""
""fullscreenenter"",""1"",""56698""
","
","
","""event"",""trial"",""time""
""fullscreenenter"",""1"",""56698""
","
","true","false","[]","[]","[]","","","","","","","","","","","","","","","",""
"learning-instructions","60","398507","0.0-9.0-1.0-0.0","3791","2","9","Female","approach_avoid_spark_v1","""event"",""trial"",""time""
""fullscreenenter"",""1"",""56698""
","
","
","""event"",""trial"",""time""
""fullscreenenter"",""1"",""56698""
","
","","","","","","2523.4000000059605","<p> Your goal in this round is to decorate your friend's new house with furniture. </p></div>","","0","instructions","","","","","","","","","","",""
"learning-instructions","61","412507","0.0-9.0-1.0-0.1","3791","2","9","Female","approach_avoid_spark_v1","""event"",""trial"",""time""
""fullscreenenter"",""1"",""56698""
","
","
","""event"",""trial"",""time""
""fullscreenenter"",""1"",""56698""
","
","","","","","","2161.9000000059605","<p> Your friend likes some pieces of furniture but not others.  </p><p> On each turn, you will see a piece of furniture.   </p><p> You need to decide whether to put it in your friend's house or not.  </p>","","0","instructions","","","","","","","","","","",""
"learning-instructions","62","420090","0.0-9.0-1.0-0.2","3791","2","9","Female","approach_avoid_spark_v1","""event"",""trial"",""time""
""fullscreenenter"",""1"",""56698""
","
","
","""event"",""trial"",""time""
""fullscreenenter"",""1"",""56698""
","
","","","","","","2054","<p> You can put the furniture in her house by pressing 1 and deliver it elsewhere by pressing 0. </p><br><div class=""choice-instructions-grid""> <div class=""choice-option""><img src=""images/approach.png"" class=""choice-option-img"" stage=""instructions"" position=""0"" ><div class=""choice-option-text""> Press ""1."" </div></div><div class=""choice-option""><img src=""images/avoid.png"" class=""choice-option-img"" stage=""instructions"" position=""1"" ><div class=""choice-option-text""> Press ""0."" </div></div>","","0","instructions","","","","","","","","","","",""
"learning-instructions","63","429924","0.0-9.0-1.0-0.3","3791","2","9","Female","approach_avoid_spark_v1","""event"",""trial"",""time""
""fullscreenenter"",""1"",""56698""
","
","
","""event"",""trial"",""time""
""fullscreenenter"",""1"",""56698""
","
","","","","","","1108.8999999761581","<p> If you decorate your friend's house with furniture she likes, she will be happy! </p><p> But if you give her furniture that she does not like, she will be annoyed. </p>","","0","instructions","","","","","","","","","","",""
"learning-instructions","64","446524","0.0-9.0-1.0-0.4","3791","2","9","Female","approach_avoid_spark_v1","""event"",""trial"",""time""
""fullscreenenter"",""1"",""56698""
","
","
","""event"",""trial"",""time""
""fullscreenenter"",""1"",""56698""
","
","","","","","","4701","<p> You will earn points based on how you made your friend feel. </p><p> If you made her happy, you will WIN anywhere from 1 - 9 points, </p><p> but if you made her annoyed you will LOSE anywhere from 1 - 9 points. </p>","","0","instructions","","","","","","","","","","",""
"learning-instructions","65","456175","0.0-9.0-1.0-0.5","3791","2","9","Female","approach_avoid_spark_v1","""event"",""trial"",""time""
""fullscreenenter"",""1"",""56698""
","
","
","""event"",""trial"",""time""
""fullscreenenter"",""1"",""56698""
","
","","","","","","2266.699999988079","<p> You will see how many points you won or lost in the center of the screen. </p><p> Here is what you would see if you won 5 points: </p><p style=""color:green;font-size:50px;font-weight:bolder"">5</p>","","0","instructions","","","","","","","","","","",""
"learning-instructions","66","460591","0.0-9.0-1.0-0.6","3791","2","9","Female","approach_avoid_spark_v1","""event"",""trial"",""time""
""fullscreenenter"",""1"",""56698""
","
","
","""event"",""trial"",""time""
""fullscreenenter"",""1"",""56698""
","
","","","","","","1086.9000000059605","<p> And here is what you would see if you lost 3 points: </p><p style=""color:red;font-size:50px;font-weight:bolder"">-3</p>","","0","instructions","","","","","","","","","","",""
"learning-instructions","67","480658","0.0-9.0-1.0-0.7","3791","2","9","Female","approach_avoid_spark_v1","""event"",""trial"",""time""
""fullscreenenter"",""1"",""56698""
","
","
","""event"",""trial"",""time""
""fullscreenenter"",""1"",""56698""
","
","","","","","","3065.2999999821186","<p> Some pieces of furniture will make her feel very happy or very annoyed. </p><p> These pieces of furniture will make you win or lose LOTS of points. </p><p> Other pieces of furniture will only make her feel a little happy or a little annoyed. </p><p> These pieces of furniture will make you win or lose small amounts of points. </p>","","0","instructions","","","","","","","","","","",""
"learning-instructions","68","497342","0.0-9.0-1.0-0.8","3791","2","9","Female","approach_avoid_spark_v1","""event"",""trial"",""time""
""fullscreenenter"",""1"",""56698""
","
","
","""event"",""trial"",""time""
""fullscreenenter"",""1"",""56698""
","
","","","","","","4083.5999999940395","<p> If you choose to deliver a piece of furniture elsewhere, you will not win or lose any points. </p><p>  However, in the center of the screen, you will see the number of points you WOULD HAVE won or lost if you had given the furniture to your friend. </p>","","0","instructions","","","","","","","","","","",""
"learning-instructions","69","511060","0.0-9.0-1.0-0.9","3791","2","9","Female","approach_avoid_spark_v1","""event"",""trial"",""time""
""fullscreenenter"",""1"",""56698""
","
","
","""event"",""trial"",""time""
""fullscreenenter"",""1"",""56698""
","
","","","","","","2517.300000011921","<p> Here is what you might see if you did not give a piece of furniture to your friend that would have made her happy: </p><p style=""color:grey; font-size:50px; display: inline-block; border-spacing: 15px; border-width:3px; border-style:solid; border-color:red"">  &nbsp; 6 &nbsp; </p><p> Remember, in this case, you would not win or lose ANY points because you did not give her the furniture.  </p>","","0","instructions","","","","","","","","","","",""
"learning-instructions","70","519493","0.0-9.0-1.0-0.10","3791","2","9","Female","approach_avoid_spark_v1","""event"",""trial"",""time""
""fullscreenenter"",""1"",""56698""
","
","
","""event"",""trial"",""time""
""fullscreenenter"",""1"",""56698""
","
","","","","","","1047","<p> Try to make the best choice for each piece of furniture because </p><p> at the end of the game, you will earn bonus money based on how many points you earned. </p>","","0","instructions","","","","","","","","","","",""
"learning-instructions","71","528876","0.0-9.0-1.0-0.11","3791","2","9","Female","approach_avoid_spark_v1","""event"",""trial"",""time""
""fullscreenenter"",""1"",""56698""
","
","
","""event"",""trial"",""time""
""fullscreenenter"",""1"",""56698""
","
","","","","","","1194.5","<p> You will have 3 seconds to make each choice. Try to respond before time runs out! </p><p> You will lose 5 points each time you do not make a response. </p>","","0","instructions","","","","","","","","","","",""
"html-keyboard-response","72","529486","0.0-9.0-2.0-0.0","3791","2","9","Female","approach_avoid_spark_v1","""event"",""trial"",""time""
""fullscreenenter"",""1"",""56698""
","
","
","""event"",""trial"",""time""
""fullscreenenter"",""1"",""56698""
","
","","","","","","null","<div style=""font-size:60px;"">+</div>","null","","fixation","","","","","","","","","","",""
"aa-learning-trial","73","532492","0.0-9.0-2.0-1.0","3791","2","9","Female","approach_avoid_spark_v1","""event"",""trial"",""time""
""fullscreenenter"",""1"",""56698""
","
","
","""event"",""trial"",""time""
""fullscreenenter"",""1"",""56698""
","
","","","","","","null","images/table7.png","","","learning","9","-5","","null","table","furniture","2","0","","good","[6]"
"html-keyboard-response","74","532997","0.0-9.0-2.0-0.1","3791","2","9","Female","approach_avoid_spark_v1","""event"",""trial"",""time""
""fullscreenenter"",""1"",""56698""
","
","
","""event"",""trial"",""time""
""fullscreenenter"",""1"",""56698""
","
","","","","","","null","<div style=""font-size:60px;"">+</div>","null","","fixation","","","","","","","","","","",""
"aa-learning-trial","75","536005","0.0-9.0-2.0-1.1","3791","2","9","Female","approach_avoid_spark_v1","""event"",""trial"",""time""
""fullscreenenter"",""1"",""56698""
","
","
","""event"",""trial"",""time""
""fullscreenenter"",""1"",""56698""
","
","","","","","","1957.2000000178814","images/table2.png","","","learning","-3","-3","1","1","table","furniture","2","0","","good","[6]"
"html-keyboard-response","76","536510","0.0-9.0-2.0-0.2","3791","2","9","Female","approach_avoid_spark_v1","""event"",""trial"",""time""
""fullscreenenter"",""1"",""56698""
","
","
","""event"",""trial"",""time""
""fullscreenenter"",""1"",""56698""
","
","","","","","","null","<div style=""font-size:60px;"">+</div>","null","","fixation","","","","","","","","","","",""
"aa-learning-trial","77","539517","0.0-9.0-2.0-1.2","3791","2","9","Female","approach_avoid_spark_v1","""event"",""trial"",""time""
""fullscreenenter"",""1"",""56698""
","
","
","""event"",""trial"",""time""
""fullscreenenter"",""1"",""56698""
","
","","","","","","1805.5","images/chair2.png","","","learning","-9","0","0","0","chair","furniture","2","0","","neutral","0"
"html-keyboard-response","78","540021","0.0-9.0-2.0-0.3","3791","2","9","Female","approach_avoid_spark_v1","""event"",""trial"",""time""
""fullscreenenter"",""1"",""56698""
","
","
","""event"",""trial"",""time""
""fullscreenenter"",""1"",""56698""
","
","","","","","","null","<div style=""font-size:60px;"">+</div>","null","","fixation","","","","","","","","","","",""
"aa-learning-trial","79","543032","0.0-9.0-2.0-1.3","3791","2","9","Female","approach_avoid_spark_v1","""event"",""trial"",""time""
""fullscreenenter"",""1"",""56698""
","
","
","""event"",""trial"",""time""
""fullscreenenter"",""1"",""56698""
","
","","","","","","1435.300000011921","images/chair7.png","","","learning","4","0","0","0","chair","furniture","2","0","","neutral","0"
"html-keyboard-response","80","543540","0.0-9.0-2.0-0.4","3791","2","9","Female","approach_avoid_spark_v1","""event"",""trial"",""time""
""fullscreenenter"",""1"",""56698""
","
","
","""event"",""trial"",""time""
""fullscreenenter"",""1"",""56698""
","
","","","","","","null","<div style=""font-size:60px;"">+</div>","null","","fixation","","","","","","","","","","",""
"aa-learning-trial","81","546552","0.0-9.0-2.0-1.4","3791","2","9","Female","approach_avoid_spark_v1","""event"",""trial"",""time""
""fullscreenenter"",""1"",""56698""
","
","
","""event"",""trial"",""time""
""fullscreenenter"",""1"",""56698""
","
","","","","","","803.6999999880791","images/table8.png","","","learning","-6","-6","1","1","table","furniture","2","0","","good","[6]"
"html-keyboard-response","82","547060","0.0-9.0-2.0-0.5","3791","2","9","Female","approach_avoid_spark_v1","""event"",""trial"",""time""
""fullscreenenter"",""1"",""56698""
","
","
","""event"",""trial"",""time""
""fullscreenenter"",""1"",""56698""
","
","","","","","","null","<div style=""font-size:60px;"">+</div>","null","","fixation","","","","","","","","","","",""
"aa-learning-trial","83","550070","0.0-9.0-2.0-1.5","3791","2","9","Female","approach_avoid_spark_v1","""event"",""trial"",""time""
""fullscreenenter"",""1"",""56698""
","
","
","""event"",""trial"",""time""
""fullscreenenter"",""1"",""56698""
","
","","","","","","1922.7999999821186","images/chair7.png","","","learning","4","4","1","1","chair","furniture","2","0","","neutral","0"
"html-keyboard-response","84","550574","0.0-9.0-2.0-0.6","3791","2","9","Female","approach_avoid_spark_v1","""event"",""trial"",""time""
""fullscreenenter"",""1"",""56698""
","
","
","""event"",""trial"",""time""
""fullscreenenter"",""1"",""56698""
","
","","","","","","null","<div style=""font-size:60px;"">+</div>","null","","fixation","","","","","","","","","","",""
"aa-learning-trial","85","553580","0.0-9.0-2.0-1.6","3791","2","9","Female","approach_avoid_spark_v1","""event"",""trial"",""time""
""fullscreenenter"",""1"",""56698""
","
","
","""event"",""trial"",""time""
""fullscreenenter"",""1"",""56698""
","
","","","","","","1373.0999999940395","images/chair8.png","","","learning","-4","-4","1","1","chair","furniture","2","0","","neutral","0"
"html-keyboard-response","86","554086","0.0-9.0-2.0-0.7","3791","2","9","Female","approach_avoid_spark_v1","""event"",""trial"",""time""
""fullscreenenter"",""1"",""56698""
","
","
","""event"",""trial"",""time""
""fullscreenenter"",""1"",""56698""
","
","","","","","","null","<div style=""font-size:60px;"">+</div>","null","","fixation","","","","","","","","","","",""
"aa-learning-trial","87","557092","0.0-9.0-2.0-1.7","3791","2","9","Female","approach_avoid_spark_v1","""event"",""trial"",""time""
""fullscreenenter"",""1"",""56698""
","
","
","""event"",""trial"",""time""
""fullscreenenter"",""1"",""56698""
","
","","","","","","2118.5","images/sofa8.png","","","learning","-5","-5","2","","sofa","furniture","2","0","","bad","[-5]"
"html-keyboard-response","88","557596","0.0-9.0-2.0-0.8","3791","2","9","Female","approach_avoid_spark_v1","""event"",""trial"",""time""
""fullscreenenter"",""1"",""56698""
","
","
","""event"",""trial"",""time""
""fullscreenenter"",""1"",""56698""
","
","","","","","","null","<div style=""font-size:60px;"">+</div>","null","","fixation","","","","","","","","","","",""
"aa-learning-trial","89","560606","0.0-9.0-2.0-1.8","3791","2","9","Female","approach_avoid_spark_v1","""event"",""trial"",""time""
""fullscreenenter"",""1"",""56698""
","
","
","""event"",""trial"",""time""
""fullscreenenter"",""1"",""56698""
","
","","","","","","853","images/sofa7.png","","","learning","3","0","0","0","sofa","furniture","2","0","","bad","[-5]"
"html-keyboard-response","90","561117","0.0-9.0-2.0-0.9","3791","2","9","Female","approach_avoid_spark_v1","""event"",""trial"",""time""
""fullscreenenter"",""1"",""56698""
","
","
","""event"",""trial"",""time""
""fullscreenenter"",""1"",""56698""
","
","","","","","","null","<div style=""font-size:60px;"">+</div>","null","","fixation","","","","","","","","","","",""
"aa-learning-trial","91","564124","0.0-9.0-2.0-1.9","3791","2","9","Female","approach_avoid_spark_v1","""event"",""trial"",""time""
""fullscreenenter"",""1"",""56698""
","
","
","""event"",""trial"",""time""
""fullscreenenter"",""1"",""56698""
","
","","","","","","1403.0999999940395","images/sofa3.png","","","learning","2","-5","2","","sofa","furniture","2","0","","bad","[-5]"
"html-keyboard-response","92","564629","0.0-9.0-2.0-0.10","3791","2","9","Female","approach_avoid_spark_v1","""event"",""trial"",""time""
""fullscreenenter"",""1"",""56698""
","
","
","""event"",""trial"",""time""
""fullscreenenter"",""1"",""56698""
","
","","","","","","null","<div style=""font-size:60px;"">+</div>","null","","fixation","","","","","","","","","","",""
"aa-learning-trial","93","567636","0.0-9.0-2.0-1.10","3791","2","9","Female","approach_avoid_spark_v1","""event"",""trial"",""time""
""fullscreenenter"",""1"",""56698""
","
","
","""event"",""trial"",""time""
""fullscreenenter"",""1"",""56698""
","
","","","","","","1024.5","images/chair2.png","","","learning","-9","0","0","0","chair","furniture","2","0","","neutral","0"
"html-keyboard-response","94","568140","0.0-9.0-2.0-0.11","3791","2","9","Female","approach_avoid_spark_v1","""event"",""trial"",""time""
""fullscreenenter"",""1"",""56698""
","
","
","""event"",""trial"",""time""
""fullscreenenter"",""1"",""56698""
","
","","","","","","null","<div style=""font-size:60px;"">+</div>","null","","fixation","","","","","","","","","","",""
"aa-learning-trial","95","571144","0.0-9.0-2.0-1.11","3791","2","9","Female","approach_avoid_spark_v1","""event"",""trial"",""time""
""fullscreenenter"",""1"",""56698""
","
","
","""event"",""trial"",""time""
""fullscreenenter"",""1"",""56698""
","
","","","","","","2835.199999988079","images/sofa8.png","","","learning","-5","0","0","0","sofa","furniture","2","0","","bad","[-5]"
"html-keyboard-response","96","571646","0.0-9.0-2.0-0.12","3791","2","9","Female","approach_avoid_spark_v1","""event"",""trial"",""time""
""fullscreenenter"",""1"",""56698""
","
","
","""event"",""trial"",""time""
""fullscreenenter"",""1"",""56698""
","
","","","","","","null","<div style=""font-size:60px;"">+</div>","null","","fixation","","","","","","","","","","",""
"aa-learning-trial","97","574654","0.0-9.0-2.0-1.12","3791","2","9","Female","approach_avoid_spark_v1","""event"",""trial"",""time""
""fullscreenenter"",""1"",""56698""
","
","
","""event"",""trial"",""time""
""fullscreenenter"",""1"",""56698""
","
","","","","","","1918.699999988079","images/sofa3.png","","","learning","2","2","1","1","sofa","furniture","2","0","","bad","[-5]"
"html-keyboard-response","98","575166","0.0-9.0-2.0-0.13","3791","2","9","Female","approach_avoid_spark_v1","""event"",""trial"",""time""
""fullscreenenter"",""1"",""56698""
","
","
","""event"",""trial"",""time""
""fullscreenenter"",""1"",""56698""
","
","","","","","","null","<div style=""font-size:60px;"">+</div>","null","","fixation","","","","","","","","","","",""
"aa-learning-trial","99","578172","0.0-9.0-2.0-1.13","3791","2","9","Female","approach_avoid_spark_v1","""event"",""trial"",""time""
""fullscreenenter"",""1"",""56698""
","
","
","""event"",""trial"",""time""
""fullscreenenter"",""1"",""56698""
","
","","","","","","1473.2000000178814","images/table2.png","","","learning","-3","0","0","0","table","furniture","2","0","","good","[6]"
"html-keyboard-response","100","578682","0.0-9.0-2.0-0.14","3791","2","9","Female","approach_avoid_spark_v1","""event"",""trial"",""time""
""fullscreenenter"",""1"",""56698""
","
","
","""event"",""trial"",""time""
""fullscreenenter"",""1"",""56698""
","
","","","","","","null","<div style=""font-size:60px;"">+</div>","null","","fixation","","","","","","","","","","",""
"aa-learning-trial","101","581694","0.0-9.0-2.0-1.14","3791","2","9","Female","approach_avoid_spark_v1","""event"",""trial"",""time""
""fullscreenenter"",""1"",""56698""
","
","
","""event"",""trial"",""time""
""fullscreenenter"",""1"",""56698""
","
","","","","","","2759.5","images/table8.png","","","learning","-6","0","0","0","table","furniture","2","0","","good","[6]"
"html-keyboard-response","102","582205","0.0-9.0-2.0-0.15","3791","2","9","Female","approach_avoid_spark_v1","""event"",""trial"",""time""
""fullscreenenter"",""1"",""56698""
","
","
","""event"",""trial"",""time""
""fullscreenenter"",""1"",""56698""
","
","","","","","","null","<div style=""font-size:60px;"">+</div>","null","","fixation","","","","","","","","","","",""
"aa-learning-trial","103","585212","0.0-9.0-2.0-1.15","3791","2","9","Female","approach_avoid_spark_v1","""event"",""trial"",""time""
""fullscreenenter"",""1"",""56698""
","
","
","""event"",""trial"",""time""
""fullscreenenter"",""1"",""56698""
","
","","","","","","null","images/sofa3.png","","","learning","2","-5","","null","sofa","furniture","2","0","","bad","[-5]"
"html-keyboard-response","104","585717","0.0-9.0-2.0-0.16","3791","2","9","Female","approach_avoid_spark_v1","""event"",""trial"",""time""
""fullscreenenter"",""1"",""56698""
","
","
","""event"",""trial"",""time""
""fullscreenenter"",""1"",""56698""
","
","","","","","","null","<div style=""font-size:60px;"">+</div>","null","","fixation","","","","","","","","","","",""
"aa-learning-trial","105","588724","0.0-9.0-2.0-1.16","3791","2","9","Female","approach_avoid_spark_v1","""event"",""trial"",""time""
""fullscreenenter"",""1"",""56698""
","
","
","""event"",""trial"",""time""
""fullscreenenter"",""1"",""56698""
","
","","","","","","1166.9000000059605","images/chair2.png","","","learning","-9","-9","1","1","chair","furniture","2","0","","neutral","0"
"html-keyboard-response","106","589235","0.0-9.0-2.0-0.17","3791","2","9","Female","approach_avoid_spark_v1","""event"",""trial"",""time""
""fullscreenenter"",""1"",""56698""
","
","
","""event"",""trial"",""time""
""fullscreenenter"",""1"",""56698""
","
","","","","","","null","<div style=""font-size:60px;"">+</div>","null","","fixation","","","","","","","","","","",""
"aa-learning-trial","107","592242","0.0-9.0-2.0-1.17","3791","2","9","Female","approach_avoid_spark_v1","""event"",""trial"",""time""
""fullscreenenter"",""1"",""56698""
","
","
","""event"",""trial"",""time""
""fullscreenenter"",""1"",""56698""
","
","","","","","","null","images/chair7.png","","","learning","4","-5","","null","chair","furniture","2","0","","neutral","0"
"html-keyboard-response","108","592747","0.0-9.0-2.0-0.18","3791","2","9","Female","approach_avoid_spark_v1","""event"",""trial"",""time""
""fullscreenenter"",""1"",""56698""
","
","
","""event"",""trial"",""time""
""fullscreenenter"",""1"",""56698""
","
","","","","","","null","<div style=""font-size:60px;"">+</div>","null","","fixation","","","","","","","","","","",""
"aa-learning-trial","109","595753","0.0-9.0-2.0-1.18","3791","2","9","Female","approach_avoid_spark_v1","""event"",""trial"",""time""
""fullscreenenter"",""1"",""56698""
","
","
","""event"",""trial"",""time""
""fullscreenenter"",""1"",""56698""
","
","","","","","","965.6999999880791","images/chair7.png","","","learning","4","4","1","1","chair","furniture","2","0","","neutral","0"
"html-keyboard-response","110","596258","0.0-9.0-2.0-0.19","3791","2","9","Female","approach_avoid_spark_v1","""event"",""trial"",""time""
""fullscreenenter"",""1"",""56698""
","
","
","""event"",""trial"",""time""
""fullscreenenter"",""1"",""56698""
","
","","","","","","null","<div style=""font-size:60px;"">+</div>","null","","fixation","","","","","","","","","","",""
"aa-learning-trial","111","599265","0.0-9.0-2.0-1.19","3791","2","9","Female","approach_avoid_spark_v1","""event"",""trial"",""time""
""fullscreenenter"",""1"",""56698""
","
","
","""event"",""trial"",""time""
""fullscreenenter"",""1"",""56698""
","
","","","","","","1579.199999988079","images/sofa8.png","","","learning","-5","0","0","0","sofa","furniture","2","0","","bad","[-5]"
"html-keyboard-response","112","599770","0.0-9.0-2.0-0.20","3791","2","9","Female","approach_avoid_spark_v1","""event"",""trial"",""time""
""fullscreenenter"",""1"",""56698""
","
","
","""event"",""trial"",""time""
""fullscreenenter"",""1"",""56698""
","
","","","","","","null","<div style=""font-size:60px;"">+</div>","null","","fixation","","","","","","","","","","",""
"aa-learning-trial","113","602777","0.0-9.0-2.0-1.20","3791","2","9","Female","approach_avoid_spark_v1","""event"",""trial"",""time""
""fullscreenenter"",""1"",""56698""
","
","
","""event"",""trial"",""time""
""fullscreenenter"",""1"",""56698""
","
","","","","","","2270.300000011921","images/chair8.png","","","learning","-4","0","0","0","chair","furniture","2","0","","neutral","0"
"html-keyboard-response","114","603282","0.0-9.0-2.0-0.21","3791","2","9","Female","approach_avoid_spark_v1","""event"",""trial"",""time""
""fullscreenenter"",""1"",""56698""
","
","
","""event"",""trial"",""time""
""fullscreenenter"",""1"",""56698""
","
","","","","","","null","<div style=""font-size:60px;"">+</div>","null","","fixation","","","","","","","","","","",""
"aa-learning-trial","115","606292","0.0-9.0-2.0-1.21","3791","2","9","Female","approach_avoid_spark_v1","""event"",""trial"",""time""
""fullscreenenter"",""1"",""56698""
","
","
","""event"",""trial"",""time""
""fullscreenenter"",""1"",""56698""
","
","","","","","","1033","images/table2.png","","","learning","-3","-3","1","1","table","furniture","2","0","","good","[6]"
"html-keyboard-response","116","606793","0.0-9.0-2.0-0.22","3791","2","9","Female","approach_avoid_spark_v1","""event"",""trial"",""time""
""fullscreenenter"",""1"",""56698""
","
","
","""event"",""trial"",""time""
""fullscreenenter"",""1"",""56698""
","
","","","","","","null","<div style=""font-size:60px;"">+</div>","null","","fixation","","","","","","","","","","",""
"aa-learning-trial","117","609801","0.0-9.0-2.0-1.22","3791","2","9","Female","approach_avoid_spark_v1","""event"",""trial"",""time""
""fullscreenenter"",""1"",""56698""
","
","
","""event"",""trial"",""time""
""fullscreenenter"",""1"",""56698""
","
","","","","","","1770.8999999761581","images/chair2.png","","","learning","-9","-9","1","1","chair","furniture","2","0","","neutral","0"
"html-keyboard-response","118","610305","0.0-9.0-2.0-0.23","3791","2","9","Female","approach_avoid_spark_v1","""event"",""trial"",""time""
""fullscreenenter"",""1"",""56698""
","
","
","""event"",""trial"",""time""
""fullscreenenter"",""1"",""56698""
","
","","","","","","null","<div style=""font-size:60px;"">+</div>","null","","fixation","","","","","","","","","","",""
"aa-learning-trial","119","613310","0.0-9.0-2.0-1.23","3791","2","9","Female","approach_avoid_spark_v1","""event"",""trial"",""time""
""fullscreenenter"",""1"",""56698""
","
","
","""event"",""trial"",""time""
""fullscreenenter"",""1"",""56698""
","
","","","","","","2696.0999999940395","images/table8.png","","","learning","-6","0","0","0","table","furniture","2","0","","good","[6]"
"html-keyboard-response","120","613818","0.0-9.0-2.0-0.24","3791","2","9","Female","approach_avoid_spark_v1","""event"",""trial"",""time""
""fullscreenenter"",""1"",""56698""
","
","
","""event"",""trial"",""time""
""fullscreenenter"",""1"",""56698""
","
","","","","","","null","<div style=""font-size:60px;"">+</div>","null","","fixation","","","","","","","","","","",""
"aa-learning-trial","121","616825","0.0-9.0-2.0-1.24","3791","2","9","Female","approach_avoid_spark_v1","""event"",""trial"",""time""
""fullscreenenter"",""1"",""56698""
","
","
","""event"",""trial"",""time""
""fullscreenenter"",""1"",""56698""
","
","","","","","","1294","images/table7.png","","","learning","9","0","0","0","table","furniture","2","0","","good","[6]"
"html-keyboard-response","122","617329","0.0-9.0-2.0-0.25","3791","2","9","Female","approach_avoid_spark_v1","""event"",""trial"",""time""
""fullscreenenter"",""1"",""56698""
","
","
","""event"",""trial"",""time""
""fullscreenenter"",""1"",""56698""
","
","","","","","","null","<div style=""font-size:60px;"">+</div>","null","","fixation","","","","","","","","","","",""
"aa-learning-trial","123","620336","0.0-9.0-2.0-1.25","3791","2","9","Female","approach_avoid_spark_v1","""event"",""trial"",""time""
""fullscreenenter"",""1"",""56698""
","
","
","""event"",""trial"",""time""
""fullscreenenter"",""1"",""56698""
","
","","","","","","1191.0999999940395","images/chair2.png","","","learning","-9","-9","1","1","chair","furniture","2","0","","neutral","0"
"html-keyboard-response","124","620841","0.0-9.0-2.0-0.26","3791","2","9","Female","approach_avoid_spark_v1","""event"",""trial"",""time""
""fullscreenenter"",""1"",""56698""
","
","
","""event"",""trial"",""time""
""fullscreenenter"",""1"",""56698""
","
","","","","","","null","<div style=""font-size:60px;"">+</div>","null","","fixation","","","","","","","","","","",""
"aa-learning-trial","125","623848","0.0-9.0-2.0-1.26","3791","2","9","Female","approach_avoid_spark_v1","""event"",""trial"",""time""
""fullscreenenter"",""1"",""56698""
","
","
","""event"",""trial"",""time""
""fullscreenenter"",""1"",""56698""
","
","","","","","","1850.0999999940395","images/sofa3.png","","","learning","2","0","0","0","sofa","furniture","2","0","","bad","[-5]"
"html-keyboard-response","126","624354","0.0-9.0-2.0-0.27","3791","2","9","Female","approach_avoid_spark_v1","""event"",""trial"",""time""
""fullscreenenter"",""1"",""56698""
","
","
","""event"",""trial"",""time""
""fullscreenenter"",""1"",""56698""
","
","","","","","","null","<div style=""font-size:60px;"">+</div>","null","","fixation","","","","","","","","","","",""
"aa-learning-trial","127","627360","0.0-9.0-2.0-1.27","3791","2","9","Female","approach_avoid_spark_v1","""event"",""trial"",""time""
""fullscreenenter"",""1"",""56698""
","
","
","""event"",""trial"",""time""
""fullscreenenter"",""1"",""56698""
","
","","","","","","2055.699999988079","images/table6.png","","","learning","-1","-1","1","1","table","furniture","2","0","","good","[6]"
"html-keyboard-response","128","627865","0.0-9.0-2.0-0.28","3791","2","9","Female","approach_avoid_spark_v1","""event"",""trial"",""time""
""fullscreenenter"",""1"",""56698""
","
","
","""event"",""trial"",""time""
""fullscreenenter"",""1"",""56698""
","
","","","","","","null","<div style=""font-size:60px;"">+</div>","null","","fixation","","","","","","","","","","",""
"aa-learning-trial","129","630872","0.0-9.0-2.0-1.28","3791","2","9","Female","approach_avoid_spark_v1","""event"",""trial"",""time""
""fullscreenenter"",""1"",""56698""
","
","
","""event"",""trial"",""time""
""fullscreenenter"",""1"",""56698""
","
","","","","","","2045.9000000059605","images/table2.png","","","learning","-3","-3","1","1","table","furniture","2","0","","good","[6]"
"html-keyboard-response","130","631377","0.0-9.0-2.0-0.29","3791","2","9","Female","approach_avoid_spark_v1","""event"",""trial"",""time""
""fullscreenenter"",""1"",""56698""
","
","
","""event"",""trial"",""time""
""fullscreenenter"",""1"",""56698""
","
","","","","","","null","<div style=""font-size:60px;"">+</div>","null","","fixation","","","","","","","","","","",""
"aa-learning-trial","131","634384","0.0-9.0-2.0-1.29","3791","2","9","Female","approach_avoid_spark_v1","""event"",""trial"",""time""
""fullscreenenter"",""1"",""56698""
","
","
","""event"",""trial"",""time""
""fullscreenenter"",""1"",""56698""
","
","","","","","","1641.4000000059605","images/table2.png","","","learning","-3","0","0","0","table","furniture","2","0","","good","[6]"
"html-keyboard-response","132","634888","0.0-9.0-2.0-0.30","3791","2","9","Female","approach_avoid_spark_v1","""event"",""trial"",""time""
""fullscreenenter"",""1"",""56698""
","
","
","""event"",""trial"",""time""
""fullscreenenter"",""1"",""56698""
","
","","","","","","null","<div style=""font-size:60px;"">+</div>","null","","fixation","","","","","","","","","","",""
"aa-learning-trial","133","637894","0.0-9.0-2.0-1.30","3791","2","9","Female","approach_avoid_spark_v1","""event"",""trial"",""time""
""fullscreenenter"",""1"",""56698""
","
","
","""event"",""trial"",""time""
""fullscreenenter"",""1"",""56698""
","
","","","","","","2599","images/table7.png","","","learning","9","9","1","1","table","furniture","2","0","","good","[6]"
"html-keyboard-response","134","638399","0.0-9.0-2.0-0.31","3791","2","9","Female","approach_avoid_spark_v1","""event"",""trial"",""time""
""fullscreenenter"",""1"",""56698""
","
","
","""event"",""trial"",""time""
""fullscreenenter"",""1"",""56698""
","
","","","","","","null","<div style=""font-size:60px;"">+</div>","null","","fixation","","","","","","","","","","",""
"aa-learning-trial","135","641408","0.0-9.0-2.0-1.31","3791","2","9","Female","approach_avoid_spark_v1","""event"",""trial"",""time""
""fullscreenenter"",""1"",""56698""
","
","
","""event"",""trial"",""time""
""fullscreenenter"",""1"",""56698""
","
","","","","","","1866.199999988079","images/chair2.png","","","learning","-9","-9","1","1","chair","furniture","2","0","","neutral","0"
"html-keyboard-response","136","641912","0.0-9.0-2.0-0.32","3791","2","9","Female","approach_avoid_spark_v1","""event"",""trial"",""time""
""fullscreenenter"",""1"",""56698""
","
","
","""event"",""trial"",""time""
""fullscreenenter"",""1"",""56698""
","
","","","","","","null","<div style=""font-size:60px;"">+</div>","null","","fixation","","","","","","","","","","",""
"aa-learning-trial","137","644919","0.0-9.0-2.0-1.32","3791","2","9","Female","approach_avoid_spark_v1","""event"",""trial"",""time""
""fullscreenenter"",""1"",""56698""
","
","
","""event"",""trial"",""time""
""fullscreenenter"",""1"",""56698""
","
","","","","","","1171.5999999940395","images/sofa3.png","","","learning","2","0","0","0","sofa","furniture","2","0","","bad","[-5]"
"html-keyboard-response","138","645424","0.0-9.0-2.0-0.33","3791","2","9","Female","approach_avoid_spark_v1","""event"",""trial"",""time""
""fullscreenenter"",""1"",""56698""
","
","
","""event"",""trial"",""time""
""fullscreenenter"",""1"",""56698""
","
","","","","","","null","<div style=""font-size:60px;"">+</div>","null","","fixation","","","","","","","","","","",""
"aa-learning-trial","139","648428","0.0-9.0-2.0-1.33","3791","2","9","Female","approach_avoid_spark_v1","""event"",""trial"",""time""
""fullscreenenter"",""1"",""56698""
","
","
","""event"",""trial"",""time""
""fullscreenenter"",""1"",""56698""
","
","","","","","","1735.0999999940395","images/table5.png","","","learning","5","5","1","1","table","furniture","2","0","","good","[6]"
"html-keyboard-response","140","648936","0.0-9.0-2.0-0.34","3791","2","9","Female","approach_avoid_spark_v1","""event"",""trial"",""time""
""fullscreenenter"",""1"",""56698""
","
","
","""event"",""trial"",""time""
""fullscreenenter"",""1"",""56698""
","
","","","","","","null","<div style=""font-size:60px;"">+</div>","null","","fixation","","","","","","","","","","",""
"aa-learning-trial","141","651943","0.0-9.0-2.0-1.34","3791","2","9","Female","approach_avoid_spark_v1","""event"",""trial"",""time""
""fullscreenenter"",""1"",""56698""
","
","
","""event"",""trial"",""time""
""fullscreenenter"",""1"",""56698""
","
","","","","","","null","images/table8.png","","","learning","-6","-5","","null","table","furniture","2","0","","good","[6]"
"html-keyboard-response","142","652448","0.0-9.0-2.0-0.35","3791","2","9","Female","approach_avoid_spark_v1","""event"",""trial"",""time""
""fullscreenenter"",""1"",""56698""
","
","
","""event"",""trial"",""time""
""fullscreenenter"",""1"",""56698""
","
","","","","","","null","<div style=""font-size:60px;"">+</div>","null","","fixation","","","","","","","","","","",""
"aa-learning-trial","143","655454","0.0-9.0-2.0-1.35","3791","2","9","Female","approach_avoid_spark_v1","""event"",""trial"",""time""
""fullscreenenter"",""1"",""56698""
","
","
","""event"",""trial"",""time""
""fullscreenenter"",""1"",""56698""
","
","","","","","","1179.8999999761581","images/chair6.png","","","learning","-2","0","0","0","chair","furniture","2","0","","neutral","0"
"html-keyboard-response","144","655959","0.0-9.0-2.0-0.36","3791","2","9","Female","approach_avoid_spark_v1","""event"",""trial"",""time""
""fullscreenenter"",""1"",""56698""
","
","
","""event"",""trial"",""time""
""fullscreenenter"",""1"",""56698""
","
","","","","","","null","<div style=""font-size:60px;"">+</div>","null","","fixation","","","","","","","","","","",""
"aa-learning-trial","145","658961","0.0-9.0-2.0-1.36","3791","2","9","Female","approach_avoid_spark_v1","""event"",""trial"",""time""
""fullscreenenter"",""1"",""56698""
","
","
","""event"",""trial"",""time""
""fullscreenenter"",""1"",""56698""
","
","","","","","","2435.4000000059605","images/chair3.png","","","learning","7","7","1","1","chair","furniture","2","0","","neutral","0"
"html-keyboard-response","146","659465","0.0-9.0-2.0-0.37","3791","2","9","Female","approach_avoid_spark_v1","""event"",""trial"",""time""
""fullscreenenter"",""1"",""56698""
","
","
","""event"",""trial"",""time""
""fullscreenenter"",""1"",""56698""
","
","","","","","","null","<div style=""font-size:60px;"">+</div>","null","","fixation","","","","","","","","","","",""
"aa-learning-trial","147","662473","0.0-9.0-2.0-1.37","3791","2","9","Female","approach_avoid_spark_v1","""event"",""trial"",""time""
""fullscreenenter"",""1"",""56698""
","
","
","""event"",""trial"",""time""
""fullscreenenter"",""1"",""56698""
","
","","","","","","1037.699999988079","images/sofa2.png","","","learning","8","8","1","1","sofa","furniture","2","0","","bad","[-5]"
"html-keyboard-response","148","662978","0.0-9.0-2.0-0.38","3791","2","9","Female","approach_avoid_spark_v1","""event"",""trial"",""time""
""fullscreenenter"",""1"",""56698""
","
","
","""event"",""trial"",""time""
""fullscreenenter"",""1"",""56698""
","
","","","","","","null","<div style=""font-size:60px;"">+</div>","null","","fixation","","","","","","","","","","",""
"aa-learning-trial","149","665984","0.0-9.0-2.0-1.38","3791","2","9","Female","approach_avoid_spark_v1","""event"",""trial"",""time""
""fullscreenenter"",""1"",""56698""
","
","
","""event"",""trial"",""time""
""fullscreenenter"",""1"",""56698""
","
","","","","","","2323.300000011921","images/sofa8.png","","","learning","-5","-5","1","1","sofa","furniture","2","0","","bad","[-5]"
"html-keyboard-response","150","666490","0.0-9.0-2.0-0.39","3791","2","9","Female","approach_avoid_spark_v1","""event"",""trial"",""time""
""fullscreenenter"",""1"",""56698""
","
","
","""event"",""trial"",""time""
""fullscreenenter"",""1"",""56698""
","
","","","","","","null","<div style=""font-size:60px;"">+</div>","null","","fixation","","","","","","","","","","",""
"aa-learning-trial","151","669497","0.0-9.0-2.0-1.39","3791","2","9","Female","approach_avoid_spark_v1","""event"",""trial"",""time""
""fullscreenenter"",""1"",""56698""
","
","
","""event"",""trial"",""time""
""fullscreenenter"",""1"",""56698""
","
","","","","","","null","images/sofa5.png","","","learning","-8","-5","","null","sofa","furniture","2","0","","bad","[-5]"
"html-keyboard-response","152","670002","0.0-9.0-2.0-0.40","3791","2","9","Female","approach_avoid_spark_v1","""event"",""trial"",""time""
""fullscreenenter"",""1"",""56698""
","
","
","""event"",""trial"",""time""
""fullscreenenter"",""1"",""56698""
","
","","","","","","null","<div style=""font-size:60px;"">+</div>","null","","fixation","","","","","","","","","","",""
"aa-learning-trial","153","673009","0.0-9.0-2.0-1.40","3791","2","9","Female","approach_avoid_spark_v1","""event"",""trial"",""time""
""fullscreenenter"",""1"",""56698""
","
","
","""event"",""trial"",""time""
""fullscreenenter"",""1"",""56698""
","
","","","","","","801.9000000059605","images/sofa3.png","","","learning","2","2","1","1","sofa","furniture","2","0","","bad","[-5]"
"html-keyboard-response","154","673514","0.0-9.0-2.0-0.41","3791","2","9","Female","approach_avoid_spark_v1","""event"",""trial"",""time""
""fullscreenenter"",""1"",""56698""
","
","
","""event"",""trial"",""time""
""fullscreenenter"",""1"",""56698""
","
","","","","","","null","<div style=""font-size:60px;"">+</div>","null","","fixation","","","","","","","","","","",""
"aa-learning-trial","155","676523","0.0-9.0-2.0-1.41","3791","2","9","Female","approach_avoid_spark_v1","""event"",""trial"",""time""
""fullscreenenter"",""1"",""56698""
","
","
","""event"",""trial"",""time""
""fullscreenenter"",""1"",""56698""
","
","","","","","","1939.300000011921","images/chair8.png","","","learning","-4","0","0","0","chair","furniture","2","0","","neutral","0"
"html-keyboard-response","156","677033","0.0-9.0-2.0-0.42","3791","2","9","Female","approach_avoid_spark_v1","""event"",""trial"",""time""
""fullscreenenter"",""1"",""56698""
","
","
","""event"",""trial"",""time""
""fullscreenenter"",""1"",""56698""
","
","","","","","","null","<div style=""font-size:60px;"">+</div>","null","","fixation","","","","","","","","","","",""
"aa-learning-trial","157","680045","0.0-9.0-2.0-1.42","3791","2","9","Female","approach_avoid_spark_v1","""event"",""trial"",""time""
""fullscreenenter"",""1"",""56698""
","
","
","""event"",""trial"",""time""
""fullscreenenter"",""1"",""56698""
","
","","","","","","2216","images/sofa7.png","","","learning","3","3","1","1","sofa","furniture","2","0","","bad","[-5]"
"html-keyboard-response","158","680558","0.0-9.0-2.0-0.43","3791","2","9","Female","approach_avoid_spark_v1","""event"",""trial"",""time""
""fullscreenenter"",""1"",""56698""
","
","
","""event"",""trial"",""time""
""fullscreenenter"",""1"",""56698""
","
","","","","","","null","<div style=""font-size:60px;"">+</div>","null","","fixation","","","","","","","","","","",""
"aa-learning-trial","159","683566","0.0-9.0-2.0-1.43","3791","2","9","Female","approach_avoid_spark_v1","""event"",""trial"",""time""
""fullscreenenter"",""1"",""56698""
","
","
","""event"",""trial"",""time""
""fullscreenenter"",""1"",""56698""
","
","","","","","","1207.7000000178814","images/table8.png","","","learning","-6","0","0","0","table","furniture","2","0","","good","[6]"
"html-keyboard-response","160","684077","0.0-9.0-2.0-0.44","3791","2","9","Female","approach_avoid_spark_v1","""event"",""trial"",""time""
""fullscreenenter"",""1"",""56698""
","
","
","""event"",""trial"",""time""
""fullscreenenter"",""1"",""56698""
","
","","","","","","null","<div style=""font-size:60px;"">+</div>","null","","fixation","","","","","","","","","","",""
"aa-learning-trial","161","687084","0.0-9.0-2.0-1.44","3791","2","9","Female","approach_avoid_spark_v1","""event"",""trial"",""time""
""fullscreenenter"",""1"",""56698""
","
","
","""event"",""trial"",""time""
""fullscreenenter"",""1"",""56698""
","
","","","","","","null","images/chair7.png","","","learning","4","-5","","null","chair","furniture","2","0","","neutral","0"
"html-keyboard-response","162","687589","0.0-9.0-2.0-0.45","3791","2","9","Female","approach_avoid_spark_v1","""event"",""trial"",""time""
""fullscreenenter"",""1"",""56698""
","
","
","""event"",""trial"",""time""
""fullscreenenter"",""1"",""56698""
","
","","","","","","null","<div style=""font-size:60px;"">+</div>","null","","fixation","","","","","","","","","","",""
"aa-learning-trial","163","690598","0.0-9.0-2.0-1.45","3791","2","9","Female","approach_avoid_spark_v1","""event"",""trial"",""time""
""fullscreenenter"",""1"",""56698""
","
","
","""event"",""trial"",""time""
""fullscreenenter"",""1"",""56698""
","
","","","","","","null","images/sofa8.png","","","learning","-5","-5","","null","sofa","furniture","2","0","","bad","[-5]"
"html-keyboard-response","164","691108","0.0-9.0-2.0-0.46","3791","2","9","Female","approach_avoid_spark_v1","""event"",""trial"",""time""
""fullscreenenter"",""1"",""56698""
","
","
","""event"",""trial"",""time""
""fullscreenenter"",""1"",""56698""
","
","","","","","","null","<div style=""font-size:60px;"">+</div>","null","","fixation","","","","","","","","","","",""
"aa-learning-trial","165","694116","0.0-9.0-2.0-1.46","3791","2","9","Female","approach_avoid_spark_v1","""event"",""trial"",""time""
""fullscreenenter"",""1"",""56698""
","
","
","""event"",""trial"",""time""
""fullscreenenter"",""1"",""56698""
","
","","","","","","1217.2000000178814","images/sofa7.png","","","learning","3","0","0","0","sofa","furniture","2","0","","bad","[-5]"
"html-keyboard-response","166","694620","0.0-9.0-2.0-0.47","3791","2","9","Female","approach_avoid_spark_v1","""event"",""trial"",""time""
""fullscreenenter"",""1"",""56698""
","
","
","""event"",""trial"",""time""
""fullscreenenter"",""1"",""56698""
","
","","","","","","null","<div style=""font-size:60px;"">+</div>","null","","fixation","","","","","","","","","","",""
"aa-learning-trial","167","697627","0.0-9.0-2.0-1.47","3791","2","9","Female","approach_avoid_spark_v1","""event"",""trial"",""time""
""fullscreenenter"",""1"",""56698""
","
","
","""event"",""trial"",""time""
""fullscreenenter"",""1"",""56698""
","
","","","","","","888.5999999940395","images/chair7.png","","","learning","4","4","1","1","chair","furniture","2","0","","neutral","0"
"html-keyboard-response","168","698132","0.0-9.0-2.0-0.48","3791","2","9","Female","approach_avoid_spark_v1","""event"",""trial"",""time""
""fullscreenenter"",""1"",""56698""
","
","
","""event"",""trial"",""time""
""fullscreenenter"",""1"",""56698""
","
","","","","","","null","<div style=""font-size:60px;"">+</div>","null","","fixation","","","","","","","","","","",""
"aa-learning-trial","169","701139","0.0-9.0-2.0-1.48","3791","2","9","Female","approach_avoid_spark_v1","""event"",""trial"",""time""
""fullscreenenter"",""1"",""56698""
","
","
","""event"",""trial"",""time""
""fullscreenenter"",""1"",""56698""
","
","","","","","","1247.0999999940395","images/table2.png","","","learning","-3","0","0","0","table","furniture","2","0","","good","[6]"
"html-keyboard-response","170","701645","0.0-9.0-2.0-0.49","3791","2","9","Female","approach_avoid_spark_v1","""event"",""trial"",""time""
""fullscreenenter"",""1"",""56698""
","
","
","""event"",""trial"",""time""
""fullscreenenter"",""1"",""56698""
","
","","","","","","null","<div style=""font-size:60px;"">+</div>","null","","fixation","","","","","","","","","","",""
"aa-learning-trial","171","704652","0.0-9.0-2.0-1.49","3791","2","9","Female","approach_avoid_spark_v1","""event"",""trial"",""time""
""fullscreenenter"",""1"",""56698""
","
","
","""event"",""trial"",""time""
""fullscreenenter"",""1"",""56698""
","
","","","","","","1185.199999988079","images/table8.png","","","learning","-6","-6","1","1","table","furniture","2","0","","good","[6]"
"html-keyboard-response","172","705157","0.0-9.0-2.0-0.50","3791","2","9","Female","approach_avoid_spark_v1","""event"",""trial"",""time""
""fullscreenenter"",""1"",""56698""
","
","
","""event"",""trial"",""time""
""fullscreenenter"",""1"",""56698""
","
","","","","","","null","<div style=""font-size:60px;"">+</div>","null","","fixation","","","","","","","","","","",""
"aa-learning-trial","173","708165","0.0-9.0-2.0-1.50","3791","2","9","Female","approach_avoid_spark_v1","""event"",""trial"",""time""
""fullscreenenter"",""1"",""56698""
","
","
","""event"",""trial"",""time""
""fullscreenenter"",""1"",""56698""
","
","","","","","","2391","images/sofa8.png","","","learning","-5","-5","1","1","sofa","furniture","2","0","","bad","[-5]"
"html-button-response","174","711856","0.0-9.0-3.0","3791","2","9","Female","approach_avoid_spark_v1","""event"",""trial"",""time""
""fullscreenenter"",""1"",""56698""
","
","
","""event"",""trial"",""time""
""fullscreenenter"",""1"",""56698""
","
","","","","","","3688.7999999821186","<p> You have completed the round! <p> In this round, you earned -69 points! </p>","0","","break","","","","","","","","","","",""
"html-button-response","175","714589","0.0-10.0","3791","2","9","Female","approach_avoid_spark_v1","""event"",""trial"",""time""
""fullscreenenter"",""1"",""56698""
","
","
","""event"",""trial"",""time""
""fullscreenenter"",""1"",""56698""
","
","","","","","","2731.899999976158","<p> Now it's time to play another round. </p>","0","","transition_screen","","","","","","","","","","",""
"preload","176","714713","0.0-11.0-0.0","3791","2","9","Female","approach_avoid_spark_v1","""event"",""trial"",""time""
""fullscreenenter"",""1"",""56698""
","
","
","""event"",""trial"",""time""
""fullscreenenter"",""1"",""56698""
","
","true","false","[]","[]","[]","","","","","","","","","","","","","","","",""
"learning-instructions","177","743973","0.0-11.0-1.0-0.0","3791","2","9","Female","approach_avoid_spark_v1","""event"",""trial"",""time""
""fullscreenenter"",""1"",""56698""
","
","
","""event"",""trial"",""time""
""fullscreenenter"",""1"",""56698""
","
","","","","","","23914.69999998808","<p> Your goal in this round is to sell different plants to a picky customer. </p></div>","","0","instructions","","","","","","","","","","",""
"learning-instructions","178","755057","0.0-11.0-1.0-0.1","3791","2","9","Female","approach_avoid_spark_v1","""event"",""trial"",""time""
""fullscreenenter"",""1"",""56698""
","
","
","""event"",""trial"",""time""
""fullscreenenter"",""1"",""56698""
","
","","","","","","1893","<p> The customer likes some plants and dislikes others.  </p><p> On each turn, you will see a plant.   </p><p> You need to decide whether to offer it to the customer or not.  </p>","","0","instructions","","","","","","","","","","",""
"learning-instructions","179","763858","0.0-11.0-1.0-0.2","3791","2","9","Female","approach_avoid_spark_v1","""event"",""trial"",""time""
""fullscreenenter"",""1"",""56698""
","
","
","""event"",""trial"",""time""
""fullscreenenter"",""1"",""56698""
","
","","","","","","3176.9000000059605","<p> You can offer the plant by pressing 1 and decide to not offer it by pressing 0. </p><br><div class=""choice-instructions-grid""> <div class=""choice-option""><img src=""images/approach.png"" class=""choice-option-img"" stage=""instructions"" position=""0"" ><div class=""choice-option-text""> Press ""1."" </div></div><div class=""choice-option""><img src=""images/avoid.png"" class=""choice-option-img"" stage=""instructions"" position=""1"" ><div class=""choice-option-text""> Press ""0."" </div></div>","","0","instructions","","","","","","","","","","",""
"learning-instructions","180","773240","0.0-11.0-1.0-0.3","3791","2","9","Female","approach_avoid_spark_v1","""event"",""trial"",""time""
""fullscreenenter"",""1"",""56698""
","
","
","""event"",""trial"",""time""
""fullscreenenter"",""1"",""56698""
","
","","","","","","590.0999999940395","<p> If you offer a plant to the customer that she likes, she will be very pleased! </p><p> But if you offer a plant that she does NOT like, she will be annoyed. </p>","","0","instructions","","","","","","","","","","",""
"learning-instructions","181","786391","0.0-11.0-1.0-0.4","3791","2","9","Female","approach_avoid_spark_v1","""event"",""trial"",""time""
""fullscreenenter"",""1"",""56698""
","
","
","""event"",""trial"",""time""
""fullscreenenter"",""1"",""56698""
","
","","","","","","924.3000000119209","<p> You will earn points based on how you made the customer feel. </p><p> If you made her pleased, you will WIN anywhere from 1 - 9 points, </p><p> but if you made her annoyed, you will LOSE anywhere from 1 - 9 points. </p>","","0","instructions","","","","","","","","","","",""
"learning-instructions","182","794274","0.0-11.0-1.0-0.5","3791","2","9","Female","approach_avoid_spark_v1","""event"",""trial"",""time""
""fullscreenenter"",""1"",""56698""
","
","
","""event"",""trial"",""time""
""fullscreenenter"",""1"",""56698""
","
","","","","","","1226","<p> You will see how many points you won or lost in the center of the screen. </p><p> Here is what you would see if you won 5 points: </p><p style=""color:green;font-size:50px;font-weight:bolder"">5</p>","","0","instructions","","","","","","","","","","",""
"learning-instructions","183","797842","0.0-11.0-1.0-0.6","3791","2","9","Female","approach_avoid_spark_v1","""event"",""trial"",""time""
""fullscreenenter"",""1"",""56698""
","
","
","""event"",""trial"",""time""
""fullscreenenter"",""1"",""56698""
","
","","","","","","736.6000000238419","<p> And here is what you would see if you lost 3 points: </p><p style=""color:red;font-size:50px;font-weight:bolder"">-3</p>","","0","instructions","","","","","","","","","","",""
"learning-instructions","184","813242","0.0-11.0-1.0-0.7","3791","2","9","Female","approach_avoid_spark_v1","""event"",""trial"",""time""
""fullscreenenter"",""1"",""56698""
","
","
","""event"",""trial"",""time""
""fullscreenenter"",""1"",""56698""
","
","","","","","","927.6999999880791","<p> Some plants will make the customer VERY pleased or annoyed. </p><p> These plants will make you win or lose LOTS of points. </p><p> The customer will have less strong feelings about other plants. </p><p> These plants will make you win or lose small amounts of points. </p>","","0","instructions","","","","","","","","","","",""
"learning-instructions","185","826692","0.0-11.0-1.0-0.8","3791","2","9","Female","approach_avoid_spark_v1","""event"",""trial"",""time""
""fullscreenenter"",""1"",""56698""
","
","
","""event"",""trial"",""time""
""fullscreenenter"",""1"",""56698""
","
","","","","","","1015.4000000059605","<p> If you choose to not offer the plant to the customer, you will not win or lose any points. </p><p>  However, in the center of the screen, you will see the number of points you WOULD HAVE won or lost if you had offered the plant. </p>","","0","instructions","","","","","","","","","","",""
"learning-instructions","186","842409","0.0-11.0-1.0-0.9","3791","2","9","Female","approach_avoid_spark_v1","""event"",""trial"",""time""
""fullscreenenter"",""1"",""56698""
","
","
","""event"",""trial"",""time""
""fullscreenenter"",""1"",""56698""
","
","","","","","","4467.300000011921","<p> Here is what you might see if you did not offer the plant but the customer would have liked it: </p><p style=""color:grey; font-size:50px; display: inline-block; border-spacing: 15px; border-width:3px; border-style:solid; border-color:red"">  &nbsp; 6 &nbsp; </p><p> Remember, in this case, you would not win or lose ANY points because you did not offer the plant.  </p>","","0","instructions","","","","","","","","","","",""
"learning-instructions","187","850859","0.0-11.0-1.0-0.10","3791","2","9","Female","approach_avoid_spark_v1","""event"",""trial"",""time""
""fullscreenenter"",""1"",""56698""
","
","
","""event"",""trial"",""time""
""fullscreenenter"",""1"",""56698""
","
","","","","","","988.5999999940395","<p> Try to make the best choice for each plant because </p><p> at the end of the game, you will earn bonus money based on how many points you earned. </p>","","0","instructions","","","","","","","","","","",""
"learning-instructions","188","861493","0.0-11.0-1.0-0.11","3791","2","9","Female","approach_avoid_spark_v1","""event"",""trial"",""time""
""fullscreenenter"",""1"",""56698""
","
","
","""event"",""trial"",""time""
""fullscreenenter"",""1"",""56698""
","
","","","","","","2445.0999999940395","<p> You will have 3 seconds to make each choice. Try to respond before time runs out! </p><p> You will lose 5 points each time you do not make a response. </p>","","0","instructions","","","","","","","","","","",""
"html-keyboard-response","189","862106","0.0-11.0-2.0-0.0","3791","2","9","Female","approach_avoid_spark_v1","""event"",""trial"",""time""
""fullscreenenter"",""1"",""56698""
","
","
","""event"",""trial"",""time""
""fullscreenenter"",""1"",""56698""
","
","","","","","","null","<div style=""font-size:60px;"">+</div>","null","","fixation","","","","","","","","","","",""
"aa-learning-trial","190","865109","0.0-11.0-2.0-1.0","3791","2","9","Female","approach_avoid_spark_v1","""event"",""trial"",""time""
""fullscreenenter"",""1"",""56698""
","
","
","""event"",""trial"",""time""
""fullscreenenter"",""1"",""56698""
","
","","","","","","1743.300000011921","images/tree2.png","","","learning","[1]","1","1","1","tree","plants","1","1","","neutral","0"
"html-keyboard-response","191","865618","0.0-11.0-2.0-0.1","3791","2","9","Female","approach_avoid_spark_v1","""event"",""trial"",""time""
""fullscreenenter"",""1"",""56698""
","
","
","""event"",""trial"",""time""
""fullscreenenter"",""1"",""56698""
","
","","","","","","null","<div style=""font-size:60px;"">+</div>","null","","fixation","","","","","","","","","","",""
"aa-learning-trial","192","868625","0.0-11.0-2.0-1.1","3791","2","9","Female","approach_avoid_spark_v1","""event"",""trial"",""time""
""fullscreenenter"",""1"",""56698""
","
","
","""event"",""trial"",""time""
""fullscreenenter"",""1"",""56698""
","
","","","","","","1558.2000000178814","images/cactus7.png","","","learning","-3","0","0","0","cactus","plants","1","1","","bad","[-3]"
"html-keyboard-response","193","869134","0.0-11.0-2.0-0.2","3791","2","9","Female","approach_avoid_spark_v1","""event"",""trial"",""time""
""fullscreenenter"",""1"",""56698""
","
","
","""event"",""trial"",""time""
""fullscreenenter"",""1"",""56698""
","
","","","","","","null","<div style=""font-size:60px;"">+</div>","null","","fixation","","","","","","","","","","",""
"aa-learning-trial","194","872137","0.0-11.0-2.0-1.2","3791","2","9","Female","approach_avoid_spark_v1","""event"",""trial"",""time""
""fullscreenenter"",""1"",""56698""
","
","
","""event"",""trial"",""time""
""fullscreenenter"",""1"",""56698""
","
","","","","","","1491.300000011921","images/tree2.png","","","learning","1","1","1","1","tree","plants","1","1","","neutral","0"
"html-keyboard-response","195","872647","0.0-11.0-2.0-0.3","3791","2","9","Female","approach_avoid_spark_v1","""event"",""trial"",""time""
""fullscreenenter"",""1"",""56698""
","
","
","""event"",""trial"",""time""
""fullscreenenter"",""1"",""56698""
","
","","","","","","null","<div style=""font-size:60px;"">+</div>","null","","fixation","","","","","","","","","","",""
"aa-learning-trial","196","875655","0.0-11.0-2.0-1.3","3791","2","9","Female","approach_avoid_spark_v1","""event"",""trial"",""time""
""fullscreenenter"",""1"",""56698""
","
","
","""event"",""trial"",""time""
""fullscreenenter"",""1"",""56698""
","
","","","","","","null","images/flower3.png","","","learning","6","-5","","null","flower","plants","1","1","","good","[6]"
"html-keyboard-response","197","876159","0.0-11.0-2.0-0.4","3791","2","9","Female","approach_avoid_spark_v1","""event"",""trial"",""time""
""fullscreenenter"",""1"",""56698""
","
","
","""event"",""trial"",""time""
""fullscreenenter"",""1"",""56698""
","
","","","","","","null","<div style=""font-size:60px;"">+</div>","null","","fixation","","","","","","","","","","",""
"aa-learning-trial","198","879166","0.0-11.0-2.0-1.4","3791","2","9","Female","approach_avoid_spark_v1","""event"",""trial"",""time""
""fullscreenenter"",""1"",""56698""
","
","
","""event"",""trial"",""time""
""fullscreenenter"",""1"",""56698""
","
","","","","","","971.1999999880791","images/cactus5.png","","","learning","-3","-3","1","1","cactus","plants","1","1","","bad","[-3]"
"html-keyboard-response","199","879670","0.0-11.0-2.0-0.5","3791","2","9","Female","approach_avoid_spark_v1","""event"",""trial"",""time""
""fullscreenenter"",""1"",""56698""
","
","
","""event"",""trial"",""time""
""fullscreenenter"",""1"",""56698""
","
","","","","","","null","<div style=""font-size:60px;"">+</div>","null","","fixation","","","","","","","","","","",""
"aa-learning-trial","200","882679","0.0-11.0-2.0-1.5","3791","2","9","Female","approach_avoid_spark_v1","""event"",""trial"",""time""
""fullscreenenter"",""1"",""56698""
","
","
","""event"",""trial"",""time""
""fullscreenenter"",""1"",""56698""
","
","","","","","","670.8000000119209","images/flower2.png","","","learning","9","0","0","0","flower","plants","1","1","","good","[6]"
"html-keyboard-response","201","883183","0.0-11.0-2.0-0.6","3791","2","9","Female","approach_avoid_spark_v1","""event"",""trial"",""time""
""fullscreenenter"",""1"",""56698""
","
","
","""event"",""trial"",""time""
""fullscreenenter"",""1"",""56698""
","
","","","","","","null","<div style=""font-size:60px;"">+</div>","null","","fixation","","","","","","","","","","",""
"aa-learning-trial","202","886189","0.0-11.0-2.0-1.6","3791","2","9","Female","approach_avoid_spark_v1","""event"",""trial"",""time""
""fullscreenenter"",""1"",""56698""
","
","
","""event"",""trial"",""time""
""fullscreenenter"",""1"",""56698""
","
","","","","","","1478","images/cactus7.png","","","learning","-4","0","0","0","cactus","plants","1","1","","bad","[-3]"
"html-keyboard-response","203","886695","0.0-11.0-2.0-0.7","3791","2","9","Female","approach_avoid_spark_v1","""event"",""trial"",""time""
""fullscreenenter"",""1"",""56698""
","
","
","""event"",""trial"",""time""
""fullscreenenter"",""1"",""56698""
","
","","","","","","null","<div style=""font-size:60px;"">+</div>","null","","fixation","","","","","","","","","","",""
"aa-learning-trial","204","889704","0.0-11.0-2.0-1.7","3791","2","9","Female","approach_avoid_spark_v1","""event"",""trial"",""time""
""fullscreenenter"",""1"",""56698""
","
","
","""event"",""trial"",""time""
""fullscreenenter"",""1"",""56698""
","
","","","","","","1500.0999999940395","images/flower2.png","","","learning","5","5","1","1","flower","plants","1","1","","good","[6]"
"html-keyboard-response","205","890208","0.0-11.0-2.0-0.8","3791","2","9","Female","approach_avoid_spark_v1","""event"",""trial"",""time""
""fullscreenenter"",""1"",""56698""
","
","
","""event"",""trial"",""time""
""fullscreenenter"",""1"",""56698""
","
","","","","","","null","<div style=""font-size:60px;"">+</div>","null","","fixation","","","","","","","","","","",""
"aa-learning-trial","206","893215","0.0-11.0-2.0-1.8","3791","2","9","Female","approach_avoid_spark_v1","""event"",""trial"",""time""
""fullscreenenter"",""1"",""56698""
","
","
","""event"",""trial"",""time""
""fullscreenenter"",""1"",""56698""
","
","","","","","","1019.0999999940395","images/flower4.png","","","learning","6","6","1","1","flower","plants","1","1","","good","[6]"
"html-keyboard-response","207","893719","0.0-11.0-2.0-0.9","3791","2","9","Female","approach_avoid_spark_v1","""event"",""trial"",""time""
""fullscreenenter"",""1"",""56698""
","
","
","""event"",""trial"",""time""
""fullscreenenter"",""1"",""56698""
","
","","","","","","null","<div style=""font-size:60px;"">+</div>","null","","fixation","","","","","","","","","","",""
"aa-learning-trial","208","896727","0.0-11.0-2.0-1.9","3791","2","9","Female","approach_avoid_spark_v1","""event"",""trial"",""time""
""fullscreenenter"",""1"",""56698""
","
","
","""event"",""trial"",""time""
""fullscreenenter"",""1"",""56698""
","
","","","","","","793.8999999761581","images/flower4.png","","","learning","6","6","1","1","flower","plants","1","1","","good","[6]"
"html-keyboard-response","209","897232","0.0-11.0-2.0-0.10","3791","2","9","Female","approach_avoid_spark_v1","""event"",""trial"",""time""
""fullscreenenter"",""1"",""56698""
","
","
","""event"",""trial"",""time""
""fullscreenenter"",""1"",""56698""
","
","","","","","","null","<div style=""font-size:60px;"">+</div>","null","","fixation","","","","","","","","","","",""
"aa-learning-trial","210","900239","0.0-11.0-2.0-1.10","3791","2","9","Female","approach_avoid_spark_v1","""event"",""trial"",""time""
""fullscreenenter"",""1"",""56698""
","
","
","""event"",""trial"",""time""
""fullscreenenter"",""1"",""56698""
","
","","","","","","2269","images/cactus1.png","","","learning","-5","0","0","0","cactus","plants","1","1","","bad","[-3]"
"html-keyboard-response","211","900744","0.0-11.0-2.0-0.11","3791","2","9","Female","approach_avoid_spark_v1","""event"",""trial"",""time""
""fullscreenenter"",""1"",""56698""
","
","
","""event"",""trial"",""time""
""fullscreenenter"",""1"",""56698""
","
","","","","","","null","<div style=""font-size:60px;"">+</div>","null","","fixation","","","","","","","","","","",""
"aa-learning-trial","212","903751","0.0-11.0-2.0-1.11","3791","2","9","Female","approach_avoid_spark_v1","""event"",""trial"",""time""
""fullscreenenter"",""1"",""56698""
","
","
","""event"",""trial"",""time""
""fullscreenenter"",""1"",""56698""
","
","","","","","","1312.7999999821186","images/cactus5.png","","","learning","-4","0","0","0","cactus","plants","1","1","","bad","[-3]"
"html-keyboard-response","213","904252","0.0-11.0-2.0-0.12","3791","2","9","Female","approach_avoid_spark_v1","""event"",""trial"",""time""
""fullscreenenter"",""1"",""56698""
","
","
","""event"",""trial"",""time""
""fullscreenenter"",""1"",""56698""
","
","","","","","","null","<div style=""font-size:60px;"">+</div>","null","","fixation","","","","","","","","","","",""
"aa-learning-trial","214","907263","0.0-11.0-2.0-1.12","3791","2","9","Female","approach_avoid_spark_v1","""event"",""trial"",""time""
""fullscreenenter"",""1"",""56698""
","
","
","""event"",""trial"",""time""
""fullscreenenter"",""1"",""56698""
","
","","","","","","1381.300000011921","images/tree8.png","","","learning","-1","-1","1","1","tree","plants","1","1","","neutral","0"
"html-keyboard-response","215","907767","0.0-11.0-2.0-0.13","3791","2","9","Female","approach_avoid_spark_v1","""event"",""trial"",""time""
""fullscreenenter"",""1"",""56698""
","
","
","""event"",""trial"",""time""
""fullscreenenter"",""1"",""56698""
","
","","","","","","null","<div style=""font-size:60px;"">+</div>","null","","fixation","","","","","","","","","","",""
"aa-learning-trial","216","910774","0.0-11.0-2.0-1.13","3791","2","9","Female","approach_avoid_spark_v1","""event"",""trial"",""time""
""fullscreenenter"",""1"",""56698""
","
","
","""event"",""trial"",""time""
""fullscreenenter"",""1"",""56698""
","
","","","","","","1153.699999988079","images/tree7.png","","","learning","1","1","1","1","tree","plants","1","1","","neutral","0"
"html-keyboard-response","217","911279","0.0-11.0-2.0-0.14","3791","2","9","Female","approach_avoid_spark_v1","""event"",""trial"",""time""
""fullscreenenter"",""1"",""56698""
","
","
","""event"",""trial"",""time""
""fullscreenenter"",""1"",""56698""
","
","","","","","","null","<div style=""font-size:60px;"">+</div>","null","","fixation","","","","","","","","","","",""
"aa-learning-trial","218","914286","0.0-11.0-2.0-1.14","3791","2","9","Female","approach_avoid_spark_v1","""event"",""trial"",""time""
""fullscreenenter"",""1"",""56698""
","
","
","""event"",""trial"",""time""
""fullscreenenter"",""1"",""56698""
","
","","","","","","2001.7999999821186","images/tree8.png","","","learning","-2","0","0","0","tree","plants","1","1","","neutral","0"
"html-keyboard-response","219","914791","0.0-11.0-2.0-0.15","3791","2","9","Female","approach_avoid_spark_v1","""event"",""trial"",""time""
""fullscreenenter"",""1"",""56698""
","
","
","""event"",""trial"",""time""
""fullscreenenter"",""1"",""56698""
","
","","","","","","null","<div style=""font-size:60px;"">+</div>","null","","fixation","","","","","","","","","","",""
"aa-learning-trial","220","917798","0.0-11.0-2.0-1.15","3791","2","9","Female","approach_avoid_spark_v1","""event"",""trial"",""time""
""fullscreenenter"",""1"",""56698""
","
","
","""event"",""trial"",""time""
""fullscreenenter"",""1"",""56698""
","
","","","","","","1057.7999999821186","images/cactus3.png","","","learning","-3","-3","1","1","cactus","plants","1","1","","bad","[-3]"
"html-keyboard-response","221","918303","0.0-11.0-2.0-0.16","3791","2","9","Female","approach_avoid_spark_v1","""event"",""trial"",""time""
""fullscreenenter"",""1"",""56698""
","
","
","""event"",""trial"",""time""
""fullscreenenter"",""1"",""56698""
","
","","","","","","null","<div style=""font-size:60px;"">+</div>","null","","fixation","","","","","","","","","","",""
"aa-learning-trial","222","921310","0.0-11.0-2.0-1.16","3791","2","9","Female","approach_avoid_spark_v1","""event"",""trial"",""time""
""fullscreenenter"",""1"",""56698""
","
","
","""event"",""trial"",""time""
""fullscreenenter"",""1"",""56698""
","
","","","","","","1122.2999999821186","images/cactus7.png","","","learning","-3","-3","1","1","cactus","plants","1","1","","bad","[-3]"
"html-keyboard-response","223","921815","0.0-11.0-2.0-0.17","3791","2","9","Female","approach_avoid_spark_v1","""event"",""trial"",""time""
""fullscreenenter"",""1"",""56698""
","
","
","""event"",""trial"",""time""
""fullscreenenter"",""1"",""56698""
","
","","","","","","null","<div style=""font-size:60px;"">+</div>","null","","fixation","","","","","","","","","","",""
"aa-learning-trial","224","924822","0.0-11.0-2.0-1.17","3791","2","9","Female","approach_avoid_spark_v1","""event"",""trial"",""time""
""fullscreenenter"",""1"",""56698""
","
","
","""event"",""trial"",""time""
""fullscreenenter"",""1"",""56698""
","
","","","","","","940.8000000119209","images/cactus5.png","","","learning","-5","0","0","0","cactus","plants","1","1","","bad","[-3]"
"html-keyboard-response","225","925327","0.0-11.0-2.0-0.18","3791","2","9","Female","approach_avoid_spark_v1","""event"",""trial"",""time""
""fullscreenenter"",""1"",""56698""
","
","
","""event"",""trial"",""time""
""fullscreenenter"",""1"",""56698""
","
","","","","","","null","<div style=""font-size:60px;"">+</div>","null","","fixation","","","","","","","","","","",""
"aa-learning-trial","226","928334","0.0-11.0-2.0-1.18","3791","2","9","Female","approach_avoid_spark_v1","""event"",""trial"",""time""
""fullscreenenter"",""1"",""56698""
","
","
","""event"",""trial"",""time""
""fullscreenenter"",""1"",""56698""
","
","","","","","","822.5999999940395","images/tree2.png","","","learning","-1","-1","1","1","tree","plants","1","1","","neutral","0"
"html-keyboard-response","227","928844","0.0-11.0-2.0-0.19","3791","2","9","Female","approach_avoid_spark_v1","""event"",""trial"",""time""
""fullscreenenter"",""1"",""56698""
","
","
","""event"",""trial"",""time""
""fullscreenenter"",""1"",""56698""
","
","","","","","","null","<div style=""font-size:60px;"">+</div>","null","","fixation","","","","","","","","","","",""
"aa-learning-trial","228","931852","0.0-11.0-2.0-1.19","3791","2","9","Female","approach_avoid_spark_v1","""event"",""trial"",""time""
""fullscreenenter"",""1"",""56698""
","
","
","""event"",""trial"",""time""
""fullscreenenter"",""1"",""56698""
","
","","","","","","1395.4000000059605","images/tree8.png","","","learning","1","1","1","1","tree","plants","1","1","","neutral","0"
"html-keyboard-response","229","932355","0.0-11.0-2.0-0.20","3791","2","9","Female","approach_avoid_spark_v1","""event"",""trial"",""time""
""fullscreenenter"",""1"",""56698""
","
","
","""event"",""trial"",""time""
""fullscreenenter"",""1"",""56698""
","
","","","","","","null","<div style=""font-size:60px;"">+</div>","null","","fixation","","","","","","","","","","",""
"aa-learning-trial","230","935360","0.0-11.0-2.0-1.20","3791","2","9","Female","approach_avoid_spark_v1","""event"",""trial"",""time""
""fullscreenenter"",""1"",""56698""
","
","
","""event"",""trial"",""time""
""fullscreenenter"",""1"",""56698""
","
","","","","","","2257.9000000059605","images/cactus5.png","","","learning","-5","-5","1","1","cactus","plants","1","1","","bad","[-3]"
"html-keyboard-response","231","935868","0.0-11.0-2.0-0.21","3791","2","9","Female","approach_avoid_spark_v1","""event"",""trial"",""time""
""fullscreenenter"",""1"",""56698""
","
","
","""event"",""trial"",""time""
""fullscreenenter"",""1"",""56698""
","
","","","","","","null","<div style=""font-size:60px;"">+</div>","null","","fixation","","","","","","","","","","",""
"aa-learning-trial","232","938877","0.0-11.0-2.0-1.21","3791","2","9","Female","approach_avoid_spark_v1","""event"",""trial"",""time""
""fullscreenenter"",""1"",""56698""
","
","
","""event"",""trial"",""time""
""fullscreenenter"",""1"",""56698""
","
","","","","","","873.5999999940395","images/flower2.png","","","learning","5","5","1","1","flower","plants","1","1","","good","[6]"
"html-keyboard-response","233","939380","0.0-11.0-2.0-0.22","3791","2","9","Female","approach_avoid_spark_v1","""event"",""trial"",""time""
""fullscreenenter"",""1"",""56698""
","
","
","""event"",""trial"",""time""
""fullscreenenter"",""1"",""56698""
","
","","","","","","null","<div style=""font-size:60px;"">+</div>","null","","fixation","","","","","","","","","","",""
"aa-learning-trial","234","942386","0.0-11.0-2.0-1.22","3791","2","9","Female","approach_avoid_spark_v1","""event"",""trial"",""time""
""fullscreenenter"",""1"",""56698""
","
","
","""event"",""trial"",""time""
""fullscreenenter"",""1"",""56698""
","
","","","","","","1803.1000000238419","images/cactus1.png","","","learning","-3","-3","1","1","cactus","plants","1","1","","bad","[-3]"
