"trial_type","trial_index","time_elapsed","internal_node_id","subject_id","task_condition","age","gender","task_version","interactions","blur_events","focus_events","fullscreenenter_events","fullscreenexit_events","success","timeout","failed_images","failed_audio","failed_video","rt","stimulus","response","button_pressed","task_part","approach_reward","points","key_press","option_selected","stim_cat","task_block","block_condition","block_number","correct","cat_type","mean_cat_reward"
"pavlovia","0","4","0.0-0.0","4087","1","25","Female","approach_avoid_spark_v1","""event"",""trial"",""time""
""fullscreenenter"",""1"",""1470""
","
","
","""event"",""trial"",""time""
""fullscreenenter"",""1"",""1470""
","
","","","","","","","","","","","","","","","","","","","","",""
"fullscreen","1","2432","0.0-1.0","4087","1","25","Female","approach_avoid_spark_v1","""event"",""trial"",""time""
""fullscreenenter"",""1"",""1470""
","
","
","""event"",""trial"",""time""
""fullscreenenter"",""1"",""1470""
","
","true","","","","","","","","","","","","","","","","","","","",""
"preload","2","34389","0.0-2.0","4087","1","25","Female","approach_avoid_spark_v1","""event"",""trial"",""time""
""fullscreenenter"",""1"",""1470""
","
","
","""event"",""trial"",""time""
""fullscreenenter"",""1"",""1470""
","
","true","false","[]","[]","[]","","","","","","","","","","","","","","","",""
"audio-keyboard-response","3","36407","0.0-3.0","4087","1","25","Female","approach_avoid_spark_v1","""event"",""trial"",""time""
""fullscreenenter"",""1"",""1470""
","
","
","""event"",""trial"",""time""
""fullscreenenter"",""1"",""1470""
","
","","","","","","2018.6666666666647","audio/beep_loop.wav"," ","","","","","","","","","","","","",""
"audio-button-response","4","37941","0.0-4.0","4087","1","25","Female","approach_avoid_spark_v1","""event"",""trial"",""time""
""fullscreenenter"",""1"",""1470""
","
","
","""event"",""trial"",""time""
""fullscreenenter"",""1"",""1470""
","
","","","","","","1531","audio/shark.wav","4","","","","","","","","","","","","",""
"audio-button-response","5","40165","0.0-5.0","4087","1","25","Female","approach_avoid_spark_v1","""event"",""trial"",""time""
""fullscreenenter"",""1"",""1470""
","
","
","""event"",""trial"",""time""
""fullscreenenter"",""1"",""1470""
","
","","","","","","1219","audio/turtle.wav","1","","","","","","","","","","","","",""
"preload","6","46762","0.0-6.0","4087","1","25","Female","approach_avoid_spark_v1","""event"",""trial"",""time""
""fullscreenenter"",""1"",""1470""
","
","
","""event"",""trial"",""time""
""fullscreenenter"",""1"",""1470""
","
","true","false","[]","[]","[]","","","","","","","","","","","","","","","",""
"html-keyboard-response","7","50820","0.0-7.0","4087","1","25","Female","approach_avoid_spark_v1","""event"",""trial"",""time""
""fullscreenenter"",""1"",""1470""
","
","
","""event"",""trial"",""time""
""fullscreenenter"",""1"",""1470""
","
","","","","","","4057.300000011921","Welcome to the experiment. Press any key to begin and to advance the instructions.","f","","","","","","","","","","","","",""
"learning-instructions","8","58622","0.0-8.0-0.0-0.0","4087","1","25","Female","approach_avoid_spark_v1","""event"",""trial"",""time""
""fullscreenenter"",""1"",""1470""
","
","
","""event"",""trial"",""time""
""fullscreenenter"",""1"",""1470""
","
","","","","","","844.3000000119209","<p> Welcome! Today you are going to play 6 different rounds of a decision-making game. </p><p> Use the mouse to click next to continue. </p>","","0","instructions","","","","","","","","","","",""
"learning-instructions","9","62328","0.0-8.0-0.0-0.1","4087","1","25","Female","approach_avoid_spark_v1","""event"",""trial"",""time""
""fullscreenenter"",""1"",""1470""
","
","
","""event"",""trial"",""time""
""fullscreenenter"",""1"",""1470""
","
","","","","","","959.6999999880791","<p> You will start with a practice round to learn the rules. </p>","","0","instructions","","","","","","","","","","",""
"learning-instructions","10","66665","0.0-8.0-0.0-0.2","4087","1","25","Female","approach_avoid_spark_v1","""event"",""trial"",""time""
""fullscreenenter"",""1"",""1470""
","
","
","""event"",""trial"",""time""
""fullscreenenter"",""1"",""1470""
","
","","","","","","876.7000000476837","<p> Your goal in this round is to give out sports equipment to kids. </p></div>","","0","instructions","","","","","","","","","","",""
"learning-instructions","11","74768","0.0-8.0-0.0-0.3","4087","1","25","Female","approach_avoid_spark_v1","""event"",""trial"",""time""
""fullscreenenter"",""1"",""1470""
","
","
","""event"",""trial"",""time""
""fullscreenenter"",""1"",""1470""
","
","","","","","","550.5","<p> The kids only like some of the equipment.  </p><p> On each turn, you will see a piece of sports equipment.   </p><p> You need to decide whether to give it to the kids or not.  </p>","","0","instructions","","","","","","","","","","",""
"learning-instructions","12","80458","0.0-8.0-0.0-0.4","4087","1","25","Female","approach_avoid_spark_v1","""event"",""trial"",""time""
""fullscreenenter"",""1"",""1470""
","
","
","""event"",""trial"",""time""
""fullscreenenter"",""1"",""1470""
","
","","","","","","938.8000000119209","<p> You can give them the equipment by pressing 1 and choose not to give it to them by pressing 0. </p><br><div class=""choice-instructions-grid""> <div class=""choice-option""><img src=""images/approach.png"" class=""choice-option-img"" stage=""instructions"" position=""0"" ><div class=""choice-option-text""> Press ""1."" </div></div><div class=""choice-option""><img src=""images/avoid.png"" class=""choice-option-img"" stage=""instructions"" position=""1"" ><div class=""choice-option-text""> Press ""0."" </div></div>","","0","instructions","","","","","","","","","","",""
"learning-instructions","13","89675","0.0-8.0-0.0-0.5","4087","1","25","Female","approach_avoid_spark_v1","""event"",""trial"",""time""
""fullscreenenter"",""1"",""1470""
","
","
","""event"",""trial"",""time""
""fullscreenenter"",""1"",""1470""
","
","","","","","","1826","<p> If you give them a piece of equipment they like, they will be happy! </p><p> But if you give them a piece of equipment they do not like, they will be sad. </p>","","0","instructions","","","","","","","","","","",""
"learning-instructions","14","110285","0.0-8.0-0.0-0.6","4087","1","25","Female","approach_avoid_spark_v1","""event"",""trial"",""time""
""fullscreenenter"",""1"",""1470""
","
","
","""event"",""trial"",""time""
""fullscreenenter"",""1"",""1470""
","
","","","","","","10086","<p> You will earn points based on how you make kids feel. </p><p> If you make them happy, you will WIN anywhere from 1 - 9 points, </p><p> but if you make them sad, you will LOSE anywhere from 1 - 9 points. </p>","","0","instructions","","","","","","","","","","",""
"learning-instructions","15","121912","0.0-8.0-0.0-0.7","4087","1","25","Female","approach_avoid_spark_v1","""event"",""trial"",""time""
""fullscreenenter"",""1"",""1470""
","
","
","""event"",""trial"",""time""
""fullscreenenter"",""1"",""1470""
","
","","","","","","2062.399999976158","<p> You will see how many points you won or lost in the center of the screen. </p><p> Here is what you would see if you won 6 points: </p><p style=""color:green;font-size:50px;font-weight:bolder"">6</p><p style=""color:green"">The text is GREEN because you WON points.</p>","","0","instructions","","","","","","","","","","",""
"learning-instructions","16","128415","0.0-8.0-0.0-0.8","4087","1","25","Female","approach_avoid_spark_v1","""event"",""trial"",""time""
""fullscreenenter"",""1"",""1470""
","
","
","""event"",""trial"",""time""
""fullscreenenter"",""1"",""1470""
","
","","","","","","1006.2999999523163","<p> And here is what you would see if you lost 4 points: </p><p style=""color:red;font-size:50px;font-weight:bolder"">-4</p><p style=""color:red"">The text is RED because you LOST points. </p>","","0","instructions","","","","","","","","","","",""
"learning-instructions","17","143698","0.0-8.0-0.0-0.9","4087","1","25","Female","approach_avoid_spark_v1","""event"",""trial"",""time""
""fullscreenenter"",""1"",""1470""
","
","
","""event"",""trial"",""time""
""fullscreenenter"",""1"",""1470""
","
","","","","","","568.2999999523163","<p> Some of the equipment will make the kids VERY happy or sad. </p><p> These pieces of equipment will make you win or lose LOTS of points. </p><p> Other pieces of equipment will only make the kids a little happy or sad. </p><p> These pieces of equipment will make you win or lose small amounts of points. </p>","","0","instructions","","","","","","","","","","",""
"learning-instructions","18","155346","0.0-8.0-0.0-0.10","4087","1","25","Female","approach_avoid_spark_v1","""event"",""trial"",""time""
""fullscreenenter"",""1"",""1470""
","
","
","""event"",""trial"",""time""
""fullscreenenter"",""1"",""1470""
","
","","","","","","1017.1999999880791","<p> If you choose not to give them the equipment, you will not win or lose any points. </p><p>  However, in the center of the screen, you will see the number of points you WOULD HAVE won or lost if you had given them the equipment. </p>","","0","instructions","","","","","","","","","","",""
"learning-instructions","19","179805","0.0-8.0-0.0-0.11","4087","1","25","Female","approach_avoid_spark_v1","""event"",""trial"",""time""
""fullscreenenter"",""1"",""1470""
","
","
","""event"",""trial"",""time""
""fullscreenenter"",""1"",""1470""
","
","","","","","","2936.100000023842","<p> Here is what you might see if you did not give the equipment to the kids but it would have made them happy: </p><p style=""color:grey; font-size:50px; display: inline-block; border-spacing: 15px; border-width:3px; border-style:solid; border-color:red"">  &nbsp; 7 &nbsp; </p><p> Remember, in this case, you would not win or lose ANY points because you did not give them the equipment.  </p><p style=""color:grey"">The text is GREY because you earned ZERO points. </p><p style=""color:red"">However, choosing to give the kids the equipment would have made you win points. The box around the text is RED because you chose the worse option. </p>","","0","instructions","","","","","","","","","","",""
"learning-instructions","20","204471","0.0-8.0-0.0-0.12","4087","1","25","Female","approach_avoid_spark_v1","""event"",""trial"",""time""
""fullscreenenter"",""1"",""1470""
","
","
","""event"",""trial"",""time""
""fullscreenenter"",""1"",""1470""
","
","","","","","","3592.199999988079","<p> Here is what you might see if you did not give the equipment to the kids but it would have made them sad: </p><p style=""color:grey;font-size:50px; display: inline-block; border-spacing: 15px; border-width:3px; border-style:solid; border-color:green"">  &nbsp; -8 &nbsp; </p><p> Remember, in this case, you would not win or lose ANY points because you did not give them the equipment.  </p><p style=""color:grey"">The text is GREY because you earned ZERO points. </p><p  style=""color:green""> Choosing to give the kids the equipment would have made you lose points. The box around the text is GREEN because you chose the better option.</p>","","0","instructions","","","","","","","","","","",""
"learning-instructions","21","215752","0.0-8.0-0.0-0.13","4087","1","25","Female","approach_avoid_spark_v1","""event"",""trial"",""time""
""fullscreenenter"",""1"",""1470""
","
","
","""event"",""trial"",""time""
""fullscreenenter"",""1"",""1470""
","
","","","","","","2163.7999999523163","<p> You will have 3 seconds to make each choice. Try to respond before time runs out! </p><p> You will lose 5 points each time you do not make a response. </p>","","0","instructions","","","","","","","","","","",""
"learning-instructions","22","224066","0.0-8.0-0.0-0.14","4087","1","25","Female","approach_avoid_spark_v1","""event"",""trial"",""time""
""fullscreenenter"",""1"",""1470""
","
","
","""event"",""trial"",""time""
""fullscreenenter"",""1"",""1470""
","
","","","","","","2897.699999988079","<p> This is just a practice round, but in the real game, your bonus payment will depend on your total number of points.","","0","instructions","","","","","","","","","","",""
"learning-instructions","23","232026","0.0-8.0-0.0-0.15","4087","1","25","Female","approach_avoid_spark_v1","""event"",""trial"",""time""
""fullscreenenter"",""1"",""1470""
","
","
","""event"",""trial"",""time""
""fullscreenenter"",""1"",""1470""
","
","","","","","","2188.099999964237","<p> Remember, you can give them the equipment by pressing 1 and choose not to give it to them by pressing 0. </p><br><div class=""choice-instructions-grid""> <div class=""choice-option""><img src=""images/approach.png"" class=""choice-option-img"" stage=""instructions"" position=""0"" ><div class=""choice-option-text""> Press ""1."" </div></div><div class=""choice-option""><img src=""images/avoid.png"" class=""choice-option-img"" stage=""instructions"" position=""1"" ><div class=""choice-option-text""> Press ""0."" </div></div>","","0","instructions","","","","","","","","","","",""
"html-button-response","24","237298","0.0-8.0-1.0","4087","1","25","Female","approach_avoid_spark_v1","""event"",""trial"",""time""
""fullscreenenter"",""1"",""1470""
","
","
","""event"",""trial"",""time""
""fullscreenenter"",""1"",""1470""
","
","","","","","","5169","<p> Ready to practice? </p>","0","","","","","","","","","","","","",""
"html-keyboard-response","25","237927","0.0-8.0-2.0-0.0","4087","1","25","Female","approach_avoid_spark_v1","""event"",""trial"",""time""
""fullscreenenter"",""1"",""1470""
","
","
","""event"",""trial"",""time""
""fullscreenenter"",""1"",""1470""
","
","","","","","","null","<div style=""font-size:60px;"">+</div>","null","","fixation","","","","","","","","","","",""
"aa-learning-trial","26","240937","0.0-8.0-2.0-1.0","4087","1","25","Female","approach_avoid_spark_v1","""event"",""trial"",""time""
""fullscreenenter"",""1"",""1470""
","
","
","""event"",""trial"",""time""
""fullscreenenter"",""1"",""1470""
","
","","","","","","1931.6000000238419","images/racket2.png","","","learning","9","9","1","1","practice","practice","practice","-1","","",""
"html-keyboard-response","27","241439","0.0-8.0-2.0-0.1","4087","1","25","Female","approach_avoid_spark_v1","""event"",""trial"",""time""
""fullscreenenter"",""1"",""1470""
","
","
","""event"",""trial"",""time""
""fullscreenenter"",""1"",""1470""
","
","","","","","","null","<div style=""font-size:60px;"">+</div>","null","","fixation","","","","","","","","","","",""
"aa-learning-trial","28","244452","0.0-8.0-2.0-1.1","4087","1","25","Female","approach_avoid_spark_v1","""event"",""trial"",""time""
""fullscreenenter"",""1"",""1470""
","
","
","""event"",""trial"",""time""
""fullscreenenter"",""1"",""1470""
","
","","","","","","724.4000000357628","images/racket3.png","","","learning","4","4","1","1","practice","practice","practice","-1","","",""
"html-keyboard-response","29","244971","0.0-8.0-2.0-0.2","4087","1","25","Female","approach_avoid_spark_v1","""event"",""trial"",""time""
""fullscreenenter"",""1"",""1470""
","
","
","""event"",""trial"",""time""
""fullscreenenter"",""1"",""1470""
","
","","","","","","null","<div style=""font-size:60px;"">+</div>","null","","fixation","","","","","","","","","","",""
"aa-learning-trial","30","247991","0.0-8.0-2.0-1.2","4087","1","25","Female","approach_avoid_spark_v1","""event"",""trial"",""time""
""fullscreenenter"",""1"",""1470""
","
","
","""event"",""trial"",""time""
""fullscreenenter"",""1"",""1470""
","
","","","","","","704.2000000476837","images/racket3.png","","","learning","5","5","1","1","practice","practice","practice","-1","","",""
"html-keyboard-response","31","248502","0.0-8.0-2.0-0.3","4087","1","25","Female","approach_avoid_spark_v1","""event"",""trial"",""time""
""fullscreenenter"",""1"",""1470""
","
","
","""event"",""trial"",""time""
""fullscreenenter"",""1"",""1470""
","
","","","","","","null","<div style=""font-size:60px;"">+</div>","null","","fixation","","","","","","","","","","",""
"aa-learning-trial","32","251519","0.0-8.0-2.0-1.3","4087","1","25","Female","approach_avoid_spark_v1","""event"",""trial"",""time""
""fullscreenenter"",""1"",""1470""
","
","
","""event"",""trial"",""time""
""fullscreenenter"",""1"",""1470""
","
","","","","","","1309.800000011921","images/racket4.png","","","learning","7","7","1","1","practice","practice","practice","-1","","",""
"html-keyboard-response","33","252031","0.0-8.0-2.0-0.4","4087","1","25","Female","approach_avoid_spark_v1","""event"",""trial"",""time""
""fullscreenenter"",""1"",""1470""
","
","
","""event"",""trial"",""time""
""fullscreenenter"",""1"",""1470""
","
","","","","","","null","<div style=""font-size:60px;"">+</div>","null","","fixation","","","","","","","","","","",""
"aa-learning-trial","34","255048","0.0-8.0-2.0-1.4","4087","1","25","Female","approach_avoid_spark_v1","""event"",""trial"",""time""
""fullscreenenter"",""1"",""1470""
","
","
","""event"",""trial"",""time""
""fullscreenenter"",""1"",""1470""
","
","","","","","","602.8999999761581","images/racket2.png","","","learning","7","-5","-","","practice","practice","practice","-1","","",""
"html-keyboard-response","35","255565","0.0-8.0-2.0-0.5","4087","1","25","Female","approach_avoid_spark_v1","""event"",""trial"",""time""
""fullscreenenter"",""1"",""1470""
","
","
","""event"",""trial"",""time""
""fullscreenenter"",""1"",""1470""
","
","","","","","","null","<div style=""font-size:60px;"">+</div>","null","","fixation","","","","","","","","","","",""
"aa-learning-trial","36","258582","0.0-8.0-2.0-1.5","4087","1","25","Female","approach_avoid_spark_v1","""event"",""trial"",""time""
""fullscreenenter"",""1"",""1470""
","
","
","""event"",""trial"",""time""
""fullscreenenter"",""1"",""1470""
","
","","","","","","1239.6000000238419","images/ball2.png","","","learning","-9","-9","1","1","practice","practice","practice","-1","","",""
"html-keyboard-response","37","259095","0.0-8.0-2.0-0.6","4087","1","25","Female","approach_avoid_spark_v1","""event"",""trial"",""time""
""fullscreenenter"",""1"",""1470""
","
","
","""event"",""trial"",""time""
""fullscreenenter"",""1"",""1470""
","
","","","","","","null","<div style=""font-size:60px;"">+</div>","null","","fixation","","","","","","","","","","",""
"aa-learning-trial","38","262104","0.0-8.0-2.0-1.6","4087","1","25","Female","approach_avoid_spark_v1","""event"",""trial"",""time""
""fullscreenenter"",""1"",""1470""
","
","
","""event"",""trial"",""time""
""fullscreenenter"",""1"",""1470""
","
","","","","","","591.3999999761581","images/ball1.png","","","learning","-6","-6","1","1","practice","practice","practice","-1","","",""
"html-keyboard-response","39","262608","0.0-8.0-2.0-0.7","4087","1","25","Female","approach_avoid_spark_v1","""event"",""trial"",""time""
""fullscreenenter"",""1"",""1470""
","
","
","""event"",""trial"",""time""
""fullscreenenter"",""1"",""1470""
","
","","","","","","null","<div style=""font-size:60px;"">+</div>","null","","fixation","","","","","","","","","","",""
"aa-learning-trial","40","265616","0.0-8.0-2.0-1.7","4087","1","25","Female","approach_avoid_spark_v1","""event"",""trial"",""time""
""fullscreenenter"",""1"",""1470""
","
","
","""event"",""trial"",""time""
""fullscreenenter"",""1"",""1470""
","
","","","","","","854.5","images/ball4.png","","","learning","9","9","1","1","practice","practice","practice","-1","","",""
"html-keyboard-response","41","266119","0.0-8.0-2.0-0.8","4087","1","25","Female","approach_avoid_spark_v1","""event"",""trial"",""time""
""fullscreenenter"",""1"",""1470""
","
","
","""event"",""trial"",""time""
""fullscreenenter"",""1"",""1470""
","
","","","","","","null","<div style=""font-size:60px;"">+</div>","null","","fixation","","","","","","","","","","",""
"aa-learning-trial","42","269127","0.0-8.0-2.0-1.8","4087","1","25","Female","approach_avoid_spark_v1","""event"",""trial"",""time""
""fullscreenenter"",""1"",""1470""
","
","
","""event"",""trial"",""time""
""fullscreenenter"",""1"",""1470""
","
","","","","","","671.1999999880791","images/racket4.png","","","learning","3","3","1","1","practice","practice","practice","-1","","",""
"html-keyboard-response","43","269632","0.0-8.0-2.0-0.9","4087","1","25","Female","approach_avoid_spark_v1","""event"",""trial"",""time""
""fullscreenenter"",""1"",""1470""
","
","
","""event"",""trial"",""time""
""fullscreenenter"",""1"",""1470""
","
","","","","","","null","<div style=""font-size:60px;"">+</div>","null","","fixation","","","","","","","","","","",""
"aa-learning-trial","44","272640","0.0-8.0-2.0-1.9","4087","1","25","Female","approach_avoid_spark_v1","""event"",""trial"",""time""
""fullscreenenter"",""1"",""1470""
","
","
","""event"",""trial"",""time""
""fullscreenenter"",""1"",""1470""
","
","","","","","","583.8999999761581","images/racket4.png","","","learning","-9","-9","1","1","practice","practice","practice","-1","","",""
"html-keyboard-response","45","273143","0.0-8.0-2.0-0.10","4087","1","25","Female","approach_avoid_spark_v1","""event"",""trial"",""time""
""fullscreenenter"",""1"",""1470""
","
","
","""event"",""trial"",""time""
""fullscreenenter"",""1"",""1470""
","
","","","","","","null","<div style=""font-size:60px;"">+</div>","null","","fixation","","","","","","","","","","",""
"aa-learning-trial","46","276152","0.0-8.0-2.0-1.10","4087","1","25","Female","approach_avoid_spark_v1","""event"",""trial"",""time""
""fullscreenenter"",""1"",""1470""
","
","
","""event"",""trial"",""time""
""fullscreenenter"",""1"",""1470""
","
","","","","","","1055.800000011921","images/racket3.png","","","learning","-2","-2","1","1","practice","practice","practice","-1","","",""
"html-keyboard-response","47","276656","0.0-8.0-2.0-0.11","4087","1","25","Female","approach_avoid_spark_v1","""event"",""trial"",""time""
""fullscreenenter"",""1"",""1470""
","
","
","""event"",""trial"",""time""
""fullscreenenter"",""1"",""1470""
","
","","","","","","null","<div style=""font-size:60px;"">+</div>","null","","fixation","","","","","","","","","","",""
"aa-learning-trial","48","279664","0.0-8.0-2.0-1.11","4087","1","25","Female","approach_avoid_spark_v1","""event"",""trial"",""time""
""fullscreenenter"",""1"",""1470""
","
","
","""event"",""trial"",""time""
""fullscreenenter"",""1"",""1470""
","
","","","","","","806.3999999761581","images/ball2.png","","","learning","-4","-4","1","1","practice","practice","practice","-1","","",""
"html-button-response","49","281889","0.0-8.0-3.0","4087","1","25","Female","approach_avoid_spark_v1","""event"",""trial"",""time""
""fullscreenenter"",""1"",""1470""
","
","
","""event"",""trial"",""time""
""fullscreenenter"",""1"",""1470""
","
","","","","","","2223","<p> You earned 2 points in the practice round! </p>","0","","break","","","","","","","","","","",""
"learning-instructions","50","289036","0.0-8.0-4.0-0.0","4087","1","25","Female","approach_avoid_spark_v1","""event"",""trial"",""time""
""fullscreenenter"",""1"",""1470""
","
","
","""event"",""trial"",""time""
""fullscreenenter"",""1"",""1470""
","
","","","","","","809.1999999880791","<p> It's almost time to start the real game. </p><p> Before you start, we're going to ask you a few questions about how the game works. </p>","","0","instructions","","","","","","","","","","",""
"preload","51","292324","0.0-8.0-5.0","4087","1","25","Female","approach_avoid_spark_v1","""event"",""trial"",""time""
""fullscreenenter"",""1"",""1470""
","
","
","""event"",""trial"",""time""
""fullscreenenter"",""1"",""1470""
","
","true","false","[]","[]","[]","","","","","","","","","","","","","","","",""
"comp-q","52","298164","0.0-8.0-6.0-0.0","4087","1","25","Female","approach_avoid_spark_v1","""event"",""trial"",""time""
""fullscreenenter"",""1"",""1470""
","
","
","""event"",""trial"",""time""
""fullscreenenter"",""1"",""1470""
","
","","","","","","837.2999999523163","<p> <b> True or False? </b> </p><p> If you see a number in GREY, that means you earned that many points. </p>","","1","comp_question","","","","","","","","","true","",""
"comp-q","53","309054","0.0-8.0-6.0-1.0","4087","1","25","Female","approach_avoid_spark_v1","""event"",""trial"",""time""
""fullscreenenter"",""1"",""1470""
","
","
","""event"",""trial"",""time""
""fullscreenenter"",""1"",""1470""
","
","","","","","","2507.300000011921","<p><b> That's right! </b> If you see a grey number, it means you earned ZERO points. <br> The grey numbers show the points you WOULD HAVE earned if you had made the other choice. </p>","","0","comp_answer","","","","","","","","","","",""
"comp-q","54","314582","0.0-8.0-7.0-0.0","4087","1","25","Female","approach_avoid_spark_v1","""event"",""trial"",""time""
""fullscreenenter"",""1"",""1470""
","
","
","""event"",""trial"",""time""
""fullscreenenter"",""1"",""1470""
","
","","","","","","835.8999999761581","<p> <b> True or False? </b> </p><p> You will have as much time as you want to make each choice. </p>","","1","comp_question","","","","","","","","","true","",""
"comp-q","55","320582","0.0-8.0-7.0-1.0","4087","1","25","Female","approach_avoid_spark_v1","""event"",""trial"",""time""
""fullscreenenter"",""1"",""1470""
","
","
","""event"",""trial"",""time""
""fullscreenenter"",""1"",""1470""
","
","","","","","","1946","<p> <b> That's right! </b> You will only have 3 seconds to make each choice. </p>","","0","comp_answer","","","","","","","","","","",""
"comp-q","56","326328","0.0-8.0-8.0-0.0","4087","1","25","Female","approach_avoid_spark_v1","""event"",""trial"",""time""
""fullscreenenter"",""1"",""1470""
","
","
","""event"",""trial"",""time""
""fullscreenenter"",""1"",""1470""
","
","","","","","","1071.0999999642372","<p> <b> True or False? </b> </p><p> You should use the '1' and '0' keys to make your choices. </p>","","0","comp_question","","","","","","","","","true","",""
"comp-q","57","332424","0.0-8.0-8.0-1.0","4087","1","25","Female","approach_avoid_spark_v1","""event"",""trial"",""time""
""fullscreenenter"",""1"",""1470""
","
","
","""event"",""trial"",""time""
""fullscreenenter"",""1"",""1470""
","
","","","","","","1477.5999999642372","<p> <b> That's right! </b> You should use the '1' and '0' keys to make each choice. </p>","","0","comp_answer","","","","","","","","","","",""
"learning-instructions","58","353693","0.0-8.0-9.0-0.0","4087","1","25","Female","approach_avoid_spark_v1","""event"",""trial"",""time""
""fullscreenenter"",""1"",""1470""
","
","
","""event"",""trial"",""time""
""fullscreenenter"",""1"",""1470""
","
","","","","","","14985.800000011921","<p> It's now time to start the real game. </p>Do your best, because the points you earn in the next rounds will influence your bonus payment. </p>","","0","instructions","","","","","","","","","","",""
"preload","59","353825","0.0-9.0-0.0","4087","1","25","Female","approach_avoid_spark_v1","""event"",""trial"",""time""
""fullscreenenter"",""1"",""1470""
","
","
","""event"",""trial"",""time""
""fullscreenenter"",""1"",""1470""
","
","true","false","[]","[]","[]","","","","","","","","","","","","","","","",""
"learning-instructions","60","358316","0.0-9.0-1.0-0.0","4087","1","25","Female","approach_avoid_spark_v1","""event"",""trial"",""time""
""fullscreenenter"",""1"",""1470""
","
","
","""event"",""trial"",""time""
""fullscreenenter"",""1"",""1470""
","
","","","","","","1320.300000011921","<p> Your goal in this round is to eat tasty fruit. </p></div>","","0","instructions","","","","","","","","","","",""
"learning-instructions","61","368703","0.0-9.0-1.0-0.1","4087","1","25","Female","approach_avoid_spark_v1","""event"",""trial"",""time""
""fullscreenenter"",""1"",""1470""
","
","
","""event"",""trial"",""time""
""fullscreenenter"",""1"",""1470""
","
","","","","","","736.8999999761581","<p> Some of the fruits you will see are tasty. Others are rotten on the inside.  </p><p> On each turn, you will see a fruit.   </p><p> You need to decide whether to eat it or not.  </p>","","0","instructions","","","","","","","","","","",""
"learning-instructions","62","374223","0.0-9.0-1.0-0.2","4087","1","25","Female","approach_avoid_spark_v1","""event"",""trial"",""time""
""fullscreenenter"",""1"",""1470""
","
","
","""event"",""trial"",""time""
""fullscreenenter"",""1"",""1470""
","
","","","","","","755.6000000238419","<p> You can eat the fruit by pressing 1 and choose not to eat it by pressing 0. </p><br><div class=""choice-instructions-grid""> <div class=""choice-option""><img src=""images/approach.png"" class=""choice-option-img"" stage=""instructions"" position=""0"" ><div class=""choice-option-text""> Press ""1."" </div></div><div class=""choice-option""><img src=""images/avoid.png"" class=""choice-option-img"" stage=""instructions"" position=""1"" ><div class=""choice-option-text""> Press ""0."" </div></div>","","0","instructions","","","","","","","","","","",""
"learning-instructions","63","382800","0.0-9.0-1.0-0.3","4087","1","25","Female","approach_avoid_spark_v1","""event"",""trial"",""time""
""fullscreenenter"",""1"",""1470""
","
","
","""event"",""trial"",""time""
""fullscreenenter"",""1"",""1470""
","
","","","","","","1322.5999999642372","<p> If you eat the fruit and it was tasty, you will win points! </p><p> But if you eat the fruit and it was rotten, you will lose points. </p>","","0","instructions","","","","","","","","","","",""
"learning-instructions","64","394553","0.0-9.0-1.0-0.4","4087","1","25","Female","approach_avoid_spark_v1","""event"",""trial"",""time""
""fullscreenenter"",""1"",""1470""
","
","
","""event"",""trial"",""time""
""fullscreenenter"",""1"",""1470""
","
","","","","","","456.5999999642372","<p> You will earn points based on how tasty or rotten the fruit was. </p><p> If it was tasty, you will WIN anywhere from 1 - 9 points, </p><p> but if it was rotten, you will LOSE anywhere from 1 - 9 points. </p>","","0","instructions","","","","","","","","","","",""
"learning-instructions","65","403314","0.0-9.0-1.0-0.5","4087","1","25","Female","approach_avoid_spark_v1","""event"",""trial"",""time""
""fullscreenenter"",""1"",""1470""
","
","
","""event"",""trial"",""time""
""fullscreenenter"",""1"",""1470""
","
","","","","","","707.5","<p> You will see how many points you won or lost in the center of the screen. </p><p> Here is what you would see if you earned 5 points: </p><p style=""color:green;font-size:50px;font-weight:bolder"">5</p>","","0","instructions","","","","","","","","","","",""
"learning-instructions","66","407419","0.0-9.0-1.0-0.6","4087","1","25","Female","approach_avoid_spark_v1","""event"",""trial"",""time""
""fullscreenenter"",""1"",""1470""
","
","
","""event"",""trial"",""time""
""fullscreenenter"",""1"",""1470""
","
","","","","","","632.1999999880791","<p> And here is what you would see if you lost 3 points: </p><p style=""color:red;font-size:50px;font-weight:bolder"">-3</p>","","0","instructions","","","","","","","","","","",""
"learning-instructions","67","422828","0.0-9.0-1.0-0.7","4087","1","25","Female","approach_avoid_spark_v1","""event"",""trial"",""time""
""fullscreenenter"",""1"",""1470""
","
","
","""event"",""trial"",""time""
""fullscreenenter"",""1"",""1470""
","
","","","","","","681.4000000357628","<p> Some fruit is very tasty or very rotten. </p><p> These fruits will make you win or lose LOTS of points. </p><p> Other fruits are only kind of tasty or kind of rotten. </p><p> These fruits will make you win or lose small amounts of points. </p>","","0","instructions","","","","","","","","","","",""
"learning-instructions","68","436277","0.0-9.0-1.0-0.8","4087","1","25","Female","approach_avoid_spark_v1","""event"",""trial"",""time""
""fullscreenenter"",""1"",""1470""
","
","
","""event"",""trial"",""time""
""fullscreenenter"",""1"",""1470""
","
","","","","","","2340.699999988079","<p> If you choose to not eat the fruit, you will not win or lose any points. </p><p>  However, in the center of the screen, you will see the number of points you WOULD HAVE earned if you had eaten the fruit. </p>","","0","instructions","","","","","","","","","","",""
"learning-instructions","69","448343","0.0-9.0-1.0-0.9","4087","1","25","Female","approach_avoid_spark_v1","""event"",""trial"",""time""
""fullscreenenter"",""1"",""1470""
","
","
","""event"",""trial"",""time""
""fullscreenenter"",""1"",""1470""
","
","","","","","","1656.5999999642372","<p> Here is what you might see if you did not eat the fruit but the fruit was tasty: </p><p style=""color:grey; font-size:50px; display: inline-block; border-spacing: 15px; border-width:3px; border-style:solid; border-color:red"">  &nbsp; 6 &nbsp; </p><p> Remember, in this case, you would not win or lose ANY points because you did not eat the fruit.  </p>","","0","instructions","","","","","","","","","","",""
"learning-instructions","70","458800","0.0-9.0-1.0-0.10","4087","1","25","Female","approach_avoid_spark_v1","""event"",""trial"",""time""
""fullscreenenter"",""1"",""1470""
","
","
","""event"",""trial"",""time""
""fullscreenenter"",""1"",""1470""
","
","","","","","","2363.300000011921","<p> Try to make the best choice for each fruit because </p><p> at the end of the game, you will earn bonus money based on how many points you earned. </p>","","0","instructions","","","","","","","","","","",""
"learning-instructions","71","470488","0.0-9.0-1.0-0.11","4087","1","25","Female","approach_avoid_spark_v1","""event"",""trial"",""time""
""fullscreenenter"",""1"",""1470""
","
","
","""event"",""trial"",""time""
""fullscreenenter"",""1"",""1470""
","
","","","","","","3492","<p> You will have 3 seconds to make each choice. Try to respond before time runs out! </p><p> You will lose 5 points each time you do not make a response. </p>","","0","instructions","","","","","","","","","","",""
"html-keyboard-response","72","471095","0.0-9.0-2.0-0.0","4087","1","25","Female","approach_avoid_spark_v1","""event"",""trial"",""time""
""fullscreenenter"",""1"",""1470""
","
","
","""event"",""trial"",""time""
""fullscreenenter"",""1"",""1470""
","
","","","","","","null","<div style=""font-size:60px;"">+</div>","null","","fixation","","","","","","","","","","",""
"aa-learning-trial","73","474112","0.0-9.0-2.0-1.0","4087","1","25","Female","approach_avoid_spark_v1","""event"",""trial"",""time""
""fullscreenenter"",""1"",""1470""
","
","
","""event"",""trial"",""time""
""fullscreenenter"",""1"",""1470""
","
","","","","","","1852.2999999523163","images/straw5.png","","","learning","-3","-3","1","1","straw","fruit","1","0","","neutral","0"
"html-keyboard-response","74","474626","0.0-9.0-2.0-0.1","4087","1","25","Female","approach_avoid_spark_v1","""event"",""trial"",""time""
""fullscreenenter"",""1"",""1470""
","
","
","""event"",""trial"",""time""
""fullscreenenter"",""1"",""1470""
","
","","","","","","null","<div style=""font-size:60px;"">+</div>","null","","fixation","","","","","","","","","","",""
"aa-learning-trial","75","477636","0.0-9.0-2.0-1.1","4087","1","25","Female","approach_avoid_spark_v1","""event"",""trial"",""time""
""fullscreenenter"",""1"",""1470""
","
","
","""event"",""trial"",""time""
""fullscreenenter"",""1"",""1470""
","
","","","","","","1294.8999999761581","images/apple5.png","","","learning","-8","0","0","0","apple","fruit","1","0","","bad","[-6]"
"html-keyboard-response","76","478147","0.0-9.0-2.0-0.2","4087","1","25","Female","approach_avoid_spark_v1","""event"",""trial"",""time""
""fullscreenenter"",""1"",""1470""
","
","
","""event"",""trial"",""time""
""fullscreenenter"",""1"",""1470""
","
","","","","","","null","<div style=""font-size:60px;"">+</div>","null","","fixation","","","","","","","","","","",""
"aa-learning-trial","77","481160","0.0-9.0-2.0-1.2","4087","1","25","Female","approach_avoid_spark_v1","""event"",""trial"",""time""
""fullscreenenter"",""1"",""1470""
","
","
","""event"",""trial"",""time""
""fullscreenenter"",""1"",""1470""
","
","","","","","","1706.699999988079","images/apple6.png","","","learning","-7","-7","1","1","apple","fruit","1","0","","bad","[-6]"
"html-keyboard-response","78","481674","0.0-9.0-2.0-0.3","4087","1","25","Female","approach_avoid_spark_v1","""event"",""trial"",""time""
""fullscreenenter"",""1"",""1470""
","
","
","""event"",""trial"",""time""
""fullscreenenter"",""1"",""1470""
","
","","","","","","null","<div style=""font-size:60px;"">+</div>","null","","fixation","","","","","","","","","","",""
"aa-learning-trial","79","484691","0.0-9.0-2.0-1.3","4087","1","25","Female","approach_avoid_spark_v1","""event"",""trial"",""time""
""fullscreenenter"",""1"",""1470""
","
","
","""event"",""trial"",""time""
""fullscreenenter"",""1"",""1470""
","
","","","","","","554.8999999761581","images/orange8.png","","","learning","1","1","1","1","orange","fruit","1","0","","good","[4]"
"html-keyboard-response","80","485203","0.0-9.0-2.0-0.4","4087","1","25","Female","approach_avoid_spark_v1","""event"",""trial"",""time""
""fullscreenenter"",""1"",""1470""
","
","
","""event"",""trial"",""time""
""fullscreenenter"",""1"",""1470""
","
","","","","","","null","<div style=""font-size:60px;"">+</div>","null","","fixation","","","","","","","","","","",""
"aa-learning-trial","81","488208","0.0-9.0-2.0-1.4","4087","1","25","Female","approach_avoid_spark_v1","""event"",""trial"",""time""
""fullscreenenter"",""1"",""1470""
","
","
","""event"",""trial"",""time""
""fullscreenenter"",""1"",""1470""
","
","","","","","","1158.3999999761581","images/straw8.png","","","learning","[1]","1","1","1","straw","fruit","1","0","","neutral","0"
"html-keyboard-response","82","488718","0.0-9.0-2.0-0.5","4087","1","25","Female","approach_avoid_spark_v1","""event"",""trial"",""time""
""fullscreenenter"",""1"",""1470""
","
","
","""event"",""trial"",""time""
""fullscreenenter"",""1"",""1470""
","
","","","","","","null","<div style=""font-size:60px;"">+</div>","null","","fixation","","","","","","","","","","",""
"aa-learning-trial","83","491728","0.0-9.0-2.0-1.5","4087","1","25","Female","approach_avoid_spark_v1","""event"",""trial"",""time""
""fullscreenenter"",""1"",""1470""
","
","
","""event"",""trial"",""time""
""fullscreenenter"",""1"",""1470""
","
","","","","","","1162.300000011921","images/orange1.png","","","learning","4","4","1","1","orange","fruit","1","0","","good","[4]"
"html-keyboard-response","84","492238","0.0-9.0-2.0-0.6","4087","1","25","Female","approach_avoid_spark_v1","""event"",""trial"",""time""
""fullscreenenter"",""1"",""1470""
","
","
","""event"",""trial"",""time""
""fullscreenenter"",""1"",""1470""
","
","","","","","","null","<div style=""font-size:60px;"">+</div>","null","","fixation","","","","","","","","","","",""
"aa-learning-trial","85","495257","0.0-9.0-2.0-1.6","4087","1","25","Female","approach_avoid_spark_v1","""event"",""trial"",""time""
""fullscreenenter"",""1"",""1470""
","
","
","""event"",""trial"",""time""
""fullscreenenter"",""1"",""1470""
","
","","","","","","921","images/straw7.png","","","learning","1","1","1","1","straw","fruit","1","0","","neutral","0"
"html-keyboard-response","86","495771","0.0-9.0-2.0-0.7","4087","1","25","Female","approach_avoid_spark_v1","""event"",""trial"",""time""
""fullscreenenter"",""1"",""1470""
","
","
","""event"",""trial"",""time""
""fullscreenenter"",""1"",""1470""
","
","","","","","","null","<div style=""font-size:60px;"">+</div>","null","","fixation","","","","","","","","","","",""
"aa-learning-trial","87","498776","0.0-9.0-2.0-1.7","4087","1","25","Female","approach_avoid_spark_v1","""event"",""trial"",""time""
""fullscreenenter"",""1"",""1470""
","
","
","""event"",""trial"",""time""
""fullscreenenter"",""1"",""1470""
","
","","","","","","618.1000000238419","images/orange4.png","","","learning","3","3","1","1","orange","fruit","1","0","","good","[4]"
"html-keyboard-response","88","499279","0.0-9.0-2.0-0.8","4087","1","25","Female","approach_avoid_spark_v1","""event"",""trial"",""time""
""fullscreenenter"",""1"",""1470""
","
","
","""event"",""trial"",""time""
""fullscreenenter"",""1"",""1470""
","
","","","","","","null","<div style=""font-size:60px;"">+</div>","null","","fixation","","","","","","","","","","",""
"aa-learning-trial","89","502288","0.0-9.0-2.0-1.8","4087","1","25","Female","approach_avoid_spark_v1","""event"",""trial"",""time""
""fullscreenenter"",""1"",""1470""
","
","
","""event"",""trial"",""time""
""fullscreenenter"",""1"",""1470""
","
","","","","","","602.6999999880791","images/orange1.png","","","learning","2","2","1","1","orange","fruit","1","0","","good","[4]"
"html-keyboard-response","90","502791","0.0-9.0-2.0-0.9","4087","1","25","Female","approach_avoid_spark_v1","""event"",""trial"",""time""
""fullscreenenter"",""1"",""1470""
","
","
","""event"",""trial"",""time""
""fullscreenenter"",""1"",""1470""
","
","","","","","","null","<div style=""font-size:60px;"">+</div>","null","","fixation","","","","","","","","","","",""
"aa-learning-trial","91","505800","0.0-9.0-2.0-1.9","4087","1","25","Female","approach_avoid_spark_v1","""event"",""trial"",""time""
""fullscreenenter"",""1"",""1470""
","
","
","""event"",""trial"",""time""
""fullscreenenter"",""1"",""1470""
","
","","","","","","947.1000000238419","images/apple6.png","","","learning","-5","0","0","0","apple","fruit","1","0","","bad","[-6]"
"html-keyboard-response","92","506303","0.0-9.0-2.0-0.10","4087","1","25","Female","approach_avoid_spark_v1","""event"",""trial"",""time""
""fullscreenenter"",""1"",""1470""
","
","
","""event"",""trial"",""time""
""fullscreenenter"",""1"",""1470""
","
","","","","","","null","<div style=""font-size:60px;"">+</div>","null","","fixation","","","","","","","","","","",""
"aa-learning-trial","93","509312","0.0-9.0-2.0-1.10","4087","1","25","Female","approach_avoid_spark_v1","""event"",""trial"",""time""
""fullscreenenter"",""1"",""1470""
","
","
","""event"",""trial"",""time""
""fullscreenenter"",""1"",""1470""
","
","","","","","","851.5","images/orange8.png","","","learning","3","3","1","1","orange","fruit","1","0","","good","[4]"
"html-keyboard-response","94","509815","0.0-9.0-2.0-0.11","4087","1","25","Female","approach_avoid_spark_v1","""event"",""trial"",""time""
""fullscreenenter"",""1"",""1470""
","
","
","""event"",""trial"",""time""
""fullscreenenter"",""1"",""1470""
","
","","","","","","null","<div style=""font-size:60px;"">+</div>","null","","fixation","","","","","","","","","","",""
"aa-learning-trial","95","512824","0.0-9.0-2.0-1.11","4087","1","25","Female","approach_avoid_spark_v1","""event"",""trial"",""time""
""fullscreenenter"",""1"",""1470""
","
","
","""event"",""trial"",""time""
""fullscreenenter"",""1"",""1470""
","
","","","","","","949.6999999880791","images/apple4.png","","","learning","-4","0","0","0","apple","fruit","1","0","","bad","[-6]"
"html-keyboard-response","96","513328","0.0-9.0-2.0-0.12","4087","1","25","Female","approach_avoid_spark_v1","""event"",""trial"",""time""
""fullscreenenter"",""1"",""1470""
","
","
","""event"",""trial"",""time""
""fullscreenenter"",""1"",""1470""
","
","","","","","","null","<div style=""font-size:60px;"">+</div>","null","","fixation","","","","","","","","","","",""
"aa-learning-trial","97","516336","0.0-9.0-2.0-1.12","4087","1","25","Female","approach_avoid_spark_v1","""event"",""trial"",""time""
""fullscreenenter"",""1"",""1470""
","
","
","""event"",""trial"",""time""
""fullscreenenter"",""1"",""1470""
","
","","","","","","749.4000000357628","images/straw5.png","","","learning","3","3","1","1","straw","fruit","1","0","","neutral","0"
"html-keyboard-response","98","516840","0.0-9.0-2.0-0.13","4087","1","25","Female","approach_avoid_spark_v1","""event"",""trial"",""time""
""fullscreenenter"",""1"",""1470""
","
","
","""event"",""trial"",""time""
""fullscreenenter"",""1"",""1470""
","
","","","","","","null","<div style=""font-size:60px;"">+</div>","null","","fixation","","","","","","","","","","",""
"aa-learning-trial","99","519849","0.0-9.0-2.0-1.13","4087","1","25","Female","approach_avoid_spark_v1","""event"",""trial"",""time""
""fullscreenenter"",""1"",""1470""
","
","
","""event"",""trial"",""time""
""fullscreenenter"",""1"",""1470""
","
","","","","","","538","images/straw8.png","","","learning","1","1","1","1","straw","fruit","1","0","","neutral","0"
"html-keyboard-response","100","520352","0.0-9.0-2.0-0.14","4087","1","25","Female","approach_avoid_spark_v1","""event"",""trial"",""time""
""fullscreenenter"",""1"",""1470""
","
","
","""event"",""trial"",""time""
""fullscreenenter"",""1"",""1470""
","
","","","","","","null","<div style=""font-size:60px;"">+</div>","null","","fixation","","","","","","","","","","",""
"aa-learning-trial","101","523360","0.0-9.0-2.0-1.14","4087","1","25","Female","approach_avoid_spark_v1","""event"",""trial"",""time""
""fullscreenenter"",""1"",""1470""
","
","
","""event"",""trial"",""time""
""fullscreenenter"",""1"",""1470""
","
","","","","","","678","images/apple4.png","","","learning","-6","0","0","0","apple","fruit","1","0","","bad","[-6]"
"html-keyboard-response","102","523863","0.0-9.0-2.0-0.15","4087","1","25","Female","approach_avoid_spark_v1","""event"",""trial"",""time""
""fullscreenenter"",""1"",""1470""
","
","
","""event"",""trial"",""time""
""fullscreenenter"",""1"",""1470""
","
","","","","","","null","<div style=""font-size:60px;"">+</div>","null","","fixation","","","","","","","","","","",""
"aa-learning-trial","103","526873","0.0-9.0-2.0-1.15","4087","1","25","Female","approach_avoid_spark_v1","""event"",""trial"",""time""
""fullscreenenter"",""1"",""1470""
","
","
","""event"",""trial"",""time""
""fullscreenenter"",""1"",""1470""
","
","","","","","","672.3000000119209","images/orange7.png","","","learning","5","5","1","1","orange","fruit","1","0","","good","[4]"
"html-keyboard-response","104","527376","0.0-9.0-2.0-0.16","4087","1","25","Female","approach_avoid_spark_v1","""event"",""trial"",""time""
""fullscreenenter"",""1"",""1470""
","
","
","""event"",""trial"",""time""
""fullscreenenter"",""1"",""1470""
","
","","","","","","null","<div style=""font-size:60px;"">+</div>","null","","fixation","","","","","","","","","","",""
"aa-learning-trial","105","530384","0.0-9.0-2.0-1.16","4087","1","25","Female","approach_avoid_spark_v1","""event"",""trial"",""time""
""fullscreenenter"",""1"",""1470""
","
","
","""event"",""trial"",""time""
""fullscreenenter"",""1"",""1470""
","
","","","","","","693.3999999761581","images/apple6.png","","","learning","-4","0","0","0","apple","fruit","1","0","","bad","[-6]"
"html-keyboard-response","106","530887","0.0-9.0-2.0-0.17","4087","1","25","Female","approach_avoid_spark_v1","""event"",""trial"",""time""
""fullscreenenter"",""1"",""1470""
","
","
","""event"",""trial"",""time""
""fullscreenenter"",""1"",""1470""
","
","","","","","","null","<div style=""font-size:60px;"">+</div>","null","","fixation","","","","","","","","","","",""
"aa-learning-trial","107","533896","0.0-9.0-2.0-1.17","4087","1","25","Female","approach_avoid_spark_v1","""event"",""trial"",""time""
""fullscreenenter"",""1"",""1470""
","
","
","""event"",""trial"",""time""
""fullscreenenter"",""1"",""1470""
","
","","","","","","646.6000000238419","images/apple4.png","","","learning","-4","0","0","0","apple","fruit","1","0","","bad","[-6]"
"html-keyboard-response","108","534399","0.0-9.0-2.0-0.18","4087","1","25","Female","approach_avoid_spark_v1","""event"",""trial"",""time""
""fullscreenenter"",""1"",""1470""
","
","
","""event"",""trial"",""time""
""fullscreenenter"",""1"",""1470""
","
","","","","","","null","<div style=""font-size:60px;"">+</div>","null","","fixation","","","","","","","","","","",""
"aa-learning-trial","109","537408","0.0-9.0-2.0-1.18","4087","1","25","Female","approach_avoid_spark_v1","""event"",""trial"",""time""
""fullscreenenter"",""1"",""1470""
","
","
","""event"",""trial"",""time""
""fullscreenenter"",""1"",""1470""
","
","","","","","","547.1999999880791","images/orange4.png","","","learning","5","5","1","1","orange","fruit","1","0","","good","[4]"
"html-keyboard-response","110","537912","0.0-9.0-2.0-0.19","4087","1","25","Female","approach_avoid_spark_v1","""event"",""trial"",""time""
""fullscreenenter"",""1"",""1470""
","
","
","""event"",""trial"",""time""
""fullscreenenter"",""1"",""1470""
","
","","","","","","null","<div style=""font-size:60px;"">+</div>","null","","fixation","","","","","","","","","","",""
"aa-learning-trial","111","540920","0.0-9.0-2.0-1.19","4087","1","25","Female","approach_avoid_spark_v1","""event"",""trial"",""time""
""fullscreenenter"",""1"",""1470""
","
","
","""event"",""trial"",""time""
""fullscreenenter"",""1"",""1470""
","
","","","","","","464.0999999642372","images/orange8.png","","","learning","4","4","1","1","orange","fruit","1","0","","good","[4]"
"html-keyboard-response","112","541424","0.0-9.0-2.0-0.20","4087","1","25","Female","approach_avoid_spark_v1","""event"",""trial"",""time""
""fullscreenenter"",""1"",""1470""
","
","
","""event"",""trial"",""time""
""fullscreenenter"",""1"",""1470""
","
","","","","","","null","<div style=""font-size:60px;"">+</div>","null","","fixation","","","","","","","","","","",""
"aa-learning-trial","113","544432","0.0-9.0-2.0-1.20","4087","1","25","Female","approach_avoid_spark_v1","""event"",""trial"",""time""
""fullscreenenter"",""1"",""1470""
","
","
","""event"",""trial"",""time""
""fullscreenenter"",""1"",""1470""
","
","","","","","","715.5","images/orange2.png","","","learning","3","3","1","1","orange","fruit","1","0","","good","[4]"
"html-keyboard-response","114","544936","0.0-9.0-2.0-0.21","4087","1","25","Female","approach_avoid_spark_v1","""event"",""trial"",""time""
""fullscreenenter"",""1"",""1470""
","
","
","""event"",""trial"",""time""
""fullscreenenter"",""1"",""1470""
","
","","","","","","null","<div style=""font-size:60px;"">+</div>","null","","fixation","","","","","","","","","","",""
"aa-learning-trial","115","547945","0.0-9.0-2.0-1.21","4087","1","25","Female","approach_avoid_spark_v1","""event"",""trial"",""time""
""fullscreenenter"",""1"",""1470""
","
","
","""event"",""trial"",""time""
""fullscreenenter"",""1"",""1470""
","
","","","","","","513.3000000119209","images/straw6.png","","","learning","3","3","1","1","straw","fruit","1","0","","neutral","0"
"html-keyboard-response","116","548459","0.0-9.0-2.0-0.22","4087","1","25","Female","approach_avoid_spark_v1","""event"",""trial"",""time""
""fullscreenenter"",""1"",""1470""
","
","
","""event"",""trial"",""time""
""fullscreenenter"",""1"",""1470""
","
","","","","","","null","<div style=""font-size:60px;"">+</div>","null","","fixation","","","","","","","","","","",""
"aa-learning-trial","117","551464","0.0-9.0-2.0-1.22","4087","1","25","Female","approach_avoid_spark_v1","""event"",""trial"",""time""
""fullscreenenter"",""1"",""1470""
","
","
","""event"",""trial"",""time""
""fullscreenenter"",""1"",""1470""
","
","","","","","","614.1000000238419","images/apple6.png","","","learning","-6","0","0","0","apple","fruit","1","0","","bad","[-6]"
"html-keyboard-response","118","551968","0.0-9.0-2.0-0.23","4087","1","25","Female","approach_avoid_spark_v1","""event"",""trial"",""time""
""fullscreenenter"",""1"",""1470""
","
","
","""event"",""trial"",""time""
""fullscreenenter"",""1"",""1470""
","
","","","","","","null","<div style=""font-size:60px;"">+</div>","null","","fixation","","","","","","","","","","",""
"aa-learning-trial","119","554976","0.0-9.0-2.0-1.23","4087","1","25","Female","approach_avoid_spark_v1","""event"",""trial"",""time""
""fullscreenenter"",""1"",""1470""
","
","
","""event"",""trial"",""time""
""fullscreenenter"",""1"",""1470""
","
","","","","","","538.5999999642372","images/apple4.png","","","learning","-6","0","0","0","apple","fruit","1","0","","bad","[-6]"
"html-keyboard-response","120","555479","0.0-9.0-2.0-0.24","4087","1","25","Female","approach_avoid_spark_v1","""event"",""trial"",""time""
""fullscreenenter"",""1"",""1470""
","
","
","""event"",""trial"",""time""
""fullscreenenter"",""1"",""1470""
","
","","","","","","null","<div style=""font-size:60px;"">+</div>","null","","fixation","","","","","","","","","","",""
"aa-learning-trial","121","558489","0.0-9.0-2.0-1.24","4087","1","25","Female","approach_avoid_spark_v1","""event"",""trial"",""time""
""fullscreenenter"",""1"",""1470""
","
","
","""event"",""trial"",""time""
""fullscreenenter"",""1"",""1470""
","
","","","","","","615.6999999880791","images/apple5.png","","","learning","-9","0","0","0","apple","fruit","1","0","","bad","[-6]"
"html-keyboard-response","122","558992","0.0-9.0-2.0-0.25","4087","1","25","Female","approach_avoid_spark_v1","""event"",""trial"",""time""
""fullscreenenter"",""1"",""1470""
","
","
","""event"",""trial"",""time""
""fullscreenenter"",""1"",""1470""
","
","","","","","","null","<div style=""font-size:60px;"">+</div>","null","","fixation","","","","","","","","","","",""
"aa-learning-trial","123","562000","0.0-9.0-2.0-1.25","4087","1","25","Female","approach_avoid_spark_v1","""event"",""trial"",""time""
""fullscreenenter"",""1"",""1470""
","
","
","""event"",""trial"",""time""
""fullscreenenter"",""1"",""1470""
","
","","","","","","1803.9000000357628","images/straw5.png","","","learning","-1","-1","1","1","straw","fruit","1","0","","neutral","0"
"html-keyboard-response","124","562503","0.0-9.0-2.0-0.26","4087","1","25","Female","approach_avoid_spark_v1","""event"",""trial"",""time""
""fullscreenenter"",""1"",""1470""
","
","
","""event"",""trial"",""time""
""fullscreenenter"",""1"",""1470""
","
","","","","","","null","<div style=""font-size:60px;"">+</div>","null","","fixation","","","","","","","","","","",""
"aa-learning-trial","125","565520","0.0-9.0-2.0-1.26","4087","1","25","Female","approach_avoid_spark_v1","""event"",""trial"",""time""
""fullscreenenter"",""1"",""1470""
","
","
","""event"",""trial"",""time""
""fullscreenenter"",""1"",""1470""
","
","","","","","","509.80000001192093","images/straw8.png","","","learning","2","2","1","1","straw","fruit","1","0","","neutral","0"
"html-keyboard-response","126","566024","0.0-9.0-2.0-0.27","4087","1","25","Female","approach_avoid_spark_v1","""event"",""trial"",""time""
""fullscreenenter"",""1"",""1470""
","
","
","""event"",""trial"",""time""
""fullscreenenter"",""1"",""1470""
","
","","","","","","null","<div style=""font-size:60px;"">+</div>","null","","fixation","","","","","","","","","","",""
"aa-learning-trial","127","569032","0.0-9.0-2.0-1.27","4087","1","25","Female","approach_avoid_spark_v1","""event"",""trial"",""time""
""fullscreenenter"",""1"",""1470""
","
","
","""event"",""trial"",""time""
""fullscreenenter"",""1"",""1470""
","
","","","","","","449.19999998807907","images/straw8.png","","","learning","2","2","1","1","straw","fruit","1","0","","neutral","0"
"html-keyboard-response","128","569536","0.0-9.0-2.0-0.28","4087","1","25","Female","approach_avoid_spark_v1","""event"",""trial"",""time""
""fullscreenenter"",""1"",""1470""
","
","
","""event"",""trial"",""time""
""fullscreenenter"",""1"",""1470""
","
","","","","","","null","<div style=""font-size:60px;"">+</div>","null","","fixation","","","","","","","","","","",""
"aa-learning-trial","129","572544","0.0-9.0-2.0-1.28","4087","1","25","Female","approach_avoid_spark_v1","""event"",""trial"",""time""
""fullscreenenter"",""1"",""1470""
","
","
","""event"",""trial"",""time""
""fullscreenenter"",""1"",""1470""
","
","","","","","","409.7000000476837","images/straw7.png","","","learning","4","4","1","1","straw","fruit","1","0","","neutral","0"
"html-keyboard-response","130","573059","0.0-9.0-2.0-0.29","4087","1","25","Female","approach_avoid_spark_v1","""event"",""trial"",""time""
""fullscreenenter"",""1"",""1470""
","
","
","""event"",""trial"",""time""
""fullscreenenter"",""1"",""1470""
","
","","","","","","null","<div style=""font-size:60px;"">+</div>","null","","fixation","","","","","","","","","","",""
"aa-learning-trial","131","576064","0.0-9.0-2.0-1.29","4087","1","25","Female","approach_avoid_spark_v1","""event"",""trial"",""time""
""fullscreenenter"",""1"",""1470""
","
","
","""event"",""trial"",""time""
""fullscreenenter"",""1"",""1470""
","
","","","","","","506.60000002384186","images/apple6.png","","","learning","-7","0","0","0","apple","fruit","1","0","","bad","[-6]"
"html-keyboard-response","132","576568","0.0-9.0-2.0-0.30","4087","1","25","Female","approach_avoid_spark_v1","""event"",""trial"",""time""
""fullscreenenter"",""1"",""1470""
","
","
","""event"",""trial"",""time""
""fullscreenenter"",""1"",""1470""
","
","","","","","","null","<div style=""font-size:60px;"">+</div>","null","","fixation","","","","","","","","","","",""
"aa-learning-trial","133","579576","0.0-9.0-2.0-1.30","4087","1","25","Female","approach_avoid_spark_v1","""event"",""trial"",""time""
""fullscreenenter"",""1"",""1470""
","
","
","""event"",""trial"",""time""
""fullscreenenter"",""1"",""1470""
","
","","","","","","531.5","images/orange1.png","","","learning","1","1","1","1","orange","fruit","1","0","","good","[4]"
"html-keyboard-response","134","580079","0.0-9.0-2.0-0.31","4087","1","25","Female","approach_avoid_spark_v1","""event"",""trial"",""time""
""fullscreenenter"",""1"",""1470""
","
","
","""event"",""trial"",""time""
""fullscreenenter"",""1"",""1470""
","
","","","","","","null","<div style=""font-size:60px;"">+</div>","null","","fixation","","","","","","","","","","",""
"aa-learning-trial","135","583087","0.0-9.0-2.0-1.31","4087","1","25","Female","approach_avoid_spark_v1","""event"",""trial"",""time""
""fullscreenenter"",""1"",""1470""
","
","
","""event"",""trial"",""time""
""fullscreenenter"",""1"",""1470""
","
","","","","","","1063.7999999523163","images/apple5.png","","","learning","-4","0","0","0","apple","fruit","1","0","","bad","[-6]"
"html-keyboard-response","136","583592","0.0-9.0-2.0-0.32","4087","1","25","Female","approach_avoid_spark_v1","""event"",""trial"",""time""
""fullscreenenter"",""1"",""1470""
","
","
","""event"",""trial"",""time""
""fullscreenenter"",""1"",""1470""
","
","","","","","","null","<div style=""font-size:60px;"">+</div>","null","","fixation","","","","","","","","","","",""
"aa-learning-trial","137","586599","0.0-9.0-2.0-1.32","4087","1","25","Female","approach_avoid_spark_v1","""event"",""trial"",""time""
""fullscreenenter"",""1"",""1470""
","
","
","""event"",""trial"",""time""
""fullscreenenter"",""1"",""1470""
","
","","","","","","551.0999999642372","images/orange1.png","","","learning","3","3","1","1","orange","fruit","1","0","","good","[4]"
"html-keyboard-response","138","587104","0.0-9.0-2.0-0.33","4087","1","25","Female","approach_avoid_spark_v1","""event"",""trial"",""time""
""fullscreenenter"",""1"",""1470""
","
","
","""event"",""trial"",""time""
""fullscreenenter"",""1"",""1470""
","
","","","","","","null","<div style=""font-size:60px;"">+</div>","null","","fixation","","","","","","","","","","",""
"aa-learning-trial","139","590112","0.0-9.0-2.0-1.33","4087","1","25","Female","approach_avoid_spark_v1","""event"",""trial"",""time""
""fullscreenenter"",""1"",""1470""
","
","
","""event"",""trial"",""time""
""fullscreenenter"",""1"",""1470""
","
","","","","","","599.9000000357628","images/apple3.png","","","learning","-8","0","0","0","apple","fruit","1","0","","bad","[-6]"
"html-keyboard-response","140","590616","0.0-9.0-2.0-0.34","4087","1","25","Female","approach_avoid_spark_v1","""event"",""trial"",""time""
""fullscreenenter"",""1"",""1470""
","
","
","""event"",""trial"",""time""
""fullscreenenter"",""1"",""1470""
","
","","","","","","null","<div style=""font-size:60px;"">+</div>","null","","fixation","","","","","","","","","","",""
"aa-learning-trial","141","593623","0.0-9.0-2.0-1.34","4087","1","25","Female","approach_avoid_spark_v1","""event"",""trial"",""time""
""fullscreenenter"",""1"",""1470""
","
","
","""event"",""trial"",""time""
""fullscreenenter"",""1"",""1470""
","
","","","","","","639.9000000357628","images/orange1.png","","","learning","3","3","1","1","orange","fruit","1","0","","good","[4]"
"html-keyboard-response","142","594128","0.0-9.0-2.0-0.35","4087","1","25","Female","approach_avoid_spark_v1","""event"",""trial"",""time""
""fullscreenenter"",""1"",""1470""
","
","
","""event"",""trial"",""time""
""fullscreenenter"",""1"",""1470""
","
","","","","","","null","<div style=""font-size:60px;"">+</div>","null","","fixation","","","","","","","","","","",""
"aa-learning-trial","143","597136","0.0-9.0-2.0-1.35","4087","1","25","Female","approach_avoid_spark_v1","""event"",""trial"",""time""
""fullscreenenter"",""1"",""1470""
","
","
","""event"",""trial"",""time""
""fullscreenenter"",""1"",""1470""
","
","","","","","","593.3999999761581","images/orange8.png","","","learning","3","3","1","1","orange","fruit","1","0","","good","[4]"
"html-keyboard-response","144","597640","0.0-9.0-2.0-0.36","4087","1","25","Female","approach_avoid_spark_v1","""event"",""trial"",""time""
""fullscreenenter"",""1"",""1470""
","
","
","""event"",""trial"",""time""
""fullscreenenter"",""1"",""1470""
","
","","","","","","null","<div style=""font-size:60px;"">+</div>","null","","fixation","","","","","","","","","","",""
"aa-learning-trial","145","600649","0.0-9.0-2.0-1.36","4087","1","25","Female","approach_avoid_spark_v1","""event"",""trial"",""time""
""fullscreenenter"",""1"",""1470""
","
","
","""event"",""trial"",""time""
""fullscreenenter"",""1"",""1470""
","
","","","","","","744.7000000476837","images/straw8.png","","","learning","-1","0","0","0","straw","fruit","1","0","","neutral","0"
"html-keyboard-response","146","601152","0.0-9.0-2.0-0.37","4087","1","25","Female","approach_avoid_spark_v1","""event"",""trial"",""time""
""fullscreenenter"",""1"",""1470""
","
","
","""event"",""trial"",""time""
""fullscreenenter"",""1"",""1470""
","
","","","","","","null","<div style=""font-size:60px;"">+</div>","null","","fixation","","","","","","","","","","",""
"aa-learning-trial","147","604160","0.0-9.0-2.0-1.37","4087","1","25","Female","approach_avoid_spark_v1","""event"",""trial"",""time""
""fullscreenenter"",""1"",""1470""
","
","
","""event"",""trial"",""time""
""fullscreenenter"",""1"",""1470""
","
","","","","","","440.69999998807907","images/orange8.png","","","learning","2","2","1","1","orange","fruit","1","0","","good","[4]"
"html-keyboard-response","148","604663","0.0-9.0-2.0-0.38","4087","1","25","Female","approach_avoid_spark_v1","""event"",""trial"",""time""
""fullscreenenter"",""1"",""1470""
","
","
","""event"",""trial"",""time""
""fullscreenenter"",""1"",""1470""
","
","","","","","","null","<div style=""font-size:60px;"">+</div>","null","","fixation","","","","","","","","","","",""
"aa-learning-trial","149","607672","0.0-9.0-2.0-1.38","4087","1","25","Female","approach_avoid_spark_v1","""event"",""trial"",""time""
""fullscreenenter"",""1"",""1470""
","
","
","""event"",""trial"",""time""
""fullscreenenter"",""1"",""1470""
","
","","","","","","433.19999998807907","images/straw2.png","","","learning","-1","-1","1","1","straw","fruit","1","0","","neutral","0"
"html-keyboard-response","150","608176","0.0-9.0-2.0-0.39","4087","1","25","Female","approach_avoid_spark_v1","""event"",""trial"",""time""
""fullscreenenter"",""1"",""1470""
","
","
","""event"",""trial"",""time""
""fullscreenenter"",""1"",""1470""
","
","","","","","","null","<div style=""font-size:60px;"">+</div>","null","","fixation","","","","","","","","","","",""
"aa-learning-trial","151","611184","0.0-9.0-2.0-1.39","4087","1","25","Female","approach_avoid_spark_v1","""event"",""trial"",""time""
""fullscreenenter"",""1"",""1470""
","
","
","""event"",""trial"",""time""
""fullscreenenter"",""1"",""1470""
","
","","","","","","401.9000000357628","images/orange1.png","","","learning","6","6","1","1","orange","fruit","1","0","","good","[4]"
"html-keyboard-response","152","611688","0.0-9.0-2.0-0.40","4087","1","25","Female","approach_avoid_spark_v1","""event"",""trial"",""time""
""fullscreenenter"",""1"",""1470""
","
","
","""event"",""trial"",""time""
""fullscreenenter"",""1"",""1470""
","
","","","","","","null","<div style=""font-size:60px;"">+</div>","null","","fixation","","","","","","","","","","",""
"aa-learning-trial","153","614696","0.0-9.0-2.0-1.40","4087","1","25","Female","approach_avoid_spark_v1","""event"",""trial"",""time""
""fullscreenenter"",""1"",""1470""
","
","
","""event"",""trial"",""time""
""fullscreenenter"",""1"",""1470""
","
","","","","","","507","images/straw5.png","","","learning","[1]","1","1","1","straw","fruit","1","0","","neutral","0"
"html-keyboard-response","154","615200","0.0-9.0-2.0-0.41","4087","1","25","Female","approach_avoid_spark_v1","""event"",""trial"",""time""
""fullscreenenter"",""1"",""1470""
","
","
","""event"",""trial"",""time""
""fullscreenenter"",""1"",""1470""
","
","","","","","","null","<div style=""font-size:60px;"">+</div>","null","","fixation","","","","","","","","","","",""
"aa-learning-trial","155","618209","0.0-9.0-2.0-1.41","4087","1","25","Female","approach_avoid_spark_v1","""event"",""trial"",""time""
""fullscreenenter"",""1"",""1470""
","
","
","""event"",""trial"",""time""
""fullscreenenter"",""1"",""1470""
","
","","","","","","521.3000000119209","images/apple4.png","","","learning","-5","0","0","0","apple","fruit","1","0","","bad","[-6]"
"html-keyboard-response","156","618712","0.0-9.0-2.0-0.42","4087","1","25","Female","approach_avoid_spark_v1","""event"",""trial"",""time""
""fullscreenenter"",""1"",""1470""
","
","
","""event"",""trial"",""time""
""fullscreenenter"",""1"",""1470""
","
","","","","","","null","<div style=""font-size:60px;"">+</div>","null","","fixation","","","","","","","","","","",""
"aa-learning-trial","157","621720","0.0-9.0-2.0-1.42","4087","1","25","Female","approach_avoid_spark_v1","""event"",""trial"",""time""
""fullscreenenter"",""1"",""1470""
","
","
","""event"",""trial"",""time""
""fullscreenenter"",""1"",""1470""
","
","","","","","","446.5","images/straw7.png","","","learning","2","0","0","0","straw","fruit","1","0","","neutral","0"
"html-keyboard-response","158","622225","0.0-9.0-2.0-0.43","4087","1","25","Female","approach_avoid_spark_v1","""event"",""trial"",""time""
""fullscreenenter"",""1"",""1470""
","
","
","""event"",""trial"",""time""
""fullscreenenter"",""1"",""1470""
","
","","","","","","null","<div style=""font-size:60px;"">+</div>","null","","fixation","","","","","","","","","","",""
"aa-learning-trial","159","625233","0.0-9.0-2.0-1.43","4087","1","25","Female","approach_avoid_spark_v1","""event"",""trial"",""time""
""fullscreenenter"",""1"",""1470""
","
","
","""event"",""trial"",""time""
""fullscreenenter"",""1"",""1470""
","
","","","","","","658.1000000238419","images/apple4.png","","","learning","-9","0","0","0","apple","fruit","1","0","","bad","[-6]"
"html-keyboard-response","160","625736","0.0-9.0-2.0-0.44","4087","1","25","Female","approach_avoid_spark_v1","""event"",""trial"",""time""
""fullscreenenter"",""1"",""1470""
","
","
","""event"",""trial"",""time""
""fullscreenenter"",""1"",""1470""
","
","","","","","","null","<div style=""font-size:60px;"">+</div>","null","","fixation","","","","","","","","","","",""
"aa-learning-trial","161","628745","0.0-9.0-2.0-1.44","4087","1","25","Female","approach_avoid_spark_v1","""event"",""trial"",""time""
""fullscreenenter"",""1"",""1470""
","
","
","""event"",""trial"",""time""
""fullscreenenter"",""1"",""1470""
","
","","","","","","679.8000000119209","images/straw5.png","","","learning","2","2","1","1","straw","fruit","1","0","","neutral","0"
"html-keyboard-response","162","629248","0.0-9.0-2.0-0.45","4087","1","25","Female","approach_avoid_spark_v1","""event"",""trial"",""time""
""fullscreenenter"",""1"",""1470""
","
","
","""event"",""trial"",""time""
""fullscreenenter"",""1"",""1470""
","
","","","","","","null","<div style=""font-size:60px;"">+</div>","null","","fixation","","","","","","","","","","",""
"aa-learning-trial","163","632256","0.0-9.0-2.0-1.45","4087","1","25","Female","approach_avoid_spark_v1","""event"",""trial"",""time""
""fullscreenenter"",""1"",""1470""
","
","
","""event"",""trial"",""time""
""fullscreenenter"",""1"",""1470""
","
","","","","","","534","images/apple8.png","","","learning","-6","0","0","0","apple","fruit","1","0","","bad","[-6]"
"html-keyboard-response","164","632760","0.0-9.0-2.0-0.46","4087","1","25","Female","approach_avoid_spark_v1","""event"",""trial"",""time""
""fullscreenenter"",""1"",""1470""
","
","
","""event"",""trial"",""time""
""fullscreenenter"",""1"",""1470""
","
","","","","","","null","<div style=""font-size:60px;"">+</div>","null","","fixation","","","","","","","","","","",""
"aa-learning-trial","165","635768","0.0-9.0-2.0-1.46","4087","1","25","Female","approach_avoid_spark_v1","""event"",""trial"",""time""
""fullscreenenter"",""1"",""1470""
","
","
","""event"",""trial"",""time""
""fullscreenenter"",""1"",""1470""
","
","","","","","","503.19999998807907","images/apple6.png","","","learning","-6","0","0","0","apple","fruit","1","0","","bad","[-6]"
"html-keyboard-response","166","636272","0.0-9.0-2.0-0.47","4087","1","25","Female","approach_avoid_spark_v1","""event"",""trial"",""time""
""fullscreenenter"",""1"",""1470""
","
","
","""event"",""trial"",""time""
""fullscreenenter"",""1"",""1470""
","
","","","","","","null","<div style=""font-size:60px;"">+</div>","null","","fixation","","","","","","","","","","",""
"aa-learning-trial","167","639281","0.0-9.0-2.0-1.47","4087","1","25","Female","approach_avoid_spark_v1","""event"",""trial"",""time""
""fullscreenenter"",""1"",""1470""
","
","
","""event"",""trial"",""time""
""fullscreenenter"",""1"",""1470""
","
","","","","","","560.1000000238419","images/straw8.png","","","learning","[1]","1","1","1","straw","fruit","1","0","","neutral","0"
"html-keyboard-response","168","639784","0.0-9.0-2.0-0.48","4087","1","25","Female","approach_avoid_spark_v1","""event"",""trial"",""time""
""fullscreenenter"",""1"",""1470""
","
","
","""event"",""trial"",""time""
""fullscreenenter"",""1"",""1470""
","
","","","","","","null","<div style=""font-size:60px;"">+</div>","null","","fixation","","","","","","","","","","",""
"aa-learning-trial","169","642793","0.0-9.0-2.0-1.48","4087","1","25","Female","approach_avoid_spark_v1","""event"",""trial"",""time""
""fullscreenenter"",""1"",""1470""
","
","
","""event"",""trial"",""time""
""fullscreenenter"",""1"",""1470""
","
","","","","","","598.6999999880791","images/straw5.png","","","learning","-1","-1","1","1","straw","fruit","1","0","","neutral","0"
"html-keyboard-response","170","643297","0.0-9.0-2.0-0.49","4087","1","25","Female","approach_avoid_spark_v1","""event"",""trial"",""time""
""fullscreenenter"",""1"",""1470""
","
","
","""event"",""trial"",""time""
""fullscreenenter"",""1"",""1470""
","
","","","","","","null","<div style=""font-size:60px;"">+</div>","null","","fixation","","","","","","","","","","",""
"aa-learning-trial","171","646304","0.0-9.0-2.0-1.49","4087","1","25","Female","approach_avoid_spark_v1","""event"",""trial"",""time""
""fullscreenenter"",""1"",""1470""
","
","
","""event"",""trial"",""time""
""fullscreenenter"",""1"",""1470""
","
","","","","","","390.30000001192093","images/orange4.png","","","learning","4","0","0","0","orange","fruit","1","0","","good","[4]"
"html-keyboard-response","172","646809","0.0-9.0-2.0-0.50","4087","1","25","Female","approach_avoid_spark_v1","""event"",""trial"",""time""
""fullscreenenter"",""1"",""1470""
","
","
","""event"",""trial"",""time""
""fullscreenenter"",""1"",""1470""
","
","","","","","","null","<div style=""font-size:60px;"">+</div>","null","","fixation","","","","","","","","","","",""
"aa-learning-trial","173","649816","0.0-9.0-2.0-1.50","4087","1","25","Female","approach_avoid_spark_v1","""event"",""trial"",""time""
""fullscreenenter"",""1"",""1470""
","
","
","""event"",""trial"",""time""
""fullscreenenter"",""1"",""1470""
","
","","","","","","510.5999999642372","images/orange8.png","","","learning","4","4","1","1","orange","fruit","1","0","","good","[4]"
"html-button-response","174","652171","0.0-9.0-3.0","4087","1","25","Female","approach_avoid_spark_v1","""event"",""trial"",""time""
""fullscreenenter"",""1"",""1470""
","
","
","""event"",""trial"",""time""
""fullscreenenter"",""1"",""1470""
","
","","","","","","2353.399999976158","<p> You have completed the round! <p> In this round, you earned 60 points! </p>","0","","break","","","","","","","","","","",""
"html-button-response","175","656844","0.0-10.0","4087","1","25","Female","approach_avoid_spark_v1","""event"",""trial"",""time""
""fullscreenenter"",""1"",""1470""
","
","
","""event"",""trial"",""time""
""fullscreenenter"",""1"",""1470""
","
","","","","","","4671.199999988079","<p> Now it's time to play another round. </p>","0","","transition_screen","","","","","","","","","","",""
"preload","176","656963","0.0-11.0-0.0","4087","1","25","Female","approach_avoid_spark_v1","""event"",""trial"",""time""
""fullscreenenter"",""1"",""1470""
","
","
","""event"",""trial"",""time""
""fullscreenenter"",""1"",""1470""
","
","true","false","[]","[]","[]","","","","","","","","","","","","","","","",""
"learning-instructions","177","664332","0.0-11.0-1.0-0.0","4087","1","25","Female","approach_avoid_spark_v1","""event"",""trial"",""time""
""fullscreenenter"",""1"",""1470""
","
","
","""event"",""trial"",""time""
""fullscreenenter"",""1"",""1470""
","
","","","","","","1115","<p> Your goal in this round is to sell different plants to a picky customer. </p></div>","","0","instructions","","","","","","","","","","",""
"learning-instructions","178","674166","0.0-11.0-1.0-0.1","4087","1","25","Female","approach_avoid_spark_v1","""event"",""trial"",""time""
""fullscreenenter"",""1"",""1470""
","
","
","""event"",""trial"",""time""
""fullscreenenter"",""1"",""1470""
","
","","","","","","587.8000000119209","<p> The customer likes some plants and dislikes others.  </p><p> On each turn, you will see a plant.   </p><p> You need to decide whether to offer it to the customer or not.  </p>","","0","instructions","","","","","","","","","","",""
"learning-instructions","179","682134","0.0-11.0-1.0-0.2","4087","1","25","Female","approach_avoid_spark_v1","""event"",""trial"",""time""
""fullscreenenter"",""1"",""1470""
","
","
","""event"",""trial"",""time""
""fullscreenenter"",""1"",""1470""
","
","","","","","","2426.600000023842","<p> You can offer the plant by pressing 1 and decide to not offer it by pressing 0. </p><br><div class=""choice-instructions-grid""> <div class=""choice-option""><img src=""images/approach.png"" class=""choice-option-img"" stage=""instructions"" position=""0"" ><div class=""choice-option-text""> Press ""1."" </div></div><div class=""choice-option""><img src=""images/avoid.png"" class=""choice-option-img"" stage=""instructions"" position=""1"" ><div class=""choice-option-text""> Press ""0."" </div></div>","","0","instructions","","","","","","","","","","",""
"learning-instructions","180","693248","0.0-11.0-1.0-0.3","4087","1","25","Female","approach_avoid_spark_v1","""event"",""trial"",""time""
""fullscreenenter"",""1"",""1470""
","
","
","""event"",""trial"",""time""
""fullscreenenter"",""1"",""1470""
","
","","","","","","2269.5","<p> If you offer a plant to the customer that she likes, she will be very pleased! </p><p> But if you offer a plant that she does NOT like, she will be annoyed. </p>","","0","instructions","","","","","","","","","","",""
"learning-instructions","181","706586","0.0-11.0-1.0-0.4","4087","1","25","Female","approach_avoid_spark_v1","""event"",""trial"",""time""
""fullscreenenter"",""1"",""1470""
","
","
","""event"",""trial"",""time""
""fullscreenenter"",""1"",""1470""
","
","","","","","","887.6999999880791","<p> You will earn points based on how you made the customer feel. </p><p> If you made her pleased, you will WIN anywhere from 1 - 9 points, </p><p> but if you made her annoyed, you will LOSE anywhere from 1 - 9 points. </p>","","0","instructions","","","","","","","","","","",""
"learning-instructions","182","714395","0.0-11.0-1.0-0.5","4087","1","25","Female","approach_avoid_spark_v1","""event"",""trial"",""time""
""fullscreenenter"",""1"",""1470""
","
","
","""event"",""trial"",""time""
""fullscreenenter"",""1"",""1470""
","
","","","","","","1156.9000000357628","<p> You will see how many points you won or lost in the center of the screen. </p><p> Here is what you would see if you won 5 points: </p><p style=""color:green;font-size:50px;font-weight:bolder"">5</p>","","0","instructions","","","","","","","","","","",""
"learning-instructions","183","719019","0.0-11.0-1.0-0.6","4087","1","25","Female","approach_avoid_spark_v1","""event"",""trial"",""time""
""fullscreenenter"",""1"",""1470""
","
","
","""event"",""trial"",""time""
""fullscreenenter"",""1"",""1470""
","
","","","","","","1791","<p> And here is what you would see if you lost 3 points: </p><p style=""color:red;font-size:50px;font-weight:bolder"">-3</p>","","0","instructions","","","","","","","","","","",""
"learning-instructions","184","736969","0.0-11.0-1.0-0.7","4087","1","25","Female","approach_avoid_spark_v1","""event"",""trial"",""time""
""fullscreenenter"",""1"",""1470""
","
","
","""event"",""trial"",""time""
""fullscreenenter"",""1"",""1470""
","
","","","","","","3371.399999976158","<p> Some plants will make the customer VERY pleased or annoyed. </p><p> These plants will make you win or lose LOTS of points. </p><p> The customer will have less strong feelings about other plants. </p><p> These plants will make you win or lose small amounts of points. </p>","","0","instructions","","","","","","","","","","",""
"learning-instructions","185","753301","0.0-11.0-1.0-0.8","4087","1","25","Female","approach_avoid_spark_v1","""event"",""trial"",""time""
""fullscreenenter"",""1"",""1470""
","
","
","""event"",""trial"",""time""
""fullscreenenter"",""1"",""1470""
","
","","","","","","3903.699999988079","<p> If you choose to not offer the plant to the customer, you will not win or lose any points. </p><p>  However, in the center of the screen, you will see the number of points you WOULD HAVE won or lost if you had offered the plant. </p>","","0","instructions","","","","","","","","","","",""
"learning-instructions","186","766574","0.0-11.0-1.0-0.9","4087","1","25","Female","approach_avoid_spark_v1","""event"",""trial"",""time""
""fullscreenenter"",""1"",""1470""
","
","
","""event"",""trial"",""time""
""fullscreenenter"",""1"",""1470""
","
","","","","","","1936.199999988079","<p> Here is what you might see if you did not offer the plant but the customer would have liked it: </p><p style=""color:grey; font-size:50px; display: inline-block; border-spacing: 15px; border-width:3px; border-style:solid; border-color:red"">  &nbsp; 6 &nbsp; </p><p> Remember, in this case, you would not win or lose ANY points because you did not offer the plant.  </p>","","0","instructions","","","","","","","","","","",""
"learning-instructions","187","775487","0.0-11.0-1.0-0.10","4087","1","25","Female","approach_avoid_spark_v1","""event"",""trial"",""time""
""fullscreenenter"",""1"",""1470""
","
","
","""event"",""trial"",""time""
""fullscreenenter"",""1"",""1470""
","
","","","","","","1349.8999999761581","<p> Try to make the best choice for each plant because </p><p> at the end of the game, you will earn bonus money based on how many points you earned. </p>","","0","instructions","","","","","","","","","","",""
"learning-instructions","188","784736","0.0-11.0-1.0-0.11","4087","1","25","Female","approach_avoid_spark_v1","""event"",""trial"",""time""
""fullscreenenter"",""1"",""1470""
","
","
","""event"",""trial"",""time""
""fullscreenenter"",""1"",""1470""
","
","","","","","","1059.4000000357628","<p> You will have 3 seconds to make each choice. Try to respond before time runs out! </p><p> You will lose 5 points each time you do not make a response. </p>","","0","instructions","","","","","","","","","","",""
"html-keyboard-response","189","785365","0.0-11.0-2.0-0.0","4087","1","25","Female","approach_avoid_spark_v1","""event"",""trial"",""time""
""fullscreenenter"",""1"",""1470""
","
","
","""event"",""trial"",""time""
""fullscreenenter"",""1"",""1470""
","
","","","","","","null","<div style=""font-size:60px;"">+</div>","null","","fixation","","","","","","","","","","",""
"aa-learning-trial","190","788380","0.0-11.0-2.0-1.0","4087","1","25","Female","approach_avoid_spark_v1","""event"",""trial"",""time""
""fullscreenenter"",""1"",""1470""
","
","
","""event"",""trial"",""time""
""fullscreenenter"",""1"",""1470""
","
","","","","","","null","images/flower2.png","","","learning","-1","-5","","null","flower","plants","2","1","","neutral","0"
"html-keyboard-response","191","788893","0.0-11.0-2.0-0.1","4087","1","25","Female","approach_avoid_spark_v1","""event"",""trial"",""time""
""fullscreenenter"",""1"",""1470""
","
","
","""event"",""trial"",""time""
""fullscreenenter"",""1"",""1470""
","
","","","","","","null","<div style=""font-size:60px;"">+</div>","null","","fixation","","","","","","","","","","",""
"aa-learning-trial","192","791912","0.0-11.0-2.0-1.1","4087","1","25","Female","approach_avoid_spark_v1","""event"",""trial"",""time""
""fullscreenenter"",""1"",""1470""
","
","
","""event"",""trial"",""time""
""fullscreenenter"",""1"",""1470""
","
","","","","","","null","images/cactus8.png","","","learning","-2","-5","","null","cactus","plants","2","1","","good","[6]"
"html-keyboard-response","193","792425","0.0-11.0-2.0-0.2","4087","1","25","Female","approach_avoid_spark_v1","""event"",""trial"",""time""
""fullscreenenter"",""1"",""1470""
","
","
","""event"",""trial"",""time""
""fullscreenenter"",""1"",""1470""
","
","","","","","","null","<div style=""font-size:60px;"">+</div>","null","","fixation","","","","","","","","","","",""
"aa-learning-trial","194","795432","0.0-11.0-2.0-1.2","4087","1","25","Female","approach_avoid_spark_v1","""event"",""trial"",""time""
""fullscreenenter"",""1"",""1470""
","
","
","""event"",""trial"",""time""
""fullscreenenter"",""1"",""1470""
","
","","","","","","1981.1000000238419","images/cactus8.png","","","learning","-2","-2","1","1","cactus","plants","2","1","","good","[6]"
"html-keyboard-response","195","795943","0.0-11.0-2.0-0.3","4087","1","25","Female","approach_avoid_spark_v1","""event"",""trial"",""time""
""fullscreenenter"",""1"",""1470""
","
","
","""event"",""trial"",""time""
""fullscreenenter"",""1"",""1470""
","
","","","","","","null","<div style=""font-size:60px;"">+</div>","null","","fixation","","","","","","","","","","",""
"aa-learning-trial","196","798952","0.0-11.0-2.0-1.3","4087","1","25","Female","approach_avoid_spark_v1","""event"",""trial"",""time""
""fullscreenenter"",""1"",""1470""
","
","
","""event"",""trial"",""time""
""fullscreenenter"",""1"",""1470""
","
","","","","","","1182.5","images/cactus4.png","","","learning","4","4","1","1","cactus","plants","2","1","","good","[6]"
"html-keyboard-response","197","799463","0.0-11.0-2.0-0.4","4087","1","25","Female","approach_avoid_spark_v1","""event"",""trial"",""time""
""fullscreenenter"",""1"",""1470""
","
","
","""event"",""trial"",""time""
""fullscreenenter"",""1"",""1470""
","
","","","","","","null","<div style=""font-size:60px;"">+</div>","null","","fixation","","","","","","","","","","",""
"aa-learning-trial","198","802479","0.0-11.0-2.0-1.4","4087","1","25","Female","approach_avoid_spark_v1","""event"",""trial"",""time""
""fullscreenenter"",""1"",""1470""
","
","
","""event"",""trial"",""time""
""fullscreenenter"",""1"",""1470""
","
","","","","","","1030.300000011921","images/cactus5.png","","","learning","-5","-5","1","1","cactus","plants","2","1","","good","[6]"
"html-keyboard-response","199","802992","0.0-11.0-2.0-0.5","4087","1","25","Female","approach_avoid_spark_v1","""event"",""trial"",""time""
""fullscreenenter"",""1"",""1470""
","
","
","""event"",""trial"",""time""
""fullscreenenter"",""1"",""1470""
","
","","","","","","null","<div style=""font-size:60px;"">+</div>","null","","fixation","","","","","","","","","","",""
"aa-learning-trial","200","806012","0.0-11.0-2.0-1.5","4087","1","25","Female","approach_avoid_spark_v1","""event"",""trial"",""time""
""fullscreenenter"",""1"",""1470""
","
","
","""event"",""trial"",""time""
""fullscreenenter"",""1"",""1470""
","
","","","","","","671.7999999523163","images/tree5.png","","","learning","8","8","1","1","tree","plants","2","1","","bad","[-6]"
"html-keyboard-response","201","806529","0.0-11.0-2.0-0.6","4087","1","25","Female","approach_avoid_spark_v1","""event"",""trial"",""time""
""fullscreenenter"",""1"",""1470""
","
","
","""event"",""trial"",""time""
""fullscreenenter"",""1"",""1470""
","
","","","","","","null","<div style=""font-size:60px;"">+</div>","null","","fixation","","","","","","","","","","",""
"aa-learning-trial","202","809538","0.0-11.0-2.0-1.6","4087","1","25","Female","approach_avoid_spark_v1","""event"",""trial"",""time""
""fullscreenenter"",""1"",""1470""
","
","
","""event"",""trial"",""time""
""fullscreenenter"",""1"",""1470""
","
","","","","","","673.7999999523163","images/cactus5.png","","","learning","-5","0","0","0","cactus","plants","2","1","","good","[6]"
"html-keyboard-response","203","810055","0.0-11.0-2.0-0.7","4087","1","25","Female","approach_avoid_spark_v1","""event"",""trial"",""time""
""fullscreenenter"",""1"",""1470""
","
","
","""event"",""trial"",""time""
""fullscreenenter"",""1"",""1470""
","
","","","","","","null","<div style=""font-size:60px;"">+</div>","null","","fixation","","","","","","","","","","",""
"aa-learning-trial","204","813076","0.0-11.0-2.0-1.7","4087","1","25","Female","approach_avoid_spark_v1","""event"",""trial"",""time""
""fullscreenenter"",""1"",""1470""
","
","
","""event"",""trial"",""time""
""fullscreenenter"",""1"",""1470""
","
","","","","","","929.8000000119209","images/flower2.png","","","learning","-1","-1","1","1","flower","plants","2","1","","neutral","0"
"html-keyboard-response","205","813591","0.0-11.0-2.0-0.8","4087","1","25","Female","approach_avoid_spark_v1","""event"",""trial"",""time""
""fullscreenenter"",""1"",""1470""
","
","
","""event"",""trial"",""time""
""fullscreenenter"",""1"",""1470""
","
","","","","","","null","<div style=""font-size:60px;"">+</div>","null","","fixation","","","","","","","","","","",""
"aa-learning-trial","206","816600","0.0-11.0-2.0-1.8","4087","1","25","Female","approach_avoid_spark_v1","""event"",""trial"",""time""
""fullscreenenter"",""1"",""1470""
","
","
","""event"",""trial"",""time""
""fullscreenenter"",""1"",""1470""
","
","","","","","","606.7999999523163","images/tree6.png","","","learning","-6","-6","1","1","tree","plants","2","1","","bad","[-6]"
"html-keyboard-response","207","817104","0.0-11.0-2.0-0.9","4087","1","25","Female","approach_avoid_spark_v1","""event"",""trial"",""time""
""fullscreenenter"",""1"",""1470""
","
","
","""event"",""trial"",""time""
""fullscreenenter"",""1"",""1470""
","
","","","","","","null","<div style=""font-size:60px;"">+</div>","null","","fixation","","","","","","","","","","",""
"aa-learning-trial","208","820111","0.0-11.0-2.0-1.9","4087","1","25","Female","approach_avoid_spark_v1","""event"",""trial"",""time""
""fullscreenenter"",""1"",""1470""
","
","
","""event"",""trial"",""time""
""fullscreenenter"",""1"",""1470""
","
","","","","","","1133.2999999523163","images/flower8.png","","","learning","3","3","1","1","flower","plants","2","1","","neutral","0"
"html-keyboard-response","209","820616","0.0-11.0-2.0-0.10","4087","1","25","Female","approach_avoid_spark_v1","""event"",""trial"",""time""
""fullscreenenter"",""1"",""1470""
","
","
","""event"",""trial"",""time""
""fullscreenenter"",""1"",""1470""
","
","","","","","","null","<div style=""font-size:60px;"">+</div>","null","","fixation","","","","","","","","","","",""
"aa-learning-trial","210","823624","0.0-11.0-2.0-1.10","4087","1","25","Female","approach_avoid_spark_v1","""event"",""trial"",""time""
""fullscreenenter"",""1"",""1470""
","
","
","""event"",""trial"",""time""
""fullscreenenter"",""1"",""1470""
","
","","","","","","568.6999999880791","images/flower8.png","","","learning","3","3","1","1","flower","plants","2","1","","neutral","0"
"html-keyboard-response","211","824128","0.0-11.0-2.0-0.11","4087","1","25","Female","approach_avoid_spark_v1","""event"",""trial"",""time""
""fullscreenenter"",""1"",""1470""
","
","
","""event"",""trial"",""time""
""fullscreenenter"",""1"",""1470""
","
","","","","","","null","<div style=""font-size:60px;"">+</div>","null","","fixation","","","","","","","","","","",""
"aa-learning-trial","212","827140","0.0-11.0-2.0-1.11","4087","1","25","Female","approach_avoid_spark_v1","""event"",""trial"",""time""
""fullscreenenter"",""1"",""1470""
","
","
","""event"",""trial"",""time""
""fullscreenenter"",""1"",""1470""
","
","","","","","","660","images/tree1.png","","","learning","1","1","1","1","tree","plants","2","1","","bad","[-6]"
"html-keyboard-response","213","827648","0.0-11.0-2.0-0.12","4087","1","25","Female","approach_avoid_spark_v1","""event"",""trial"",""time""
""fullscreenenter"",""1"",""1470""
","
","
","""event"",""trial"",""time""
""fullscreenenter"",""1"",""1470""
","
","","","","","","null","<div style=""font-size:60px;"">+</div>","null","","fixation","","","","","","","","","","",""
"aa-learning-trial","214","830656","0.0-11.0-2.0-1.12","4087","1","25","Female","approach_avoid_spark_v1","""event"",""trial"",""time""
""fullscreenenter"",""1"",""1470""
","
","
","""event"",""trial"",""time""
""fullscreenenter"",""1"",""1470""
","
","","","","","","1075.300000011921","images/tree5.png","","","learning","8","8","1","1","tree","plants","2","1","","bad","[-6]"
"html-keyboard-response","215","831159","0.0-11.0-2.0-0.13","4087","1","25","Female","approach_avoid_spark_v1","""event"",""trial"",""time""
""fullscreenenter"",""1"",""1470""
","
","
","""event"",""trial"",""time""
""fullscreenenter"",""1"",""1470""
","
","","","","","","null","<div style=""font-size:60px;"">+</div>","null","","fixation","","","","","","","","","","",""
"aa-learning-trial","216","834168","0.0-11.0-2.0-1.13","4087","1","25","Female","approach_avoid_spark_v1","""event"",""trial"",""time""
""fullscreenenter"",""1"",""1470""
","
","
","""event"",""trial"",""time""
""fullscreenenter"",""1"",""1470""
","
","","","","","","1338.300000011921","images/tree6.png","","","learning","-6","-6","1","1","tree","plants","2","1","","bad","[-6]"
"html-keyboard-response","217","834671","0.0-11.0-2.0-0.14","4087","1","25","Female","approach_avoid_spark_v1","""event"",""trial"",""time""
""fullscreenenter"",""1"",""1470""
","
","
","""event"",""trial"",""time""
""fullscreenenter"",""1"",""1470""
","
","","","","","","null","<div style=""font-size:60px;"">+</div>","null","","fixation","","","","","","","","","","",""
"aa-learning-trial","218","837679","0.0-11.0-2.0-1.14","4087","1","25","Female","approach_avoid_spark_v1","""event"",""trial"",""time""
""fullscreenenter"",""1"",""1470""
","
","
","""event"",""trial"",""time""
""fullscreenenter"",""1"",""1470""
","
","","","","","","1114.800000011921","images/flower5.png","","","learning","-9","0","0","0","flower","plants","2","1","","neutral","0"
"html-keyboard-response","219","838183","0.0-11.0-2.0-0.15","4087","1","25","Female","approach_avoid_spark_v1","""event"",""trial"",""time""
""fullscreenenter"",""1"",""1470""
","
","
","""event"",""trial"",""time""
""fullscreenenter"",""1"",""1470""
","
","","","","","","null","<div style=""font-size:60px;"">+</div>","null","","fixation","","","","","","","","","","",""
"aa-learning-trial","220","841192","0.0-11.0-2.0-1.15","4087","1","25","Female","approach_avoid_spark_v1","""event"",""trial"",""time""
""fullscreenenter"",""1"",""1470""
","
","
","""event"",""trial"",""time""
""fullscreenenter"",""1"",""1470""
","
","","","","","","861.0999999642372","images/tree5.png","","","learning","8","8","1","1","tree","plants","2","1","","bad","[-6]"
"html-keyboard-response","221","841695","0.0-11.0-2.0-0.16","4087","1","25","Female","approach_avoid_spark_v1","""event"",""trial"",""time""
""fullscreenenter"",""1"",""1470""
","
","
","""event"",""trial"",""time""
""fullscreenenter"",""1"",""1470""
","
","","","","","","null","<div style=""font-size:60px;"">+</div>","null","","fixation","","","","","","","","","","",""
"aa-learning-trial","222","844703","0.0-11.0-2.0-1.16","4087","1","25","Female","approach_avoid_spark_v1","""event"",""trial"",""time""
""fullscreenenter"",""1"",""1470""
","
","
","""event"",""trial"",""time""
""fullscreenenter"",""1"",""1470""
","
","","","","","","757","images/flower7.png","","","learning","6","6","1","1","flower","plants","2","1","","neutral","0"
"html-keyboard-response","223","845209","0.0-11.0-2.0-0.17","4087","1","25","Female","approach_avoid_spark_v1","""event"",""trial"",""time""
""fullscreenenter"",""1"",""1470""
","
","
","""event"",""trial"",""time""
""fullscreenenter"",""1"",""1470""
","
","","","","","","null","<div style=""font-size:60px;"">+</div>","null","","fixation","","","","","","","","","","",""
"aa-learning-trial","224","848215","0.0-11.0-2.0-1.17","4087","1","25","Female","approach_avoid_spark_v1","""event"",""trial"",""time""
""fullscreenenter"",""1"",""1470""
","
","
","""event"",""trial"",""time""
""fullscreenenter"",""1"",""1470""
","
","","","","","","826.8999999761581","images/cactus7.png","","","learning","-7","0","0","0","cactus","plants","2","1","","good","[6]"
"html-keyboard-response","225","848720","0.0-11.0-2.0-0.18","4087","1","25","Female","approach_avoid_spark_v1","""event"",""trial"",""time""
""fullscreenenter"",""1"",""1470""
","
","
","""event"",""trial"",""time""
""fullscreenenter"",""1"",""1470""
","
","","","","","","null","<div style=""font-size:60px;"">+</div>","null","","fixation","","","","","","","","","","",""
"aa-learning-trial","226","851728","0.0-11.0-2.0-1.18","4087","1","25","Female","approach_avoid_spark_v1","""event"",""trial"",""time""
""fullscreenenter"",""1"",""1470""
","
","
","""event"",""trial"",""time""
""fullscreenenter"",""1"",""1470""
","
","","","","","","940.6000000238419","images/tree6.png","","","learning","-6","0","0","0","tree","plants","2","1","","bad","[-6]"
"html-keyboard-response","227","852232","0.0-11.0-2.0-0.19","4087","1","25","Female","approach_avoid_spark_v1","""event"",""trial"",""time""
""fullscreenenter"",""1"",""1470""
","
","
","""event"",""trial"",""time""
""fullscreenenter"",""1"",""1470""
","
","","","","","","null","<div style=""font-size:60px;"">+</div>","null","","fixation","","","","","","","","","","",""
"aa-learning-trial","228","855239","0.0-11.0-2.0-1.19","4087","1","25","Female","approach_avoid_spark_v1","""event"",""trial"",""time""
""fullscreenenter"",""1"",""1470""
","
","
","""event"",""trial"",""time""
""fullscreenenter"",""1"",""1470""
","
","","","","","","917.0999999642372","images/cactus8.png","","","learning","-2","-2","1","1","cactus","plants","2","1","","good","[6]"
"html-keyboard-response","229","855744","0.0-11.0-2.0-0.20","4087","1","25","Female","approach_avoid_spark_v1","""event"",""trial"",""time""
""fullscreenenter"",""1"",""1470""
","
","
","""event"",""trial"",""time""
""fullscreenenter"",""1"",""1470""
","
","","","","","","null","<div style=""font-size:60px;"">+</div>","null","","fixation","","","","","","","","","","",""
"aa-learning-trial","230","858760","0.0-11.0-2.0-1.20","4087","1","25","Female","approach_avoid_spark_v1","""event"",""trial"",""time""
""fullscreenenter"",""1"",""1470""
","
","
","""event"",""trial"",""time""
""fullscreenenter"",""1"",""1470""
","
","","","","","","678.1000000238419","images/tree5.png","","","learning","8","8","1","1","tree","plants","2","1","","bad","[-6]"
"html-keyboard-response","231","859264","0.0-11.0-2.0-0.21","4087","1","25","Female","approach_avoid_spark_v1","""event"",""trial"",""time""
""fullscreenenter"",""1"",""1470""
","
","
","""event"",""trial"",""time""
""fullscreenenter"",""1"",""1470""
","
","","","","","","null","<div style=""font-size:60px;"">+</div>","null","","fixation","","","","","","","","","","",""
"aa-learning-trial","232","862271","0.0-11.0-2.0-1.21","4087","1","25","Female","approach_avoid_spark_v1","""event"",""trial"",""time""
""fullscreenenter"",""1"",""1470""
","
","
","""event"",""trial"",""time""
""fullscreenenter"",""1"",""1470""
","
","","","","","","987.6999999880791","images/cactus4.png","","","learning","4","4","1","1","cactus","plants","2","1","","good","[6]"
"html-keyboard-response","233","862776","0.0-11.0-2.0-0.22","4087","1","25","Female","approach_avoid_spark_v1","""event"",""trial"",""time""
""fullscreenenter"",""1"",""1470""
","
","
","""event"",""trial"",""time""
""fullscreenenter"",""1"",""1470""
","
","","","","","","null","<div style=""font-size:60px;"">+</div>","null","","fixation","","","","","","","","","","",""
"aa-learning-trial","234","865784","0.0-11.0-2.0-1.22","4087","1","25","Female","approach_avoid_spark_v1","""event"",""trial"",""time""
""fullscreenenter"",""1"",""1470""
","
","
","""event"",""trial"",""time""
""fullscreenenter"",""1"",""1470""
","
","","","","","","708.8000000119209","images/cactus5.png","","","learning","-5","0","0","0","cactus","plants","2","1","","good","[6]"
"html-keyboard-response","235","866289","0.0-11.0-2.0-0.23","4087","1","25","Female","approach_avoid_spark_v1","""event"",""trial"",""time""
""fullscreenenter"",""1"",""1470""
","
","
","""event"",""trial"",""time""
""fullscreenenter"",""1"",""1470""
","
","","","","","","null","<div style=""font-size:60px;"">+</div>","null","","fixation","","","","","","","","","","",""
"aa-learning-trial","236","869296","0.0-11.0-2.0-1.23","4087","1","25","Female","approach_avoid_spark_v1","""event"",""trial"",""time""
""fullscreenenter"",""1"",""1470""
","
","
","""event"",""trial"",""time""
""fullscreenenter"",""1"",""1470""
","
","","","","","","796","images/tree6.png","","","learning","-6","0","0","0","tree","plants","2","1","","bad","[-6]"
