"trial_type","trial_index","time_elapsed","internal_node_id","subject_id","task_condition","age","gender","task_version","interactions","blur_events","focus_events","fullscreenenter_events","fullscreenexit_events","success","timeout","failed_images","failed_audio","failed_video","rt","stimulus","response","button_pressed","task_part","approach_reward","points","key_press","option_selected","stim_cat","task_block","block_condition","block_number","correct","cat_type","mean_cat_reward"
"pavlovia","0","2","0.0-0.0","7147","2","25","Male","approach_avoid_spark_v1","""event"",""trial"",""time""
""fullscreenenter"",""1"",""2986""
","
","
","""event"",""trial"",""time""
""fullscreenenter"",""1"",""2986""
","
","","","","","","","","","","","","","","","","","","","","",""
"fullscreen","1","3975","0.0-1.0","7147","2","25","Male","approach_avoid_spark_v1","""event"",""trial"",""time""
""fullscreenenter"",""1"",""2986""
","
","
","""event"",""trial"",""time""
""fullscreenenter"",""1"",""2986""
","
","true","","","","","","","","","","","","","","","","","","","",""
"preload","2","7639","0.0-2.0","7147","2","25","Male","approach_avoid_spark_v1","""event"",""trial"",""time""
""fullscreenenter"",""1"",""2986""
","
","
","""event"",""trial"",""time""
""fullscreenenter"",""1"",""2986""
","
","true","false","[]","[]","[]","","","","","","","","","","","","","","","",""
"audio-keyboard-response","3","10834","0.0-3.0","7147","2","25","Male","approach_avoid_spark_v1","""event"",""trial"",""time""
""fullscreenenter"",""1"",""2986""
","
","
","""event"",""trial"",""time""
""fullscreenenter"",""1"",""2986""
","
","","","","","","3200","audio/beep_loop.wav"," ","","","","","","","","","","","","",""
"audio-button-response","4","12506","0.0-4.0","7147","2","25","Male","approach_avoid_spark_v1","""event"",""trial"",""time""
""fullscreenenter"",""1"",""2986""
","
","
","""event"",""trial"",""time""
""fullscreenenter"",""1"",""2986""
","
","","","","","","1669","audio/shark.wav","4","","","","","","","","","","","","",""
"audio-button-response","5","14921","0.0-5.0","7147","2","25","Male","approach_avoid_spark_v1","""event"",""trial"",""time""
""fullscreenenter"",""1"",""2986""
","
","
","""event"",""trial"",""time""
""fullscreenenter"",""1"",""2986""
","
","","","","","","1411","audio/turtle.wav","1","","","","","","","","","","","","",""
"preload","6","17740","0.0-6.0","7147","2","25","Male","approach_avoid_spark_v1","""event"",""trial"",""time""
""fullscreenenter"",""1"",""2986""
","
","
","""event"",""trial"",""time""
""fullscreenenter"",""1"",""2986""
","
","true","false","[]","[]","[]","","","","","","","","","","","","","","","",""
"html-keyboard-response","7","18274","0.0-7.0","7147","2","25","Male","approach_avoid_spark_v1","""event"",""trial"",""time""
""fullscreenenter"",""1"",""2986""
","
","
","""event"",""trial"",""time""
""fullscreenenter"",""1"",""2986""
","
","","","","","","534","Welcome to the experiment. Press any key to begin and to advance the instructions.","audiovolumeup","","","","","","","","","","","","",""
"learning-instructions","8","26249","0.0-8.0-0.0-0.0","7147","2","25","Male","approach_avoid_spark_v1","""event"",""trial"",""time""
""fullscreenenter"",""1"",""2986""
","
","
","""event"",""trial"",""time""
""fullscreenenter"",""1"",""2986""
","
","","","","","","1016.1000000014901","<p> Welcome! Today you are going to play 6 different rounds of a decision-making game. </p><p> Use the mouse to click next to continue. </p>","","0","instructions","","","","","","","","","","",""
"learning-instructions","9","30041","0.0-8.0-0.0-0.1","7147","2","25","Male","approach_avoid_spark_v1","""event"",""trial"",""time""
""fullscreenenter"",""1"",""2986""
","
","
","""event"",""trial"",""time""
""fullscreenenter"",""1"",""2986""
","
","","","","","","1058.5","<p> You will start with a practice round to learn the rules. </p>","","0","instructions","","","","","","","","","","",""
"learning-instructions","10","34537","0.0-8.0-0.0-0.2","7147","2","25","Male","approach_avoid_spark_v1","""event"",""trial"",""time""
""fullscreenenter"",""1"",""2986""
","
","
","""event"",""trial"",""time""
""fullscreenenter"",""1"",""2986""
","
","","","","","","1044.3999999985099","<p> Your goal in this round is to give out sports equipment to kids. </p></div>","","0","instructions","","","","","","","","","","",""
"learning-instructions","11","43050","0.0-8.0-0.0-0.3","7147","2","25","Male","approach_avoid_spark_v1","""event"",""trial"",""time""
""fullscreenenter"",""1"",""2986""
","
","
","""event"",""trial"",""time""
""fullscreenenter"",""1"",""2986""
","
","","","","","","967","<p> The kids only like some of the equipment.  </p><p> On each turn, you will see a piece of sports equipment.   </p><p> You need to decide whether to give it to the kids or not.  </p>","","0","instructions","","","","","","","","","","",""
"learning-instructions","12","54882","0.0-8.0-0.0-0.4","7147","2","25","Male","approach_avoid_spark_v1","""event"",""trial"",""time""
""fullscreenenter"",""1"",""2986""
","
","
","""event"",""trial"",""time""
""fullscreenenter"",""1"",""2986""
","
","","","","","","7077.800000000745","<p> You can give them the equipment by pressing 1 and choose not to give it to them by pressing 0. </p><br><div class=""choice-instructions-grid""> <div class=""choice-option""><img src=""images/approach.png"" class=""choice-option-img"" stage=""instructions"" position=""0"" ><div class=""choice-option-text""> Press ""1."" </div></div><div class=""choice-option""><img src=""images/avoid.png"" class=""choice-option-img"" stage=""instructions"" position=""1"" ><div class=""choice-option-text""> Press ""0."" </div></div>","","0","instructions","","","","","","","","","","",""
"learning-instructions","13","63761","0.0-8.0-0.0-0.5","7147","2","25","Male","approach_avoid_spark_v1","""event"",""trial"",""time""
""fullscreenenter"",""1"",""2986""
","
","
","""event"",""trial"",""time""
""fullscreenenter"",""1"",""2986""
","
","","","","","","1498.2000000029802","<p> If you give them a piece of equipment they like, they will be happy! </p><p> But if you give them a piece of equipment they do not like, they will be sad. </p>","","0","instructions","","","","","","","","","","",""
"learning-instructions","14","76362","0.0-8.0-0.0-0.6","7147","2","25","Male","approach_avoid_spark_v1","""event"",""trial"",""time""
""fullscreenenter"",""1"",""2986""
","
","
","""event"",""trial"",""time""
""fullscreenenter"",""1"",""2986""
","
","","","","","","2079.39999999851","<p> You will earn points based on how you make kids feel. </p><p> If you make them happy, you will WIN anywhere from 1 - 9 points, </p><p> but if you make them sad, you will LOSE anywhere from 1 - 9 points. </p>","","0","instructions","","","","","","","","","","",""
"learning-instructions","15","87050","0.0-8.0-0.0-0.7","7147","2","25","Male","approach_avoid_spark_v1","""event"",""trial"",""time""
""fullscreenenter"",""1"",""2986""
","
","
","""event"",""trial"",""time""
""fullscreenenter"",""1"",""2986""
","
","","","","","","1137.3999999985099","<p> You will see how many points you won or lost in the center of the screen. </p><p> Here is what you would see if you won 6 points: </p><p style=""color:green;font-size:50px;font-weight:bolder"">6</p><p style=""color:green"">The text is GREEN because you WON points.</p>","","0","instructions","","","","","","","","","","",""
"learning-instructions","16","93346","0.0-8.0-0.0-0.8","7147","2","25","Male","approach_avoid_spark_v1","""event"",""trial"",""time""
""fullscreenenter"",""1"",""2986""
","
","
","""event"",""trial"",""time""
""fullscreenenter"",""1"",""2986""
","
","","","","","","792.7999999970198","<p> And here is what you would see if you lost 4 points: </p><p style=""color:red;font-size:50px;font-weight:bolder"">-4</p><p style=""color:red"">The text is RED because you LOST points. </p>","","0","instructions","","","","","","","","","","",""
"learning-instructions","17","109186","0.0-8.0-0.0-0.9","7147","2","25","Male","approach_avoid_spark_v1","""event"",""trial"",""time""
""fullscreenenter"",""1"",""2986""
","
","
","""event"",""trial"",""time""
""fullscreenenter"",""1"",""2986""
","
","","","","","","1132.7000000029802","<p> Some of the equipment will make the kids VERY happy or sad. </p><p> These pieces of equipment will make you win or lose LOTS of points. </p><p> Other pieces of equipment will only make the kids a little happy or sad. </p><p> These pieces of equipment will make you win or lose small amounts of points. </p>","","0","instructions","","","","","","","","","","",""
"learning-instructions","18","123209","0.0-8.0-0.0-0.10","7147","2","25","Male","approach_avoid_spark_v1","""event"",""trial"",""time""
""fullscreenenter"",""1"",""2986""
","
","
","""event"",""trial"",""time""
""fullscreenenter"",""1"",""2986""
","
","","","","","","3406.199999999255","<p> If you choose not to give them the equipment, you will not win or lose any points. </p><p>  However, in the center of the screen, you will see the number of points you WOULD HAVE won or lost if you had given them the equipment. </p>","","0","instructions","","","","","","","","","","",""
"learning-instructions","19","145946","0.0-8.0-0.0-0.11","7147","2","25","Male","approach_avoid_spark_v1","""event"",""trial"",""time""
""fullscreenenter"",""1"",""2986""
","
","
","""event"",""trial"",""time""
""fullscreenenter"",""1"",""2986""
","
","","","","","","1203.300000000745","<p> Here is what you might see if you did not give the equipment to the kids but it would have made them happy: </p><p style=""color:grey; font-size:50px; display: inline-block; border-spacing: 15px; border-width:3px; border-style:solid; border-color:red"">  &nbsp; 7 &nbsp; </p><p> Remember, in this case, you would not win or lose ANY points because you did not give them the equipment.  </p><p style=""color:grey"">The text is GREY because you earned ZERO points. </p><p style=""color:red"">However, choosing to give the kids the equipment would have made you win points. The box around the text is RED because you chose the worse option. </p>","","0","instructions","","","","","","","","","","",""
"learning-instructions","20","168465","0.0-8.0-0.0-0.12","7147","2","25","Male","approach_avoid_spark_v1","""event"",""trial"",""time""
""fullscreenenter"",""1"",""2986""
","
","
","""event"",""trial"",""time""
""fullscreenenter"",""1"",""2986""
","
","","","","","","1442.699999999255","<p> Here is what you might see if you did not give the equipment to the kids but it would have made them sad: </p><p style=""color:grey;font-size:50px; display: inline-block; border-spacing: 15px; border-width:3px; border-style:solid; border-color:green"">  &nbsp; -8 &nbsp; </p><p> Remember, in this case, you would not win or lose ANY points because you did not give them the equipment.  </p><p style=""color:grey"">The text is GREY because you earned ZERO points. </p><p  style=""color:green""> Choosing to give the kids the equipment would have made you lose points. The box around the text is GREEN because you chose the better option.</p>","","0","instructions","","","","","","","","","","",""
"learning-instructions","21","178402","0.0-8.0-0.0-0.13","7147","2","25","Male","approach_avoid_spark_v1","""event"",""trial"",""time""
""fullscreenenter"",""1"",""2986""
","
","
","""event"",""trial"",""time""
""fullscreenenter"",""1"",""2986""
","
","","","","","","968.8999999985099","<p> You will have 3 seconds to make each choice. Try to respond before time runs out! </p><p> You will lose 5 points each time you do not make a response. </p>","","0","instructions","","","","","","","","","","",""
"learning-instructions","22","184474","0.0-8.0-0.0-0.14","7147","2","25","Male","approach_avoid_spark_v1","""event"",""trial"",""time""
""fullscreenenter"",""1"",""2986""
","
","
","""event"",""trial"",""time""
""fullscreenenter"",""1"",""2986""
","
","","","","","","661.3000000007451","<p> This is just a practice round, but in the real game, your bonus payment will depend on your total number of points.","","0","instructions","","","","","","","","","","",""
"learning-instructions","23","191890","0.0-8.0-0.0-0.15","7147","2","25","Male","approach_avoid_spark_v1","""event"",""trial"",""time""
""fullscreenenter"",""1"",""2986""
","
","
","""event"",""trial"",""time""
""fullscreenenter"",""1"",""2986""
","
","","","","","","1646.3999999985099","<p> Remember, you can give them the equipment by pressing 1 and choose not to give it to them by pressing 0. </p><br><div class=""choice-instructions-grid""> <div class=""choice-option""><img src=""images/approach.png"" class=""choice-option-img"" stage=""instructions"" position=""0"" ><div class=""choice-option-text""> Press ""1."" </div></div><div class=""choice-option""><img src=""images/avoid.png"" class=""choice-option-img"" stage=""instructions"" position=""1"" ><div class=""choice-option-text""> Press ""0."" </div></div>","","0","instructions","","","","","","","","","","",""
"html-button-response","24","193537","0.0-8.0-1.0","7147","2","25","Male","approach_avoid_spark_v1","""event"",""trial"",""time""
""fullscreenenter"",""1"",""2986""
","
","
","""event"",""trial"",""time""
""fullscreenenter"",""1"",""2986""
","
","","","","","","1535.2000000029802","<p> Ready to practice? </p>","0","","","","","","","","","","","","",""
"html-keyboard-response","25","194142","0.0-8.0-2.0-0.0","7147","2","25","Male","approach_avoid_spark_v1","""event"",""trial"",""time""
""fullscreenenter"",""1"",""2986""
","
","
","""event"",""trial"",""time""
""fullscreenenter"",""1"",""2986""
","
","","","","","","null","<div style=""font-size:60px;"">+</div>","null","","fixation","","","","","","","","","","",""
"aa-learning-trial","26","197149","0.0-8.0-2.0-1.0","7147","2","25","Male","approach_avoid_spark_v1","""event"",""trial"",""time""
""fullscreenenter"",""1"",""2986""
","
","
","""event"",""trial"",""time""
""fullscreenenter"",""1"",""2986""
","
","","","","","","2241.199999999255","images/ball2.png","","","learning","-4","-4","1","1","practice","practice","practice","-1","","",""
"html-keyboard-response","27","197651","0.0-8.0-2.0-0.1","7147","2","25","Male","approach_avoid_spark_v1","""event"",""trial"",""time""
""fullscreenenter"",""1"",""2986""
","
","
","""event"",""trial"",""time""
""fullscreenenter"",""1"",""2986""
","
","","","","","","null","<div style=""font-size:60px;"">+</div>","null","","fixation","","","","","","","","","","",""
"aa-learning-trial","28","200671","0.0-8.0-2.0-1.1","7147","2","25","Male","approach_avoid_spark_v1","""event"",""trial"",""time""
""fullscreenenter"",""1"",""2986""
","
","
","""event"",""trial"",""time""
""fullscreenenter"",""1"",""2986""
","
","","","","","","822.6000000014901","images/ball3.png","","","learning","-4","-4","1","1","practice","practice","practice","-1","","",""
"html-keyboard-response","29","201181","0.0-8.0-2.0-0.2","7147","2","25","Male","approach_avoid_spark_v1","""event"",""trial"",""time""
""fullscreenenter"",""1"",""2986""
","
","
","""event"",""trial"",""time""
""fullscreenenter"",""1"",""2986""
","
","","","","","","null","<div style=""font-size:60px;"">+</div>","null","","fixation","","","","","","","","","","",""
"aa-learning-trial","30","204192","0.0-8.0-2.0-1.2","7147","2","25","Male","approach_avoid_spark_v1","""event"",""trial"",""time""
""fullscreenenter"",""1"",""2986""
","
","
","""event"",""trial"",""time""
""fullscreenenter"",""1"",""2986""
","
","","","","","","1263.199999999255","images/ball1.png","","","learning","3","0","0","0","practice","practice","practice","-1","","",""
"html-keyboard-response","31","204698","0.0-8.0-2.0-0.3","7147","2","25","Male","approach_avoid_spark_v1","""event"",""trial"",""time""
""fullscreenenter"",""1"",""2986""
","
","
","""event"",""trial"",""time""
""fullscreenenter"",""1"",""2986""
","
","","","","","","null","<div style=""font-size:60px;"">+</div>","null","","fixation","","","","","","","","","","",""
"aa-learning-trial","32","207699","0.0-8.0-2.0-1.3","7147","2","25","Male","approach_avoid_spark_v1","""event"",""trial"",""time""
""fullscreenenter"",""1"",""2986""
","
","
","""event"",""trial"",""time""
""fullscreenenter"",""1"",""2986""
","
","","","","","","null","images/racket1.png","","","learning","-2","-5","","null","practice","practice","practice","-1","","",""
"html-keyboard-response","33","208213","0.0-8.0-2.0-0.4","7147","2","25","Male","approach_avoid_spark_v1","""event"",""trial"",""time""
""fullscreenenter"",""1"",""2986""
","
","
","""event"",""trial"",""time""
""fullscreenenter"",""1"",""2986""
","
","","","","","","null","<div style=""font-size:60px;"">+</div>","null","","fixation","","","","","","","","","","",""
"aa-learning-trial","34","211231","0.0-8.0-2.0-1.4","7147","2","25","Male","approach_avoid_spark_v1","""event"",""trial"",""time""
""fullscreenenter"",""1"",""2986""
","
","
","""event"",""trial"",""time""
""fullscreenenter"",""1"",""2986""
","
","","","","","","883.8000000007451","images/ball3.png","","","learning","-9","-9","1","1","practice","practice","practice","-1","","",""
"html-keyboard-response","35","211751","0.0-8.0-2.0-0.5","7147","2","25","Male","approach_avoid_spark_v1","""event"",""trial"",""time""
""fullscreenenter"",""1"",""2986""
","
","
","""event"",""trial"",""time""
""fullscreenenter"",""1"",""2986""
","
","","","","","","null","<div style=""font-size:60px;"">+</div>","null","","fixation","","","","","","","","","","",""
"aa-learning-trial","36","214761","0.0-8.0-2.0-1.5","7147","2","25","Male","approach_avoid_spark_v1","""event"",""trial"",""time""
""fullscreenenter"",""1"",""2986""
","
","
","""event"",""trial"",""time""
""fullscreenenter"",""1"",""2986""
","
","","","","","","1005.1999999992549","images/racket2.png","","","learning","-5","-5","1","1","practice","practice","practice","-1","","",""
"html-keyboard-response","37","215271","0.0-8.0-2.0-0.6","7147","2","25","Male","approach_avoid_spark_v1","""event"",""trial"",""time""
""fullscreenenter"",""1"",""2986""
","
","
","""event"",""trial"",""time""
""fullscreenenter"",""1"",""2986""
","
","","","","","","null","<div style=""font-size:60px;"">+</div>","null","","fixation","","","","","","","","","","",""
"aa-learning-trial","38","218282","0.0-8.0-2.0-1.6","7147","2","25","Male","approach_avoid_spark_v1","""event"",""trial"",""time""
""fullscreenenter"",""1"",""2986""
","
","
","""event"",""trial"",""time""
""fullscreenenter"",""1"",""2986""
","
","","","","","","1899","images/ball4.png","","","learning","3","0","0","0","practice","practice","practice","-1","","",""
"html-keyboard-response","39","218801","0.0-8.0-2.0-0.7","7147","2","25","Male","approach_avoid_spark_v1","""event"",""trial"",""time""
""fullscreenenter"",""1"",""2986""
","
","
","""event"",""trial"",""time""
""fullscreenenter"",""1"",""2986""
","
","","","","","","null","<div style=""font-size:60px;"">+</div>","null","","fixation","","","","","","","","","","",""
"aa-learning-trial","40","221803","0.0-8.0-2.0-1.7","7147","2","25","Male","approach_avoid_spark_v1","""event"",""trial"",""time""
""fullscreenenter"",""1"",""2986""
","
","
","""event"",""trial"",""time""
""fullscreenenter"",""1"",""2986""
","
","","","","","","2694.800000000745","images/ball2.png","","","learning","-5","0","0","0","practice","practice","practice","-1","","",""
"html-keyboard-response","41","222305","0.0-8.0-2.0-0.8","7147","2","25","Male","approach_avoid_spark_v1","""event"",""trial"",""time""
""fullscreenenter"",""1"",""2986""
","
","
","""event"",""trial"",""time""
""fullscreenenter"",""1"",""2986""
","
","","","","","","null","<div style=""font-size:60px;"">+</div>","null","","fixation","","","","","","","","","","",""
"aa-learning-trial","42","225307","0.0-8.0-2.0-1.8","7147","2","25","Male","approach_avoid_spark_v1","""event"",""trial"",""time""
""fullscreenenter"",""1"",""2986""
","
","
","""event"",""trial"",""time""
""fullscreenenter"",""1"",""2986""
","
","","","","","","1139.9000000022352","images/ball2.png","","","learning","-2","0","0","0","practice","practice","practice","-1","","",""
"html-keyboard-response","43","225808","0.0-8.0-2.0-0.9","7147","2","25","Male","approach_avoid_spark_v1","""event"",""trial"",""time""
""fullscreenenter"",""1"",""2986""
","
","
","""event"",""trial"",""time""
""fullscreenenter"",""1"",""2986""
","
","","","","","","null","<div style=""font-size:60px;"">+</div>","null","","fixation","","","","","","","","","","",""
"aa-learning-trial","44","228810","0.0-8.0-2.0-1.9","7147","2","25","Male","approach_avoid_spark_v1","""event"",""trial"",""time""
""fullscreenenter"",""1"",""2986""
","
","
","""event"",""trial"",""time""
""fullscreenenter"",""1"",""2986""
","
","","","","","","896.3999999985099","images/ball4.png","","","learning","7","0","0","0","practice","practice","practice","-1","","",""
"html-keyboard-response","45","229311","0.0-8.0-2.0-0.10","7147","2","25","Male","approach_avoid_spark_v1","""event"",""trial"",""time""
""fullscreenenter"",""1"",""2986""
","
","
","""event"",""trial"",""time""
""fullscreenenter"",""1"",""2986""
","
","","","","","","null","<div style=""font-size:60px;"">+</div>","null","","fixation","","","","","","","","","","",""
"aa-learning-trial","46","232314","0.0-8.0-2.0-1.10","7147","2","25","Male","approach_avoid_spark_v1","""event"",""trial"",""time""
""fullscreenenter"",""1"",""2986""
","
","
","""event"",""trial"",""time""
""fullscreenenter"",""1"",""2986""
","
","","","","","","1085","images/racket3.png","","","learning","7","0","0","0","practice","practice","practice","-1","","",""
"html-keyboard-response","47","232815","0.0-8.0-2.0-0.11","7147","2","25","Male","approach_avoid_spark_v1","""event"",""trial"",""time""
""fullscreenenter"",""1"",""2986""
","
","
","""event"",""trial"",""time""
""fullscreenenter"",""1"",""2986""
","
","","","","","","null","<div style=""font-size:60px;"">+</div>","null","","fixation","","","","","","","","","","",""
"aa-learning-trial","48","235816","0.0-8.0-2.0-1.11","7147","2","25","Male","approach_avoid_spark_v1","""event"",""trial"",""time""
""fullscreenenter"",""1"",""2986""
","
","
","""event"",""trial"",""time""
""fullscreenenter"",""1"",""2986""
","
","","","","","","997.8999999985099","images/racket4.png","","","learning","5","0","0","0","practice","practice","practice","-1","","",""
"html-button-response","49","238489","0.0-8.0-3.0","7147","2","25","Male","approach_avoid_spark_v1","""event"",""trial"",""time""
""fullscreenenter"",""1"",""2986""
","
","
","""event"",""trial"",""time""
""fullscreenenter"",""1"",""2986""
","
","","","","","","2671.800000000745","<p> You earned -27 points in the practice round! </p>","0","","break","","","","","","","","","","",""
"learning-instructions","50","246010","0.0-8.0-4.0-0.0","7147","2","25","Male","approach_avoid_spark_v1","""event"",""trial"",""time""
""fullscreenenter"",""1"",""2986""
","
","
","""event"",""trial"",""time""
""fullscreenenter"",""1"",""2986""
","
","","","","","","924.8999999985099","<p> It's almost time to start the real game. </p><p> Before you start, we're going to ask you a few questions about how the game works. </p>","","0","instructions","","","","","","","","","","",""
"preload","51","247266","0.0-8.0-5.0","7147","2","25","Male","approach_avoid_spark_v1","""event"",""trial"",""time""
""fullscreenenter"",""1"",""2986""
","
","
","""event"",""trial"",""time""
""fullscreenenter"",""1"",""2986""
","
","true","false","[]","[]","[]","","","","","","","","","","","","","","","",""
"comp-q","52","252994","0.0-8.0-6.0-0.0","7147","2","25","Male","approach_avoid_spark_v1","""event"",""trial"",""time""
""fullscreenenter"",""1"",""2986""
","
","
","""event"",""trial"",""time""
""fullscreenenter"",""1"",""2986""
","
","","","","","","727.6999999992549","<p> <b> True or False? </b> </p><p> If you see a number in GREY, that means you earned that many points. </p>","","1","comp_question","","","","","","","","","true","",""
"comp-q","53","268753","0.0-8.0-6.0-1.0","7147","2","25","Male","approach_avoid_spark_v1","""event"",""trial"",""time""
""fullscreenenter"",""1"",""2986""
","
","
","""event"",""trial"",""time""
""fullscreenenter"",""1"",""2986""
","
","","","","","","7388.10000000149","<p><b> That's right! </b> If you see a grey number, it means you earned ZERO points. <br> The grey numbers show the points you WOULD HAVE earned if you had made the other choice. </p>","","0","comp_answer","","","","","","","","","","",""
"comp-q","54","274105","0.0-8.0-7.0-0.0","7147","2","25","Male","approach_avoid_spark_v1","""event"",""trial"",""time""
""fullscreenenter"",""1"",""2986""
","
","
","""event"",""trial"",""time""
""fullscreenenter"",""1"",""2986""
","
","","","","","","640","<p> <b> True or False? </b> </p><p> You will have as much time as you want to make each choice. </p>","","1","comp_question","","","","","","","","","true","",""
"comp-q","55","279217","0.0-8.0-7.0-1.0","7147","2","25","Male","approach_avoid_spark_v1","""event"",""trial"",""time""
""fullscreenenter"",""1"",""2986""
","
","
","""event"",""trial"",""time""
""fullscreenenter"",""1"",""2986""
","
","","","","","","1071.8999999985099","<p> <b> That's right! </b> You will only have 3 seconds to make each choice. </p>","","0","comp_answer","","","","","","","","","","",""
"comp-q","56","284689","0.0-8.0-8.0-0.0","7147","2","25","Male","approach_avoid_spark_v1","""event"",""trial"",""time""
""fullscreenenter"",""1"",""2986""
","
","
","""event"",""trial"",""time""
""fullscreenenter"",""1"",""2986""
","
","","","","","","824.1999999992549","<p> <b> True or False? </b> </p><p> You should use the '1' and '0' keys to make your choices. </p>","","0","comp_question","","","","","","","","","true","",""
"comp-q","57","290514","0.0-8.0-8.0-1.0","7147","2","25","Male","approach_avoid_spark_v1","""event"",""trial"",""time""
""fullscreenenter"",""1"",""2986""
","
","
","""event"",""trial"",""time""
""fullscreenenter"",""1"",""2986""
","
","","","","","","1217","<p> <b> That's right! </b> You should use the '1' and '0' keys to make each choice. </p>","","0","comp_answer","","","","","","","","","","",""
"learning-instructions","58","297897","0.0-8.0-9.0-0.0","7147","2","25","Male","approach_avoid_spark_v1","""event"",""trial"",""time""
""fullscreenenter"",""1"",""2986""
","
","
","""event"",""trial"",""time""
""fullscreenenter"",""1"",""2986""
","
","","","","","","1111.300000000745","<p> It's now time to start the real game. </p>Do your best, because the points you earn in the next rounds will influence your bonus payment. </p>","","0","instructions","","","","","","","","","","",""
"preload","59","298022","0.0-9.0-0.0","7147","2","25","Male","approach_avoid_spark_v1","""event"",""trial"",""time""
""fullscreenenter"",""1"",""2986""
","
","
","""event"",""trial"",""time""
""fullscreenenter"",""1"",""2986""
","
","true","false","[]","[]","[]","","","","","","","","","","","","","","","",""
"learning-instructions","60","303233","0.0-9.0-1.0-0.0","7147","2","25","Male","approach_avoid_spark_v1","""event"",""trial"",""time""
""fullscreenenter"",""1"",""2986""
","
","
","""event"",""trial"",""time""
""fullscreenenter"",""1"",""2986""
","
","","","","","","1517.5999999977648","<p> Your goal in this round is to take care of lots of animals. </p></div>","","0","instructions","","","","","","","","","","",""
"learning-instructions","61","315033","0.0-9.0-1.0-0.1","7147","2","25","Male","approach_avoid_spark_v1","""event"",""trial"",""time""
""fullscreenenter"",""1"",""2986""
","
","
","""event"",""trial"",""time""
""fullscreenenter"",""1"",""2986""
","
","","","","","","2517.800000000745","<p> Some animals want to be pet, while other animals want to be left alone.  </p><p> On each turn, you will see an animal.   </p><p> You need to decide whether to pet it or not.  </p>","","0","instructions","","","","","","","","","","",""
"learning-instructions","62","322361","0.0-9.0-1.0-0.2","7147","2","25","Male","approach_avoid_spark_v1","""event"",""trial"",""time""
""fullscreenenter"",""1"",""2986""
","
","
","""event"",""trial"",""time""
""fullscreenenter"",""1"",""2986""
","
","","","","","","2335.900000002235","<p> You can pet the animal by pressing 1 and leave the animal alone by pressing 0. </p><br><div class=""choice-instructions-grid""> <div class=""choice-option""><img src=""images/approach.png"" class=""choice-option-img"" stage=""instructions"" position=""0"" ><div class=""choice-option-text""> Press ""1."" </div></div><div class=""choice-option""><img src=""images/avoid.png"" class=""choice-option-img"" stage=""instructions"" position=""1"" ><div class=""choice-option-text""> Press ""0."" </div></div>","","0","instructions","","","","","","","","","","",""
"learning-instructions","63","331866","0.0-9.0-1.0-0.3","7147","2","25","Male","approach_avoid_spark_v1","""event"",""trial"",""time""
""fullscreenenter"",""1"",""2986""
","
","
","""event"",""trial"",""time""
""fullscreenenter"",""1"",""2986""
","
","","","","","","930.3999999985099","<p> If you pet an animal that wants to be pet, you will make it feel happy! </p><p> But if you pet an animal that wants to be left alone, you will make it feel angry. </p>","","0","instructions","","","","","","","","","","",""
"learning-instructions","64","346929","0.0-9.0-1.0-0.4","7147","2","25","Male","approach_avoid_spark_v1","""event"",""trial"",""time""
""fullscreenenter"",""1"",""2986""
","
","
","""event"",""trial"",""time""
""fullscreenenter"",""1"",""2986""
","
","","","","","","3003.2999999970198","<p> You will earn points based on how you made the animal feel. </p><p> If you made it feel happy, you will WIN anywhere from 1 - 9 points, </p><p> but if you made it feel angry, you will LOSE anywhere from 1 - 9 points. </p>","","0","instructions","","","","","","","","","","",""
"learning-instructions","65","355290","0.0-9.0-1.0-0.5","7147","2","25","Male","approach_avoid_spark_v1","""event"",""trial"",""time""
""fullscreenenter"",""1"",""2986""
","
","
","""event"",""trial"",""time""
""fullscreenenter"",""1"",""2986""
","
","","","","","","944.4000000022352","<p> You will see how many points you won or lost in the center of the screen. </p><p> Here is what you would see if you won 5 points: </p><p style=""color:green;font-size:50px;font-weight:bolder"">5</p>","","0","instructions","","","","","","","","","","",""
"learning-instructions","66","359074","0.0-9.0-1.0-0.6","7147","2","25","Male","approach_avoid_spark_v1","""event"",""trial"",""time""
""fullscreenenter"",""1"",""2986""
","
","
","""event"",""trial"",""time""
""fullscreenenter"",""1"",""2986""
","
","","","","","","427.9000000022352","<p> And here is what you would see if you lost 3 points: </p><p style=""color:red;font-size:50px;font-weight:bolder"">-3</p>","","0","instructions","","","","","","","","","","",""
"learning-instructions","67","373545","0.0-9.0-1.0-0.7","7147","2","25","Male","approach_avoid_spark_v1","""event"",""trial"",""time""
""fullscreenenter"",""1"",""2986""
","
","
","""event"",""trial"",""time""
""fullscreenenter"",""1"",""2986""
","
","","","","","","1039.1000000014901","<p> Some animals will become very happy or very angry. </p><p> These animals will make you win or lose LOTS of points. </p><p> Other animals have less strong feelings. </p><p> These animals will make you win or lose small amounts of points. </p>","","0","instructions","","","","","","","","","","",""
"learning-instructions","68","390434","0.0-9.0-1.0-0.8","7147","2","25","Male","approach_avoid_spark_v1","""event"",""trial"",""time""
""fullscreenenter"",""1"",""2986""
","
","
","""event"",""trial"",""time""
""fullscreenenter"",""1"",""2986""
","
","","","","","","5938","<p> If you choose to leave the animal alone, you will not win or lose any points. </p><p>  However, in the center of the screen, you will see the number of points you WOULD HAVE won or lost if you had pet the animal. </p>","","0","instructions","","","","","","","","","","",""
"learning-instructions","69","404114","0.0-9.0-1.0-0.9","7147","2","25","Male","approach_avoid_spark_v1","""event"",""trial"",""time""
""fullscreenenter"",""1"",""2986""
","
","
","""event"",""trial"",""time""
""fullscreenenter"",""1"",""2986""
","
","","","","","","2318.10000000149","<p> Here is what you might see if you did not pet the animal but the animal wanted to be pet: </p><p style=""color:grey; font-size:50px; display: inline-block; border-spacing: 15px; border-width:3px; border-style:solid; border-color:red"">  &nbsp; 6 &nbsp; </p><p> Remember, in this case, you would not win or lose ANY points because you did not pet the animal.  </p>","","0","instructions","","","","","","","","","","",""
"learning-instructions","70","411802","0.0-9.0-1.0-0.10","7147","2","25","Male","approach_avoid_spark_v1","""event"",""trial"",""time""
""fullscreenenter"",""1"",""2986""
","
","
","""event"",""trial"",""time""
""fullscreenenter"",""1"",""2986""
","
","","","","","","795.8000000007451","<p> Try to make the best choice for each animal because </p><p> at the end of the game, you will earn bonus money based on how many points you earned. </p>","","0","instructions","","","","","","","","","","",""
"learning-instructions","71","420722","0.0-9.0-1.0-0.11","7147","2","25","Male","approach_avoid_spark_v1","""event"",""trial"",""time""
""fullscreenenter"",""1"",""2986""
","
","
","""event"",""trial"",""time""
""fullscreenenter"",""1"",""2986""
","
","","","","","","736.0999999977648","<p> You will have 3 seconds to make each choice. Try to respond before time runs out! </p><p> You will lose 5 points each time you do not make a response. </p>","","0","instructions","","","","","","","","","","",""
"html-keyboard-response","72","421335","0.0-9.0-2.0-0.0","7147","2","25","Male","approach_avoid_spark_v1","""event"",""trial"",""time""
""fullscreenenter"",""1"",""2986""
","
","
","""event"",""trial"",""time""
""fullscreenenter"",""1"",""2986""
","
","","","","","","null","<div style=""font-size:60px;"">+</div>","null","","fixation","","","","","","","","","","",""
"aa-learning-trial","73","424354","0.0-9.0-2.0-1.0","7147","2","25","Male","approach_avoid_spark_v1","""event"",""trial"",""time""
""fullscreenenter"",""1"",""2986""
","
","
","""event"",""trial"",""time""
""fullscreenenter"",""1"",""2986""
","
","","","","","","572.6000000014901","images/rabbit4.png","","","learning","-3","-3","1","1","rabbit","pets","2","0","","good","[5]"
"html-keyboard-response","74","424874","0.0-9.0-2.0-0.1","7147","2","25","Male","approach_avoid_spark_v1","""event"",""trial"",""time""
""fullscreenenter"",""1"",""2986""
","
","
","""event"",""trial"",""time""
""fullscreenenter"",""1"",""2986""
","
","","","","","","null","<div style=""font-size:60px;"">+</div>","null","","fixation","","","","","","","","","","",""
"aa-learning-trial","75","427882","0.0-9.0-2.0-1.1","7147","2","25","Male","approach_avoid_spark_v1","""event"",""trial"",""time""
""fullscreenenter"",""1"",""2986""
","
","
","""event"",""trial"",""time""
""fullscreenenter"",""1"",""2986""
","
","","","","","","999.4000000022352","images/rodent5.png","","","learning","7","0","0","0","rodent","pets","2","0","","neutral","0"
"html-keyboard-response","76","428394","0.0-9.0-2.0-0.2","7147","2","25","Male","approach_avoid_spark_v1","""event"",""trial"",""time""
""fullscreenenter"",""1"",""2986""
","
","
","""event"",""trial"",""time""
""fullscreenenter"",""1"",""2986""
","
","","","","","","null","<div style=""font-size:60px;"">+</div>","null","","fixation","","","","","","","","","","",""
"aa-learning-trial","77","431400","0.0-9.0-2.0-1.2","7147","2","25","Male","approach_avoid_spark_v1","""event"",""trial"",""time""
""fullscreenenter"",""1"",""2986""
","
","
","""event"",""trial"",""time""
""fullscreenenter"",""1"",""2986""
","
","","","","","","484.4000000022352","images/cat5.png","","","learning","1","1","1","1","cat","pets","2","0","","bad","[-4]"
"html-keyboard-response","78","431904","0.0-9.0-2.0-0.3","7147","2","25","Male","approach_avoid_spark_v1","""event"",""trial"",""time""
""fullscreenenter"",""1"",""2986""
","
","
","""event"",""trial"",""time""
""fullscreenenter"",""1"",""2986""
","
","","","","","","null","<div style=""font-size:60px;"">+</div>","null","","fixation","","","","","","","","","","",""
"aa-learning-trial","79","434924","0.0-9.0-2.0-1.3","7147","2","25","Male","approach_avoid_spark_v1","""event"",""trial"",""time""
""fullscreenenter"",""1"",""2986""
","
","
","""event"",""trial"",""time""
""fullscreenenter"",""1"",""2986""
","
","","","","","","546.8999999985099","images/rodent4.png","","","learning","-7","-7","1","1","rodent","pets","2","0","","neutral","0"
"html-keyboard-response","80","435444","0.0-9.0-2.0-0.4","7147","2","25","Male","approach_avoid_spark_v1","""event"",""trial"",""time""
""fullscreenenter"",""1"",""2986""
","
","
","""event"",""trial"",""time""
""fullscreenenter"",""1"",""2986""
","
","","","","","","null","<div style=""font-size:60px;"">+</div>","null","","fixation","","","","","","","","","","",""
"aa-learning-trial","81","438454","0.0-9.0-2.0-1.4","7147","2","25","Male","approach_avoid_spark_v1","""event"",""trial"",""time""
""fullscreenenter"",""1"",""2986""
","
","
","""event"",""trial"",""time""
""fullscreenenter"",""1"",""2986""
","
","","","","","","659.8000000007451","images/rabbit2.png","","","learning","-9","0","0","0","rabbit","pets","2","0","","good","[5]"
"html-keyboard-response","82","438974","0.0-9.0-2.0-0.5","7147","2","25","Male","approach_avoid_spark_v1","""event"",""trial"",""time""
""fullscreenenter"",""1"",""2986""
","
","
","""event"",""trial"",""time""
""fullscreenenter"",""1"",""2986""
","
","","","","","","null","<div style=""font-size:60px;"">+</div>","null","","fixation","","","","","","","","","","",""
"aa-learning-trial","83","441994","0.0-9.0-2.0-1.5","7147","2","25","Male","approach_avoid_spark_v1","""event"",""trial"",""time""
""fullscreenenter"",""1"",""2986""
","
","
","""event"",""trial"",""time""
""fullscreenenter"",""1"",""2986""
","
","","","","","","714.3000000007451","images/cat2.png","","","learning","-8","-8","1","1","cat","pets","2","0","","bad","[-4]"
"html-keyboard-response","84","442500","0.0-9.0-2.0-0.6","7147","2","25","Male","approach_avoid_spark_v1","""event"",""trial"",""time""
""fullscreenenter"",""1"",""2986""
","
","
","""event"",""trial"",""time""
""fullscreenenter"",""1"",""2986""
","
","","","","","","null","<div style=""font-size:60px;"">+</div>","null","","fixation","","","","","","","","","","",""
"aa-learning-trial","85","445514","0.0-9.0-2.0-1.6","7147","2","25","Male","approach_avoid_spark_v1","""event"",""trial"",""time""
""fullscreenenter"",""1"",""2986""
","
","
","""event"",""trial"",""time""
""fullscreenenter"",""1"",""2986""
","
","","","","","","731.3999999985099","images/rodent5.png","","","learning","7","7","1","1","rodent","pets","2","0","","neutral","0"
"html-keyboard-response","86","446034","0.0-9.0-2.0-0.7","7147","2","25","Male","approach_avoid_spark_v1","""event"",""trial"",""time""
""fullscreenenter"",""1"",""2986""
","
","
","""event"",""trial"",""time""
""fullscreenenter"",""1"",""2986""
","
","","","","","","null","<div style=""font-size:60px;"">+</div>","null","","fixation","","","","","","","","","","",""
"aa-learning-trial","87","449044","0.0-9.0-2.0-1.7","7147","2","25","Male","approach_avoid_spark_v1","""event"",""trial"",""time""
""fullscreenenter"",""1"",""2986""
","
","
","""event"",""trial"",""time""
""fullscreenenter"",""1"",""2986""
","
","","","","","","805.4000000022352","images/rodent1.png","","","learning","3","0","0","0","rodent","pets","2","0","","neutral","0"
"html-keyboard-response","88","449564","0.0-9.0-2.0-0.8","7147","2","25","Male","approach_avoid_spark_v1","""event"",""trial"",""time""
""fullscreenenter"",""1"",""2986""
","
","
","""event"",""trial"",""time""
""fullscreenenter"",""1"",""2986""
","
","","","","","","null","<div style=""font-size:60px;"">+</div>","null","","fixation","","","","","","","","","","",""
"aa-learning-trial","89","452566","0.0-9.0-2.0-1.8","7147","2","25","Male","approach_avoid_spark_v1","""event"",""trial"",""time""
""fullscreenenter"",""1"",""2986""
","
","
","""event"",""trial"",""time""
""fullscreenenter"",""1"",""2986""
","
","","","","","","785.0999999977648","images/cat2.png","","","learning","-8","0","0","0","cat","pets","2","0","","bad","[-4]"
"html-keyboard-response","90","453067","0.0-9.0-2.0-0.9","7147","2","25","Male","approach_avoid_spark_v1","""event"",""trial"",""time""
""fullscreenenter"",""1"",""2986""
","
","
","""event"",""trial"",""time""
""fullscreenenter"",""1"",""2986""
","
","","","","","","null","<div style=""font-size:60px;"">+</div>","null","","fixation","","","","","","","","","","",""
"aa-learning-trial","91","456072","0.0-9.0-2.0-1.9","7147","2","25","Male","approach_avoid_spark_v1","""event"",""trial"",""time""
""fullscreenenter"",""1"",""2986""
","
","
","""event"",""trial"",""time""
""fullscreenenter"",""1"",""2986""
","
","","","","","","779","images/rabbit2.png","","","learning","-9","0","0","0","rabbit","pets","2","0","","good","[5]"
"html-keyboard-response","92","456573","0.0-9.0-2.0-0.10","7147","2","25","Male","approach_avoid_spark_v1","""event"",""trial"",""time""
""fullscreenenter"",""1"",""2986""
","
","
","""event"",""trial"",""time""
""fullscreenenter"",""1"",""2986""
","
","","","","","","null","<div style=""font-size:60px;"">+</div>","null","","fixation","","","","","","","","","","",""
"aa-learning-trial","93","459575","0.0-9.0-2.0-1.10","7147","2","25","Male","approach_avoid_spark_v1","""event"",""trial"",""time""
""fullscreenenter"",""1"",""2986""
","
","
","""event"",""trial"",""time""
""fullscreenenter"",""1"",""2986""
","
","","","","","","869.6000000014901","images/cat3.png","","","learning","-5","-5","1","1","cat","pets","2","0","","bad","[-4]"
"html-keyboard-response","94","460076","0.0-9.0-2.0-0.11","7147","2","25","Male","approach_avoid_spark_v1","""event"",""trial"",""time""
""fullscreenenter"",""1"",""2986""
","
","
","""event"",""trial"",""time""
""fullscreenenter"",""1"",""2986""
","
","","","","","","null","<div style=""font-size:60px;"">+</div>","null","","fixation","","","","","","","","","","",""
"aa-learning-trial","95","463078","0.0-9.0-2.0-1.11","7147","2","25","Male","approach_avoid_spark_v1","""event"",""trial"",""time""
""fullscreenenter"",""1"",""2986""
","
","
","""event"",""trial"",""time""
""fullscreenenter"",""1"",""2986""
","
","","","","","","734.5999999977648","images/rabbit7.png","","","learning","-2","0","0","0","rabbit","pets","2","0","","good","[5]"
"html-keyboard-response","96","463580","0.0-9.0-2.0-0.12","7147","2","25","Male","approach_avoid_spark_v1","""event"",""trial"",""time""
""fullscreenenter"",""1"",""2986""
","
","
","""event"",""trial"",""time""
""fullscreenenter"",""1"",""2986""
","
","","","","","","null","<div style=""font-size:60px;"">+</div>","null","","fixation","","","","","","","","","","",""
"aa-learning-trial","97","466582","0.0-9.0-2.0-1.12","7147","2","25","Male","approach_avoid_spark_v1","""event"",""trial"",""time""
""fullscreenenter"",""1"",""2986""
","
","
","""event"",""trial"",""time""
""fullscreenenter"",""1"",""2986""
","
","","","","","","636","images/rabbit4.png","","","learning","-3","0","0","0","rabbit","pets","2","0","","good","[5]"
"html-keyboard-response","98","467083","0.0-9.0-2.0-0.13","7147","2","25","Male","approach_avoid_spark_v1","""event"",""trial"",""time""
""fullscreenenter"",""1"",""2986""
","
","
","""event"",""trial"",""time""
""fullscreenenter"",""1"",""2986""
","
","","","","","","null","<div style=""font-size:60px;"">+</div>","null","","fixation","","","","","","","","","","",""
"aa-learning-trial","99","470085","0.0-9.0-2.0-1.13","7147","2","25","Male","approach_avoid_spark_v1","""event"",""trial"",""time""
""fullscreenenter"",""1"",""2986""
","
","
","""event"",""trial"",""time""
""fullscreenenter"",""1"",""2986""
","
","","","","","","686.3999999985099","images/rodent1.png","","","learning","3","3","1","1","rodent","pets","2","0","","neutral","0"
"html-keyboard-response","100","470586","0.0-9.0-2.0-0.14","7147","2","25","Male","approach_avoid_spark_v1","""event"",""trial"",""time""
""fullscreenenter"",""1"",""2986""
","
","
","""event"",""trial"",""time""
""fullscreenenter"",""1"",""2986""
","
","","","","","","null","<div style=""font-size:60px;"">+</div>","null","","fixation","","","","","","","","","","",""
"aa-learning-trial","101","473590","0.0-9.0-2.0-1.14","7147","2","25","Male","approach_avoid_spark_v1","""event"",""trial"",""time""
""fullscreenenter"",""1"",""2986""
","
","
","""event"",""trial"",""time""
""fullscreenenter"",""1"",""2986""
","
","","","","","","751.6000000014901","images/cat3.png","","","learning","-5","0","0","0","cat","pets","2","0","","bad","[-4]"
"html-keyboard-response","102","474100","0.0-9.0-2.0-0.15","7147","2","25","Male","approach_avoid_spark_v1","""event"",""trial"",""time""
""fullscreenenter"",""1"",""2986""
","
","
","""event"",""trial"",""time""
""fullscreenenter"",""1"",""2986""
","
","","","","","","null","<div style=""font-size:60px;"">+</div>","null","","fixation","","","","","","","","","","",""
"aa-learning-trial","103","477102","0.0-9.0-2.0-1.15","7147","2","25","Male","approach_avoid_spark_v1","""event"",""trial"",""time""
""fullscreenenter"",""1"",""2986""
","
","
","""event"",""trial"",""time""
""fullscreenenter"",""1"",""2986""
","
","","","","","","650.1999999992549","images/rodent1.png","","","learning","3","3","1","1","rodent","pets","2","0","","neutral","0"
"html-keyboard-response","104","477603","0.0-9.0-2.0-0.16","7147","2","25","Male","approach_avoid_spark_v1","""event"",""trial"",""time""
""fullscreenenter"",""1"",""2986""
","
","
","""event"",""trial"",""time""
""fullscreenenter"",""1"",""2986""
","
","","","","","","null","<div style=""font-size:60px;"">+</div>","null","","fixation","","","","","","","","","","",""
"aa-learning-trial","105","480606","0.0-9.0-2.0-1.16","7147","2","25","Male","approach_avoid_spark_v1","""event"",""trial"",""time""
""fullscreenenter"",""1"",""2986""
","
","
","""event"",""trial"",""time""
""fullscreenenter"",""1"",""2986""
","
","","","","","","1642.199999999255","images/rodent5.png","","","learning","7","7","1","1","rodent","pets","2","0","","neutral","0"
"html-keyboard-response","106","481117","0.0-9.0-2.0-0.17","7147","2","25","Male","approach_avoid_spark_v1","""event"",""trial"",""time""
""fullscreenenter"",""1"",""2986""
","
","
","""event"",""trial"",""time""
""fullscreenenter"",""1"",""2986""
","
","","","","","","null","<div style=""font-size:60px;"">+</div>","null","","fixation","","","","","","","","","","",""
"aa-learning-trial","107","484119","0.0-9.0-2.0-1.17","7147","2","25","Male","approach_avoid_spark_v1","""event"",""trial"",""time""
""fullscreenenter"",""1"",""2986""
","
","
","""event"",""trial"",""time""
""fullscreenenter"",""1"",""2986""
","
","","","","","","503.69999999925494","images/rabbit4.png","","","learning","-3","0","0","0","rabbit","pets","2","0","","good","[5]"
"html-keyboard-response","108","484620","0.0-9.0-2.0-0.18","7147","2","25","Male","approach_avoid_spark_v1","""event"",""trial"",""time""
""fullscreenenter"",""1"",""2986""
","
","
","""event"",""trial"",""time""
""fullscreenenter"",""1"",""2986""
","
","","","","","","null","<div style=""font-size:60px;"">+</div>","null","","fixation","","","","","","","","","","",""
"aa-learning-trial","109","487622","0.0-9.0-2.0-1.18","7147","2","25","Male","approach_avoid_spark_v1","""event"",""trial"",""time""
""fullscreenenter"",""1"",""2986""
","
","
","""event"",""trial"",""time""
""fullscreenenter"",""1"",""2986""
","
","","","","","","807","images/cat5.png","","","learning","1","1","1","1","cat","pets","2","0","","bad","[-4]"
"html-keyboard-response","110","488123","0.0-9.0-2.0-0.19","7147","2","25","Male","approach_avoid_spark_v1","""event"",""trial"",""time""
""fullscreenenter"",""1"",""2986""
","
","
","""event"",""trial"",""time""
""fullscreenenter"",""1"",""2986""
","
","","","","","","null","<div style=""font-size:60px;"">+</div>","null","","fixation","","","","","","","","","","",""
"aa-learning-trial","111","491125","0.0-9.0-2.0-1.19","7147","2","25","Male","approach_avoid_spark_v1","""event"",""trial"",""time""
""fullscreenenter"",""1"",""2986""
","
","
","""event"",""trial"",""time""
""fullscreenenter"",""1"",""2986""
","
","","","","","","549.5","images/rodent5.png","","","learning","7","7","1","1","rodent","pets","2","0","","neutral","0"
"html-keyboard-response","112","491627","0.0-9.0-2.0-0.20","7147","2","25","Male","approach_avoid_spark_v1","""event"",""trial"",""time""
""fullscreenenter"",""1"",""2986""
","
","
","""event"",""trial"",""time""
""fullscreenenter"",""1"",""2986""
","
","","","","","","null","<div style=""font-size:60px;"">+</div>","null","","fixation","","","","","","","","","","",""
"aa-learning-trial","113","494629","0.0-9.0-2.0-1.20","7147","2","25","Male","approach_avoid_spark_v1","""event"",""trial"",""time""
""fullscreenenter"",""1"",""2986""
","
","
","""event"",""trial"",""time""
""fullscreenenter"",""1"",""2986""
","
","","","","","","607.5","images/rodent4.png","","","learning","-7","0","0","0","rodent","pets","2","0","","neutral","0"
"html-keyboard-response","114","495130","0.0-9.0-2.0-0.21","7147","2","25","Male","approach_avoid_spark_v1","""event"",""trial"",""time""
""fullscreenenter"",""1"",""2986""
","
","
","""event"",""trial"",""time""
""fullscreenenter"",""1"",""2986""
","
","","","","","","null","<div style=""font-size:60px;"">+</div>","null","","fixation","","","","","","","","","","",""
"aa-learning-trial","115","498133","0.0-9.0-2.0-1.21","7147","2","25","Male","approach_avoid_spark_v1","""event"",""trial"",""time""
""fullscreenenter"",""1"",""2986""
","
","
","""event"",""trial"",""time""
""fullscreenenter"",""1"",""2986""
","
","","","","","","980.0999999977648","images/cat8.png","","","learning","4","0","0","0","cat","pets","2","0","","bad","[-4]"
"html-keyboard-response","116","498634","0.0-9.0-2.0-0.22","7147","2","25","Male","approach_avoid_spark_v1","""event"",""trial"",""time""
""fullscreenenter"",""1"",""2986""
","
","
","""event"",""trial"",""time""
""fullscreenenter"",""1"",""2986""
","
","","","","","","null","<div style=""font-size:60px;"">+</div>","null","","fixation","","","","","","","","","","",""
"aa-learning-trial","117","501636","0.0-9.0-2.0-1.22","7147","2","25","Male","approach_avoid_spark_v1","""event"",""trial"",""time""
""fullscreenenter"",""1"",""2986""
","
","
","""event"",""trial"",""time""
""fullscreenenter"",""1"",""2986""
","
","","","","","","1399.1000000014901","images/cat2.png","","","learning","-8","0","0","0","cat","pets","2","0","","bad","[-4]"
"html-keyboard-response","118","502137","0.0-9.0-2.0-0.23","7147","2","25","Male","approach_avoid_spark_v1","""event"",""trial"",""time""
""fullscreenenter"",""1"",""2986""
","
","
","""event"",""trial"",""time""
""fullscreenenter"",""1"",""2986""
","
","","","","","","null","<div style=""font-size:60px;"">+</div>","null","","fixation","","","","","","","","","","",""
"aa-learning-trial","119","505145","0.0-9.0-2.0-1.23","7147","2","25","Male","approach_avoid_spark_v1","""event"",""trial"",""time""
""fullscreenenter"",""1"",""2986""
","
","
","""event"",""trial"",""time""
""fullscreenenter"",""1"",""2986""
","
","","","","","","566.0999999977648","images/cat2.png","","","learning","-8","0","0","0","cat","pets","2","0","","bad","[-4]"
"html-keyboard-response","120","505646","0.0-9.0-2.0-0.24","7147","2","25","Male","approach_avoid_spark_v1","""event"",""trial"",""time""
""fullscreenenter"",""1"",""2986""
","
","
","""event"",""trial"",""time""
""fullscreenenter"",""1"",""2986""
","
","","","","","","null","<div style=""font-size:60px;"">+</div>","null","","fixation","","","","","","","","","","",""
"aa-learning-trial","121","508648","0.0-9.0-2.0-1.24","7147","2","25","Male","approach_avoid_spark_v1","""event"",""trial"",""time""
""fullscreenenter"",""1"",""2986""
","
","
","""event"",""trial"",""time""
""fullscreenenter"",""1"",""2986""
","
","","","","","","1009.8000000007451","images/cat3.png","","","learning","-5","-5","1","1","cat","pets","2","0","","bad","[-4]"
"html-keyboard-response","122","509150","0.0-9.0-2.0-0.25","7147","2","25","Male","approach_avoid_spark_v1","""event"",""trial"",""time""
""fullscreenenter"",""1"",""2986""
","
","
","""event"",""trial"",""time""
""fullscreenenter"",""1"",""2986""
","
","","","","","","null","<div style=""font-size:60px;"">+</div>","null","","fixation","","","","","","","","","","",""
"aa-learning-trial","123","512153","0.0-9.0-2.0-1.25","7147","2","25","Male","approach_avoid_spark_v1","""event"",""trial"",""time""
""fullscreenenter"",""1"",""2986""
","
","
","""event"",""trial"",""time""
""fullscreenenter"",""1"",""2986""
","
","","","","","","644.6999999992549","images/rodent5.png","","","learning","7","7","1","1","rodent","pets","2","0","","neutral","0"
"html-keyboard-response","124","512655","0.0-9.0-2.0-0.26","7147","2","25","Male","approach_avoid_spark_v1","""event"",""trial"",""time""
""fullscreenenter"",""1"",""2986""
","
","
","""event"",""trial"",""time""
""fullscreenenter"",""1"",""2986""
","
","","","","","","null","<div style=""font-size:60px;"">+</div>","null","","fixation","","","","","","","","","","",""
"aa-learning-trial","125","515656","0.0-9.0-2.0-1.26","7147","2","25","Male","approach_avoid_spark_v1","""event"",""trial"",""time""
""fullscreenenter"",""1"",""2986""
","
","
","""event"",""trial"",""time""
""fullscreenenter"",""1"",""2986""
","
","","","","","","877","images/rodent1.png","","","learning","3","3","1","1","rodent","pets","2","0","","neutral","0"
"html-keyboard-response","126","516157","0.0-9.0-2.0-0.27","7147","2","25","Male","approach_avoid_spark_v1","""event"",""trial"",""time""
""fullscreenenter"",""1"",""2986""
","
","
","""event"",""trial"",""time""
""fullscreenenter"",""1"",""2986""
","
","","","","","","null","<div style=""font-size:60px;"">+</div>","null","","fixation","","","","","","","","","","",""
"aa-learning-trial","127","519159","0.0-9.0-2.0-1.27","7147","2","25","Male","approach_avoid_spark_v1","""event"",""trial"",""time""
""fullscreenenter"",""1"",""2986""
","
","
","""event"",""trial"",""time""
""fullscreenenter"",""1"",""2986""
","
","","","","","","600.3000000007451","images/rabbit4.png","","","learning","-3","0","0","0","rabbit","pets","2","0","","good","[5]"
"html-keyboard-response","128","519676","0.0-9.0-2.0-0.28","7147","2","25","Male","approach_avoid_spark_v1","""event"",""trial"",""time""
""fullscreenenter"",""1"",""2986""
","
","
","""event"",""trial"",""time""
""fullscreenenter"",""1"",""2986""
","
","","","","","","null","<div style=""font-size:60px;"">+</div>","null","","fixation","","","","","","","","","","",""
"aa-learning-trial","129","522678","0.0-9.0-2.0-1.28","7147","2","25","Male","approach_avoid_spark_v1","""event"",""trial"",""time""
""fullscreenenter"",""1"",""2986""
","
","
","""event"",""trial"",""time""
""fullscreenenter"",""1"",""2986""
","
","","","","","","1019.5","images/cat2.png","","","learning","-8","0","0","0","cat","pets","2","0","","bad","[-4]"
"html-keyboard-response","130","523178","0.0-9.0-2.0-0.29","7147","2","25","Male","approach_avoid_spark_v1","""event"",""trial"",""time""
""fullscreenenter"",""1"",""2986""
","
","
","""event"",""trial"",""time""
""fullscreenenter"",""1"",""2986""
","
","","","","","","null","<div style=""font-size:60px;"">+</div>","null","","fixation","","","","","","","","","","",""
"aa-learning-trial","131","526180","0.0-9.0-2.0-1.29","7147","2","25","Male","approach_avoid_spark_v1","""event"",""trial"",""time""
""fullscreenenter"",""1"",""2986""
","
","
","""event"",""trial"",""time""
""fullscreenenter"",""1"",""2986""
","
","","","","","","566.2999999970198","images/rabbit2.png","","","learning","-9","0","0","0","rabbit","pets","2","0","","good","[5]"
"html-keyboard-response","132","526682","0.0-9.0-2.0-0.30","7147","2","25","Male","approach_avoid_spark_v1","""event"",""trial"",""time""
""fullscreenenter"",""1"",""2986""
","
","
","""event"",""trial"",""time""
""fullscreenenter"",""1"",""2986""
","
","","","","","","null","<div style=""font-size:60px;"">+</div>","null","","fixation","","","","","","","","","","",""
"aa-learning-trial","133","529685","0.0-9.0-2.0-1.30","7147","2","25","Male","approach_avoid_spark_v1","""event"",""trial"",""time""
""fullscreenenter"",""1"",""2986""
","
","
","""event"",""trial"",""time""
""fullscreenenter"",""1"",""2986""
","
","","","","","","533.8999999985099","images/rabbit2.png","","","learning","-9","0","0","0","rabbit","pets","2","0","","good","[5]"
"html-keyboard-response","134","530185","0.0-9.0-2.0-0.31","7147","2","25","Male","approach_avoid_spark_v1","""event"",""trial"",""time""
""fullscreenenter"",""1"",""2986""
","
","
","""event"",""trial"",""time""
""fullscreenenter"",""1"",""2986""
","
","","","","","","null","<div style=""font-size:60px;"">+</div>","null","","fixation","","","","","","","","","","",""
"aa-learning-trial","135","533188","0.0-9.0-2.0-1.31","7147","2","25","Male","approach_avoid_spark_v1","""event"",""trial"",""time""
""fullscreenenter"",""1"",""2986""
","
","
","""event"",""trial"",""time""
""fullscreenenter"",""1"",""2986""
","
","","","","","","680.8000000007451","images/rodent7.png","","","learning","-4","0","0","0","rodent","pets","2","0","","neutral","0"
"html-keyboard-response","136","533690","0.0-9.0-2.0-0.32","7147","2","25","Male","approach_avoid_spark_v1","""event"",""trial"",""time""
""fullscreenenter"",""1"",""2986""
","
","
","""event"",""trial"",""time""
""fullscreenenter"",""1"",""2986""
","
","","","","","","null","<div style=""font-size:60px;"">+</div>","null","","fixation","","","","","","","","","","",""
"aa-learning-trial","137","536691","0.0-9.0-2.0-1.32","7147","2","25","Male","approach_avoid_spark_v1","""event"",""trial"",""time""
""fullscreenenter"",""1"",""2986""
","
","
","""event"",""trial"",""time""
""fullscreenenter"",""1"",""2986""
","
","","","","","","598.8999999985099","images/rabbit2.png","","","learning","-9","0","0","0","rabbit","pets","2","0","","good","[5]"
"html-keyboard-response","138","537198","0.0-9.0-2.0-0.33","7147","2","25","Male","approach_avoid_spark_v1","""event"",""trial"",""time""
""fullscreenenter"",""1"",""2986""
","
","
","""event"",""trial"",""time""
""fullscreenenter"",""1"",""2986""
","
","","","","","","null","<div style=""font-size:60px;"">+</div>","null","","fixation","","","","","","","","","","",""
"aa-learning-trial","139","540201","0.0-9.0-2.0-1.33","7147","2","25","Male","approach_avoid_spark_v1","""event"",""trial"",""time""
""fullscreenenter"",""1"",""2986""
","
","
","""event"",""trial"",""time""
""fullscreenenter"",""1"",""2986""
","
","","","","","","581.5","images/rabbit4.png","","","learning","-3","0","0","0","rabbit","pets","2","0","","good","[5]"
"html-keyboard-response","140","540702","0.0-9.0-2.0-0.34","7147","2","25","Male","approach_avoid_spark_v1","""event"",""trial"",""time""
""fullscreenenter"",""1"",""2986""
","
","
","""event"",""trial"",""time""
""fullscreenenter"",""1"",""2986""
","
","","","","","","null","<div style=""font-size:60px;"">+</div>","null","","fixation","","","","","","","","","","",""
"aa-learning-trial","141","543704","0.0-9.0-2.0-1.34","7147","2","25","Male","approach_avoid_spark_v1","""event"",""trial"",""time""
""fullscreenenter"",""1"",""2986""
","
","
","""event"",""trial"",""time""
""fullscreenenter"",""1"",""2986""
","
","","","","","","471.0999999977648","images/rabbit4.png","","","learning","-3","0","0","0","rabbit","pets","2","0","","good","[5]"
"html-keyboard-response","142","544205","0.0-9.0-2.0-0.35","7147","2","25","Male","approach_avoid_spark_v1","""event"",""trial"",""time""
""fullscreenenter"",""1"",""2986""
","
","
","""event"",""trial"",""time""
""fullscreenenter"",""1"",""2986""
","
","","","","","","null","<div style=""font-size:60px;"">+</div>","null","","fixation","","","","","","","","","","",""
"aa-learning-trial","143","547207","0.0-9.0-2.0-1.35","7147","2","25","Male","approach_avoid_spark_v1","""event"",""trial"",""time""
""fullscreenenter"",""1"",""2986""
","
","
","""event"",""trial"",""time""
""fullscreenenter"",""1"",""2986""
","
","","","","","","1094.800000000745","images/rabbit7.png","","","learning","-2","0","0","0","rabbit","pets","2","0","","good","[5]"
"html-keyboard-response","144","547708","0.0-9.0-2.0-0.36","7147","2","25","Male","approach_avoid_spark_v1","""event"",""trial"",""time""
""fullscreenenter"",""1"",""2986""
","
","
","""event"",""trial"",""time""
""fullscreenenter"",""1"",""2986""
","
","","","","","","null","<div style=""font-size:60px;"">+</div>","null","","fixation","","","","","","","","","","",""
"aa-learning-trial","145","550710","0.0-9.0-2.0-1.36","7147","2","25","Male","approach_avoid_spark_v1","""event"",""trial"",""time""
""fullscreenenter"",""1"",""2986""
","
","
","""event"",""trial"",""time""
""fullscreenenter"",""1"",""2986""
","
","","","","","","553","images/rodent5.png","","","learning","7","7","1","1","rodent","pets","2","0","","neutral","0"
"html-keyboard-response","146","551211","0.0-9.0-2.0-0.37","7147","2","25","Male","approach_avoid_spark_v1","""event"",""trial"",""time""
""fullscreenenter"",""1"",""2986""
","
","
","""event"",""trial"",""time""
""fullscreenenter"",""1"",""2986""
","
","","","","","","null","<div style=""font-size:60px;"">+</div>","null","","fixation","","","","","","","","","","",""
"aa-learning-trial","147","554212","0.0-9.0-2.0-1.37","7147","2","25","Male","approach_avoid_spark_v1","""event"",""trial"",""time""
""fullscreenenter"",""1"",""2986""
","
","
","""event"",""trial"",""time""
""fullscreenenter"",""1"",""2986""
","
","","","","","","631.4000000022352","images/rabbit2.png","","","learning","-9","0","0","0","rabbit","pets","2","0","","good","[5]"
"html-keyboard-response","148","554713","0.0-9.0-2.0-0.38","7147","2","25","Male","approach_avoid_spark_v1","""event"",""trial"",""time""
""fullscreenenter"",""1"",""2986""
","
","
","""event"",""trial"",""time""
""fullscreenenter"",""1"",""2986""
","
","","","","","","null","<div style=""font-size:60px;"">+</div>","null","","fixation","","","","","","","","","","",""
"aa-learning-trial","149","557716","0.0-9.0-2.0-1.38","7147","2","25","Male","approach_avoid_spark_v1","""event"",""trial"",""time""
""fullscreenenter"",""1"",""2986""
","
","
","""event"",""trial"",""time""
""fullscreenenter"",""1"",""2986""
","
","","","","","","646","images/rodent1.png","","","learning","3","3","1","1","rodent","pets","2","0","","neutral","0"
"html-keyboard-response","150","558217","0.0-9.0-2.0-0.39","7147","2","25","Male","approach_avoid_spark_v1","""event"",""trial"",""time""
""fullscreenenter"",""1"",""2986""
","
","
","""event"",""trial"",""time""
""fullscreenenter"",""1"",""2986""
","
","","","","","","null","<div style=""font-size:60px;"">+</div>","null","","fixation","","","","","","","","","","",""
"aa-learning-trial","151","561219","0.0-9.0-2.0-1.39","7147","2","25","Male","approach_avoid_spark_v1","""event"",""trial"",""time""
""fullscreenenter"",""1"",""2986""
","
","
","""event"",""trial"",""time""
""fullscreenenter"",""1"",""2986""
","
","","","","","","929.3999999985099","images/cat7.png","","","learning","8","0","0","0","cat","pets","2","0","","bad","[-4]"
"html-keyboard-response","152","561720","0.0-9.0-2.0-0.40","7147","2","25","Male","approach_avoid_spark_v1","""event"",""trial"",""time""
""fullscreenenter"",""1"",""2986""
","
","
","""event"",""trial"",""time""
""fullscreenenter"",""1"",""2986""
","
","","","","","","null","<div style=""font-size:60px;"">+</div>","null","","fixation","","","","","","","","","","",""
"aa-learning-trial","153","564722","0.0-9.0-2.0-1.40","7147","2","25","Male","approach_avoid_spark_v1","""event"",""trial"",""time""
""fullscreenenter"",""1"",""2986""
","
","
","""event"",""trial"",""time""
""fullscreenenter"",""1"",""2986""
","
","","","","","","882.8000000007451","images/rabbit7.png","","","learning","-2","0","0","0","rabbit","pets","2","0","","good","[5]"
"html-keyboard-response","154","565223","0.0-9.0-2.0-0.41","7147","2","25","Male","approach_avoid_spark_v1","""event"",""trial"",""time""
""fullscreenenter"",""1"",""2986""
","
","
","""event"",""trial"",""time""
""fullscreenenter"",""1"",""2986""
","
","","","","","","null","<div style=""font-size:60px;"">+</div>","null","","fixation","","","","","","","","","","",""
"aa-learning-trial","155","568225","0.0-9.0-2.0-1.41","7147","2","25","Male","approach_avoid_spark_v1","""event"",""trial"",""time""
""fullscreenenter"",""1"",""2986""
","
","
","""event"",""trial"",""time""
""fullscreenenter"",""1"",""2986""
","
","","","","","","623.1000000014901","images/cat3.png","","","learning","-5","-5","1","1","cat","pets","2","0","","bad","[-4]"
"html-keyboard-response","156","568727","0.0-9.0-2.0-0.42","7147","2","25","Male","approach_avoid_spark_v1","""event"",""trial"",""time""
""fullscreenenter"",""1"",""2986""
","
","
","""event"",""trial"",""time""
""fullscreenenter"",""1"",""2986""
","
","","","","","","null","<div style=""font-size:60px;"">+</div>","null","","fixation","","","","","","","","","","",""
"aa-learning-trial","157","571729","0.0-9.0-2.0-1.42","7147","2","25","Male","approach_avoid_spark_v1","""event"",""trial"",""time""
""fullscreenenter"",""1"",""2986""
","
","
","""event"",""trial"",""time""
""fullscreenenter"",""1"",""2986""
","
","","","","","","680.9000000022352","images/cat3.png","","","learning","-5","0","0","0","cat","pets","2","0","","bad","[-4]"
"html-keyboard-response","158","572230","0.0-9.0-2.0-0.43","7147","2","25","Male","approach_avoid_spark_v1","""event"",""trial"",""time""
""fullscreenenter"",""1"",""2986""
","
","
","""event"",""trial"",""time""
""fullscreenenter"",""1"",""2986""
","
","","","","","","null","<div style=""font-size:60px;"">+</div>","null","","fixation","","","","","","","","","","",""
"aa-learning-trial","159","575233","0.0-9.0-2.0-1.43","7147","2","25","Male","approach_avoid_spark_v1","""event"",""trial"",""time""
""fullscreenenter"",""1"",""2986""
","
","
","""event"",""trial"",""time""
""fullscreenenter"",""1"",""2986""
","
","","","","","","549.8000000007451","images/rodent1.png","","","learning","3","3","1","1","rodent","pets","2","0","","neutral","0"
"html-keyboard-response","160","575734","0.0-9.0-2.0-0.44","7147","2","25","Male","approach_avoid_spark_v1","""event"",""trial"",""time""
""fullscreenenter"",""1"",""2986""
","
","
","""event"",""trial"",""time""
""fullscreenenter"",""1"",""2986""
","
","","","","","","null","<div style=""font-size:60px;"">+</div>","null","","fixation","","","","","","","","","","",""
"aa-learning-trial","161","578735","0.0-9.0-2.0-1.44","7147","2","25","Male","approach_avoid_spark_v1","""event"",""trial"",""time""
""fullscreenenter"",""1"",""2986""
","
","
","""event"",""trial"",""time""
""fullscreenenter"",""1"",""2986""
","
","","","","","","1565.1000000014901","images/rodent4.png","","","learning","-7","0","0","0","rodent","pets","2","0","","neutral","0"
"html-keyboard-response","162","579237","0.0-9.0-2.0-0.45","7147","2","25","Male","approach_avoid_spark_v1","""event"",""trial"",""time""
""fullscreenenter"",""1"",""2986""
","
","
","""event"",""trial"",""time""
""fullscreenenter"",""1"",""2986""
","
","","","","","","null","<div style=""font-size:60px;"">+</div>","null","","fixation","","","","","","","","","","",""
"aa-learning-trial","163","582239","0.0-9.0-2.0-1.45","7147","2","25","Male","approach_avoid_spark_v1","""event"",""trial"",""time""
""fullscreenenter"",""1"",""2986""
","
","
","""event"",""trial"",""time""
""fullscreenenter"",""1"",""2986""
","
","","","","","","891.4000000022352","images/rabbit8.png","","","learning","9","0","0","0","rabbit","pets","2","0","","good","[5]"
"html-keyboard-response","164","582741","0.0-9.0-2.0-0.46","7147","2","25","Male","approach_avoid_spark_v1","""event"",""trial"",""time""
""fullscreenenter"",""1"",""2986""
","
","
","""event"",""trial"",""time""
""fullscreenenter"",""1"",""2986""
","
","","","","","","null","<div style=""font-size:60px;"">+</div>","null","","fixation","","","","","","","","","","",""
"aa-learning-trial","165","585744","0.0-9.0-2.0-1.46","7147","2","25","Male","approach_avoid_spark_v1","""event"",""trial"",""time""
""fullscreenenter"",""1"",""2986""
","
","
","""event"",""trial"",""time""
""fullscreenenter"",""1"",""2986""
","
","","","","","","780.8000000007451","images/cat3.png","","","learning","-5","0","0","0","cat","pets","2","0","","bad","[-4]"
"html-keyboard-response","166","586246","0.0-9.0-2.0-0.47","7147","2","25","Male","approach_avoid_spark_v1","""event"",""trial"",""time""
""fullscreenenter"",""1"",""2986""
","
","
","""event"",""trial"",""time""
""fullscreenenter"",""1"",""2986""
","
","","","","","","null","<div style=""font-size:60px;"">+</div>","null","","fixation","","","","","","","","","","",""
"aa-learning-trial","167","589248","0.0-9.0-2.0-1.47","7147","2","25","Male","approach_avoid_spark_v1","""event"",""trial"",""time""
""fullscreenenter"",""1"",""2986""
","
","
","""event"",""trial"",""time""
""fullscreenenter"",""1"",""2986""
","
","","","","","","1517.5999999977648","images/rodent3.png","","","learning","2","2","1","1","rodent","pets","2","0","","neutral","0"
"html-keyboard-response","168","589749","0.0-9.0-2.0-0.48","7147","2","25","Male","approach_avoid_spark_v1","""event"",""trial"",""time""
""fullscreenenter"",""1"",""2986""
","
","
","""event"",""trial"",""time""
""fullscreenenter"",""1"",""2986""
","
","","","","","","null","<div style=""font-size:60px;"">+</div>","null","","fixation","","","","","","","","","","",""
"aa-learning-trial","169","592751","0.0-9.0-2.0-1.48","7147","2","25","Male","approach_avoid_spark_v1","""event"",""trial"",""time""
""fullscreenenter"",""1"",""2986""
","
","
","""event"",""trial"",""time""
""fullscreenenter"",""1"",""2986""
","
","","","","","","854","images/cat5.png","","","learning","1","1","1","1","cat","pets","2","0","","bad","[-4]"
"html-keyboard-response","170","593253","0.0-9.0-2.0-0.49","7147","2","25","Male","approach_avoid_spark_v1","""event"",""trial"",""time""
""fullscreenenter"",""1"",""2986""
","
","
","""event"",""trial"",""time""
""fullscreenenter"",""1"",""2986""
","
","","","","","","null","<div style=""font-size:60px;"">+</div>","null","","fixation","","","","","","","","","","",""
"aa-learning-trial","171","596255","0.0-9.0-2.0-1.49","7147","2","25","Male","approach_avoid_spark_v1","""event"",""trial"",""time""
""fullscreenenter"",""1"",""2986""
","
","
","""event"",""trial"",""time""
""fullscreenenter"",""1"",""2986""
","
","","","","","","804.6999999992549","images/cat2.png","","","learning","-8","-8","1","1","cat","pets","2","0","","bad","[-4]"
"html-keyboard-response","172","596757","0.0-9.0-2.0-0.50","7147","2","25","Male","approach_avoid_spark_v1","""event"",""trial"",""time""
""fullscreenenter"",""1"",""2986""
","
","
","""event"",""trial"",""time""
""fullscreenenter"",""1"",""2986""
","
","","","","","","null","<div style=""font-size:60px;"">+</div>","null","","fixation","","","","","","","","","","",""
"aa-learning-trial","173","599759","0.0-9.0-2.0-1.50","7147","2","25","Male","approach_avoid_spark_v1","""event"",""trial"",""time""
""fullscreenenter"",""1"",""2986""
","
","
","""event"",""trial"",""time""
""fullscreenenter"",""1"",""2986""
","
","","","","","","881.8999999985099","images/rabbit6.png","","","learning","5","5","1","1","rabbit","pets","2","0","","good","[5]"
"html-button-response","174","602634","0.0-9.0-3.0","7147","2","25","Male","approach_avoid_spark_v1","""event"",""trial"",""time""
""fullscreenenter"",""1"",""2986""
","
","
","""event"",""trial"",""time""
""fullscreenenter"",""1"",""2986""
","
","","","","","","2874.10000000149","<p> You have completed the round! <p> In this round, you earned 19 points! </p>","0","","break","","","","","","","","","","",""
"html-button-response","175","604442","0.0-10.0","7147","2","25","Male","approach_avoid_spark_v1","""event"",""trial"",""time""
""fullscreenenter"",""1"",""2986""
","
","
","""event"",""trial"",""time""
""fullscreenenter"",""1"",""2986""
","
","","","","","","1807.6000000014901","<p> Now it's time to play another round. </p>","0","","transition_screen","","","","","","","","","","",""
"preload","176","604553","0.0-11.0-0.0","7147","2","25","Male","approach_avoid_spark_v1","""event"",""trial"",""time""
""fullscreenenter"",""1"",""2986""
","
","
","""event"",""trial"",""time""
""fullscreenenter"",""1"",""2986""
","
","true","false","[]","[]","[]","","","","","","","","","","","","","","","",""
"learning-instructions","177","615338","0.0-11.0-1.0-0.0","7147","2","25","Male","approach_avoid_spark_v1","""event"",""trial"",""time""
""fullscreenenter"",""1"",""2986""
","
","
","""event"",""trial"",""time""
""fullscreenenter"",""1"",""2986""
","
","","","","","","4830.5","<p> Your goal in this round is to take your friend for rides in different vehicles. </p></div>","","0","instructions","","","","","","","","","","",""
"learning-instructions","178","630243","0.0-11.0-1.0-0.1","7147","2","25","Male","approach_avoid_spark_v1","""event"",""trial"",""time""
""fullscreenenter"",""1"",""2986""
","
","
","""event"",""trial"",""time""
""fullscreenenter"",""1"",""2986""
","
","","","","","","4955.199999999255","<p> Your friend enjoys riding in some vehicles but not in others.  </p><p> On each turn, you will see a vehicle.   </p><p> You need to decide whether to take your friend for a ride or not.  </p>","","0","instructions","","","","","","","","","","",""
"learning-instructions","179","639010","0.0-11.0-1.0-0.2","7147","2","25","Male","approach_avoid_spark_v1","""event"",""trial"",""time""
""fullscreenenter"",""1"",""2986""
","
","
","""event"",""trial"",""time""
""fullscreenenter"",""1"",""2986""
","
","","","","","","2261.599999997765","<p> You can take your friend for a ride in the vehicle by pressing 1 and skip the ride by pressing 0. </p><br><div class=""choice-instructions-grid""> <div class=""choice-option""><img src=""images/approach.png"" class=""choice-option-img"" stage=""instructions"" position=""0"" ><div class=""choice-option-text""> Press ""1."" </div></div><div class=""choice-option""><img src=""images/avoid.png"" class=""choice-option-img"" stage=""instructions"" position=""1"" ><div class=""choice-option-text""> Press ""0."" </div></div>","","0","instructions","","","","","","","","","","",""
"learning-instructions","180","648298","0.0-11.0-1.0-0.3","7147","2","25","Male","approach_avoid_spark_v1","""event"",""trial"",""time""
""fullscreenenter"",""1"",""2986""
","
","
","""event"",""trial"",""time""
""fullscreenenter"",""1"",""2986""
","
","","","","","","500","<p> If you take them for a ride in a vehicle they like, they will be thrilled! </p><p> But if you take them for a ride in a vehicle they do not like, they will be upset. </p>","","0","instructions","","","","","","","","","","",""
"learning-instructions","181","660602","0.0-11.0-1.0-0.4","7147","2","25","Male","approach_avoid_spark_v1","""event"",""trial"",""time""
""fullscreenenter"",""1"",""2986""
","
","
","""event"",""trial"",""time""
""fullscreenenter"",""1"",""2986""
","
","","","","","","573.6000000014901","<p> You will earn points based on how you made your friend feel. </p><p> If you made him thrilled, you will WIN anywhere from 1 - 9 points, </p><p> but if you made him upset, you will LOSE anywhere from 1 - 9 points. </p>","","0","instructions","","","","","","","","","","",""
"learning-instructions","182","667858","0.0-11.0-1.0-0.5","7147","2","25","Male","approach_avoid_spark_v1","""event"",""trial"",""time""
""fullscreenenter"",""1"",""2986""
","
","
","""event"",""trial"",""time""
""fullscreenenter"",""1"",""2986""
","
","","","","","","600.0999999977648","<p> You will see how many points you won or lost in the center of the screen. </p><p> Here is what you would see if you won 5 points: </p><p style=""color:green;font-size:50px;font-weight:bolder"">5</p>","","0","instructions","","","","","","","","","","",""
"learning-instructions","183","671097","0.0-11.0-1.0-0.6","7147","2","25","Male","approach_avoid_spark_v1","""event"",""trial"",""time""
""fullscreenenter"",""1"",""2986""
","
","
","""event"",""trial"",""time""
""fullscreenenter"",""1"",""2986""
","
","","","","","","398","<p> And here is what you would see if you lost 3 points: </p><p style=""color:red;font-size:50px;font-weight:bolder"">-3</p>","","0","instructions","","","","","","","","","","",""
"learning-instructions","184","688761","0.0-11.0-1.0-0.7","7147","2","25","Male","approach_avoid_spark_v1","""event"",""trial"",""time""
""fullscreenenter"",""1"",""2986""
","
","
","""event"",""trial"",""time""
""fullscreenenter"",""1"",""2986""
","
","","","","","","2413.39999999851","<p> Some vehicles will make your friend REALLY thrilled or upset. </p><p> These vehicles will make you win or lose LOTS of points. </p><p> Other vehicles will only make him feel a little thrilled or upset. </p><p> These vehicles will make you win or lose small amounts of points. </p>","","0","instructions","","","","","","","","","","",""
"learning-instructions","185","701538","0.0-11.0-1.0-0.8","7147","2","25","Male","approach_avoid_spark_v1","""event"",""trial"",""time""
""fullscreenenter"",""1"",""2986""
","
","
","""event"",""trial"",""time""
""fullscreenenter"",""1"",""2986""
","
","","","","","","979.8000000007451","<p> If you choose to skip the ride, you will not win or lose any points. </p><p>  However, in the center of the screen, you will see the number of points you WOULD HAVE won or lost if you had taken your friend for a ride. </p>","","0","instructions","","","","","","","","","","",""
"learning-instructions","186","713113","0.0-11.0-1.0-0.9","7147","2","25","Male","approach_avoid_spark_v1","""event"",""trial"",""time""
""fullscreenenter"",""1"",""2986""
","
","
","""event"",""trial"",""time""
""fullscreenenter"",""1"",""2986""
","
","","","","","","795.3000000007451","<p> Here is what you might see if you did not take your friend for a ride but he would have enjoyed it: </p><p style=""color:grey; font-size:50px; display: inline-block; border-spacing: 15px; border-width:3px; border-style:solid; border-color:red"">  &nbsp; 6 &nbsp; </p><p> Remember, in this case, you would not win or lose ANY points because you skipped the ride.  </p>","","0","instructions","","","","","","","","","","",""
"learning-instructions","187","721137","0.0-11.0-1.0-0.10","7147","2","25","Male","approach_avoid_spark_v1","""event"",""trial"",""time""
""fullscreenenter"",""1"",""2986""
","
","
","""event"",""trial"",""time""
""fullscreenenter"",""1"",""2986""
","
","","","","","","379.69999999925494","<p> Try to make the best choice for each vehicle because </p><p> at the end of the game, you will earn bonus money based on how many points you earned. </p>","","0","instructions","","","","","","","","","","",""
"learning-instructions","188","730234","0.0-11.0-1.0-0.11","7147","2","25","Male","approach_avoid_spark_v1","""event"",""trial"",""time""
""fullscreenenter"",""1"",""2986""
","
","
","""event"",""trial"",""time""
""fullscreenenter"",""1"",""2986""
","
","","","","","","894.5","<p> You will have 3 seconds to make each choice. Try to respond before time runs out! </p><p> You will lose 5 points each time you do not make a response. </p>","","0","instructions","","","","","","","","","","",""
"html-keyboard-response","189","730847","0.0-11.0-2.0-0.0","7147","2","25","Male","approach_avoid_spark_v1","""event"",""trial"",""time""
""fullscreenenter"",""1"",""2986""
","
","
","""event"",""trial"",""time""
""fullscreenenter"",""1"",""2986""
","
","","","","","","null","<div style=""font-size:60px;"">+</div>","null","","fixation","","","","","","","","","","",""
"aa-learning-trial","190","733863","0.0-11.0-2.0-1.0","7147","2","25","Male","approach_avoid_spark_v1","""event"",""trial"",""time""
""fullscreenenter"",""1"",""2986""
","
","
","""event"",""trial"",""time""
""fullscreenenter"",""1"",""2986""
","
","","","","","","894.3000000007451","images/boat3.png","","","learning","5","0","0","0","boat","vehicles","1","1","","good","[6]"
"html-keyboard-response","191","734367","0.0-11.0-2.0-0.1","7147","2","25","Male","approach_avoid_spark_v1","""event"",""trial"",""time""
""fullscreenenter"",""1"",""2986""
","
","
","""event"",""trial"",""time""
""fullscreenenter"",""1"",""2986""
","
","","","","","","null","<div style=""font-size:60px;"">+</div>","null","","fixation","","","","","","","","","","",""
"aa-learning-trial","192","737377","0.0-11.0-2.0-1.1","7147","2","25","Male","approach_avoid_spark_v1","""event"",""trial"",""time""
""fullscreenenter"",""1"",""2986""
","
","
","""event"",""trial"",""time""
""fullscreenenter"",""1"",""2986""
","
","","","","","","713.3000000007451","images/plane1.png","","","learning","-4","0","0","0","plane","vehicles","1","1","","bad","[-5]"
"html-keyboard-response","193","737878","0.0-11.0-2.0-0.2","7147","2","25","Male","approach_avoid_spark_v1","""event"",""trial"",""time""
""fullscreenenter"",""1"",""2986""
","
","
","""event"",""trial"",""time""
""fullscreenenter"",""1"",""2986""
","
","","","","","","null","<div style=""font-size:60px;"">+</div>","null","","fixation","","","","","","","","","","",""
"aa-learning-trial","194","740892","0.0-11.0-2.0-1.2","7147","2","25","Male","approach_avoid_spark_v1","""event"",""trial"",""time""
""fullscreenenter"",""1"",""2986""
","
","
","""event"",""trial"",""time""
""fullscreenenter"",""1"",""2986""
","
","","","","","","559.6999999992549","images/plane1.png","","","learning","-6","0","0","0","plane","vehicles","1","1","","bad","[-5]"
"html-keyboard-response","195","741406","0.0-11.0-2.0-0.3","7147","2","25","Male","approach_avoid_spark_v1","""event"",""trial"",""time""
""fullscreenenter"",""1"",""2986""
","
","
","""event"",""trial"",""time""
""fullscreenenter"",""1"",""2986""
","
","","","","","","null","<div style=""font-size:60px;"">+</div>","null","","fixation","","","","","","","","","","",""
"aa-learning-trial","196","744427","0.0-11.0-2.0-1.3","7147","2","25","Male","approach_avoid_spark_v1","""event"",""trial"",""time""
""fullscreenenter"",""1"",""2986""
","
","
","""event"",""trial"",""time""
""fullscreenenter"",""1"",""2986""
","
","","","","","","741.6000000014901","images/plane8.png","","","learning","-5","0","0","0","plane","vehicles","1","1","","bad","[-5]"
"html-keyboard-response","197","744947","0.0-11.0-2.0-0.4","7147","2","25","Male","approach_avoid_spark_v1","""event"",""trial"",""time""
""fullscreenenter"",""1"",""2986""
","
","
","""event"",""trial"",""time""
""fullscreenenter"",""1"",""2986""
","
","","","","","","null","<div style=""font-size:60px;"">+</div>","null","","fixation","","","","","","","","","","",""
"aa-learning-trial","198","747966","0.0-11.0-2.0-1.4","7147","2","25","Male","approach_avoid_spark_v1","""event"",""trial"",""time""
""fullscreenenter"",""1"",""2986""
","
","
","""event"",""trial"",""time""
""fullscreenenter"",""1"",""2986""
","
","","","","","","750.9000000022352","images/train6.png","","","learning","1","0","0","0","train","vehicles","1","1","","neutral","0"
"html-keyboard-response","199","748486","0.0-11.0-2.0-0.5","7147","2","25","Male","approach_avoid_spark_v1","""event"",""trial"",""time""
""fullscreenenter"",""1"",""2986""
","
","
","""event"",""trial"",""time""
""fullscreenenter"",""1"",""2986""
","
","","","","","","null","<div style=""font-size:60px;"">+</div>","null","","fixation","","","","","","","","","","",""
"aa-learning-trial","200","751496","0.0-11.0-2.0-1.5","7147","2","25","Male","approach_avoid_spark_v1","""event"",""trial"",""time""
""fullscreenenter"",""1"",""2986""
","
","
","""event"",""trial"",""time""
""fullscreenenter"",""1"",""2986""
","
","","","","","","682.8999999985099","images/boat4.png","","","learning","6","0","0","0","boat","vehicles","1","1","","good","[6]"
"html-keyboard-response","201","752016","0.0-11.0-2.0-0.6","7147","2","25","Male","approach_avoid_spark_v1","""event"",""trial"",""time""
""fullscreenenter"",""1"",""2986""
","
","
","""event"",""trial"",""time""
""fullscreenenter"",""1"",""2986""
","
","","","","","","null","<div style=""font-size:60px;"">+</div>","null","","fixation","","","","","","","","","","",""
"aa-learning-trial","202","755037","0.0-11.0-2.0-1.6","7147","2","25","Male","approach_avoid_spark_v1","""event"",""trial"",""time""
""fullscreenenter"",""1"",""2986""
","
","
","""event"",""trial"",""time""
""fullscreenenter"",""1"",""2986""
","
","","","","","","660.6999999992549","images/boat3.png","","","learning","7","7","1","1","boat","vehicles","1","1","","good","[6]"
"html-keyboard-response","203","755556","0.0-11.0-2.0-0.7","7147","2","25","Male","approach_avoid_spark_v1","""event"",""trial"",""time""
""fullscreenenter"",""1"",""2986""
","
","
","""event"",""trial"",""time""
""fullscreenenter"",""1"",""2986""
","
","","","","","","null","<div style=""font-size:60px;"">+</div>","null","","fixation","","","","","","","","","","",""
"aa-learning-trial","204","758577","0.0-11.0-2.0-1.7","7147","2","25","Male","approach_avoid_spark_v1","""event"",""trial"",""time""
""fullscreenenter"",""1"",""2986""
","
","
","""event"",""trial"",""time""
""fullscreenenter"",""1"",""2986""
","
","","","","","","1174.8999999985099","images/train1.png","","","learning","-1","0","0","0","train","vehicles","1","1","","neutral","0"
"html-keyboard-response","205","759096","0.0-11.0-2.0-0.8","7147","2","25","Male","approach_avoid_spark_v1","""event"",""trial"",""time""
""fullscreenenter"",""1"",""2986""
","
","
","""event"",""trial"",""time""
""fullscreenenter"",""1"",""2986""
","
","","","","","","null","<div style=""font-size:60px;"">+</div>","null","","fixation","","","","","","","","","","",""
"aa-learning-trial","206","762098","0.0-11.0-2.0-1.8","7147","2","25","Male","approach_avoid_spark_v1","""event"",""trial"",""time""
""fullscreenenter"",""1"",""2986""
","
","
","""event"",""trial"",""time""
""fullscreenenter"",""1"",""2986""
","
","","","","","","645.2000000029802","images/train8.png","","","learning","1","0","0","0","train","vehicles","1","1","","neutral","0"
"html-keyboard-response","207","762600","0.0-11.0-2.0-0.9","7147","2","25","Male","approach_avoid_spark_v1","""event"",""trial"",""time""
""fullscreenenter"",""1"",""2986""
","
","
","""event"",""trial"",""time""
""fullscreenenter"",""1"",""2986""
","
","","","","","","null","<div style=""font-size:60px;"">+</div>","null","","fixation","","","","","","","","","","",""
"aa-learning-trial","208","765601","0.0-11.0-2.0-1.9","7147","2","25","Male","approach_avoid_spark_v1","""event"",""trial"",""time""
""fullscreenenter"",""1"",""2986""
","
","
","""event"",""trial"",""time""
""fullscreenenter"",""1"",""2986""
","
","","","","","","575.3000000007451","images/boat4.png","","","learning","6","6","1","1","boat","vehicles","1","1","","good","[6]"
"html-keyboard-response","209","766103","0.0-11.0-2.0-0.10","7147","2","25","Male","approach_avoid_spark_v1","""event"",""trial"",""time""
""fullscreenenter"",""1"",""2986""
","
","
","""event"",""trial"",""time""
""fullscreenenter"",""1"",""2986""
","
","","","","","","null","<div style=""font-size:60px;"">+</div>","null","","fixation","","","","","","","","","","",""
"aa-learning-trial","210","769104","0.0-11.0-2.0-1.10","7147","2","25","Male","approach_avoid_spark_v1","""event"",""trial"",""time""
""fullscreenenter"",""1"",""2986""
","
","
","""event"",""trial"",""time""
""fullscreenenter"",""1"",""2986""
","
","","","","","","1701.5","images/train1.png","","","learning","2","0","0","0","train","vehicles","1","1","","neutral","0"
"html-keyboard-response","211","769605","0.0-11.0-2.0-0.11","7147","2","25","Male","approach_avoid_spark_v1","""event"",""trial"",""time""
""fullscreenenter"",""1"",""2986""
","
","
","""event"",""trial"",""time""
""fullscreenenter"",""1"",""2986""
","
","","","","","","null","<div style=""font-size:60px;"">+</div>","null","","fixation","","","","","","","","","","",""
"aa-learning-trial","212","772607","0.0-11.0-2.0-1.11","7147","2","25","Male","approach_avoid_spark_v1","""event"",""trial"",""time""
""fullscreenenter"",""1"",""2986""
","
","
","""event"",""trial"",""time""
""fullscreenenter"",""1"",""2986""
","
","","","","","","2414.5","images/plane7.png","","","learning","-8","0","0","0","plane","vehicles","1","1","","bad","[-5]"
"html-keyboard-response","213","773109","0.0-11.0-2.0-0.12","7147","2","25","Male","approach_avoid_spark_v1","""event"",""trial"",""time""
""fullscreenenter"",""1"",""2986""
","
","
","""event"",""trial"",""time""
""fullscreenenter"",""1"",""2986""
","
","","","","","","null","<div style=""font-size:60px;"">+</div>","null","","fixation","","","","","","","","","","",""
"aa-learning-trial","214","776111","0.0-11.0-2.0-1.12","7147","2","25","Male","approach_avoid_spark_v1","""event"",""trial"",""time""
""fullscreenenter"",""1"",""2986""
","
","
","""event"",""trial"",""time""
""fullscreenenter"",""1"",""2986""
","
","","","","","","821.6999999992549","images/train8.png","","","learning","1","1","1","1","train","vehicles","1","1","","neutral","0"
"html-keyboard-response","215","776613","0.0-11.0-2.0-0.13","7147","2","25","Male","approach_avoid_spark_v1","""event"",""trial"",""time""
""fullscreenenter"",""1"",""2986""
","
","
","""event"",""trial"",""time""
""fullscreenenter"",""1"",""2986""
","
","","","","","","null","<div style=""font-size:60px;"">+</div>","null","","fixation","","","","","","","","","","",""
"aa-learning-trial","216","779628","0.0-11.0-2.0-1.13","7147","2","25","Male","approach_avoid_spark_v1","""event"",""trial"",""time""
""fullscreenenter"",""1"",""2986""
","
","
","""event"",""trial"",""time""
""fullscreenenter"",""1"",""2986""
","
","","","","","","866.7999999970198","images/boat1.png","","","learning","4","4","1","1","boat","vehicles","1","1","","good","[6]"
"html-keyboard-response","217","780140","0.0-11.0-2.0-0.14","7147","2","25","Male","approach_avoid_spark_v1","""event"",""trial"",""time""
""fullscreenenter"",""1"",""2986""
","
","
","""event"",""trial"",""time""
""fullscreenenter"",""1"",""2986""
","
","","","","","","null","<div style=""font-size:60px;"">+</div>","null","","fixation","","","","","","","","","","",""
"aa-learning-trial","218","783143","0.0-11.0-2.0-1.14","7147","2","25","Male","approach_avoid_spark_v1","""event"",""trial"",""time""
""fullscreenenter"",""1"",""2986""
","
","
","""event"",""trial"",""time""
""fullscreenenter"",""1"",""2986""
","
","","","","","","1015.9000000022352","images/plane8.png","","","learning","-4","0","0","0","plane","vehicles","1","1","","bad","[-5]"
"html-keyboard-response","219","783644","0.0-11.0-2.0-0.15","7147","2","25","Male","approach_avoid_spark_v1","""event"",""trial"",""time""
""fullscreenenter"",""1"",""2986""
","
","
","""event"",""trial"",""time""
""fullscreenenter"",""1"",""2986""
","
","","","","","","null","<div style=""font-size:60px;"">+</div>","null","","fixation","","","","","","","","","","",""
"aa-learning-trial","220","786646","0.0-11.0-2.0-1.15","7147","2","25","Male","approach_avoid_spark_v1","""event"",""trial"",""time""
""fullscreenenter"",""1"",""2986""
","
","
","""event"",""trial"",""time""
""fullscreenenter"",""1"",""2986""
","
","","","","","","1206.300000000745","images/plane7.png","","","learning","-6","0","0","0","plane","vehicles","1","1","","bad","[-5]"
"html-keyboard-response","221","787146","0.0-11.0-2.0-0.16","7147","2","25","Male","approach_avoid_spark_v1","""event"",""trial"",""time""
""fullscreenenter"",""1"",""2986""
","
","
","""event"",""trial"",""time""
""fullscreenenter"",""1"",""2986""
","
","","","","","","null","<div style=""font-size:60px;"">+</div>","null","","fixation","","","","","","","","","","",""
"aa-learning-trial","222","790149","0.0-11.0-2.0-1.16","7147","2","25","Male","approach_avoid_spark_v1","""event"",""trial"",""time""
""fullscreenenter"",""1"",""2986""
","
","
","""event"",""trial"",""time""
""fullscreenenter"",""1"",""2986""
","
","","","","","","826.7000000029802","images/train4.png","","","learning","-1","0","0","0","train","vehicles","1","1","","neutral","0"
"html-keyboard-response","223","790651","0.0-11.0-2.0-0.17","7147","2","25","Male","approach_avoid_spark_v1","""event"",""trial"",""time""
""fullscreenenter"",""1"",""2986""
","
","
","""event"",""trial"",""time""
""fullscreenenter"",""1"",""2986""
","
","","","","","","null","<div style=""font-size:60px;"">+</div>","null","","fixation","","","","","","","","","","",""
"aa-learning-trial","224","793653","0.0-11.0-2.0-1.17","7147","2","25","Male","approach_avoid_spark_v1","""event"",""trial"",""time""
""fullscreenenter"",""1"",""2986""
","
","
","""event"",""trial"",""time""
""fullscreenenter"",""1"",""2986""
","
","","","","","","619.1000000014901","images/plane8.png","","","learning","-4","0","0","0","plane","vehicles","1","1","","bad","[-5]"
"html-keyboard-response","225","794155","0.0-11.0-2.0-0.18","7147","2","25","Male","approach_avoid_spark_v1","""event"",""trial"",""time""
""fullscreenenter"",""1"",""2986""
","
","
","""event"",""trial"",""time""
""fullscreenenter"",""1"",""2986""
","
","","","","","","null","<div style=""font-size:60px;"">+</div>","null","","fixation","","","","","","","","","","",""
"aa-learning-trial","226","797156","0.0-11.0-2.0-1.18","7147","2","25","Male","approach_avoid_spark_v1","""event"",""trial"",""time""
""fullscreenenter"",""1"",""2986""
","
","
","""event"",""trial"",""time""
""fullscreenenter"",""1"",""2986""
","
","","","","","","714.2000000029802","images/boat4.png","","","learning","7","7","1","1","boat","vehicles","1","1","","good","[6]"
"html-keyboard-response","227","797657","0.0-11.0-2.0-0.19","7147","2","25","Male","approach_avoid_spark_v1","""event"",""trial"",""time""
""fullscreenenter"",""1"",""2986""
","
","
","""event"",""trial"",""time""
""fullscreenenter"",""1"",""2986""
","
","","","","","","null","<div style=""font-size:60px;"">+</div>","null","","fixation","","","","","","","","","","",""
"aa-learning-trial","228","800659","0.0-11.0-2.0-1.19","7147","2","25","Male","approach_avoid_spark_v1","""event"",""trial"",""time""
""fullscreenenter"",""1"",""2986""
","
","
","""event"",""trial"",""time""
""fullscreenenter"",""1"",""2986""
","
","","","","","","459.1000000014901","images/plane8.png","","","learning","-4","0","0","0","plane","vehicles","1","1","","bad","[-5]"
"html-keyboard-response","229","801160","0.0-11.0-2.0-0.20","7147","2","25","Male","approach_avoid_spark_v1","""event"",""trial"",""time""
""fullscreenenter"",""1"",""2986""
","
","
","""event"",""trial"",""time""
""fullscreenenter"",""1"",""2986""
","
","","","","","","null","<div style=""font-size:60px;"">+</div>","null","","fixation","","","","","","","","","","",""
"aa-learning-trial","230","804161","0.0-11.0-2.0-1.20","7147","2","25","Male","approach_avoid_spark_v1","""event"",""trial"",""time""
""fullscreenenter"",""1"",""2986""
","
","
","""event"",""trial"",""time""
""fullscreenenter"",""1"",""2986""
","
","","","","","","604.6999999992549","images/plane1.png","","","learning","-3","0","0","0","plane","vehicles","1","1","","bad","[-5]"
"html-keyboard-response","231","804662","0.0-11.0-2.0-0.21","7147","2","25","Male","approach_avoid_spark_v1","""event"",""trial"",""time""
""fullscreenenter"",""1"",""2986""
","
","
","""event"",""trial"",""time""
""fullscreenenter"",""1"",""2986""
","
","","","","","","null","<div style=""font-size:60px;"">+</div>","null","","fixation","","","","","","","","","","",""
"aa-learning-trial","232","807665","0.0-11.0-2.0-1.21","7147","2","25","Male","approach_avoid_spark_v1","""event"",""trial"",""time""
""fullscreenenter"",""1"",""2986""
","
","
","""event"",""trial"",""time""
""fullscreenenter"",""1"",""2986""
","
","","","","","","1226.5","images/train8.png","","","learning","2","0","0","0","train","vehicles","1","1","","neutral","0"
"html-keyboard-response","233","808166","0.0-11.0-2.0-0.22","7147","2","25","Male","approach_avoid_spark_v1","""event"",""trial"",""time""
""fullscreenenter"",""1"",""2986""
","
","
","""event"",""trial"",""time""
""fullscreenenter"",""1"",""2986""
","
","","","","","","null","<div style=""font-size:60px;"">+</div>","null","","fixation","","","","","","","","","","",""
"aa-learning-trial","234","811168","0.0-11.0-2.0-1.22","7147","2","25","Male","approach_avoid_spark_v1","""event"",""trial"",""time""
""fullscreenenter"",""1"",""2986""
","
","
","""event"",""trial"",""time""
""fullscreenenter"",""1"",""2986""
","
","","","","","","627.5","images/boat3.png","","","learning","7","7","1","1","boat","vehicles","1","1","","good","[6]"
"html-keyboard-response","235","811670","0.0-11.0-2.0-0.23","7147","2","25","Male","approach_avoid_spark_v1","""event"",""trial"",""time""
""fullscreenenter"",""1"",""2986""
","
","
","""event"",""trial"",""time""
""fullscreenenter"",""1"",""2986""
","
","","","","","","null","<div style=""font-size:60px;"">+</div>","null","","fixation","","","","","","","","","","",""
"aa-learning-trial","236","814672","0.0-11.0-2.0-1.23","7147","2","25","Male","approach_avoid_spark_v1","""event"",""trial"",""time""
""fullscreenenter"",""1"",""2986""
","
","
","""event"",""trial"",""time""
""fullscreenenter"",""1"",""2986""
","
","","","","","","584.5","images/boat4.png","","","learning","8","8","1","1","boat","vehicles","1","1","","good","[6]"
"html-keyboard-response","237","815173","0.0-11.0-2.0-0.24","7147","2","25","Male","approach_avoid_spark_v1","""event"",""trial"",""time""
""fullscreenenter"",""1"",""2986""
","
","
","""event"",""trial"",""time""
""fullscreenenter"",""1"",""2986""
","
","","","","","","null","<div style=""font-size:60px;"">+</div>","null","","fixation","","","","","","","","","","",""
