"trial_type","trial_index","time_elapsed","internal_node_id","subject_id","task_condition","age","gender","task_version","interactions","blur_events","focus_events","fullscreenenter_events","fullscreenexit_events","success","timeout","failed_images","failed_audio","failed_video","rt","stimulus","response","button_pressed","task_part","approach_reward","points","key_press","option_selected","stim_cat","task_block","block_condition","block_number","correct","cat_type","mean_cat_reward"
"pavlovia","0","6","0.0-0.0","3878","2","18","Female","approach_avoid_spark_v1","""event"",""trial"",""time""
""fullscreenenter"",""1"",""1593""
","
","
","""event"",""trial"",""time""
""fullscreenenter"",""1"",""1593""
","
","","","","","","","","","","","","","","","","","","","","",""
"fullscreen","1","2573","0.0-1.0","3878","2","18","Female","approach_avoid_spark_v1","""event"",""trial"",""time""
""fullscreenenter"",""1"",""1593""
","
","
","""event"",""trial"",""time""
""fullscreenenter"",""1"",""1593""
","
","true","","","","","","","","","","","","","","","","","","","",""
"preload","2","10267","0.0-2.0","3878","2","18","Female","approach_avoid_spark_v1","""event"",""trial"",""time""
""fullscreenenter"",""1"",""1593""
","
","
","""event"",""trial"",""time""
""fullscreenenter"",""1"",""1593""
","
","true","false","[]","[]","[]","","","","","","","","","","","","","","","",""
"audio-keyboard-response","3","15059","0.0-3.0","3878","2","18","Female","approach_avoid_spark_v1","""event"",""trial"",""time""
""fullscreenenter"",""1"",""1593""
","
","
","""event"",""trial"",""time""
""fullscreenenter"",""1"",""1593""
","
","","","","","","4800","audio/beep_loop.wav"," ","","","","","","","","","","","","",""
"audio-button-response","4","17265","0.0-4.0","3878","2","18","Female","approach_avoid_spark_v1","""event"",""trial"",""time""
""fullscreenenter"",""1"",""1593""
","
","
","""event"",""trial"",""time""
""fullscreenenter"",""1"",""1593""
","
","","","","","","2192","audio/shark.wav","4","","","","","","","","","","","","",""
"audio-button-response","5","19854","0.0-5.0","3878","2","18","Female","approach_avoid_spark_v1","""event"",""trial"",""time""
""fullscreenenter"",""1"",""1593""
","
","
","""event"",""trial"",""time""
""fullscreenenter"",""1"",""1593""
","
","","","","","","1581","audio/turtle.wav","1","","","","","","","","","","","","",""
"preload","6","64649","0.0-6.0","3878","2","18","Female","approach_avoid_spark_v1","""event"",""trial"",""time""
""fullscreenenter"",""1"",""1593""
","
","
","""event"",""trial"",""time""
""fullscreenenter"",""1"",""1593""
","
","true","false","[]","[]","[]","","","","","","","","","","","","","","","",""
"html-keyboard-response","7","69810","0.0-7.0","3878","2","18","Female","approach_avoid_spark_v1","""event"",""trial"",""time""
""fullscreenenter"",""1"",""1593""
","
","
","""event"",""trial"",""time""
""fullscreenenter"",""1"",""1593""
","
","","","","","","5158.699999928474","Welcome to the experiment. Press any key to begin and to advance the instructions."," ","","","","","","","","","","","","",""
"learning-instructions","8","79143","0.0-8.0-0.0-0.0","3878","2","18","Female","approach_avoid_spark_v1","""event"",""trial"",""time""
""fullscreenenter"",""1"",""1593""
","
","
","""event"",""trial"",""time""
""fullscreenenter"",""1"",""1593""
","
","","","","","","1880.7000000476837","<p> Welcome! Today you are going to play 6 different rounds of a decision-making game. </p><p> Use the mouse to click next to continue. </p>","","0","instructions","","","","","","","","","","",""
"learning-instructions","9","83897","0.0-8.0-0.0-0.1","3878","2","18","Female","approach_avoid_spark_v1","""event"",""trial"",""time""
""fullscreenenter"",""1"",""1593""
","
","
","""event"",""trial"",""time""
""fullscreenenter"",""1"",""1593""
","
","","","","","","2018.3000000715256","<p> You will start with a practice round to learn the rules. </p>","","0","instructions","","","","","","","","","","",""
"learning-instructions","10","88916","0.0-8.0-0.0-0.2","3878","2","18","Female","approach_avoid_spark_v1","""event"",""trial"",""time""
""fullscreenenter"",""1"",""1593""
","
","
","""event"",""trial"",""time""
""fullscreenenter"",""1"",""1593""
","
","","","","","","1567.6999999284744","<p> Your goal in this round is to give out sports equipment to kids. </p></div>","","0","instructions","","","","","","","","","","",""
"learning-instructions","11","97625","0.0-8.0-0.0-0.3","3878","2","18","Female","approach_avoid_spark_v1","""event"",""trial"",""time""
""fullscreenenter"",""1"",""1593""
","
","
","""event"",""trial"",""time""
""fullscreenenter"",""1"",""1593""
","
","","","","","","1138.6999999284744","<p> The kids only like some of the equipment.  </p><p> On each turn, you will see a piece of sports equipment.   </p><p> You need to decide whether to give it to the kids or not.  </p>","","0","instructions","","","","","","","","","","",""
"learning-instructions","12","104819","0.0-8.0-0.0-0.4","3878","2","18","Female","approach_avoid_spark_v1","""event"",""trial"",""time""
""fullscreenenter"",""1"",""1593""
","
","
","""event"",""trial"",""time""
""fullscreenenter"",""1"",""1593""
","
","","","","","","2430.5999999046326","<p> You can give them the equipment by pressing 1 and choose not to give it to them by pressing 0. </p><br><div class=""choice-instructions-grid""> <div class=""choice-option""><img src=""images/approach.png"" class=""choice-option-img"" stage=""instructions"" position=""0"" ><div class=""choice-option-text""> Press ""1."" </div></div><div class=""choice-option""><img src=""images/avoid.png"" class=""choice-option-img"" stage=""instructions"" position=""1"" ><div class=""choice-option-text""> Press ""0."" </div></div>","","0","instructions","","","","","","","","","","",""
"learning-instructions","13","114526","0.0-8.0-0.0-0.5","3878","2","18","Female","approach_avoid_spark_v1","""event"",""trial"",""time""
""fullscreenenter"",""1"",""1593""
","
","
","""event"",""trial"",""time""
""fullscreenenter"",""1"",""1593""
","
","","","","","","2318.5","<p> If you give them a piece of equipment they like, they will be happy! </p><p> But if you give them a piece of equipment they do not like, they will be sad. </p>","","0","instructions","","","","","","","","","","",""
"learning-instructions","14","130716","0.0-8.0-0.0-0.6","3878","2","18","Female","approach_avoid_spark_v1","""event"",""trial"",""time""
""fullscreenenter"",""1"",""1593""
","
","
","""event"",""trial"",""time""
""fullscreenenter"",""1"",""1593""
","
","","","","","","5672.799999952316","<p> You will earn points based on how you make kids feel. </p><p> If you make them happy, you will WIN anywhere from 1 - 9 points, </p><p> but if you make them sad, you will LOSE anywhere from 1 - 9 points. </p>","","0","instructions","","","","","","","","","","",""
"learning-instructions","15","141858","0.0-8.0-0.0-0.7","3878","2","18","Female","approach_avoid_spark_v1","""event"",""trial"",""time""
""fullscreenenter"",""1"",""1593""
","
","
","""event"",""trial"",""time""
""fullscreenenter"",""1"",""1593""
","
","","","","","","1581.6000000238419","<p> You will see how many points you won or lost in the center of the screen. </p><p> Here is what you would see if you won 6 points: </p><p style=""color:green;font-size:50px;font-weight:bolder"">6</p><p style=""color:green"">The text is GREEN because you WON points.</p>","","0","instructions","","","","","","","","","","",""
"learning-instructions","16","149341","0.0-8.0-0.0-0.8","3878","2","18","Female","approach_avoid_spark_v1","""event"",""trial"",""time""
""fullscreenenter"",""1"",""1593""
","
","
","""event"",""trial"",""time""
""fullscreenenter"",""1"",""1593""
","
","","","","","","1968.6999999284744","<p> And here is what you would see if you lost 4 points: </p><p style=""color:red;font-size:50px;font-weight:bolder"">-4</p><p style=""color:red"">The text is RED because you LOST points. </p>","","0","instructions","","","","","","","","","","",""
"learning-instructions","17","170036","0.0-8.0-0.0-0.9","3878","2","18","Female","approach_avoid_spark_v1","""event"",""trial"",""time""
""fullscreenenter"",""1"",""1593""
","
","
","""event"",""trial"",""time""
""fullscreenenter"",""1"",""1593""
","
","","","","","","5971","<p> Some of the equipment will make the kids VERY happy or sad. </p><p> These pieces of equipment will make you win or lose LOTS of points. </p><p> Other pieces of equipment will only make the kids a little happy or sad. </p><p> These pieces of equipment will make you win or lose small amounts of points. </p>","","0","instructions","","","","","","","","","","",""
"learning-instructions","18","182091","0.0-8.0-0.0-0.10","3878","2","18","Female","approach_avoid_spark_v1","""event"",""trial"",""time""
""fullscreenenter"",""1"",""1593""
","
","
","""event"",""trial"",""time""
""fullscreenenter"",""1"",""1593""
","
","","","","","","1436.7000000476837","<p> If you choose not to give them the equipment, you will not win or lose any points. </p><p>  However, in the center of the screen, you will see the number of points you WOULD HAVE won or lost if you had given them the equipment. </p>","","0","instructions","","","","","","","","","","",""
"learning-instructions","19","205193","0.0-8.0-0.0-0.11","3878","2","18","Female","approach_avoid_spark_v1","""event"",""trial"",""time""
""fullscreenenter"",""1"",""1593""
","
","
","""event"",""trial"",""time""
""fullscreenenter"",""1"",""1593""
","
","","","","","","1574.3999999761581","<p> Here is what you might see if you did not give the equipment to the kids but it would have made them happy: </p><p style=""color:grey; font-size:50px; display: inline-block; border-spacing: 15px; border-width:3px; border-style:solid; border-color:red"">  &nbsp; 7 &nbsp; </p><p> Remember, in this case, you would not win or lose ANY points because you did not give them the equipment.  </p><p style=""color:grey"">The text is GREY because you earned ZERO points. </p><p style=""color:red"">However, choosing to give the kids the equipment would have made you win points. The box around the text is RED because you chose the worse option. </p>","","0","instructions","","","","","","","","","","",""
"learning-instructions","20","230056","0.0-8.0-0.0-0.12","3878","2","18","Female","approach_avoid_spark_v1","""event"",""trial"",""time""
""fullscreenenter"",""1"",""1593""
","
","
","""event"",""trial"",""time""
""fullscreenenter"",""1"",""1593""
","
","","","","","","3786.7999999523163","<p> Here is what you might see if you did not give the equipment to the kids but it would have made them sad: </p><p style=""color:grey;font-size:50px; display: inline-block; border-spacing: 15px; border-width:3px; border-style:solid; border-color:green"">  &nbsp; -8 &nbsp; </p><p> Remember, in this case, you would not win or lose ANY points because you did not give them the equipment.  </p><p style=""color:grey"">The text is GREY because you earned ZERO points. </p><p  style=""color:green""> Choosing to give the kids the equipment would have made you lose points. The box around the text is GREEN because you chose the better option.</p>","","0","instructions","","","","","","","","","","",""
"learning-instructions","21","244785","0.0-8.0-0.0-0.13","3878","2","18","Female","approach_avoid_spark_v1","""event"",""trial"",""time""
""fullscreenenter"",""1"",""1593""
","
","
","""event"",""trial"",""time""
""fullscreenenter"",""1"",""1593""
","
","","","","","","938","<p> You will have 3 seconds to make each choice. Try to respond before time runs out! </p><p> You will lose 5 points each time you do not make a response. </p>","","0","instructions","","","","","","","","","","",""
"learning-instructions","22","251169","0.0-8.0-0.0-0.14","3878","2","18","Female","approach_avoid_spark_v1","""event"",""trial"",""time""
""fullscreenenter"",""1"",""1593""
","
","
","""event"",""trial"",""time""
""fullscreenenter"",""1"",""1593""
","
","","","","","","971.5999999046326","<p> This is just a practice round, but in the real game, your bonus payment will depend on your total number of points.","","0","instructions","","","","","","","","","","",""
"learning-instructions","23","258037","0.0-8.0-0.0-0.15","3878","2","18","Female","approach_avoid_spark_v1","""event"",""trial"",""time""
""fullscreenenter"",""1"",""1593""
","
","
","""event"",""trial"",""time""
""fullscreenenter"",""1"",""1593""
","
","","","","","","1092","<p> Remember, you can give them the equipment by pressing 1 and choose not to give it to them by pressing 0. </p><br><div class=""choice-instructions-grid""> <div class=""choice-option""><img src=""images/approach.png"" class=""choice-option-img"" stage=""instructions"" position=""0"" ><div class=""choice-option-text""> Press ""1."" </div></div><div class=""choice-option""><img src=""images/avoid.png"" class=""choice-option-img"" stage=""instructions"" position=""1"" ><div class=""choice-option-text""> Press ""0."" </div></div>","","0","instructions","","","","","","","","","","",""
"html-button-response","24","259572","0.0-8.0-1.0","3878","2","18","Female","approach_avoid_spark_v1","""event"",""trial"",""time""
""fullscreenenter"",""1"",""1593""
","
","
","""event"",""trial"",""time""
""fullscreenenter"",""1"",""1593""
","
","","","","","","1425","<p> Ready to practice? </p>","0","","","","","","","","","","","","",""
"html-keyboard-response","25","260193","0.0-8.0-2.0-0.0","3878","2","18","Female","approach_avoid_spark_v1","""event"",""trial"",""time""
""fullscreenenter"",""1"",""1593""
","
","
","""event"",""trial"",""time""
""fullscreenenter"",""1"",""1593""
","
","","","","","","null","<div style=""font-size:60px;"">+</div>","null","","fixation","","","","","","","","","","",""
"aa-learning-trial","26","263207","0.0-8.0-2.0-1.0","3878","2","18","Female","approach_avoid_spark_v1","""event"",""trial"",""time""
""fullscreenenter"",""1"",""1593""
","
","
","""event"",""trial"",""time""
""fullscreenenter"",""1"",""1593""
","
","","","","","","1121.2000000476837","images/racket4.png","","","learning","6","6","1","1","practice","practice","practice","-1","","",""
"html-keyboard-response","27","263717","0.0-8.0-2.0-0.1","3878","2","18","Female","approach_avoid_spark_v1","""event"",""trial"",""time""
""fullscreenenter"",""1"",""1593""
","
","
","""event"",""trial"",""time""
""fullscreenenter"",""1"",""1593""
","
","","","","","","null","<div style=""font-size:60px;"">+</div>","null","","fixation","","","","","","","","","","",""
"aa-learning-trial","28","266728","0.0-8.0-2.0-1.1","3878","2","18","Female","approach_avoid_spark_v1","""event"",""trial"",""time""
""fullscreenenter"",""1"",""1593""
","
","
","""event"",""trial"",""time""
""fullscreenenter"",""1"",""1593""
","
","","","","","","1164.7000000476837","images/ball3.png","","","learning","2","0","0","0","practice","practice","practice","-1","","",""
"html-keyboard-response","29","267243","0.0-8.0-2.0-0.2","3878","2","18","Female","approach_avoid_spark_v1","""event"",""trial"",""time""
""fullscreenenter"",""1"",""1593""
","
","
","""event"",""trial"",""time""
""fullscreenenter"",""1"",""1593""
","
","","","","","","null","<div style=""font-size:60px;"">+</div>","null","","fixation","","","","","","","","","","",""
"aa-learning-trial","30","270265","0.0-8.0-2.0-1.2","3878","2","18","Female","approach_avoid_spark_v1","""event"",""trial"",""time""
""fullscreenenter"",""1"",""1593""
","
","
","""event"",""trial"",""time""
""fullscreenenter"",""1"",""1593""
","
","","","","","","1550.8000000715256","images/racket1.png","","","learning","-4","-4","1","1","practice","practice","practice","-1","","",""
"html-keyboard-response","31","270775","0.0-8.0-2.0-0.3","3878","2","18","Female","approach_avoid_spark_v1","""event"",""trial"",""time""
""fullscreenenter"",""1"",""1593""
","
","
","""event"",""trial"",""time""
""fullscreenenter"",""1"",""1593""
","
","","","","","","null","<div style=""font-size:60px;"">+</div>","null","","fixation","","","","","","","","","","",""
"aa-learning-trial","32","273806","0.0-8.0-2.0-1.3","3878","2","18","Female","approach_avoid_spark_v1","""event"",""trial"",""time""
""fullscreenenter"",""1"",""1593""
","
","
","""event"",""trial"",""time""
""fullscreenenter"",""1"",""1593""
","
","","","","","","1829.8999999761581","images/ball3.png","","","learning","-5","-5","1","1","practice","practice","practice","-1","","",""
"html-keyboard-response","33","274315","0.0-8.0-2.0-0.4","3878","2","18","Female","approach_avoid_spark_v1","""event"",""trial"",""time""
""fullscreenenter"",""1"",""1593""
","
","
","""event"",""trial"",""time""
""fullscreenenter"",""1"",""1593""
","
","","","","","","null","<div style=""font-size:60px;"">+</div>","null","","fixation","","","","","","","","","","",""
"aa-learning-trial","34","277338","0.0-8.0-2.0-1.4","3878","2","18","Female","approach_avoid_spark_v1","""event"",""trial"",""time""
""fullscreenenter"",""1"",""1593""
","
","
","""event"",""trial"",""time""
""fullscreenenter"",""1"",""1593""
","
","","","","","","819.1999999284744","images/ball1.png","","","learning","-3","0","0","0","practice","practice","practice","-1","","",""
"html-keyboard-response","35","277856","0.0-8.0-2.0-0.5","3878","2","18","Female","approach_avoid_spark_v1","""event"",""trial"",""time""
""fullscreenenter"",""1"",""1593""
","
","
","""event"",""trial"",""time""
""fullscreenenter"",""1"",""1593""
","
","","","","","","null","<div style=""font-size:60px;"">+</div>","null","","fixation","","","","","","","","","","",""
"aa-learning-trial","36","280876","0.0-8.0-2.0-1.5","3878","2","18","Female","approach_avoid_spark_v1","""event"",""trial"",""time""
""fullscreenenter"",""1"",""1593""
","
","
","""event"",""trial"",""time""
""fullscreenenter"",""1"",""1593""
","
","","","","","","1255.7999999523163","images/racket2.png","","","learning","-9","-9","1","1","practice","practice","practice","-1","","",""
"html-keyboard-response","37","281392","0.0-8.0-2.0-0.6","3878","2","18","Female","approach_avoid_spark_v1","""event"",""trial"",""time""
""fullscreenenter"",""1"",""1593""
","
","
","""event"",""trial"",""time""
""fullscreenenter"",""1"",""1593""
","
","","","","","","null","<div style=""font-size:60px;"">+</div>","null","","fixation","","","","","","","","","","",""
"aa-learning-trial","38","284405","0.0-8.0-2.0-1.6","3878","2","18","Female","approach_avoid_spark_v1","""event"",""trial"",""time""
""fullscreenenter"",""1"",""1593""
","
","
","""event"",""trial"",""time""
""fullscreenenter"",""1"",""1593""
","
","","","","","","702.6999999284744","images/ball1.png","","","learning","6","0","0","0","practice","practice","practice","-1","","",""
"html-keyboard-response","39","284917","0.0-8.0-2.0-0.7","3878","2","18","Female","approach_avoid_spark_v1","""event"",""trial"",""time""
""fullscreenenter"",""1"",""1593""
","
","
","""event"",""trial"",""time""
""fullscreenenter"",""1"",""1593""
","
","","","","","","null","<div style=""font-size:60px;"">+</div>","null","","fixation","","","","","","","","","","",""
"aa-learning-trial","40","287923","0.0-8.0-2.0-1.7","3878","2","18","Female","approach_avoid_spark_v1","""event"",""trial"",""time""
""fullscreenenter"",""1"",""1593""
","
","
","""event"",""trial"",""time""
""fullscreenenter"",""1"",""1593""
","
","","","","","","2076.600000023842","images/racket2.png","","","learning","-6","0","0","0","practice","practice","practice","-1","","",""
"html-keyboard-response","41","288426","0.0-8.0-2.0-0.8","3878","2","18","Female","approach_avoid_spark_v1","""event"",""trial"",""time""
""fullscreenenter"",""1"",""1593""
","
","
","""event"",""trial"",""time""
""fullscreenenter"",""1"",""1593""
","
","","","","","","null","<div style=""font-size:60px;"">+</div>","null","","fixation","","","","","","","","","","",""
"aa-learning-trial","42","291436","0.0-8.0-2.0-1.8","3878","2","18","Female","approach_avoid_spark_v1","""event"",""trial"",""time""
""fullscreenenter"",""1"",""1593""
","
","
","""event"",""trial"",""time""
""fullscreenenter"",""1"",""1593""
","
","","","","","","1282.1999999284744","images/racket1.png","","","learning","5","0","0","0","practice","practice","practice","-1","","",""
"html-keyboard-response","43","291952","0.0-8.0-2.0-0.9","3878","2","18","Female","approach_avoid_spark_v1","""event"",""trial"",""time""
""fullscreenenter"",""1"",""1593""
","
","
","""event"",""trial"",""time""
""fullscreenenter"",""1"",""1593""
","
","","","","","","null","<div style=""font-size:60px;"">+</div>","null","","fixation","","","","","","","","","","",""
"aa-learning-trial","44","294963","0.0-8.0-2.0-1.9","3878","2","18","Female","approach_avoid_spark_v1","""event"",""trial"",""time""
""fullscreenenter"",""1"",""1593""
","
","
","""event"",""trial"",""time""
""fullscreenenter"",""1"",""1593""
","
","","","","","","1284.5","images/racket3.png","","","learning","7","7","1","1","practice","practice","practice","-1","","",""
"html-keyboard-response","45","295475","0.0-8.0-2.0-0.10","3878","2","18","Female","approach_avoid_spark_v1","""event"",""trial"",""time""
""fullscreenenter"",""1"",""1593""
","
","
","""event"",""trial"",""time""
""fullscreenenter"",""1"",""1593""
","
","","","","","","null","<div style=""font-size:60px;"">+</div>","null","","fixation","","","","","","","","","","",""
"aa-learning-trial","46","298482","0.0-8.0-2.0-1.10","3878","2","18","Female","approach_avoid_spark_v1","""event"",""trial"",""time""
""fullscreenenter"",""1"",""1593""
","
","
","""event"",""trial"",""time""
""fullscreenenter"",""1"",""1593""
","
","","","","","","1053.7999999523163","images/racket1.png","","","learning","-7","-7","1","1","practice","practice","practice","-1","","",""
"html-keyboard-response","47","298991","0.0-8.0-2.0-0.11","3878","2","18","Female","approach_avoid_spark_v1","""event"",""trial"",""time""
""fullscreenenter"",""1"",""1593""
","
","
","""event"",""trial"",""time""
""fullscreenenter"",""1"",""1593""
","
","","","","","","null","<div style=""font-size:60px;"">+</div>","null","","fixation","","","","","","","","","","",""
"aa-learning-trial","48","301995","0.0-8.0-2.0-1.11","3878","2","18","Female","approach_avoid_spark_v1","""event"",""trial"",""time""
""fullscreenenter"",""1"",""1593""
","
","
","""event"",""trial"",""time""
""fullscreenenter"",""1"",""1593""
","
","","","","","","922.1000000238419","images/racket1.png","","","learning","6","0","0","0","practice","practice","practice","-1","","",""
"html-button-response","49","303388","0.0-8.0-3.0","3878","2","18","Female","approach_avoid_spark_v1","""event"",""trial"",""time""
""fullscreenenter"",""1"",""1593""
","
","
","""event"",""trial"",""time""
""fullscreenenter"",""1"",""1593""
","
","","","","","","1389.6999999284744","<p> You earned -12 points in the practice round! </p>","0","","break","","","","","","","","","","",""
"learning-instructions","50","354926","0.0-8.0-4.0-0.0","3878","2","18","Female","approach_avoid_spark_v1","""event"",""trial"",""time""
""fullscreenenter"",""1"",""1593""
","
","
","""event"",""trial"",""time""
""fullscreenenter"",""1"",""1593""
","
","","","","","","45167.700000047684","<p> It's almost time to start the real game. </p><p> Before you start, we're going to ask you a few questions about how the game works. </p>","","0","instructions","","","","","","","","","","",""
"preload","51","369025","0.0-8.0-5.0","3878","2","18","Female","approach_avoid_spark_v1","""event"",""trial"",""time""
""fullscreenenter"",""1"",""1593""
","
","
","""event"",""trial"",""time""
""fullscreenenter"",""1"",""1593""
","
","true","false","[]","[]","[]","","","","","","","","","","","","","","","",""
"comp-q","52","375790","0.0-8.0-6.0-0.0","3878","2","18","Female","approach_avoid_spark_v1","""event"",""trial"",""time""
""fullscreenenter"",""1"",""1593""
","
","
","""event"",""trial"",""time""
""fullscreenenter"",""1"",""1593""
","
","","","","","","1492","<p> <b> True or False? </b> </p><p> If you see a number in GREY, that means you earned that many points. </p>","","1","comp_question","","","","","","","","","true","",""
"comp-q","53","385910","0.0-8.0-6.0-1.0","3878","2","18","Female","approach_avoid_spark_v1","""event"",""trial"",""time""
""fullscreenenter"",""1"",""1593""
","
","
","""event"",""trial"",""time""
""fullscreenenter"",""1"",""1593""
","
","","","","","","1752","<p><b> That's right! </b> If you see a grey number, it means you earned ZERO points. <br> The grey numbers show the points you WOULD HAVE earned if you had made the other choice. </p>","","0","comp_answer","","","","","","","","","","",""
"comp-q","54","391476","0.0-8.0-7.0-0.0","3878","2","18","Female","approach_avoid_spark_v1","""event"",""trial"",""time""
""fullscreenenter"",""1"",""1593""
","
","
","""event"",""trial"",""time""
""fullscreenenter"",""1"",""1593""
","
","","","","","","859.0999999046326","<p> <b> True or False? </b> </p><p> You will have as much time as you want to make each choice. </p>","","1","comp_question","","","","","","","","","true","",""
"comp-q","55","396458","0.0-8.0-7.0-1.0","3878","2","18","Female","approach_avoid_spark_v1","""event"",""trial"",""time""
""fullscreenenter"",""1"",""1593""
","
","
","""event"",""trial"",""time""
""fullscreenenter"",""1"",""1593""
","
","","","","","","933.8999999761581","<p> <b> That's right! </b> You will only have 3 seconds to make each choice. </p>","","0","comp_answer","","","","","","","","","","",""
"comp-q","56","402522","0.0-8.0-8.0-0.0","3878","2","18","Female","approach_avoid_spark_v1","""event"",""trial"",""time""
""fullscreenenter"",""1"",""1593""
","
","
","""event"",""trial"",""time""
""fullscreenenter"",""1"",""1593""
","
","","","","","","1397.3000000715256","<p> <b> True or False? </b> </p><p> You should use the '1' and '0' keys to make your choices. </p>","","0","comp_question","","","","","","","","","true","",""
"comp-q","57","408337","0.0-8.0-8.0-1.0","3878","2","18","Female","approach_avoid_spark_v1","""event"",""trial"",""time""
""fullscreenenter"",""1"",""1593""
","
","
","""event"",""trial"",""time""
""fullscreenenter"",""1"",""1593""
","
","","","","","","1205.0999999046326","<p> <b> That's right! </b> You should use the '1' and '0' keys to make each choice. </p>","","0","comp_answer","","","","","","","","","","",""
"learning-instructions","58","416027","0.0-8.0-9.0-0.0","3878","2","18","Female","approach_avoid_spark_v1","""event"",""trial"",""time""
""fullscreenenter"",""1"",""1593""
","
","
","""event"",""trial"",""time""
""fullscreenenter"",""1"",""1593""
","
","","","","","","1411.2999999523163","<p> It's now time to start the real game. </p>Do your best, because the points you earn in the next rounds will influence your bonus payment. </p>","","0","instructions","","","","","","","","","","",""
"preload","59","416163","0.0-9.0-0.0","3878","2","18","Female","approach_avoid_spark_v1","""event"",""trial"",""time""
""fullscreenenter"",""1"",""1593""
","
","
","""event"",""trial"",""time""
""fullscreenenter"",""1"",""1593""
","
","true","false","[]","[]","[]","","","","","","","","","","","","","","","",""
"learning-instructions","60","423718","0.0-9.0-1.0-0.0","3878","2","18","Female","approach_avoid_spark_v1","""event"",""trial"",""time""
""fullscreenenter"",""1"",""1593""
","
","
","""event"",""trial"",""time""
""fullscreenenter"",""1"",""1593""
","
","","","","","","1833.1000000238419","<p> Your goal in this round is to take your friend for rides in different vehicles. </p></div>","","0","instructions","","","","","","","","","","",""
"learning-instructions","61","438518","0.0-9.0-1.0-0.1","3878","2","18","Female","approach_avoid_spark_v1","""event"",""trial"",""time""
""fullscreenenter"",""1"",""1593""
","
","
","""event"",""trial"",""time""
""fullscreenenter"",""1"",""1593""
","
","","","","","","872.3999999761581","<p> Your friend enjoys riding in some vehicles but not in others.  </p><p> On each turn, you will see a vehicle.   </p><p> You need to decide whether to take your friend for a ride or not.  </p>","","0","instructions","","","","","","","","","","",""
"learning-instructions","62","451025","0.0-9.0-1.0-0.2","3878","2","18","Female","approach_avoid_spark_v1","""event"",""trial"",""time""
""fullscreenenter"",""1"",""1593""
","
","
","""event"",""trial"",""time""
""fullscreenenter"",""1"",""1593""
","
","","","","","","3578.5","<p> You can take your friend for a ride in the vehicle by pressing 1 and skip the ride by pressing 0. </p><br><div class=""choice-instructions-grid""> <div class=""choice-option""><img src=""images/approach.png"" class=""choice-option-img"" stage=""instructions"" position=""0"" ><div class=""choice-option-text""> Press ""1."" </div></div><div class=""choice-option""><img src=""images/avoid.png"" class=""choice-option-img"" stage=""instructions"" position=""1"" ><div class=""choice-option-text""> Press ""0."" </div></div>","","0","instructions","","","","","","","","","","",""
"learning-instructions","63","464417","0.0-9.0-1.0-0.3","3878","2","18","Female","approach_avoid_spark_v1","""event"",""trial"",""time""
""fullscreenenter"",""1"",""1593""
","
","
","""event"",""trial"",""time""
""fullscreenenter"",""1"",""1593""
","
","","","","","","1671.1000000238419","<p> If you take them for a ride in a vehicle they like, they will be thrilled! </p><p> But if you take them for a ride in a vehicle they do not like, they will be upset. </p>","","0","instructions","","","","","","","","","","",""
"learning-instructions","64","485991","0.0-9.0-1.0-0.4","3878","2","18","Female","approach_avoid_spark_v1","""event"",""trial"",""time""
""fullscreenenter"",""1"",""1593""
","
","
","""event"",""trial"",""time""
""fullscreenenter"",""1"",""1593""
","
","","","","","","1614.2000000476837","<p> You will earn points based on how you made your friend feel. </p><p> If you made him thrilled, you will WIN anywhere from 1 - 9 points, </p><p> but if you made him upset, you will LOSE anywhere from 1 - 9 points. </p>","","0","instructions","","","","","","","","","","",""
"learning-instructions","65","496296","0.0-9.0-1.0-0.5","3878","2","18","Female","approach_avoid_spark_v1","""event"",""trial"",""time""
""fullscreenenter"",""1"",""1593""
","
","
","""event"",""trial"",""time""
""fullscreenenter"",""1"",""1593""
","
","","","","","","977.5","<p> You will see how many points you won or lost in the center of the screen. </p><p> Here is what you would see if you won 5 points: </p><p style=""color:green;font-size:50px;font-weight:bolder"">5</p>","","0","instructions","","","","","","","","","","",""
"learning-instructions","66","501117","0.0-9.0-1.0-0.6","3878","2","18","Female","approach_avoid_spark_v1","""event"",""trial"",""time""
""fullscreenenter"",""1"",""1593""
","
","
","""event"",""trial"",""time""
""fullscreenenter"",""1"",""1593""
","
","","","","","","1038.8000000715256","<p> And here is what you would see if you lost 3 points: </p><p style=""color:red;font-size:50px;font-weight:bolder"">-3</p>","","0","instructions","","","","","","","","","","",""
"learning-instructions","67","532275","0.0-9.0-1.0-0.7","3878","2","18","Female","approach_avoid_spark_v1","""event"",""trial"",""time""
""fullscreenenter"",""1"",""1593""
","
","
","""event"",""trial"",""time""
""fullscreenenter"",""1"",""1593""
","
","","","","","","13004.800000071526","<p> Some vehicles will make your friend REALLY thrilled or upset. </p><p> These vehicles will make you win or lose LOTS of points. </p><p> Other vehicles will only make him feel a little thrilled or upset. </p><p> These vehicles will make you win or lose small amounts of points. </p>","","0","instructions","","","","","","","","","","",""
"learning-instructions","68","547487","0.0-9.0-1.0-0.8","3878","2","18","Female","approach_avoid_spark_v1","""event"",""trial"",""time""
""fullscreenenter"",""1"",""1593""
","
","
","""event"",""trial"",""time""
""fullscreenenter"",""1"",""1593""
","
","","","","","","1546.6000000238419","<p> If you choose to skip the ride, you will not win or lose any points. </p><p>  However, in the center of the screen, you will see the number of points you WOULD HAVE won or lost if you had taken your friend for a ride. </p>","","0","instructions","","","","","","","","","","",""
"learning-instructions","69","563712","0.0-9.0-1.0-0.9","3878","2","18","Female","approach_avoid_spark_v1","""event"",""trial"",""time""
""fullscreenenter"",""1"",""1593""
","
","
","""event"",""trial"",""time""
""fullscreenenter"",""1"",""1593""
","
","","","","","","2013.2000000476837","<p> Here is what you might see if you did not take your friend for a ride but he would have enjoyed it: </p><p style=""color:grey; font-size:50px; display: inline-block; border-spacing: 15px; border-width:3px; border-style:solid; border-color:red"">  &nbsp; 6 &nbsp; </p><p> Remember, in this case, you would not win or lose ANY points because you skipped the ride.  </p>","","0","instructions","","","","","","","","","","",""
"learning-instructions","70","576208","0.0-9.0-1.0-0.10","3878","2","18","Female","approach_avoid_spark_v1","""event"",""trial"",""time""
""fullscreenenter"",""1"",""1593""
","
","
","""event"",""trial"",""time""
""fullscreenenter"",""1"",""1593""
","
","","","","","","2359.100000023842","<p> Try to make the best choice for each vehicle because </p><p> at the end of the game, you will earn bonus money based on how many points you earned. </p>","","0","instructions","","","","","","","","","","",""
"learning-instructions","71","586102","0.0-9.0-1.0-0.11","3878","2","18","Female","approach_avoid_spark_v1","""event"",""trial"",""time""
""fullscreenenter"",""1"",""1593""
","
","
","""event"",""trial"",""time""
""fullscreenenter"",""1"",""1593""
","
","","","","","","1699.5999999046326","<p> You will have 3 seconds to make each choice. Try to respond before time runs out! </p><p> You will lose 5 points each time you do not make a response. </p>","","0","instructions","","","","","","","","","","",""
"html-keyboard-response","72","586712","0.0-9.0-2.0-0.0","3878","2","18","Female","approach_avoid_spark_v1","""event"",""trial"",""time""
""fullscreenenter"",""1"",""1593""
","
","
","""event"",""trial"",""time""
""fullscreenenter"",""1"",""1593""
","
","","","","","","null","<div style=""font-size:60px;"">+</div>","null","","fixation","","","","","","","","","","",""
"aa-learning-trial","73","589731","0.0-9.0-2.0-1.0","3878","2","18","Female","approach_avoid_spark_v1","""event"",""trial"",""time""
""fullscreenenter"",""1"",""1593""
","
","
","""event"",""trial"",""time""
""fullscreenenter"",""1"",""1593""
","
","","","","","","920.2000000476837","images/truck4.png","","","learning","4","0","0","0","truck","vehicles","2","0","","neutral","0"
"html-keyboard-response","74","590238","0.0-9.0-2.0-0.1","3878","2","18","Female","approach_avoid_spark_v1","""event"",""trial"",""time""
""fullscreenenter"",""1"",""1593""
","
","
","""event"",""trial"",""time""
""fullscreenenter"",""1"",""1593""
","
","","","","","","null","<div style=""font-size:60px;"">+</div>","null","","fixation","","","","","","","","","","",""
"aa-learning-trial","75","593251","0.0-9.0-2.0-1.1","3878","2","18","Female","approach_avoid_spark_v1","""event"",""trial"",""time""
""fullscreenenter"",""1"",""1593""
","
","
","""event"",""trial"",""time""
""fullscreenenter"",""1"",""1593""
","
","","","","","","1429.3999999761581","images/boat1.png","","","learning","2","0","0","0","boat","vehicles","2","0","","bad","[-5]"
"html-keyboard-response","76","593756","0.0-9.0-2.0-0.2","3878","2","18","Female","approach_avoid_spark_v1","""event"",""trial"",""time""
""fullscreenenter"",""1"",""1593""
","
","
","""event"",""trial"",""time""
""fullscreenenter"",""1"",""1593""
","
","","","","","","null","<div style=""font-size:60px;"">+</div>","null","","fixation","","","","","","","","","","",""
"aa-learning-trial","77","596768","0.0-9.0-2.0-1.2","3878","2","18","Female","approach_avoid_spark_v1","""event"",""trial"",""time""
""fullscreenenter"",""1"",""1593""
","
","
","""event"",""trial"",""time""
""fullscreenenter"",""1"",""1593""
","
","","","","","","1374.5","images/truck5.png","","","learning","9","9","1","1","truck","vehicles","2","0","","neutral","0"
"html-keyboard-response","78","597291","0.0-9.0-2.0-0.3","3878","2","18","Female","approach_avoid_spark_v1","""event"",""trial"",""time""
""fullscreenenter"",""1"",""1593""
","
","
","""event"",""trial"",""time""
""fullscreenenter"",""1"",""1593""
","
","","","","","","null","<div style=""font-size:60px;"">+</div>","null","","fixation","","","","","","","","","","",""
"aa-learning-trial","79","600311","0.0-9.0-2.0-1.3","3878","2","18","Female","approach_avoid_spark_v1","""event"",""trial"",""time""
""fullscreenenter"",""1"",""1593""
","
","
","""event"",""trial"",""time""
""fullscreenenter"",""1"",""1593""
","
","","","","","","1158","images/boat2.png","","","learning","-8","-8","1","1","boat","vehicles","2","0","","bad","[-5]"
"html-keyboard-response","80","600817","0.0-9.0-2.0-0.4","3878","2","18","Female","approach_avoid_spark_v1","""event"",""trial"",""time""
""fullscreenenter"",""1"",""1593""
","
","
","""event"",""trial"",""time""
""fullscreenenter"",""1"",""1593""
","
","","","","","","null","<div style=""font-size:60px;"">+</div>","null","","fixation","","","","","","","","","","",""
"aa-learning-trial","81","603828","0.0-9.0-2.0-1.4","3878","2","18","Female","approach_avoid_spark_v1","""event"",""trial"",""time""
""fullscreenenter"",""1"",""1593""
","
","
","""event"",""trial"",""time""
""fullscreenenter"",""1"",""1593""
","
","","","","","","907.1999999284744","images/train8.png","","","learning","-2","0","0","0","train","vehicles","2","0","","good","[4]"
"html-keyboard-response","82","604341","0.0-9.0-2.0-0.5","3878","2","18","Female","approach_avoid_spark_v1","""event"",""trial"",""time""
""fullscreenenter"",""1"",""1593""
","
","
","""event"",""trial"",""time""
""fullscreenenter"",""1"",""1593""
","
","","","","","","null","<div style=""font-size:60px;"">+</div>","null","","fixation","","","","","","","","","","",""
"aa-learning-trial","83","607350","0.0-9.0-2.0-1.5","3878","2","18","Female","approach_avoid_spark_v1","""event"",""trial"",""time""
""fullscreenenter"",""1"",""1593""
","
","
","""event"",""trial"",""time""
""fullscreenenter"",""1"",""1593""
","
","","","","","","757.5","images/train3.png","","","learning","-5","0","0","0","train","vehicles","2","0","","good","[4]"
"html-keyboard-response","84","607876","0.0-9.0-2.0-0.6","3878","2","18","Female","approach_avoid_spark_v1","""event"",""trial"",""time""
""fullscreenenter"",""1"",""1593""
","
","
","""event"",""trial"",""time""
""fullscreenenter"",""1"",""1593""
","
","","","","","","null","<div style=""font-size:60px;"">+</div>","null","","fixation","","","","","","","","","","",""
"aa-learning-trial","85","610896","0.0-9.0-2.0-1.6","3878","2","18","Female","approach_avoid_spark_v1","""event"",""trial"",""time""
""fullscreenenter"",""1"",""1593""
","
","
","""event"",""trial"",""time""
""fullscreenenter"",""1"",""1593""
","
","","","","","","643.1000000238419","images/truck4.png","","","learning","4","4","1","1","truck","vehicles","2","0","","neutral","0"
"html-keyboard-response","86","611406","0.0-9.0-2.0-0.7","3878","2","18","Female","approach_avoid_spark_v1","""event"",""trial"",""time""
""fullscreenenter"",""1"",""1593""
","
","
","""event"",""trial"",""time""
""fullscreenenter"",""1"",""1593""
","
","","","","","","null","<div style=""font-size:60px;"">+</div>","null","","fixation","","","","","","","","","","",""
"aa-learning-trial","87","614420","0.0-9.0-2.0-1.7","3878","2","18","Female","approach_avoid_spark_v1","""event"",""trial"",""time""
""fullscreenenter"",""1"",""1593""
","
","
","""event"",""trial"",""time""
""fullscreenenter"",""1"",""1593""
","
","","","","","","1352.6000000238419","images/train3.png","","","learning","-5","0","0","0","train","vehicles","2","0","","good","[4]"
"html-keyboard-response","88","614924","0.0-9.0-2.0-0.8","3878","2","18","Female","approach_avoid_spark_v1","""event"",""trial"",""time""
""fullscreenenter"",""1"",""1593""
","
","
","""event"",""trial"",""time""
""fullscreenenter"",""1"",""1593""
","
","","","","","","null","<div style=""font-size:60px;"">+</div>","null","","fixation","","","","","","","","","","",""
"aa-learning-trial","89","617942","0.0-9.0-2.0-1.8","3878","2","18","Female","approach_avoid_spark_v1","""event"",""trial"",""time""
""fullscreenenter"",""1"",""1593""
","
","
","""event"",""trial"",""time""
""fullscreenenter"",""1"",""1593""
","
","","","","","","849.3000000715256","images/truck5.png","","","learning","9","9","1","1","truck","vehicles","2","0","","neutral","0"
"html-keyboard-response","90","618453","0.0-9.0-2.0-0.9","3878","2","18","Female","approach_avoid_spark_v1","""event"",""trial"",""time""
""fullscreenenter"",""1"",""1593""
","
","
","""event"",""trial"",""time""
""fullscreenenter"",""1"",""1593""
","
","","","","","","null","<div style=""font-size:60px;"">+</div>","null","","fixation","","","","","","","","","","",""
"aa-learning-trial","91","621466","0.0-9.0-2.0-1.9","3878","2","18","Female","approach_avoid_spark_v1","""event"",""trial"",""time""
""fullscreenenter"",""1"",""1593""
","
","
","""event"",""trial"",""time""
""fullscreenenter"",""1"",""1593""
","
","","","","","","903","images/truck1.png","","","learning","-7","-7","1","1","truck","vehicles","2","0","","neutral","0"
"html-keyboard-response","92","621972","0.0-9.0-2.0-0.10","3878","2","18","Female","approach_avoid_spark_v1","""event"",""trial"",""time""
""fullscreenenter"",""1"",""1593""
","
","
","""event"",""trial"",""time""
""fullscreenenter"",""1"",""1593""
","
","","","","","","null","<div style=""font-size:60px;"">+</div>","null","","fixation","","","","","","","","","","",""
"aa-learning-trial","93","624980","0.0-9.0-2.0-1.10","3878","2","18","Female","approach_avoid_spark_v1","""event"",""trial"",""time""
""fullscreenenter"",""1"",""1593""
","
","
","""event"",""trial"",""time""
""fullscreenenter"",""1"",""1593""
","
","","","","","","883.5","images/boat3.png","","","learning","8","0","0","0","boat","vehicles","2","0","","bad","[-5]"
"html-keyboard-response","94","625484","0.0-9.0-2.0-0.11","3878","2","18","Female","approach_avoid_spark_v1","""event"",""trial"",""time""
""fullscreenenter"",""1"",""1593""
","
","
","""event"",""trial"",""time""
""fullscreenenter"",""1"",""1593""
","
","","","","","","null","<div style=""font-size:60px;"">+</div>","null","","fixation","","","","","","","","","","",""
"aa-learning-trial","95","628491","0.0-9.0-2.0-1.11","3878","2","18","Female","approach_avoid_spark_v1","""event"",""trial"",""time""
""fullscreenenter"",""1"",""1593""
","
","
","""event"",""trial"",""time""
""fullscreenenter"",""1"",""1593""
","
","","","","","","768.5","images/train5.png","","","learning","-9","0","0","0","train","vehicles","2","0","","good","[4]"
"html-keyboard-response","96","628996","0.0-9.0-2.0-0.12","3878","2","18","Female","approach_avoid_spark_v1","""event"",""trial"",""time""
""fullscreenenter"",""1"",""1593""
","
","
","""event"",""trial"",""time""
""fullscreenenter"",""1"",""1593""
","
","","","","","","null","<div style=""font-size:60px;"">+</div>","null","","fixation","","","","","","","","","","",""
"aa-learning-trial","97","632002","0.0-9.0-2.0-1.12","3878","2","18","Female","approach_avoid_spark_v1","""event"",""trial"",""time""
""fullscreenenter"",""1"",""1593""
","
","
","""event"",""trial"",""time""
""fullscreenenter"",""1"",""1593""
","
","","","","","","709","images/train8.png","","","learning","-2","0","0","0","train","vehicles","2","0","","good","[4]"
"html-keyboard-response","98","632508","0.0-9.0-2.0-0.13","3878","2","18","Female","approach_avoid_spark_v1","""event"",""trial"",""time""
""fullscreenenter"",""1"",""1593""
","
","
","""event"",""trial"",""time""
""fullscreenenter"",""1"",""1593""
","
","","","","","","null","<div style=""font-size:60px;"">+</div>","null","","fixation","","","","","","","","","","",""
"aa-learning-trial","99","635524","0.0-9.0-2.0-1.13","3878","2","18","Female","approach_avoid_spark_v1","""event"",""trial"",""time""
""fullscreenenter"",""1"",""1593""
","
","
","""event"",""trial"",""time""
""fullscreenenter"",""1"",""1593""
","
","","","","","","1010.1999999284744","images/boat3.png","","","learning","8","0","0","0","boat","vehicles","2","0","","bad","[-5]"
"html-keyboard-response","100","636027","0.0-9.0-2.0-0.14","3878","2","18","Female","approach_avoid_spark_v1","""event"",""trial"",""time""
""fullscreenenter"",""1"",""1593""
","
","
","""event"",""trial"",""time""
""fullscreenenter"",""1"",""1593""
","
","","","","","","null","<div style=""font-size:60px;"">+</div>","null","","fixation","","","","","","","","","","",""
"aa-learning-trial","101","639036","0.0-9.0-2.0-1.14","3878","2","18","Female","approach_avoid_spark_v1","""event"",""trial"",""time""
""fullscreenenter"",""1"",""1593""
","
","
","""event"",""trial"",""time""
""fullscreenenter"",""1"",""1593""
","
","","","","","","798.4000000953674","images/boat1.png","","","learning","2","2","1","1","boat","vehicles","2","0","","bad","[-5]"
"html-keyboard-response","102","639546","0.0-9.0-2.0-0.15","3878","2","18","Female","approach_avoid_spark_v1","""event"",""trial"",""time""
""fullscreenenter"",""1"",""1593""
","
","
","""event"",""trial"",""time""
""fullscreenenter"",""1"",""1593""
","
","","","","","","null","<div style=""font-size:60px;"">+</div>","null","","fixation","","","","","","","","","","",""
"aa-learning-trial","103","642555","0.0-9.0-2.0-1.15","3878","2","18","Female","approach_avoid_spark_v1","""event"",""trial"",""time""
""fullscreenenter"",""1"",""1593""
","
","
","""event"",""trial"",""time""
""fullscreenenter"",""1"",""1593""
","
","","","","","","724","images/truck1.png","","","learning","-7","0","0","0","truck","vehicles","2","0","","neutral","0"
"html-keyboard-response","104","643060","0.0-9.0-2.0-0.16","3878","2","18","Female","approach_avoid_spark_v1","""event"",""trial"",""time""
""fullscreenenter"",""1"",""1593""
","
","
","""event"",""trial"",""time""
""fullscreenenter"",""1"",""1593""
","
","","","","","","null","<div style=""font-size:60px;"">+</div>","null","","fixation","","","","","","","","","","",""
"aa-learning-trial","105","646068","0.0-9.0-2.0-1.16","3878","2","18","Female","approach_avoid_spark_v1","""event"",""trial"",""time""
""fullscreenenter"",""1"",""1593""
","
","
","""event"",""trial"",""time""
""fullscreenenter"",""1"",""1593""
","
","","","","","","753","images/train5.png","","","learning","-9","0","0","0","train","vehicles","2","0","","good","[4]"
"html-keyboard-response","106","646573","0.0-9.0-2.0-0.17","3878","2","18","Female","approach_avoid_spark_v1","""event"",""trial"",""time""
""fullscreenenter"",""1"",""1593""
","
","
","""event"",""trial"",""time""
""fullscreenenter"",""1"",""1593""
","
","","","","","","null","<div style=""font-size:60px;"">+</div>","null","","fixation","","","","","","","","","","",""
"aa-learning-trial","107","649585","0.0-9.0-2.0-1.17","3878","2","18","Female","approach_avoid_spark_v1","""event"",""trial"",""time""
""fullscreenenter"",""1"",""1593""
","
","
","""event"",""trial"",""time""
""fullscreenenter"",""1"",""1593""
","
","","","","","","645.3000000715256","images/train3.png","","","learning","-5","0","0","0","train","vehicles","2","0","","good","[4]"
"html-keyboard-response","108","650096","0.0-9.0-2.0-0.18","3878","2","18","Female","approach_avoid_spark_v1","""event"",""trial"",""time""
""fullscreenenter"",""1"",""1593""
","
","
","""event"",""trial"",""time""
""fullscreenenter"",""1"",""1593""
","
","","","","","","null","<div style=""font-size:60px;"">+</div>","null","","fixation","","","","","","","","","","",""
"aa-learning-trial","109","653109","0.0-9.0-2.0-1.18","3878","2","18","Female","approach_avoid_spark_v1","""event"",""trial"",""time""
""fullscreenenter"",""1"",""1593""
","
","
","""event"",""trial"",""time""
""fullscreenenter"",""1"",""1593""
","
","","","","","","1162.3000000715256","images/truck4.png","","","learning","4","4","1","1","truck","vehicles","2","0","","neutral","0"
"html-keyboard-response","110","653612","0.0-9.0-2.0-0.19","3878","2","18","Female","approach_avoid_spark_v1","""event"",""trial"",""time""
""fullscreenenter"",""1"",""1593""
","
","
","""event"",""trial"",""time""
""fullscreenenter"",""1"",""1593""
","
","","","","","","null","<div style=""font-size:60px;"">+</div>","null","","fixation","","","","","","","","","","",""
"aa-learning-trial","111","656620","0.0-9.0-2.0-1.19","3878","2","18","Female","approach_avoid_spark_v1","""event"",""trial"",""time""
""fullscreenenter"",""1"",""1593""
","
","
","""event"",""trial"",""time""
""fullscreenenter"",""1"",""1593""
","
","","","","","","922","images/truck5.png","","","learning","9","9","1","1","truck","vehicles","2","0","","neutral","0"
"html-keyboard-response","112","657124","0.0-9.0-2.0-0.20","3878","2","18","Female","approach_avoid_spark_v1","""event"",""trial"",""time""
""fullscreenenter"",""1"",""1593""
","
","
","""event"",""trial"",""time""
""fullscreenenter"",""1"",""1593""
","
","","","","","","null","<div style=""font-size:60px;"">+</div>","null","","fixation","","","","","","","","","","",""
"aa-learning-trial","113","660132","0.0-9.0-2.0-1.20","3878","2","18","Female","approach_avoid_spark_v1","""event"",""trial"",""time""
""fullscreenenter"",""1"",""1593""
","
","
","""event"",""trial"",""time""
""fullscreenenter"",""1"",""1593""
","
","","","","","","1142.3000000715256","images/boat1.png","","","learning","2","2","1","1","boat","vehicles","2","0","","bad","[-5]"
"html-keyboard-response","114","660635","0.0-9.0-2.0-0.21","3878","2","18","Female","approach_avoid_spark_v1","""event"",""trial"",""time""
""fullscreenenter"",""1"",""1593""
","
","
","""event"",""trial"",""time""
""fullscreenenter"",""1"",""1593""
","
","","","","","","null","<div style=""font-size:60px;"">+</div>","null","","fixation","","","","","","","","","","",""
"aa-learning-trial","115","663651","0.0-9.0-2.0-1.21","3878","2","18","Female","approach_avoid_spark_v1","""event"",""trial"",""time""
""fullscreenenter"",""1"",""1593""
","
","
","""event"",""trial"",""time""
""fullscreenenter"",""1"",""1593""
","
","","","","","","1160.1999999284744","images/truck3.png","","","learning","-4","0","0","0","truck","vehicles","2","0","","neutral","0"
"html-keyboard-response","116","664163","0.0-9.0-2.0-0.22","3878","2","18","Female","approach_avoid_spark_v1","""event"",""trial"",""time""
""fullscreenenter"",""1"",""1593""
","
","
","""event"",""trial"",""time""
""fullscreenenter"",""1"",""1593""
","
","","","","","","null","<div style=""font-size:60px;"">+</div>","null","","fixation","","","","","","","","","","",""
"aa-learning-trial","117","667172","0.0-9.0-2.0-1.22","3878","2","18","Female","approach_avoid_spark_v1","""event"",""trial"",""time""
""fullscreenenter"",""1"",""1593""
","
","
","""event"",""trial"",""time""
""fullscreenenter"",""1"",""1593""
","
","","","","","","927.1999999284744","images/truck5.png","","","learning","9","9","1","1","truck","vehicles","2","0","","neutral","0"
"html-keyboard-response","118","667676","0.0-9.0-2.0-0.23","3878","2","18","Female","approach_avoid_spark_v1","""event"",""trial"",""time""
""fullscreenenter"",""1"",""1593""
","
","
","""event"",""trial"",""time""
""fullscreenenter"",""1"",""1593""
","
","","","","","","null","<div style=""font-size:60px;"">+</div>","null","","fixation","","","","","","","","","","",""
"aa-learning-trial","119","670685","0.0-9.0-2.0-1.23","3878","2","18","Female","approach_avoid_spark_v1","""event"",""trial"",""time""
""fullscreenenter"",""1"",""1593""
","
","
","""event"",""trial"",""time""
""fullscreenenter"",""1"",""1593""
","
","","","","","","767.1999999284744","images/boat1.png","","","learning","2","2","1","1","boat","vehicles","2","0","","bad","[-5]"
"html-keyboard-response","120","671204","0.0-9.0-2.0-0.24","3878","2","18","Female","approach_avoid_spark_v1","""event"",""trial"",""time""
""fullscreenenter"",""1"",""1593""
","
","
","""event"",""trial"",""time""
""fullscreenenter"",""1"",""1593""
","
","","","","","","null","<div style=""font-size:60px;"">+</div>","null","","fixation","","","","","","","","","","",""
"aa-learning-trial","121","674212","0.0-9.0-2.0-1.24","3878","2","18","Female","approach_avoid_spark_v1","""event"",""trial"",""time""
""fullscreenenter"",""1"",""1593""
","
","
","""event"",""trial"",""time""
""fullscreenenter"",""1"",""1593""
","
","","","","","","552.5","images/truck5.png","","","learning","9","9","1","1","truck","vehicles","2","0","","neutral","0"
"html-keyboard-response","122","674716","0.0-9.0-2.0-0.25","3878","2","18","Female","approach_avoid_spark_v1","""event"",""trial"",""time""
""fullscreenenter"",""1"",""1593""
","
","
","""event"",""trial"",""time""
""fullscreenenter"",""1"",""1593""
","
","","","","","","null","<div style=""font-size:60px;"">+</div>","null","","fixation","","","","","","","","","","",""
"aa-learning-trial","123","677725","0.0-9.0-2.0-1.25","3878","2","18","Female","approach_avoid_spark_v1","""event"",""trial"",""time""
""fullscreenenter"",""1"",""1593""
","
","
","""event"",""trial"",""time""
""fullscreenenter"",""1"",""1593""
","
","","","","","","761.6999999284744","images/train3.png","","","learning","-5","0","0","0","train","vehicles","2","0","","good","[4]"
"html-keyboard-response","124","678234","0.0-9.0-2.0-0.26","3878","2","18","Female","approach_avoid_spark_v1","""event"",""trial"",""time""
""fullscreenenter"",""1"",""1593""
","
","
","""event"",""trial"",""time""
""fullscreenenter"",""1"",""1593""
","
","","","","","","null","<div style=""font-size:60px;"">+</div>","null","","fixation","","","","","","","","","","",""
"aa-learning-trial","125","681244","0.0-9.0-2.0-1.26","3878","2","18","Female","approach_avoid_spark_v1","""event"",""trial"",""time""
""fullscreenenter"",""1"",""1593""
","
","
","""event"",""trial"",""time""
""fullscreenenter"",""1"",""1593""
","
","","","","","","1267.4000000953674","images/boat3.png","","","learning","8","0","0","0","boat","vehicles","2","0","","bad","[-5]"
"html-keyboard-response","126","681751","0.0-9.0-2.0-0.27","3878","2","18","Female","approach_avoid_spark_v1","""event"",""trial"",""time""
""fullscreenenter"",""1"",""1593""
","
","
","""event"",""trial"",""time""
""fullscreenenter"",""1"",""1593""
","
","","","","","","null","<div style=""font-size:60px;"">+</div>","null","","fixation","","","","","","","","","","",""
"aa-learning-trial","127","684769","0.0-9.0-2.0-1.27","3878","2","18","Female","approach_avoid_spark_v1","""event"",""trial"",""time""
""fullscreenenter"",""1"",""1593""
","
","
","""event"",""trial"",""time""
""fullscreenenter"",""1"",""1593""
","
","","","","","","1023.1999999284744","images/train8.png","","","learning","-2","0","0","0","train","vehicles","2","0","","good","[4]"
"html-keyboard-response","128","685275","0.0-9.0-2.0-0.28","3878","2","18","Female","approach_avoid_spark_v1","""event"",""trial"",""time""
""fullscreenenter"",""1"",""1593""
","
","
","""event"",""trial"",""time""
""fullscreenenter"",""1"",""1593""
","
","","","","","","null","<div style=""font-size:60px;"">+</div>","null","","fixation","","","","","","","","","","",""
"aa-learning-trial","129","688285","0.0-9.0-2.0-1.28","3878","2","18","Female","approach_avoid_spark_v1","""event"",""trial"",""time""
""fullscreenenter"",""1"",""1593""
","
","
","""event"",""trial"",""time""
""fullscreenenter"",""1"",""1593""
","
","","","","","","1132.5","images/boat1.png","","","learning","2","2","1","1","boat","vehicles","2","0","","bad","[-5]"
"html-keyboard-response","130","688795","0.0-9.0-2.0-0.29","3878","2","18","Female","approach_avoid_spark_v1","""event"",""trial"",""time""
""fullscreenenter"",""1"",""1593""
","
","
","""event"",""trial"",""time""
""fullscreenenter"",""1"",""1593""
","
","","","","","","null","<div style=""font-size:60px;"">+</div>","null","","fixation","","","","","","","","","","",""
"aa-learning-trial","131","691808","0.0-9.0-2.0-1.29","3878","2","18","Female","approach_avoid_spark_v1","""event"",""trial"",""time""
""fullscreenenter"",""1"",""1593""
","
","
","""event"",""trial"",""time""
""fullscreenenter"",""1"",""1593""
","
","","","","","","1028.3999999761581","images/boat3.png","","","learning","8","8","1","1","boat","vehicles","2","0","","bad","[-5]"
"html-keyboard-response","132","692316","0.0-9.0-2.0-0.30","3878","2","18","Female","approach_avoid_spark_v1","""event"",""trial"",""time""
""fullscreenenter"",""1"",""1593""
","
","
","""event"",""trial"",""time""
""fullscreenenter"",""1"",""1593""
","
","","","","","","null","<div style=""font-size:60px;"">+</div>","null","","fixation","","","","","","","","","","",""
"aa-learning-trial","133","695337","0.0-9.0-2.0-1.30","3878","2","18","Female","approach_avoid_spark_v1","""event"",""trial"",""time""
""fullscreenenter"",""1"",""1593""
","
","
","""event"",""trial"",""time""
""fullscreenenter"",""1"",""1593""
","
","","","","","","725","images/train8.png","","","learning","-2","0","0","0","train","vehicles","2","0","","good","[4]"
"html-keyboard-response","134","695843","0.0-9.0-2.0-0.31","3878","2","18","Female","approach_avoid_spark_v1","""event"",""trial"",""time""
""fullscreenenter"",""1"",""1593""
","
","
","""event"",""trial"",""time""
""fullscreenenter"",""1"",""1593""
","
","","","","","","null","<div style=""font-size:60px;"">+</div>","null","","fixation","","","","","","","","","","",""
"aa-learning-trial","135","698866","0.0-9.0-2.0-1.31","3878","2","18","Female","approach_avoid_spark_v1","""event"",""trial"",""time""
""fullscreenenter"",""1"",""1593""
","
","
","""event"",""trial"",""time""
""fullscreenenter"",""1"",""1593""
","
","","","","","","526.1000000238419","images/train3.png","","","learning","-5","0","0","0","train","vehicles","2","0","","good","[4]"
"html-keyboard-response","136","699373","0.0-9.0-2.0-0.32","3878","2","18","Female","approach_avoid_spark_v1","""event"",""trial"",""time""
""fullscreenenter"",""1"",""1593""
","
","
","""event"",""trial"",""time""
""fullscreenenter"",""1"",""1593""
","
","","","","","","null","<div style=""font-size:60px;"">+</div>","null","","fixation","","","","","","","","","","",""
"aa-learning-trial","137","702380","0.0-9.0-2.0-1.32","3878","2","18","Female","approach_avoid_spark_v1","""event"",""trial"",""time""
""fullscreenenter"",""1"",""1593""
","
","
","""event"",""trial"",""time""
""fullscreenenter"",""1"",""1593""
","
","","","","","","434.5","images/train3.png","","","learning","-5","0","0","0","train","vehicles","2","0","","good","[4]"
"html-keyboard-response","138","702883","0.0-9.0-2.0-0.33","3878","2","18","Female","approach_avoid_spark_v1","""event"",""trial"",""time""
""fullscreenenter"",""1"",""1593""
","
","
","""event"",""trial"",""time""
""fullscreenenter"",""1"",""1593""
","
","","","","","","null","<div style=""font-size:60px;"">+</div>","null","","fixation","","","","","","","","","","",""
"aa-learning-trial","139","705891","0.0-9.0-2.0-1.33","3878","2","18","Female","approach_avoid_spark_v1","""event"",""trial"",""time""
""fullscreenenter"",""1"",""1593""
","
","
","""event"",""trial"",""time""
""fullscreenenter"",""1"",""1593""
","
","","","","","","1440.7000000476837","images/truck2.png","","","learning","-1","0","0","0","truck","vehicles","2","0","","neutral","0"
"html-keyboard-response","140","706402","0.0-9.0-2.0-0.34","3878","2","18","Female","approach_avoid_spark_v1","""event"",""trial"",""time""
""fullscreenenter"",""1"",""1593""
","
","
","""event"",""trial"",""time""
""fullscreenenter"",""1"",""1593""
","
","","","","","","null","<div style=""font-size:60px;"">+</div>","null","","fixation","","","","","","","","","","",""
"aa-learning-trial","141","709418","0.0-9.0-2.0-1.34","3878","2","18","Female","approach_avoid_spark_v1","""event"",""trial"",""time""
""fullscreenenter"",""1"",""1593""
","
","
","""event"",""trial"",""time""
""fullscreenenter"",""1"",""1593""
","
","","","","","","1178.2999999523163","images/truck4.png","","","learning","4","0","0","0","truck","vehicles","2","0","","neutral","0"
"html-keyboard-response","142","709923","0.0-9.0-2.0-0.35","3878","2","18","Female","approach_avoid_spark_v1","""event"",""trial"",""time""
""fullscreenenter"",""1"",""1593""
","
","
","""event"",""trial"",""time""
""fullscreenenter"",""1"",""1593""
","
","","","","","","null","<div style=""font-size:60px;"">+</div>","null","","fixation","","","","","","","","","","",""
"aa-learning-trial","143","712933","0.0-9.0-2.0-1.35","3878","2","18","Female","approach_avoid_spark_v1","""event"",""trial"",""time""
""fullscreenenter"",""1"",""1593""
","
","
","""event"",""trial"",""time""
""fullscreenenter"",""1"",""1593""
","
","","","","","","788.7000000476837","images/train8.png","","","learning","-2","0","0","0","train","vehicles","2","0","","good","[4]"
"html-keyboard-response","144","713444","0.0-9.0-2.0-0.36","3878","2","18","Female","approach_avoid_spark_v1","""event"",""trial"",""time""
""fullscreenenter"",""1"",""1593""
","
","
","""event"",""trial"",""time""
""fullscreenenter"",""1"",""1593""
","
","","","","","","null","<div style=""font-size:60px;"">+</div>","null","","fixation","","","","","","","","","","",""
"aa-learning-trial","145","716457","0.0-9.0-2.0-1.36","3878","2","18","Female","approach_avoid_spark_v1","""event"",""trial"",""time""
""fullscreenenter"",""1"",""1593""
","
","
","""event"",""trial"",""time""
""fullscreenenter"",""1"",""1593""
","
","","","","","","753.5","images/boat5.png","","","learning","3","3","1","1","boat","vehicles","2","0","","bad","[-5]"
"html-keyboard-response","146","716963","0.0-9.0-2.0-0.37","3878","2","18","Female","approach_avoid_spark_v1","""event"",""trial"",""time""
""fullscreenenter"",""1"",""1593""
","
","
","""event"",""trial"",""time""
""fullscreenenter"",""1"",""1593""
","
","","","","","","null","<div style=""font-size:60px;"">+</div>","null","","fixation","","","","","","","","","","",""
"aa-learning-trial","147","719980","0.0-9.0-2.0-1.37","3878","2","18","Female","approach_avoid_spark_v1","""event"",""trial"",""time""
""fullscreenenter"",""1"",""1593""
","
","
","""event"",""trial"",""time""
""fullscreenenter"",""1"",""1593""
","
","","","","","","699.3999999761581","images/boat1.png","","","learning","2","2","1","1","boat","vehicles","2","0","","bad","[-5]"
"html-keyboard-response","148","720497","0.0-9.0-2.0-0.38","3878","2","18","Female","approach_avoid_spark_v1","""event"",""trial"",""time""
""fullscreenenter"",""1"",""1593""
","
","
","""event"",""trial"",""time""
""fullscreenenter"",""1"",""1593""
","
","","","","","","null","<div style=""font-size:60px;"">+</div>","null","","fixation","","","","","","","","","","",""
"aa-learning-trial","149","723509","0.0-9.0-2.0-1.38","3878","2","18","Female","approach_avoid_spark_v1","""event"",""trial"",""time""
""fullscreenenter"",""1"",""1593""
","
","
","""event"",""trial"",""time""
""fullscreenenter"",""1"",""1593""
","
","","","","","","1435.5","images/boat6.png","","","learning","-3","-3","1","1","boat","vehicles","2","0","","bad","[-5]"
"html-keyboard-response","150","724011","0.0-9.0-2.0-0.39","3878","2","18","Female","approach_avoid_spark_v1","""event"",""trial"",""time""
""fullscreenenter"",""1"",""1593""
","
","
","""event"",""trial"",""time""
""fullscreenenter"",""1"",""1593""
","
","","","","","","null","<div style=""font-size:60px;"">+</div>","null","","fixation","","","","","","","","","","",""
"aa-learning-trial","151","727019","0.0-9.0-2.0-1.39","3878","2","18","Female","approach_avoid_spark_v1","""event"",""trial"",""time""
""fullscreenenter"",""1"",""1593""
","
","
","""event"",""trial"",""time""
""fullscreenenter"",""1"",""1593""
","
","","","","","","927.7000000476837","images/boat2.png","","","learning","-8","-8","1","1","boat","vehicles","2","0","","bad","[-5]"
"html-keyboard-response","152","727524","0.0-9.0-2.0-0.40","3878","2","18","Female","approach_avoid_spark_v1","""event"",""trial"",""time""
""fullscreenenter"",""1"",""1593""
","
","
","""event"",""trial"",""time""
""fullscreenenter"",""1"",""1593""
","
","","","","","","null","<div style=""font-size:60px;"">+</div>","null","","fixation","","","","","","","","","","",""
"aa-learning-trial","153","730545","0.0-9.0-2.0-1.40","3878","2","18","Female","approach_avoid_spark_v1","""event"",""trial"",""time""
""fullscreenenter"",""1"",""1593""
","
","
","""event"",""trial"",""time""
""fullscreenenter"",""1"",""1593""
","
","","","","","","1074.5","images/train7.png","","","learning","5","0","0","0","train","vehicles","2","0","","good","[4]"
"html-keyboard-response","154","731051","0.0-9.0-2.0-0.41","3878","2","18","Female","approach_avoid_spark_v1","""event"",""trial"",""time""
""fullscreenenter"",""1"",""1593""
","
","
","""event"",""trial"",""time""
""fullscreenenter"",""1"",""1593""
","
","","","","","","null","<div style=""font-size:60px;"">+</div>","null","","fixation","","","","","","","","","","",""
"aa-learning-trial","155","734067","0.0-9.0-2.0-1.41","3878","2","18","Female","approach_avoid_spark_v1","""event"",""trial"",""time""
""fullscreenenter"",""1"",""1593""
","
","
","""event"",""trial"",""time""
""fullscreenenter"",""1"",""1593""
","
","","","","","","824.1000000238419","images/train5.png","","","learning","-9","0","0","0","train","vehicles","2","0","","good","[4]"
"html-keyboard-response","156","734572","0.0-9.0-2.0-0.42","3878","2","18","Female","approach_avoid_spark_v1","""event"",""trial"",""time""
""fullscreenenter"",""1"",""1593""
","
","
","""event"",""trial"",""time""
""fullscreenenter"",""1"",""1593""
","
","","","","","","null","<div style=""font-size:60px;"">+</div>","null","","fixation","","","","","","","","","","",""
"aa-learning-trial","157","737588","0.0-9.0-2.0-1.42","3878","2","18","Female","approach_avoid_spark_v1","""event"",""trial"",""time""
""fullscreenenter"",""1"",""1593""
","
","
","""event"",""trial"",""time""
""fullscreenenter"",""1"",""1593""
","
","","","","","","637.3999999761581","images/boat3.png","","","learning","8","8","1","1","boat","vehicles","2","0","","bad","[-5]"
"html-keyboard-response","158","738092","0.0-9.0-2.0-0.43","3878","2","18","Female","approach_avoid_spark_v1","""event"",""trial"",""time""
""fullscreenenter"",""1"",""1593""
","
","
","""event"",""trial"",""time""
""fullscreenenter"",""1"",""1593""
","
","","","","","","null","<div style=""font-size:60px;"">+</div>","null","","fixation","","","","","","","","","","",""
"aa-learning-trial","159","741098","0.0-9.0-2.0-1.43","3878","2","18","Female","approach_avoid_spark_v1","""event"",""trial"",""time""
""fullscreenenter"",""1"",""1593""
","
","
","""event"",""trial"",""time""
""fullscreenenter"",""1"",""1593""
","
","","","","","","1254.7000000476837","images/train8.png","","","learning","-2","-2","1","1","train","vehicles","2","0","","good","[4]"
"html-keyboard-response","160","741610","0.0-9.0-2.0-0.44","3878","2","18","Female","approach_avoid_spark_v1","""event"",""trial"",""time""
""fullscreenenter"",""1"",""1593""
","
","
","""event"",""trial"",""time""
""fullscreenenter"",""1"",""1593""
","
","","","","","","null","<div style=""font-size:60px;"">+</div>","null","","fixation","","","","","","","","","","",""
"aa-learning-trial","161","744624","0.0-9.0-2.0-1.44","3878","2","18","Female","approach_avoid_spark_v1","""event"",""trial"",""time""
""fullscreenenter"",""1"",""1593""
","
","
","""event"",""trial"",""time""
""fullscreenenter"",""1"",""1593""
","
","","","","","","788.9000000953674","images/train6.png","","","learning","6","0","0","0","train","vehicles","2","0","","good","[4]"
"html-keyboard-response","162","745131","0.0-9.0-2.0-0.45","3878","2","18","Female","approach_avoid_spark_v1","""event"",""trial"",""time""
""fullscreenenter"",""1"",""1593""
","
","
","""event"",""trial"",""time""
""fullscreenenter"",""1"",""1593""
","
","","","","","","null","<div style=""font-size:60px;"">+</div>","null","","fixation","","","","","","","","","","",""
"aa-learning-trial","163","748139","0.0-9.0-2.0-1.45","3878","2","18","Female","approach_avoid_spark_v1","""event"",""trial"",""time""
""fullscreenenter"",""1"",""1593""
","
","
","""event"",""trial"",""time""
""fullscreenenter"",""1"",""1593""
","
","","","","","","711.8999999761581","images/truck5.png","","","learning","9","9","1","1","truck","vehicles","2","0","","neutral","0"
"html-keyboard-response","164","748648","0.0-9.0-2.0-0.46","3878","2","18","Female","approach_avoid_spark_v1","""event"",""trial"",""time""
""fullscreenenter"",""1"",""1593""
","
","
","""event"",""trial"",""time""
""fullscreenenter"",""1"",""1593""
","
","","","","","","null","<div style=""font-size:60px;"">+</div>","null","","fixation","","","","","","","","","","",""
"aa-learning-trial","165","751660","0.0-9.0-2.0-1.46","3878","2","18","Female","approach_avoid_spark_v1","""event"",""trial"",""time""
""fullscreenenter"",""1"",""1593""
","
","
","""event"",""trial"",""time""
""fullscreenenter"",""1"",""1593""
","
","","","","","","1015","images/boat2.png","","","learning","-8","-8","1","1","boat","vehicles","2","0","","bad","[-5]"
"html-keyboard-response","166","752164","0.0-9.0-2.0-0.47","3878","2","18","Female","approach_avoid_spark_v1","""event"",""trial"",""time""
""fullscreenenter"",""1"",""1593""
","
","
","""event"",""trial"",""time""
""fullscreenenter"",""1"",""1593""
","
","","","","","","null","<div style=""font-size:60px;"">+</div>","null","","fixation","","","","","","","","","","",""
"aa-learning-trial","167","755172","0.0-9.0-2.0-1.47","3878","2","18","Female","approach_avoid_spark_v1","""event"",""trial"",""time""
""fullscreenenter"",""1"",""1593""
","
","
","""event"",""trial"",""time""
""fullscreenenter"",""1"",""1593""
","
","","","","","","751.3999999761581","images/boat3.png","","","learning","8","8","1","1","boat","vehicles","2","0","","bad","[-5]"
"html-keyboard-response","168","755681","0.0-9.0-2.0-0.48","3878","2","18","Female","approach_avoid_spark_v1","""event"",""trial"",""time""
""fullscreenenter"",""1"",""1593""
","
","
","""event"",""trial"",""time""
""fullscreenenter"",""1"",""1593""
","
","","","","","","null","<div style=""font-size:60px;"">+</div>","null","","fixation","","","","","","","","","","",""
"aa-learning-trial","169","758691","0.0-9.0-2.0-1.48","3878","2","18","Female","approach_avoid_spark_v1","""event"",""trial"",""time""
""fullscreenenter"",""1"",""1593""
","
","
","""event"",""trial"",""time""
""fullscreenenter"",""1"",""1593""
","
","","","","","","1912.2999999523163","images/truck4.png","","","learning","4","4","1","1","truck","vehicles","2","0","","neutral","0"
"html-keyboard-response","170","759194","0.0-9.0-2.0-0.49","3878","2","18","Female","approach_avoid_spark_v1","""event"",""trial"",""time""
""fullscreenenter"",""1"",""1593""
","
","
","""event"",""trial"",""time""
""fullscreenenter"",""1"",""1593""
","
","","","","","","null","<div style=""font-size:60px;"">+</div>","null","","fixation","","","","","","","","","","",""
"aa-learning-trial","171","762203","0.0-9.0-2.0-1.49","3878","2","18","Female","approach_avoid_spark_v1","""event"",""trial"",""time""
""fullscreenenter"",""1"",""1593""
","
","
","""event"",""trial"",""time""
""fullscreenenter"",""1"",""1593""
","
","","","","","","883.1999999284744","images/truck4.png","","","learning","4","4","1","1","truck","vehicles","2","0","","neutral","0"
"html-keyboard-response","172","762707","0.0-9.0-2.0-0.50","3878","2","18","Female","approach_avoid_spark_v1","""event"",""trial"",""time""
""fullscreenenter"",""1"",""1593""
","
","
","""event"",""trial"",""time""
""fullscreenenter"",""1"",""1593""
","
","","","","","","null","<div style=""font-size:60px;"">+</div>","null","","fixation","","","","","","","","","","",""
"aa-learning-trial","173","765720","0.0-9.0-2.0-1.50","3878","2","18","Female","approach_avoid_spark_v1","""event"",""trial"",""time""
""fullscreenenter"",""1"",""1593""
","
","
","""event"",""trial"",""time""
""fullscreenenter"",""1"",""1593""
","
","","","","","","1016.0999999046326","images/truck1.png","","","learning","-7","0","0","0","truck","vehicles","2","0","","neutral","0"
"html-button-response","174","767702","0.0-9.0-3.0","3878","2","18","Female","approach_avoid_spark_v1","""event"",""trial"",""time""
""fullscreenenter"",""1"",""1593""
","
","
","""event"",""trial"",""time""
""fullscreenenter"",""1"",""1593""
","
","","","","","","1980.5","<p> You have completed the round! <p> In this round, you earned 71 points! </p>","0","","break","","","","","","","","","","",""
"html-button-response","175","768701","0.0-10.0","3878","2","18","Female","approach_avoid_spark_v1","""event"",""trial"",""time""
""fullscreenenter"",""1"",""1593""
","
","
","""event"",""trial"",""time""
""fullscreenenter"",""1"",""1593""
","
","","","","","","996.1000000238419","<p> Now it's time to play another round. </p>","0","","transition_screen","","","","","","","","","","",""
"preload","176","768826","0.0-11.0-0.0","3878","2","18","Female","approach_avoid_spark_v1","""event"",""trial"",""time""
""fullscreenenter"",""1"",""1593""
","
","
","""event"",""trial"",""time""
""fullscreenenter"",""1"",""1593""
","
","true","false","[]","[]","[]","","","","","","","","","","","","","","","",""
"learning-instructions","177","827079","0.0-11.0-1.0-0.0","3878","2","18","Female","approach_avoid_spark_v1","""event"",""trial"",""time""
""fullscreenenter"",""1"",""1593""
","
","
","""event"",""trial"",""time""
""fullscreenenter"",""1"",""1593""
","
","","","","","","52430.300000071526","<p> Your goal in this round is to sell different plants to a picky customer. </p></div>","","0","instructions","","","","","","","","","","",""
"learning-instructions","178","838739","0.0-11.0-1.0-0.1","3878","2","18","Female","approach_avoid_spark_v1","""event"",""trial"",""time""
""fullscreenenter"",""1"",""1593""
","
","
","""event"",""trial"",""time""
""fullscreenenter"",""1"",""1593""
","
","","","","","","1597.0999999046326","<p> The customer likes some plants and dislikes others.  </p><p> On each turn, you will see a plant.   </p><p> You need to decide whether to offer it to the customer or not.  </p>","","0","instructions","","","","","","","","","","",""
"learning-instructions","179","848859","0.0-11.0-1.0-0.2","3878","2","18","Female","approach_avoid_spark_v1","""event"",""trial"",""time""
""fullscreenenter"",""1"",""1593""
","
","
","""event"",""trial"",""time""
""fullscreenenter"",""1"",""1593""
","
","","","","","","2477.7999999523163","<p> You can offer the plant by pressing 1 and decide to not offer it by pressing 0. </p><br><div class=""choice-instructions-grid""> <div class=""choice-option""><img src=""images/approach.png"" class=""choice-option-img"" stage=""instructions"" position=""0"" ><div class=""choice-option-text""> Press ""1."" </div></div><div class=""choice-option""><img src=""images/avoid.png"" class=""choice-option-img"" stage=""instructions"" position=""1"" ><div class=""choice-option-text""> Press ""0."" </div></div>","","0","instructions","","","","","","","","","","",""
"learning-instructions","180","868146","0.0-11.0-1.0-0.3","3878","2","18","Female","approach_avoid_spark_v1","""event"",""trial"",""time""
""fullscreenenter"",""1"",""1593""
","
","
","""event"",""trial"",""time""
""fullscreenenter"",""1"",""1593""
","
","","","","","","5112.399999976158","<p> If you offer a plant to the customer that she likes, she will be very pleased! </p><p> But if you offer a plant that she does NOT like, she will be annoyed. </p>","","0","instructions","","","","","","","","","","",""
"learning-instructions","181","889977","0.0-11.0-1.0-0.4","3878","2","18","Female","approach_avoid_spark_v1","""event"",""trial"",""time""
""fullscreenenter"",""1"",""1593""
","
","
","""event"",""trial"",""time""
""fullscreenenter"",""1"",""1593""
","
","","","","","","2023","<p> You will earn points based on how you made the customer feel. </p><p> If you made her pleased, you will WIN anywhere from 1 - 9 points, </p><p> but if you made her annoyed, you will LOSE anywhere from 1 - 9 points. </p>","","0","instructions","","","","","","","","","","",""
"learning-instructions","182","897528","0.0-11.0-1.0-0.5","3878","2","18","Female","approach_avoid_spark_v1","""event"",""trial"",""time""
""fullscreenenter"",""1"",""1593""
","
","
","""event"",""trial"",""time""
""fullscreenenter"",""1"",""1593""
","
","","","","","","884.8999999761581","<p> You will see how many points you won or lost in the center of the screen. </p><p> Here is what you would see if you won 5 points: </p><p style=""color:green;font-size:50px;font-weight:bolder"">5</p>","","0","instructions","","","","","","","","","","",""
"learning-instructions","183","936274","0.0-11.0-1.0-0.6","3878","2","18","Female","approach_avoid_spark_v1","""event"",""trial"",""time""
""fullscreenenter"",""1"",""1593""
","
","
","""event"",""trial"",""time""
""fullscreenenter"",""1"",""1593""
","
","","","","","","35890","<p> And here is what you would see if you lost 3 points: </p><p style=""color:red;font-size:50px;font-weight:bolder"">-3</p>","","0","instructions","","","","","","","","","","",""
"learning-instructions","184","959408","0.0-11.0-1.0-0.7","3878","2","18","Female","approach_avoid_spark_v1","""event"",""trial"",""time""
""fullscreenenter"",""1"",""1593""
","
","
","""event"",""trial"",""time""
""fullscreenenter"",""1"",""1593""
","
","","","","","","1051","<p> Some plants will make the customer VERY pleased or annoyed. </p><p> These plants will make you win or lose LOTS of points. </p><p> The customer will have less strong feelings about other plants. </p><p> These plants will make you win or lose small amounts of points. </p>","","0","instructions","","","","","","","","","","",""
"learning-instructions","185","981481","0.0-11.0-1.0-0.8","3878","2","18","Female","approach_avoid_spark_v1","""event"",""trial"",""time""
""fullscreenenter"",""1"",""1593""
","
","
","""event"",""trial"",""time""
""fullscreenenter"",""1"",""1593""
","
","","","","","","1485.8999999761581","<p> If you choose to not offer the plant to the customer, you will not win or lose any points. </p><p>  However, in the center of the screen, you will see the number of points you WOULD HAVE won or lost if you had offered the plant. </p>","","0","instructions","","","","","","","","","","",""
"learning-instructions","186","1005200","0.0-11.0-1.0-0.9","3878","2","18","Female","approach_avoid_spark_v1","""event"",""trial"",""time""
""fullscreenenter"",""1"",""1593""
","
","
","""event"",""trial"",""time""
""fullscreenenter"",""1"",""1593""
","
","","","","","","2476.5","<p> Here is what you might see if you did not offer the plant but the customer would have liked it: </p><p style=""color:grey; font-size:50px; display: inline-block; border-spacing: 15px; border-width:3px; border-style:solid; border-color:red"">  &nbsp; 6 &nbsp; </p><p> Remember, in this case, you would not win or lose ANY points because you did not offer the plant.  </p>","","0","instructions","","","","","","","","","","",""
"learning-instructions","187","1019680","0.0-11.0-1.0-0.10","3878","2","18","Female","approach_avoid_spark_v1","""event"",""trial"",""time""
""fullscreenenter"",""1"",""1593""
","
","
","""event"",""trial"",""time""
""fullscreenenter"",""1"",""1593""
","
","","","","","","1561.8999999761581","<p> Try to make the best choice for each plant because </p><p> at the end of the game, you will earn bonus money based on how many points you earned. </p>","","0","instructions","","","","","","","","","","",""
"learning-instructions","188","1030471","0.0-11.0-1.0-0.11","3878","2","18","Female","approach_avoid_spark_v1","""event"",""trial"",""time""
""fullscreenenter"",""1"",""1593""
","
","
","""event"",""trial"",""time""
""fullscreenenter"",""1"",""1593""
","
","","","","","","2581.2999999523163","<p> You will have 3 seconds to make each choice. Try to respond before time runs out! </p><p> You will lose 5 points each time you do not make a response. </p>","","0","instructions","","","","","","","","","","",""
"html-keyboard-response","189","1031083","0.0-11.0-2.0-0.0","3878","2","18","Female","approach_avoid_spark_v1","""event"",""trial"",""time""
""fullscreenenter"",""1"",""1593""
","
","
","""event"",""trial"",""time""
""fullscreenenter"",""1"",""1593""
","
","","","","","","null","<div style=""font-size:60px;"">+</div>","null","","fixation","","","","","","","","","","",""
"aa-learning-trial","190","1034100","0.0-11.0-2.0-1.0","3878","2","18","Female","approach_avoid_spark_v1","""event"",""trial"",""time""
""fullscreenenter"",""1"",""1593""
","
","
","""event"",""trial"",""time""
""fullscreenenter"",""1"",""1593""
","
","","","","","","1578.7999999523163","images/cactus2.png","","","learning","1","0","0","0","cactus","plants","1","1","","neutral","0"
"html-keyboard-response","191","1034614","0.0-11.0-2.0-0.1","3878","2","18","Female","approach_avoid_spark_v1","""event"",""trial"",""time""
""fullscreenenter"",""1"",""1593""
","
","
","""event"",""trial"",""time""
""fullscreenenter"",""1"",""1593""
","
","","","","","","null","<div style=""font-size:60px;"">+</div>","null","","fixation","","","","","","","","","","",""
"aa-learning-trial","192","1037632","0.0-11.0-2.0-1.1","3878","2","18","Female","approach_avoid_spark_v1","""event"",""trial"",""time""
""fullscreenenter"",""1"",""1593""
","
","
","""event"",""trial"",""time""
""fullscreenenter"",""1"",""1593""
","
","","","","","","1659.5","images/tree6.png","","","learning","4","4","1","1","tree","plants","1","1","","good","[3]"
"html-keyboard-response","193","1038148","0.0-11.0-2.0-0.2","3878","2","18","Female","approach_avoid_spark_v1","""event"",""trial"",""time""
""fullscreenenter"",""1"",""1593""
","
","
","""event"",""trial"",""time""
""fullscreenenter"",""1"",""1593""
","
","","","","","","null","<div style=""font-size:60px;"">+</div>","null","","fixation","","","","","","","","","","",""
"aa-learning-trial","194","1041162","0.0-11.0-2.0-1.2","3878","2","18","Female","approach_avoid_spark_v1","""event"",""trial"",""time""
""fullscreenenter"",""1"",""1593""
","
","
","""event"",""trial"",""time""
""fullscreenenter"",""1"",""1593""
","
","","","","","","855.1999999284744","images/flower6.png","","","learning","-5","0","0","0","flower","plants","1","1","","bad","[-6]"
"html-keyboard-response","195","1041669","0.0-11.0-2.0-0.3","3878","2","18","Female","approach_avoid_spark_v1","""event"",""trial"",""time""
""fullscreenenter"",""1"",""1593""
","
","
","""event"",""trial"",""time""
""fullscreenenter"",""1"",""1593""
","
","","","","","","null","<div style=""font-size:60px;"">+</div>","null","","fixation","","","","","","","","","","",""
"aa-learning-trial","196","1044688","0.0-11.0-2.0-1.3","3878","2","18","Female","approach_avoid_spark_v1","""event"",""trial"",""time""
""fullscreenenter"",""1"",""1593""
","
","
","""event"",""trial"",""time""
""fullscreenenter"",""1"",""1593""
","
","","","","","","661.1000000238419","images/cactus2.png","","","learning","-1","-1","1","1","cactus","plants","1","1","","neutral","0"
"html-keyboard-response","197","1045198","0.0-11.0-2.0-0.4","3878","2","18","Female","approach_avoid_spark_v1","""event"",""trial"",""time""
""fullscreenenter"",""1"",""1593""
","
","
","""event"",""trial"",""time""
""fullscreenenter"",""1"",""1593""
","
","","","","","","null","<div style=""font-size:60px;"">+</div>","null","","fixation","","","","","","","","","","",""
"aa-learning-trial","198","1048210","0.0-11.0-2.0-1.4","3878","2","18","Female","approach_avoid_spark_v1","""event"",""trial"",""time""
""fullscreenenter"",""1"",""1593""
","
","
","""event"",""trial"",""time""
""fullscreenenter"",""1"",""1593""
","
","","","","","","792.1999999284744","images/tree6.png","","","learning","4","4","1","1","tree","plants","1","1","","good","[3]"
"html-keyboard-response","199","1048719","0.0-11.0-2.0-0.5","3878","2","18","Female","approach_avoid_spark_v1","""event"",""trial"",""time""
""fullscreenenter"",""1"",""1593""
","
","
","""event"",""trial"",""time""
""fullscreenenter"",""1"",""1593""
","
","","","","","","null","<div style=""font-size:60px;"">+</div>","null","","fixation","","","","","","","","","","",""
"aa-learning-trial","200","1051729","0.0-11.0-2.0-1.5","3878","2","18","Female","approach_avoid_spark_v1","""event"",""trial"",""time""
""fullscreenenter"",""1"",""1593""
","
","
","""event"",""trial"",""time""
""fullscreenenter"",""1"",""1593""
","
","","","","","","2135.5","images/flower2.png","","","learning","-7","-7","1","1","flower","plants","1","1","","bad","[-6]"
"html-keyboard-response","201","1052239","0.0-11.0-2.0-0.6","3878","2","18","Female","approach_avoid_spark_v1","""event"",""trial"",""time""
""fullscreenenter"",""1"",""1593""
","
","
","""event"",""trial"",""time""
""fullscreenenter"",""1"",""1593""
","
","","","","","","null","<div style=""font-size:60px;"">+</div>","null","","fixation","","","","","","","","","","",""
"aa-learning-trial","202","1055257","0.0-11.0-2.0-1.6","3878","2","18","Female","approach_avoid_spark_v1","""event"",""trial"",""time""
""fullscreenenter"",""1"",""1593""
","
","
","""event"",""trial"",""time""
""fullscreenenter"",""1"",""1593""
","
","","","","","","1087.6000000238419","images/tree2.png","","","learning","4","0","0","0","tree","plants","1","1","","good","[3]"
"html-keyboard-response","203","1055769","0.0-11.0-2.0-0.7","3878","2","18","Female","approach_avoid_spark_v1","""event"",""trial"",""time""
""fullscreenenter"",""1"",""1593""
","
","
","""event"",""trial"",""time""
""fullscreenenter"",""1"",""1593""
","
","","","","","","null","<div style=""font-size:60px;"">+</div>","null","","fixation","","","","","","","","","","",""
"aa-learning-trial","204","1058779","0.0-11.0-2.0-1.7","3878","2","18","Female","approach_avoid_spark_v1","""event"",""trial"",""time""
""fullscreenenter"",""1"",""1593""
","
","
","""event"",""trial"",""time""
""fullscreenenter"",""1"",""1593""
","
","","","","","","1255.6000000238419","images/tree8.png","","","learning","2","2","1","1","tree","plants","1","1","","good","[3]"
"html-keyboard-response","205","1059286","0.0-11.0-2.0-0.8","3878","2","18","Female","approach_avoid_spark_v1","""event"",""trial"",""time""
""fullscreenenter"",""1"",""1593""
","
","
","""event"",""trial"",""time""
""fullscreenenter"",""1"",""1593""
","
","","","","","","null","<div style=""font-size:60px;"">+</div>","null","","fixation","","","","","","","","","","",""
"aa-learning-trial","206","1062298","0.0-11.0-2.0-1.8","3878","2","18","Female","approach_avoid_spark_v1","""event"",""trial"",""time""
""fullscreenenter"",""1"",""1593""
","
","
","""event"",""trial"",""time""
""fullscreenenter"",""1"",""1593""
","
","","","","","","1021.7999999523163","images/flower2.png","","","learning","-8","-8","1","1","flower","plants","1","1","","bad","[-6]"
"html-keyboard-response","207","1062802","0.0-11.0-2.0-0.9","3878","2","18","Female","approach_avoid_spark_v1","""event"",""trial"",""time""
""fullscreenenter"",""1"",""1593""
","
","
","""event"",""trial"",""time""
""fullscreenenter"",""1"",""1593""
","
","","","","","","null","<div style=""font-size:60px;"">+</div>","null","","fixation","","","","","","","","","","",""
"aa-learning-trial","208","1065819","0.0-11.0-2.0-1.9","3878","2","18","Female","approach_avoid_spark_v1","""event"",""trial"",""time""
""fullscreenenter"",""1"",""1593""
","
","
","""event"",""trial"",""time""
""fullscreenenter"",""1"",""1593""
","
","","","","","","1383.3999999761581","images/cactus6.png","","","learning","-3","-3","1","1","cactus","plants","1","1","","neutral","0"
"html-keyboard-response","209","1066329","0.0-11.0-2.0-0.10","3878","2","18","Female","approach_avoid_spark_v1","""event"",""trial"",""time""
""fullscreenenter"",""1"",""1593""
","
","
","""event"",""trial"",""time""
""fullscreenenter"",""1"",""1593""
","
","","","","","","null","<div style=""font-size:60px;"">+</div>","null","","fixation","","","","","","","","","","",""
"aa-learning-trial","210","1069342","0.0-11.0-2.0-1.10","3878","2","18","Female","approach_avoid_spark_v1","""event"",""trial"",""time""
""fullscreenenter"",""1"",""1593""
","
","
","""event"",""trial"",""time""
""fullscreenenter"",""1"",""1593""
","
","","","","","","1053.3999999761581","images/tree2.png","","","learning","2","2","1","1","tree","plants","1","1","","good","[3]"
"html-keyboard-response","211","1069865","0.0-11.0-2.0-0.11","3878","2","18","Female","approach_avoid_spark_v1","""event"",""trial"",""time""
""fullscreenenter"",""1"",""1593""
","
","
","""event"",""trial"",""time""
""fullscreenenter"",""1"",""1593""
","
","","","","","","null","<div style=""font-size:60px;"">+</div>","null","","fixation","","","","","","","","","","",""
"aa-learning-trial","212","1072878","0.0-11.0-2.0-1.11","3878","2","18","Female","approach_avoid_spark_v1","""event"",""trial"",""time""
""fullscreenenter"",""1"",""1593""
","
","
","""event"",""trial"",""time""
""fullscreenenter"",""1"",""1593""
","
","","","","","","1030.5","images/flower6.png","","","learning","-3","-3","1","1","flower","plants","1","1","","bad","[-6]"
"html-keyboard-response","213","1073393","0.0-11.0-2.0-0.12","3878","2","18","Female","approach_avoid_spark_v1","""event"",""trial"",""time""
""fullscreenenter"",""1"",""1593""
","
","
","""event"",""trial"",""time""
""fullscreenenter"",""1"",""1593""
","
","","","","","","null","<div style=""font-size:60px;"">+</div>","null","","fixation","","","","","","","","","","",""
"aa-learning-trial","214","1076402","0.0-11.0-2.0-1.12","3878","2","18","Female","approach_avoid_spark_v1","""event"",""trial"",""time""
""fullscreenenter"",""1"",""1593""
","
","
","""event"",""trial"",""time""
""fullscreenenter"",""1"",""1593""
","
","","","","","","1046","images/cactus8.png","","","learning","[-1]","0","0","0","cactus","plants","1","1","","neutral","0"
"html-keyboard-response","215","1076909","0.0-11.0-2.0-0.13","3878","2","18","Female","approach_avoid_spark_v1","""event"",""trial"",""time""
""fullscreenenter"",""1"",""1593""
","
","
","""event"",""trial"",""time""
""fullscreenenter"",""1"",""1593""
","
","","","","","","null","<div style=""font-size:60px;"">+</div>","null","","fixation","","","","","","","","","","",""
"aa-learning-trial","216","1079912","0.0-11.0-2.0-1.13","3878","2","18","Female","approach_avoid_spark_v1","""event"",""trial"",""time""
""fullscreenenter"",""1"",""1593""
","
","
","""event"",""trial"",""time""
""fullscreenenter"",""1"",""1593""
","
","","","","","","741","images/cactus6.png","","","learning","[1]","0","0","0","cactus","plants","1","1","","neutral","0"
"html-keyboard-response","217","1080415","0.0-11.0-2.0-0.14","3878","2","18","Female","approach_avoid_spark_v1","""event"",""trial"",""time""
""fullscreenenter"",""1"",""1593""
","
","
","""event"",""trial"",""time""
""fullscreenenter"",""1"",""1593""
","
","","","","","","null","<div style=""font-size:60px;"">+</div>","null","","fixation","","","","","","","","","","",""
"aa-learning-trial","218","1083426","0.0-11.0-2.0-1.14","3878","2","18","Female","approach_avoid_spark_v1","""event"",""trial"",""time""
""fullscreenenter"",""1"",""1593""
","
","
","""event"",""trial"",""time""
""fullscreenenter"",""1"",""1593""
","
","","","","","","1115","images/flower8.png","","","learning","-8","-8","1","1","flower","plants","1","1","","bad","[-6]"
"html-keyboard-response","219","1083936","0.0-11.0-2.0-0.15","3878","2","18","Female","approach_avoid_spark_v1","""event"",""trial"",""time""
""fullscreenenter"",""1"",""1593""
","
","
","""event"",""trial"",""time""
""fullscreenenter"",""1"",""1593""
","
","","","","","","null","<div style=""font-size:60px;"">+</div>","null","","fixation","","","","","","","","","","",""
"aa-learning-trial","220","1086945","0.0-11.0-2.0-1.15","3878","2","18","Female","approach_avoid_spark_v1","""event"",""trial"",""time""
""fullscreenenter"",""1"",""1593""
","
","
","""event"",""trial"",""time""
""fullscreenenter"",""1"",""1593""
","
","","","","","","930.8999999761581","images/cactus2.png","","","learning","1","1","1","1","cactus","plants","1","1","","neutral","0"
"html-keyboard-response","221","1087449","0.0-11.0-2.0-0.16","3878","2","18","Female","approach_avoid_spark_v1","""event"",""trial"",""time""
""fullscreenenter"",""1"",""1593""
","
","
","""event"",""trial"",""time""
""fullscreenenter"",""1"",""1593""
","
","","","","","","null","<div style=""font-size:60px;"">+</div>","null","","fixation","","","","","","","","","","",""
"aa-learning-trial","222","1090467","0.0-11.0-2.0-1.16","3878","2","18","Female","approach_avoid_spark_v1","""event"",""trial"",""time""
""fullscreenenter"",""1"",""1593""
","
","
","""event"",""trial"",""time""
""fullscreenenter"",""1"",""1593""
","
","","","","","","980.1000000238419","images/tree6.png","","","learning","1","1","1","1","tree","plants","1","1","","good","[3]"
"html-keyboard-response","223","1090975","0.0-11.0-2.0-0.17","3878","2","18","Female","approach_avoid_spark_v1","""event"",""trial"",""time""
""fullscreenenter"",""1"",""1593""
","
","
","""event"",""trial"",""time""
""fullscreenenter"",""1"",""1593""
","
","","","","","","null","<div style=""font-size:60px;"">+</div>","null","","fixation","","","","","","","","","","",""
"aa-learning-trial","224","1093989","0.0-11.0-2.0-1.17","3878","2","18","Female","approach_avoid_spark_v1","""event"",""trial"",""time""
""fullscreenenter"",""1"",""1593""
","
","
","""event"",""trial"",""time""
""fullscreenenter"",""1"",""1593""
","
","","","","","","567.5","images/cactus8.png","","","learning","2","0","0","0","cactus","plants","1","1","","neutral","0"
"html-keyboard-response","225","1094496","0.0-11.0-2.0-0.18","3878","2","18","Female","approach_avoid_spark_v1","""event"",""trial"",""time""
""fullscreenenter"",""1"",""1593""
","
","
","""event"",""trial"",""time""
""fullscreenenter"",""1"",""1593""
","
","","","","","","null","<div style=""font-size:60px;"">+</div>","null","","fixation","","","","","","","","","","",""
"aa-learning-trial","226","1097510","0.0-11.0-2.0-1.18","3878","2","18","Female","approach_avoid_spark_v1","""event"",""trial"",""time""
""fullscreenenter"",""1"",""1593""
","
","
","""event"",""trial"",""time""
""fullscreenenter"",""1"",""1593""
","
","","","","","","865.3999999761581","images/flower6.png","","","learning","-7","0","0","0","flower","plants","1","1","","bad","[-6]"
"html-keyboard-response","227","1098016","0.0-11.0-2.0-0.19","3878","2","18","Female","approach_avoid_spark_v1","""event"",""trial"",""time""
""fullscreenenter"",""1"",""1593""
","
","
","""event"",""trial"",""time""
""fullscreenenter"",""1"",""1593""
","
","","","","","","null","<div style=""font-size:60px;"">+</div>","null","","fixation","","","","","","","","","","",""
"aa-learning-trial","228","1101024","0.0-11.0-2.0-1.19","3878","2","18","Female","approach_avoid_spark_v1","""event"",""trial"",""time""
""fullscreenenter"",""1"",""1593""
","
","
","""event"",""trial"",""time""
""fullscreenenter"",""1"",""1593""
","
","","","","","","998.1999999284744","images/cactus6.png","","","learning","3","0","0","0","cactus","plants","1","1","","neutral","0"
"html-keyboard-response","229","1101544","0.0-11.0-2.0-0.20","3878","2","18","Female","approach_avoid_spark_v1","""event"",""trial"",""time""
""fullscreenenter"",""1"",""1593""
","
","
","""event"",""trial"",""time""
""fullscreenenter"",""1"",""1593""
","
","","","","","","null","<div style=""font-size:60px;"">+</div>","null","","fixation","","","","","","","","","","",""
"aa-learning-trial","230","1104553","0.0-11.0-2.0-1.20","3878","2","18","Female","approach_avoid_spark_v1","""event"",""trial"",""time""
""fullscreenenter"",""1"",""1593""
","
","
","""event"",""trial"",""time""
""fullscreenenter"",""1"",""1593""
","
","","","","","","1273.1000000238419","images/cactus5.png","","","learning","1","1","1","1","cactus","plants","1","1","","neutral","0"
"html-keyboard-response","231","1105066","0.0-11.0-2.0-0.21","3878","2","18","Female","approach_avoid_spark_v1","""event"",""trial"",""time""
""fullscreenenter"",""1"",""1593""
","
","
","""event"",""trial"",""time""
""fullscreenenter"",""1"",""1593""
","
","","","","","","null","<div style=""font-size:60px;"">+</div>","null","","fixation","","","","","","","","","","",""
"aa-learning-trial","232","1108071","0.0-11.0-2.0-1.21","3878","2","18","Female","approach_avoid_spark_v1","""event"",""trial"",""time""
""fullscreenenter"",""1"",""1593""
","
","
","""event"",""trial"",""time""
""fullscreenenter"",""1"",""1593""
","
","","","","","","912.5999999046326","images/tree4.png","","","learning","4","0","0","0","tree","plants","1","1","","good","[3]"
"html-keyboard-response","233","1108582","0.0-11.0-2.0-0.22","3878","2","18","Female","approach_avoid_spark_v1","""event"",""trial"",""time""
""fullscreenenter"",""1"",""1593""
","
","
","""event"",""trial"",""time""
""fullscreenenter"",""1"",""1593""
","
","","","","","","null","<div style=""font-size:60px;"">+</div>","null","","fixation","","","","","","","","","","",""
"aa-learning-trial","234","1111592","0.0-11.0-2.0-1.22","3878","2","18","Female","approach_avoid_spark_v1","""event"",""trial"",""time""
""fullscreenenter"",""1"",""1593""
","
","
","""event"",""trial"",""time""
""fullscreenenter"",""1"",""1593""
","
","","","","","","807.5","images/flower6.png","","","learning","-7","0","0","0","flower","plants","1","1","","bad","[-6]"
"html-keyboard-response","235","1112096","0.0-11.0-2.0-0.23","3878","2","18","Female","approach_avoid_spark_v1","""event"",""trial"",""time""
""fullscreenenter"",""1"",""1593""
","
","
","""event"",""trial"",""time""
""fullscreenenter"",""1"",""1593""
","
","","","","","","null","<div style=""font-size:60px;"">+</div>","null","","fixation","","","","","","","","","","",""
"aa-learning-trial","236","1115104","0.0-11.0-2.0-1.23","3878","2","18","Female","approach_avoid_spark_v1","""event"",""trial"",""time""
""fullscreenenter"",""1"",""1593""
","
","
","""event"",""trial"",""time""
