"trial_type","trial_index","time_elapsed","internal_node_id","subject_id","task_condition","age","gender","task_version","interactions","blur_events","focus_events","fullscreenenter_events","fullscreenexit_events","success","timeout","failed_images","failed_audio","failed_video","rt","stimulus","response","button_pressed","task_part","approach_reward","points","key_press","option_selected","stim_cat","task_block","block_condition","block_number","correct","cat_type","mean_cat_reward"
"pavlovia","0","19","0.0-0.0","3871","1","17","Female","approach_avoid_spark_v1","""event"",""trial"",""time""
""fullscreenenter"",""1"",""1874""
","
","
","""event"",""trial"",""time""
""fullscreenenter"",""1"",""1874""
","
","","","","","","","","","","","","","","","","","","","","",""
"fullscreen","1","2861","0.0-1.0","3871","1","17","Female","approach_avoid_spark_v1","""event"",""trial"",""time""
""fullscreenenter"",""1"",""1874""
","
","
","""event"",""trial"",""time""
""fullscreenenter"",""1"",""1874""
","
","true","","","","","","","","","","","","","","","","","","","",""
"preload","2","3091","0.0-2.0","3871","1","17","Female","approach_avoid_spark_v1","""event"",""trial"",""time""
""fullscreenenter"",""1"",""1874""
","
","
","""event"",""trial"",""time""
""fullscreenenter"",""1"",""1874""
","
","true","false","[]","[]","[]","","","","","","","","","","","","","","","",""
"audio-keyboard-response","3","13985","0.0-3.0","3871","1","17","Female","approach_avoid_spark_v1","""event"",""trial"",""time""
""fullscreenenter"",""1"",""1874""
","
","
","""event"",""trial"",""time""
""fullscreenenter"",""1"",""1874""
","
","","","","","","10890.666666666666","audio/beep_loop.wav"," ","","","","","","","","","","","","",""
"audio-button-response","4","16085","0.0-4.0","3871","1","17","Female","approach_avoid_spark_v1","""event"",""trial"",""time""
""fullscreenenter"",""1"",""1874""
","
","
","""event"",""trial"",""time""
""fullscreenenter"",""1"",""1874""
","
","","","","","","2091","audio/shark.wav","4","","","","","","","","","","","","",""
"audio-button-response","5","18462","0.0-5.0","3871","1","17","Female","approach_avoid_spark_v1","""event"",""trial"",""time""
""fullscreenenter"",""1"",""1874""
","
","
","""event"",""trial"",""time""
""fullscreenenter"",""1"",""1874""
","
","","","","","","1376","audio/turtle.wav","1","","","","","","","","","","","","",""
"preload","6","20168","0.0-6.0","3871","1","17","Female","approach_avoid_spark_v1","""event"",""trial"",""time""
""fullscreenenter"",""1"",""1874""
","
","
","""event"",""trial"",""time""
""fullscreenenter"",""1"",""1874""
","
","true","false","[]","[]","[]","","","","","","","","","","","","","","","",""
"html-keyboard-response","7","21855","0.0-7.0","3871","1","17","Female","approach_avoid_spark_v1","""event"",""trial"",""time""
""fullscreenenter"",""1"",""1874""
","
","
","""event"",""trial"",""time""
""fullscreenenter"",""1"",""1874""
","
","","","","","","1684.0999999046326","Welcome to the experiment. Press any key to begin and to advance the instructions."," ","","","","","","","","","","","","",""
"learning-instructions","8","36303","0.0-8.0-0.0-0.0","3871","1","17","Female","approach_avoid_spark_v1","""event"",""trial"",""time""
""fullscreenenter"",""1"",""1874""
","
","
","""event"",""trial"",""time""
""fullscreenenter"",""1"",""1874""
","
","","","","","","7495.100000023842","<p> Welcome! Today you are going to play 6 different rounds of a decision-making game. </p><p> Use the mouse to click next to continue. </p>","","0","instructions","","","","","","","","","","",""
"learning-instructions","9","44363","0.0-8.0-0.0-0.1","3871","1","17","Female","approach_avoid_spark_v1","""event"",""trial"",""time""
""fullscreenenter"",""1"",""1874""
","
","
","""event"",""trial"",""time""
""fullscreenenter"",""1"",""1874""
","
","","","","","","5336.899999976158","<p> You will start with a practice round to learn the rules. </p>","","0","instructions","","","","","","","","","","",""
"learning-instructions","10","48818","0.0-8.0-0.0-0.2","3871","1","17","Female","approach_avoid_spark_v1","""event"",""trial"",""time""
""fullscreenenter"",""1"",""1874""
","
","
","""event"",""trial"",""time""
""fullscreenenter"",""1"",""1874""
","
","","","","","","1002.6000000238419","<p> Your goal in this round is to give out sports equipment to kids. </p></div>","","0","instructions","","","","","","","","","","",""
"learning-instructions","11","60494","0.0-8.0-0.0-0.3","3871","1","17","Female","approach_avoid_spark_v1","""event"",""trial"",""time""
""fullscreenenter"",""1"",""1874""
","
","
","""event"",""trial"",""time""
""fullscreenenter"",""1"",""1874""
","
","","","","","","4134.600000023842","<p> The kids only like some of the equipment.  </p><p> On each turn, you will see a piece of sports equipment.   </p><p> You need to decide whether to give it to the kids or not.  </p>","","0","instructions","","","","","","","","","","",""
"learning-instructions","12","67989","0.0-8.0-0.0-0.4","3871","1","17","Female","approach_avoid_spark_v1","""event"",""trial"",""time""
""fullscreenenter"",""1"",""1874""
","
","
","""event"",""trial"",""time""
""fullscreenenter"",""1"",""1874""
","
","","","","","","2744","<p> You can give them the equipment by pressing 1 and choose not to give it to them by pressing 0. </p><br><div class=""choice-instructions-grid""> <div class=""choice-option""><img src=""images/approach.png"" class=""choice-option-img"" stage=""instructions"" position=""0"" ><div class=""choice-option-text""> Press ""1."" </div></div><div class=""choice-option""><img src=""images/avoid.png"" class=""choice-option-img"" stage=""instructions"" position=""1"" ><div class=""choice-option-text""> Press ""0."" </div></div>","","0","instructions","","","","","","","","","","",""
"learning-instructions","13","78418","0.0-8.0-0.0-0.5","3871","1","17","Female","approach_avoid_spark_v1","""event"",""trial"",""time""
""fullscreenenter"",""1"",""1874""
","
","
","""event"",""trial"",""time""
""fullscreenenter"",""1"",""1874""
","
","","","","","","3039.2999999523163","<p> If you give them a piece of equipment they like, they will be happy! </p><p> But if you give them a piece of equipment they do not like, they will be sad. </p>","","0","instructions","","","","","","","","","","",""
"learning-instructions","14","92364","0.0-8.0-0.0-0.6","3871","1","17","Female","approach_avoid_spark_v1","""event"",""trial"",""time""
""fullscreenenter"",""1"",""1874""
","
","
","""event"",""trial"",""time""
""fullscreenenter"",""1"",""1874""
","
","","","","","","3439.2000000476837","<p> You will earn points based on how you make kids feel. </p><p> If you make them happy, you will WIN anywhere from 1 - 9 points, </p><p> but if you make them sad, you will LOSE anywhere from 1 - 9 points. </p>","","0","instructions","","","","","","","","","","",""
"learning-instructions","15","103757","0.0-8.0-0.0-0.7","3871","1","17","Female","approach_avoid_spark_v1","""event"",""trial"",""time""
""fullscreenenter"",""1"",""1874""
","
","
","""event"",""trial"",""time""
""fullscreenenter"",""1"",""1874""
","
","","","","","","1839.8999999761581","<p> You will see how many points you won or lost in the center of the screen. </p><p> Here is what you would see if you won 6 points: </p><p style=""color:green;font-size:50px;font-weight:bolder"">6</p><p style=""color:green"">The text is GREEN because you WON points.</p>","","0","instructions","","","","","","","","","","",""
"learning-instructions","16","111670","0.0-8.0-0.0-0.8","3871","1","17","Female","approach_avoid_spark_v1","""event"",""trial"",""time""
""fullscreenenter"",""1"",""1874""
","
","
","""event"",""trial"",""time""
""fullscreenenter"",""1"",""1874""
","
","","","","","","2403.7000000476837","<p> And here is what you would see if you lost 4 points: </p><p style=""color:red;font-size:50px;font-weight:bolder"">-4</p><p style=""color:red"">The text is RED because you LOST points. </p>","","0","instructions","","","","","","","","","","",""
"learning-instructions","17","128620","0.0-8.0-0.0-0.9","3871","1","17","Female","approach_avoid_spark_v1","""event"",""trial"",""time""
""fullscreenenter"",""1"",""1874""
","
","
","""event"",""trial"",""time""
""fullscreenenter"",""1"",""1874""
","
","","","","","","2233.7000000476837","<p> Some of the equipment will make the kids VERY happy or sad. </p><p> These pieces of equipment will make you win or lose LOTS of points. </p><p> Other pieces of equipment will only make the kids a little happy or sad. </p><p> These pieces of equipment will make you win or lose small amounts of points. </p>","","0","instructions","","","","","","","","","","",""
"learning-instructions","18","140209","0.0-8.0-0.0-0.10","3871","1","17","Female","approach_avoid_spark_v1","""event"",""trial"",""time""
""fullscreenenter"",""1"",""1874""
","
","
","""event"",""trial"",""time""
""fullscreenenter"",""1"",""1874""
","
","","","","","","959.3999999761581","<p> If you choose not to give them the equipment, you will not win or lose any points. </p><p>  However, in the center of the screen, you will see the number of points you WOULD HAVE won or lost if you had given them the equipment. </p>","","0","instructions","","","","","","","","","","",""
"learning-instructions","19","164121","0.0-8.0-0.0-0.11","3871","1","17","Female","approach_avoid_spark_v1","""event"",""trial"",""time""
""fullscreenenter"",""1"",""1874""
","
","
","""event"",""trial"",""time""
""fullscreenenter"",""1"",""1874""
","
","","","","","","2385.5","<p> Here is what you might see if you did not give the equipment to the kids but it would have made them happy: </p><p style=""color:grey; font-size:50px; display: inline-block; border-spacing: 15px; border-width:3px; border-style:solid; border-color:red"">  &nbsp; 7 &nbsp; </p><p> Remember, in this case, you would not win or lose ANY points because you did not give them the equipment.  </p><p style=""color:grey"">The text is GREY because you earned ZERO points. </p><p style=""color:red"">However, choosing to give the kids the equipment would have made you win points. The box around the text is RED because you chose the worse option. </p>","","0","instructions","","","","","","","","","","",""
"learning-instructions","20","195404","0.0-8.0-0.0-0.12","3871","1","17","Female","approach_avoid_spark_v1","""event"",""trial"",""time""
""fullscreenenter"",""1"",""1874""
","
","
","""event"",""trial"",""time""
""fullscreenenter"",""1"",""1874""
","
","","","","","","10211.799999952316","<p> Here is what you might see if you did not give the equipment to the kids but it would have made them sad: </p><p style=""color:grey;font-size:50px; display: inline-block; border-spacing: 15px; border-width:3px; border-style:solid; border-color:green"">  &nbsp; -8 &nbsp; </p><p> Remember, in this case, you would not win or lose ANY points because you did not give them the equipment.  </p><p style=""color:grey"">The text is GREY because you earned ZERO points. </p><p  style=""color:green""> Choosing to give the kids the equipment would have made you lose points. The box around the text is GREEN because you chose the better option.</p>","","0","instructions","","","","","","","","","","",""
"learning-instructions","21","208799","0.0-8.0-0.0-0.13","3871","1","17","Female","approach_avoid_spark_v1","""event"",""trial"",""time""
""fullscreenenter"",""1"",""1874""
","
","
","""event"",""trial"",""time""
""fullscreenenter"",""1"",""1874""
","
","","","","","","5165","<p> You will have 3 seconds to make each choice. Try to respond before time runs out! </p><p> You will lose 5 points each time you do not make a response. </p>","","0","instructions","","","","","","","","","","",""
"learning-instructions","22","216083","0.0-8.0-0.0-0.14","3871","1","17","Female","approach_avoid_spark_v1","""event"",""trial"",""time""
""fullscreenenter"",""1"",""1874""
","
","
","""event"",""trial"",""time""
""fullscreenenter"",""1"",""1874""
","
","","","","","","1867.1000000238419","<p> This is just a practice round, but in the real game, your bonus payment will depend on your total number of points.","","0","instructions","","","","","","","","","","",""
"learning-instructions","23","226234","0.0-8.0-0.0-0.15","3871","1","17","Female","approach_avoid_spark_v1","""event"",""trial"",""time""
""fullscreenenter"",""1"",""1874""
","
","
","""event"",""trial"",""time""
""fullscreenenter"",""1"",""1874""
","
","","","","","","4390.899999976158","<p> Remember, you can give them the equipment by pressing 1 and choose not to give it to them by pressing 0. </p><br><div class=""choice-instructions-grid""> <div class=""choice-option""><img src=""images/approach.png"" class=""choice-option-img"" stage=""instructions"" position=""0"" ><div class=""choice-option-text""> Press ""1."" </div></div><div class=""choice-option""><img src=""images/avoid.png"" class=""choice-option-img"" stage=""instructions"" position=""1"" ><div class=""choice-option-text""> Press ""0."" </div></div>","","0","instructions","","","","","","","","","","",""
"html-button-response","24","232573","0.0-8.0-1.0","3871","1","17","Female","approach_avoid_spark_v1","""event"",""trial"",""time""
""fullscreenenter"",""1"",""1874""
","
","
","""event"",""trial"",""time""
""fullscreenenter"",""1"",""1874""
","
","","","","","","6234.600000023842","<p> Ready to practice? </p>","0","","","","","","","","","","","","",""
"html-keyboard-response","25","233177","0.0-8.0-2.0-0.0","3871","1","17","Female","approach_avoid_spark_v1","""event"",""trial"",""time""
""fullscreenenter"",""1"",""1874""
","
","
","""event"",""trial"",""time""
""fullscreenenter"",""1"",""1874""
","
","","","","","","null","<div style=""font-size:60px;"">+</div>","null","","fixation","","","","","","","","","","",""
"aa-learning-trial","26","236183","0.0-8.0-2.0-1.0","3871","1","17","Female","approach_avoid_spark_v1","""event"",""trial"",""time""
""fullscreenenter"",""1"",""1874""
","
","
","""event"",""trial"",""time""
""fullscreenenter"",""1"",""1874""
","
","","","","","","2328.600000023842","images/racket4.png","","","learning","-8","-8","1","1","practice","practice","practice","-1","","",""
"html-keyboard-response","27","236685","0.0-8.0-2.0-0.1","3871","1","17","Female","approach_avoid_spark_v1","""event"",""trial"",""time""
""fullscreenenter"",""1"",""1874""
","
","
","""event"",""trial"",""time""
""fullscreenenter"",""1"",""1874""
","
","","","","","","null","<div style=""font-size:60px;"">+</div>","null","","fixation","","","","","","","","","","",""
"aa-learning-trial","28","239690","0.0-8.0-2.0-1.1","3871","1","17","Female","approach_avoid_spark_v1","""event"",""trial"",""time""
""fullscreenenter"",""1"",""1874""
","
","
","""event"",""trial"",""time""
""fullscreenenter"",""1"",""1874""
","
","","","","","","1099.1000000238419","images/ball1.png","","","learning","7","0","0","0","practice","practice","practice","-1","","",""
"html-keyboard-response","29","240192","0.0-8.0-2.0-0.2","3871","1","17","Female","approach_avoid_spark_v1","""event"",""trial"",""time""
""fullscreenenter"",""1"",""1874""
","
","
","""event"",""trial"",""time""
""fullscreenenter"",""1"",""1874""
","
","","","","","","null","<div style=""font-size:60px;"">+</div>","null","","fixation","","","","","","","","","","",""
"aa-learning-trial","30","243197","0.0-8.0-2.0-1.2","3871","1","17","Female","approach_avoid_spark_v1","""event"",""trial"",""time""
""fullscreenenter"",""1"",""1874""
","
","
","""event"",""trial"",""time""
""fullscreenenter"",""1"",""1874""
","
","","","","","","276.5","images/racket3.png","","","learning","7","0","0","0","practice","practice","practice","-1","","",""
"html-keyboard-response","31","243700","0.0-8.0-2.0-0.3","3871","1","17","Female","approach_avoid_spark_v1","""event"",""trial"",""time""
""fullscreenenter"",""1"",""1874""
","
","
","""event"",""trial"",""time""
""fullscreenenter"",""1"",""1874""
","
","","","","","","null","<div style=""font-size:60px;"">+</div>","null","","fixation","","","","","","","","","","",""
"aa-learning-trial","32","246705","0.0-8.0-2.0-1.3","3871","1","17","Female","approach_avoid_spark_v1","""event"",""trial"",""time""
""fullscreenenter"",""1"",""1874""
","
","
","""event"",""trial"",""time""
""fullscreenenter"",""1"",""1874""
","
","","","","","","230.10000002384186","images/ball2.png","","","learning","-5","0","0","0","practice","practice","practice","-1","","",""
"html-keyboard-response","33","247207","0.0-8.0-2.0-0.4","3871","1","17","Female","approach_avoid_spark_v1","""event"",""trial"",""time""
""fullscreenenter"",""1"",""1874""
","
","
","""event"",""trial"",""time""
""fullscreenenter"",""1"",""1874""
","
","","","","","","null","<div style=""font-size:60px;"">+</div>","null","","fixation","","","","","","","","","","",""
"aa-learning-trial","34","250212","0.0-8.0-2.0-1.4","3871","1","17","Female","approach_avoid_spark_v1","""event"",""trial"",""time""
""fullscreenenter"",""1"",""1874""
","
","
","""event"",""trial"",""time""
""fullscreenenter"",""1"",""1874""
","
","","","","","","454.7999999523163","images/ball1.png","","","learning","-7","0","0","0","practice","practice","practice","-1","","",""
"html-keyboard-response","35","250714","0.0-8.0-2.0-0.5","3871","1","17","Female","approach_avoid_spark_v1","""event"",""trial"",""time""
""fullscreenenter"",""1"",""1874""
","
","
","""event"",""trial"",""time""
""fullscreenenter"",""1"",""1874""
","
","","","","","","null","<div style=""font-size:60px;"">+</div>","null","","fixation","","","","","","","","","","",""
"aa-learning-trial","36","253719","0.0-8.0-2.0-1.5","3871","1","17","Female","approach_avoid_spark_v1","""event"",""trial"",""time""
""fullscreenenter"",""1"",""1874""
","
","
","""event"",""trial"",""time""
""fullscreenenter"",""1"",""1874""
","
","","","","","","328.59999990463257","images/ball3.png","","","learning","-6","0","0","0","practice","practice","practice","-1","","",""
"html-keyboard-response","37","254221","0.0-8.0-2.0-0.6","3871","1","17","Female","approach_avoid_spark_v1","""event"",""trial"",""time""
""fullscreenenter"",""1"",""1874""
","
","
","""event"",""trial"",""time""
""fullscreenenter"",""1"",""1874""
","
","","","","","","null","<div style=""font-size:60px;"">+</div>","null","","fixation","","","","","","","","","","",""
"aa-learning-trial","38","257227","0.0-8.0-2.0-1.6","3871","1","17","Female","approach_avoid_spark_v1","""event"",""trial"",""time""
""fullscreenenter"",""1"",""1874""
","
","
","""event"",""trial"",""time""
""fullscreenenter"",""1"",""1874""
","
","","","","","","295.7000000476837","images/ball1.png","","","learning","-2","-2","1","1","practice","practice","practice","-1","","",""
"html-keyboard-response","39","257729","0.0-8.0-2.0-0.7","3871","1","17","Female","approach_avoid_spark_v1","""event"",""trial"",""time""
""fullscreenenter"",""1"",""1874""
","
","
","""event"",""trial"",""time""
""fullscreenenter"",""1"",""1874""
","
","","","","","","null","<div style=""font-size:60px;"">+</div>","null","","fixation","","","","","","","","","","",""
"aa-learning-trial","40","260734","0.0-8.0-2.0-1.7","3871","1","17","Female","approach_avoid_spark_v1","""event"",""trial"",""time""
""fullscreenenter"",""1"",""1874""
","
","
","""event"",""trial"",""time""
""fullscreenenter"",""1"",""1874""
","
","","","","","","263.7999999523163","images/racket3.png","","","learning","-6","-6","1","1","practice","practice","practice","-1","","",""
"html-keyboard-response","41","261236","0.0-8.0-2.0-0.8","3871","1","17","Female","approach_avoid_spark_v1","""event"",""trial"",""time""
""fullscreenenter"",""1"",""1874""
","
","
","""event"",""trial"",""time""
""fullscreenenter"",""1"",""1874""
","
","","","","","","null","<div style=""font-size:60px;"">+</div>","null","","fixation","","","","","","","","","","",""
"aa-learning-trial","42","264241","0.0-8.0-2.0-1.8","3871","1","17","Female","approach_avoid_spark_v1","""event"",""trial"",""time""
""fullscreenenter"",""1"",""1874""
","
","
","""event"",""trial"",""time""
""fullscreenenter"",""1"",""1874""
","
","","","","","","441.5","images/ball1.png","","","learning","-4","-4","1","1","practice","practice","practice","-1","","",""
"html-keyboard-response","43","264743","0.0-8.0-2.0-0.9","3871","1","17","Female","approach_avoid_spark_v1","""event"",""trial"",""time""
""fullscreenenter"",""1"",""1874""
","
","
","""event"",""trial"",""time""
""fullscreenenter"",""1"",""1874""
","
","","","","","","null","<div style=""font-size:60px;"">+</div>","null","","fixation","","","","","","","","","","",""
"aa-learning-trial","44","267747","0.0-8.0-2.0-1.9","3871","1","17","Female","approach_avoid_spark_v1","""event"",""trial"",""time""
""fullscreenenter"",""1"",""1874""
","
","
","""event"",""trial"",""time""
""fullscreenenter"",""1"",""1874""
","
","","","","","","238.69999992847443","images/racket2.png","","","learning","-8","-8","1","1","practice","practice","practice","-1","","",""
"html-keyboard-response","45","268249","0.0-8.0-2.0-0.10","3871","1","17","Female","approach_avoid_spark_v1","""event"",""trial"",""time""
""fullscreenenter"",""1"",""1874""
","
","
","""event"",""trial"",""time""
""fullscreenenter"",""1"",""1874""
","
","","","","","","null","<div style=""font-size:60px;"">+</div>","null","","fixation","","","","","","","","","","",""
"aa-learning-trial","46","271255","0.0-8.0-2.0-1.10","3871","1","17","Female","approach_avoid_spark_v1","""event"",""trial"",""time""
""fullscreenenter"",""1"",""1874""
","
","
","""event"",""trial"",""time""
""fullscreenenter"",""1"",""1874""
","
","","","","","","780.6000000238419","images/ball3.png","","","learning","6","6","1","1","practice","practice","practice","-1","","",""
"html-keyboard-response","47","271756","0.0-8.0-2.0-0.11","3871","1","17","Female","approach_avoid_spark_v1","""event"",""trial"",""time""
""fullscreenenter"",""1"",""1874""
","
","
","""event"",""trial"",""time""
""fullscreenenter"",""1"",""1874""
","
","","","","","","null","<div style=""font-size:60px;"">+</div>","null","","fixation","","","","","","","","","","",""
"aa-learning-trial","48","274761","0.0-8.0-2.0-1.11","3871","1","17","Female","approach_avoid_spark_v1","""event"",""trial"",""time""
""fullscreenenter"",""1"",""1874""
","
","
","""event"",""trial"",""time""
""fullscreenenter"",""1"",""1874""
","
","","","","","","614.7999999523163","images/racket3.png","","","learning","8","8","1","1","practice","practice","practice","-1","","",""
"html-button-response","49","281092","0.0-8.0-3.0","3871","1","17","Female","approach_avoid_spark_v1","""event"",""trial"",""time""
""fullscreenenter"",""1"",""1874""
","
","
","""event"",""trial"",""time""
""fullscreenenter"",""1"",""1874""
","
","","","","","","6326","<p> You earned -14 points in the practice round! </p>","0","","break","","","","","","","","","","",""
"learning-instructions","50","289650","0.0-8.0-4.0-0.0","3871","1","17","Female","approach_avoid_spark_v1","""event"",""trial"",""time""
""fullscreenenter"",""1"",""1874""
","
","
","""event"",""trial"",""time""
""fullscreenenter"",""1"",""1874""
","
","","","","","","2607.2000000476837","<p> It's almost time to start the real game. </p><p> Before you start, we're going to ask you a few questions about how the game works. </p>","","0","instructions","","","","","","","","","","",""
"preload","51","290033","0.0-8.0-5.0","3871","1","17","Female","approach_avoid_spark_v1","""event"",""trial"",""time""
""fullscreenenter"",""1"",""1874""
","
","
","""event"",""trial"",""time""
""fullscreenenter"",""1"",""1874""
","
","true","false","[]","[]","[]","","","","","","","","","","","","","","","",""
"comp-q","52","295774","0.0-8.0-6.0-0.0","3871","1","17","Female","approach_avoid_spark_v1","""event"",""trial"",""time""
""fullscreenenter"",""1"",""1874""
","
","
","""event"",""trial"",""time""
""fullscreenenter"",""1"",""1874""
","
","","","","","","740.2999999523163","<p> <b> True or False? </b> </p><p> If you see a number in GREY, that means you earned that many points. </p>","","1","comp_question","","","","","","","","","true","",""
"comp-q","53","305317","0.0-8.0-6.0-1.0","3871","1","17","Female","approach_avoid_spark_v1","""event"",""trial"",""time""
""fullscreenenter"",""1"",""1874""
","
","
","""event"",""trial"",""time""
""fullscreenenter"",""1"",""1874""
","
","","","","","","1185.6000000238419","<p><b> That's right! </b> If you see a grey number, it means you earned ZERO points. <br> The grey numbers show the points you WOULD HAVE earned if you had made the other choice. </p>","","0","comp_answer","","","","","","","","","","",""
"comp-q","54","310591","0.0-8.0-7.0-0.0","3871","1","17","Female","approach_avoid_spark_v1","""event"",""trial"",""time""
""fullscreenenter"",""1"",""1874""
","
","
","""event"",""trial"",""time""
""fullscreenenter"",""1"",""1874""
","
","","","","","","582.7000000476837","<p> <b> True or False? </b> </p><p> You will have as much time as you want to make each choice. </p>","","1","comp_question","","","","","","","","","true","",""
"comp-q","55","318127","0.0-8.0-7.0-1.0","3871","1","17","Female","approach_avoid_spark_v1","""event"",""trial"",""time""
""fullscreenenter"",""1"",""1874""
","
","
","""event"",""trial"",""time""
""fullscreenenter"",""1"",""1874""
","
","","","","","","3499.7999999523163","<p> <b> That's right! </b> You will only have 3 seconds to make each choice. </p>","","0","comp_answer","","","","","","","","","","",""
"comp-q","56","324991","0.0-8.0-8.0-0.0","3871","1","17","Female","approach_avoid_spark_v1","""event"",""trial"",""time""
""fullscreenenter"",""1"",""1874""
","
","
","""event"",""trial"",""time""
""fullscreenenter"",""1"",""1874""
","
","","","","","","2203.399999976158","<p> <b> True or False? </b> </p><p> You should use the '1' and '0' keys to make your choices. </p>","","0","comp_question","","","","","","","","","true","",""
"comp-q","57","334731","0.0-8.0-8.0-1.0","3871","1","17","Female","approach_avoid_spark_v1","""event"",""trial"",""time""
""fullscreenenter"",""1"",""1874""
","
","
","""event"",""trial"",""time""
""fullscreenenter"",""1"",""1874""
","
","","","","","","5127.5","<p> <b> That's right! </b> You should use the '1' and '0' keys to make each choice. </p>","","0","comp_answer","","","","","","","","","","",""
"learning-instructions","58","342803","0.0-8.0-9.0-0.0","3871","1","17","Female","approach_avoid_spark_v1","""event"",""trial"",""time""
""fullscreenenter"",""1"",""1874""
","
","
","""event"",""trial"",""time""
""fullscreenenter"",""1"",""1874""
","
","","","","","","1807.9000000953674","<p> It's now time to start the real game. </p>Do your best, because the points you earn in the next rounds will influence your bonus payment. </p>","","0","instructions","","","","","","","","","","",""
"preload","59","342965","0.0-9.0-0.0","3871","1","17","Female","approach_avoid_spark_v1","""event"",""trial"",""time""
""fullscreenenter"",""1"",""1874""
","
","
","""event"",""trial"",""time""
""fullscreenenter"",""1"",""1874""
","
","true","false","[]","[]","[]","","","","","","","","","","","","","","","",""
"learning-instructions","60","355615","0.0-9.0-1.0-0.0","3871","1","17","Female","approach_avoid_spark_v1","""event"",""trial"",""time""
""fullscreenenter"",""1"",""1874""
","
","
","""event"",""trial"",""time""
""fullscreenenter"",""1"",""1874""
","
","","","","","","7419.100000023842","<p> Your goal in this round is to take your friend for rides in different vehicles. </p></div>","","0","instructions","","","","","","","","","","",""
"learning-instructions","61","370557","0.0-9.0-1.0-0.1","3871","1","17","Female","approach_avoid_spark_v1","""event"",""trial"",""time""
""fullscreenenter"",""1"",""1874""
","
","
","""event"",""trial"",""time""
""fullscreenenter"",""1"",""1874""
","
","","","","","","4888.600000023842","<p> Your friend enjoys riding in some vehicles but not in others.  </p><p> On each turn, you will see a vehicle.   </p><p> You need to decide whether to take your friend for a ride or not.  </p>","","0","instructions","","","","","","","","","","",""
"learning-instructions","62","380157","0.0-9.0-1.0-0.2","3871","1","17","Female","approach_avoid_spark_v1","""event"",""trial"",""time""
""fullscreenenter"",""1"",""1874""
","
","
","""event"",""trial"",""time""
""fullscreenenter"",""1"",""1874""
","
","","","","","","3000.7000000476837","<p> You can take your friend for a ride in the vehicle by pressing 1 and skip the ride by pressing 0. </p><br><div class=""choice-instructions-grid""> <div class=""choice-option""><img src=""images/approach.png"" class=""choice-option-img"" stage=""instructions"" position=""0"" ><div class=""choice-option-text""> Press ""1."" </div></div><div class=""choice-option""><img src=""images/avoid.png"" class=""choice-option-img"" stage=""instructions"" position=""1"" ><div class=""choice-option-text""> Press ""0."" </div></div>","","0","instructions","","","","","","","","","","",""
"learning-instructions","63","390093","0.0-9.0-1.0-0.3","3871","1","17","Female","approach_avoid_spark_v1","""event"",""trial"",""time""
""fullscreenenter"",""1"",""1874""
","
","
","""event"",""trial"",""time""
""fullscreenenter"",""1"",""1874""
","
","","","","","","1107","<p> If you take them for a ride in a vehicle they like, they will be thrilled! </p><p> But if you take them for a ride in a vehicle they do not like, they will be upset. </p>","","0","instructions","","","","","","","","","","",""
"learning-instructions","64","403558","0.0-9.0-1.0-0.4","3871","1","17","Female","approach_avoid_spark_v1","""event"",""trial"",""time""
""fullscreenenter"",""1"",""1874""
","
","
","""event"",""trial"",""time""
""fullscreenenter"",""1"",""1874""
","
","","","","","","1719.5","<p> You will earn points based on how you made your friend feel. </p><p> If you made him thrilled, you will WIN anywhere from 1 - 9 points, </p><p> but if you made him upset, you will LOSE anywhere from 1 - 9 points. </p>","","0","instructions","","","","","","","","","","",""
"learning-instructions","65","412685","0.0-9.0-1.0-0.5","3871","1","17","Female","approach_avoid_spark_v1","""event"",""trial"",""time""
""fullscreenenter"",""1"",""1874""
","
","
","""event"",""trial"",""time""
""fullscreenenter"",""1"",""1874""
","
","","","","","","2430.7000000476837","<p> You will see how many points you won or lost in the center of the screen. </p><p> Here is what you would see if you won 5 points: </p><p style=""color:green;font-size:50px;font-weight:bolder"">5</p>","","0","instructions","","","","","","","","","","",""
"learning-instructions","66","416225","0.0-9.0-1.0-0.6","3871","1","17","Female","approach_avoid_spark_v1","""event"",""trial"",""time""
""fullscreenenter"",""1"",""1874""
","
","
","""event"",""trial"",""time""
""fullscreenenter"",""1"",""1874""
","
","","","","","","680.2000000476837","<p> And here is what you would see if you lost 3 points: </p><p style=""color:red;font-size:50px;font-weight:bolder"">-3</p>","","0","instructions","","","","","","","","","","",""
"learning-instructions","67","433317","0.0-9.0-1.0-0.7","3871","1","17","Female","approach_avoid_spark_v1","""event"",""trial"",""time""
""fullscreenenter"",""1"",""1874""
","
","
","""event"",""trial"",""time""
""fullscreenenter"",""1"",""1874""
","
","","","","","","1719.3999999761581","<p> Some vehicles will make your friend REALLY thrilled or upset. </p><p> These vehicles will make you win or lose LOTS of points. </p><p> Other vehicles will only make him feel a little thrilled or upset. </p><p> These vehicles will make you win or lose small amounts of points. </p>","","0","instructions","","","","","","","","","","",""
"learning-instructions","68","446392","0.0-9.0-1.0-0.8","3871","1","17","Female","approach_avoid_spark_v1","""event"",""trial"",""time""
""fullscreenenter"",""1"",""1874""
","
","
","""event"",""trial"",""time""
""fullscreenenter"",""1"",""1874""
","
","","","","","","1193.6999999284744","<p> If you choose to skip the ride, you will not win or lose any points. </p><p>  However, in the center of the screen, you will see the number of points you WOULD HAVE won or lost if you had taken your friend for a ride. </p>","","0","instructions","","","","","","","","","","",""
"learning-instructions","69","458996","0.0-9.0-1.0-0.9","3871","1","17","Female","approach_avoid_spark_v1","""event"",""trial"",""time""
""fullscreenenter"",""1"",""1874""
","
","
","""event"",""trial"",""time""
""fullscreenenter"",""1"",""1874""
","
","","","","","","1764.8999999761581","<p> Here is what you might see if you did not take your friend for a ride but he would have enjoyed it: </p><p style=""color:grey; font-size:50px; display: inline-block; border-spacing: 15px; border-width:3px; border-style:solid; border-color:red"">  &nbsp; 6 &nbsp; </p><p> Remember, in this case, you would not win or lose ANY points because you skipped the ride.  </p>","","0","instructions","","","","","","","","","","",""
"learning-instructions","70","467281","0.0-9.0-1.0-0.10","3871","1","17","Female","approach_avoid_spark_v1","""event"",""trial"",""time""
""fullscreenenter"",""1"",""1874""
","
","
","""event"",""trial"",""time""
""fullscreenenter"",""1"",""1874""
","
","","","","","","653","<p> Try to make the best choice for each vehicle because </p><p> at the end of the game, you will earn bonus money based on how many points you earned. </p>","","0","instructions","","","","","","","","","","",""
"learning-instructions","71","476472","0.0-9.0-1.0-0.11","3871","1","17","Female","approach_avoid_spark_v1","""event"",""trial"",""time""
""fullscreenenter"",""1"",""1874""
","
","
","""event"",""trial"",""time""
""fullscreenenter"",""1"",""1874""
","
","","","","","","1001.5","<p> You will have 3 seconds to make each choice. Try to respond before time runs out! </p><p> You will lose 5 points each time you do not make a response. </p>","","0","instructions","","","","","","","","","","",""
"html-keyboard-response","72","477075","0.0-9.0-2.0-0.0","3871","1","17","Female","approach_avoid_spark_v1","""event"",""trial"",""time""
""fullscreenenter"",""1"",""1874""
","
","
","""event"",""trial"",""time""
""fullscreenenter"",""1"",""1874""
","
","","","","","","null","<div style=""font-size:60px;"">+</div>","null","","fixation","","","","","","","","","","",""
"aa-learning-trial","73","480081","0.0-9.0-2.0-1.0","3871","1","17","Female","approach_avoid_spark_v1","""event"",""trial"",""time""
""fullscreenenter"",""1"",""1874""
","
","
","""event"",""trial"",""time""
""fullscreenenter"",""1"",""1874""
","
","","","","","","2052.600000023842","images/truck7.png","","","learning","4","4","1","1","truck","vehicles","1","0","","good","[5]"
"html-keyboard-response","74","480583","0.0-9.0-2.0-0.1","3871","1","17","Female","approach_avoid_spark_v1","""event"",""trial"",""time""
""fullscreenenter"",""1"",""1874""
","
","
","""event"",""trial"",""time""
""fullscreenenter"",""1"",""1874""
","
","","","","","","null","<div style=""font-size:60px;"">+</div>","null","","fixation","","","","","","","","","","",""
"aa-learning-trial","75","483588","0.0-9.0-2.0-1.1","3871","1","17","Female","approach_avoid_spark_v1","""event"",""trial"",""time""
""fullscreenenter"",""1"",""1874""
","
","
","""event"",""trial"",""time""
""fullscreenenter"",""1"",""1874""
","
","","","","","","1186.8000000715256","images/truck3.png","","","learning","5","0","0","0","truck","vehicles","1","0","","good","[5]"
"html-keyboard-response","76","484091","0.0-9.0-2.0-0.2","3871","1","17","Female","approach_avoid_spark_v1","""event"",""trial"",""time""
""fullscreenenter"",""1"",""1874""
","
","
","""event"",""trial"",""time""
""fullscreenenter"",""1"",""1874""
","
","","","","","","null","<div style=""font-size:60px;"">+</div>","null","","fixation","","","","","","","","","","",""
"aa-learning-trial","77","487096","0.0-9.0-2.0-1.2","3871","1","17","Female","approach_avoid_spark_v1","""event"",""trial"",""time""
""fullscreenenter"",""1"",""1874""
","
","
","""event"",""trial"",""time""
""fullscreenenter"",""1"",""1874""
","
","","","","","","1264","images/train5.png","","","learning","-3","0","0","0","train","vehicles","1","0","","bad","[-3]"
"html-keyboard-response","78","487599","0.0-9.0-2.0-0.3","3871","1","17","Female","approach_avoid_spark_v1","""event"",""trial"",""time""
""fullscreenenter"",""1"",""1874""
","
","
","""event"",""trial"",""time""
""fullscreenenter"",""1"",""1874""
","
","","","","","","null","<div style=""font-size:60px;"">+</div>","null","","fixation","","","","","","","","","","",""
"aa-learning-trial","79","490604","0.0-9.0-2.0-1.3","3871","1","17","Female","approach_avoid_spark_v1","""event"",""trial"",""time""
""fullscreenenter"",""1"",""1874""
","
","
","""event"",""trial"",""time""
""fullscreenenter"",""1"",""1874""
","
","","","","","","992","images/plane3.png","","","learning","-2","-2","1","1","plane","vehicles","1","0","","neutral","0"
"html-keyboard-response","80","491106","0.0-9.0-2.0-0.4","3871","1","17","Female","approach_avoid_spark_v1","""event"",""trial"",""time""
""fullscreenenter"",""1"",""1874""
","
","
","""event"",""trial"",""time""
""fullscreenenter"",""1"",""1874""
","
","","","","","","null","<div style=""font-size:60px;"">+</div>","null","","fixation","","","","","","","","","","",""
"aa-learning-trial","81","494112","0.0-9.0-2.0-1.4","3871","1","17","Female","approach_avoid_spark_v1","""event"",""trial"",""time""
""fullscreenenter"",""1"",""1874""
","
","
","""event"",""trial"",""time""
""fullscreenenter"",""1"",""1874""
","
","","","","","","1420.5","images/train3.png","","","learning","-2","0","0","0","train","vehicles","1","0","","bad","[-3]"
"html-keyboard-response","82","494615","0.0-9.0-2.0-0.5","3871","1","17","Female","approach_avoid_spark_v1","""event"",""trial"",""time""
""fullscreenenter"",""1"",""1874""
","
","
","""event"",""trial"",""time""
""fullscreenenter"",""1"",""1874""
","
","","","","","","null","<div style=""font-size:60px;"">+</div>","null","","fixation","","","","","","","","","","",""
"aa-learning-trial","83","497620","0.0-9.0-2.0-1.5","3871","1","17","Female","approach_avoid_spark_v1","""event"",""trial"",""time""
""fullscreenenter"",""1"",""1874""
","
","
","""event"",""trial"",""time""
""fullscreenenter"",""1"",""1874""
","
","","","","","","1261.1000000238419","images/plane7.png","","","learning","2","2","1","1","plane","vehicles","1","0","","neutral","0"
"html-keyboard-response","84","498122","0.0-9.0-2.0-0.6","3871","1","17","Female","approach_avoid_spark_v1","""event"",""trial"",""time""
""fullscreenenter"",""1"",""1874""
","
","
","""event"",""trial"",""time""
""fullscreenenter"",""1"",""1874""
","
","","","","","","null","<div style=""font-size:60px;"">+</div>","null","","fixation","","","","","","","","","","",""
"aa-learning-trial","85","501128","0.0-9.0-2.0-1.6","3871","1","17","Female","approach_avoid_spark_v1","""event"",""trial"",""time""
""fullscreenenter"",""1"",""1874""
","
","
","""event"",""trial"",""time""
""fullscreenenter"",""1"",""1874""
","
","","","","","","678.3999999761581","images/truck3.png","","","learning","7","7","1","1","truck","vehicles","1","0","","good","[5]"
"html-keyboard-response","86","501631","0.0-9.0-2.0-0.7","3871","1","17","Female","approach_avoid_spark_v1","""event"",""trial"",""time""
""fullscreenenter"",""1"",""1874""
","
","
","""event"",""trial"",""time""
""fullscreenenter"",""1"",""1874""
","
","","","","","","null","<div style=""font-size:60px;"">+</div>","null","","fixation","","","","","","","","","","",""
"aa-learning-trial","87","504637","0.0-9.0-2.0-1.7","3871","1","17","Female","approach_avoid_spark_v1","""event"",""trial"",""time""
""fullscreenenter"",""1"",""1874""
","
","
","""event"",""trial"",""time""
""fullscreenenter"",""1"",""1874""
","
","","","","","","664.7000000476837","images/plane3.png","","","learning","[-1]","-1","1","1","plane","vehicles","1","0","","neutral","0"
"html-keyboard-response","88","505140","0.0-9.0-2.0-0.8","3871","1","17","Female","approach_avoid_spark_v1","""event"",""trial"",""time""
""fullscreenenter"",""1"",""1874""
","
","
","""event"",""trial"",""time""
""fullscreenenter"",""1"",""1874""
","
","","","","","","null","<div style=""font-size:60px;"">+</div>","null","","fixation","","","","","","","","","","",""
"aa-learning-trial","89","508146","0.0-9.0-2.0-1.8","3871","1","17","Female","approach_avoid_spark_v1","""event"",""trial"",""time""
""fullscreenenter"",""1"",""1874""
","
","
","""event"",""trial"",""time""
""fullscreenenter"",""1"",""1874""
","
","","","","","","1051.9000000953674","images/truck5.png","","","learning","6","6","1","1","truck","vehicles","1","0","","good","[5]"
"html-keyboard-response","90","508648","0.0-9.0-2.0-0.9","3871","1","17","Female","approach_avoid_spark_v1","""event"",""trial"",""time""
""fullscreenenter"",""1"",""1874""
","
","
","""event"",""trial"",""time""
""fullscreenenter"",""1"",""1874""
","
","","","","","","null","<div style=""font-size:60px;"">+</div>","null","","fixation","","","","","","","","","","",""
"aa-learning-trial","91","511653","0.0-9.0-2.0-1.9","3871","1","17","Female","approach_avoid_spark_v1","""event"",""trial"",""time""
""fullscreenenter"",""1"",""1874""
","
","
","""event"",""trial"",""time""
""fullscreenenter"",""1"",""1874""
","
","","","","","","1121","images/plane1.png","","","learning","1","1","1","1","plane","vehicles","1","0","","neutral","0"
"html-keyboard-response","92","512155","0.0-9.0-2.0-0.10","3871","1","17","Female","approach_avoid_spark_v1","""event"",""trial"",""time""
""fullscreenenter"",""1"",""1874""
","
","
","""event"",""trial"",""time""
""fullscreenenter"",""1"",""1874""
","
","","","","","","null","<div style=""font-size:60px;"">+</div>","null","","fixation","","","","","","","","","","",""
"aa-learning-trial","93","515161","0.0-9.0-2.0-1.10","3871","1","17","Female","approach_avoid_spark_v1","""event"",""trial"",""time""
""fullscreenenter"",""1"",""1874""
","
","
","""event"",""trial"",""time""
""fullscreenenter"",""1"",""1874""
","
","","","","","","1094","images/train3.png","","","learning","-4","0","0","0","train","vehicles","1","0","","bad","[-3]"
"html-keyboard-response","94","515664","0.0-9.0-2.0-0.11","3871","1","17","Female","approach_avoid_spark_v1","""event"",""trial"",""time""
""fullscreenenter"",""1"",""1874""
","
","
","""event"",""trial"",""time""
""fullscreenenter"",""1"",""1874""
","
","","","","","","null","<div style=""font-size:60px;"">+</div>","null","","fixation","","","","","","","","","","",""
"aa-learning-trial","95","518669","0.0-9.0-2.0-1.11","3871","1","17","Female","approach_avoid_spark_v1","""event"",""trial"",""time""
""fullscreenenter"",""1"",""1874""
","
","
","""event"",""trial"",""time""
""fullscreenenter"",""1"",""1874""
","
","","","","","","729.5999999046326","images/train1.png","","","learning","-6","-6","1","1","train","vehicles","1","0","","bad","[-3]"
"html-keyboard-response","96","519172","0.0-9.0-2.0-0.12","3871","1","17","Female","approach_avoid_spark_v1","""event"",""trial"",""time""
""fullscreenenter"",""1"",""1874""
","
","
","""event"",""trial"",""time""
""fullscreenenter"",""1"",""1874""
","
","","","","","","null","<div style=""font-size:60px;"">+</div>","null","","fixation","","","","","","","","","","",""
"aa-learning-trial","97","522177","0.0-9.0-2.0-1.12","3871","1","17","Female","approach_avoid_spark_v1","""event"",""trial"",""time""
""fullscreenenter"",""1"",""1874""
","
","
","""event"",""trial"",""time""
""fullscreenenter"",""1"",""1874""
","
","","","","","","649.8999999761581","images/train1.png","","","learning","-4","0","0","0","train","vehicles","1","0","","bad","[-3]"
"html-keyboard-response","98","522680","0.0-9.0-2.0-0.13","3871","1","17","Female","approach_avoid_spark_v1","""event"",""trial"",""time""
""fullscreenenter"",""1"",""1874""
","
","
","""event"",""trial"",""time""
""fullscreenenter"",""1"",""1874""
","
","","","","","","null","<div style=""font-size:60px;"">+</div>","null","","fixation","","","","","","","","","","",""
"aa-learning-trial","99","525686","0.0-9.0-2.0-1.13","3871","1","17","Female","approach_avoid_spark_v1","""event"",""trial"",""time""
""fullscreenenter"",""1"",""1874""
","
","
","""event"",""trial"",""time""
""fullscreenenter"",""1"",""1874""
","
","","","","","","786.8000000715256","images/truck7.png","","","learning","5","5","1","1","truck","vehicles","1","0","","good","[5]"
"html-keyboard-response","100","526188","0.0-9.0-2.0-0.14","3871","1","17","Female","approach_avoid_spark_v1","""event"",""trial"",""time""
""fullscreenenter"",""1"",""1874""
","
","
","""event"",""trial"",""time""
""fullscreenenter"",""1"",""1874""
","
","","","","","","null","<div style=""font-size:60px;"">+</div>","null","","fixation","","","","","","","","","","",""
"aa-learning-trial","101","529194","0.0-9.0-2.0-1.14","3871","1","17","Female","approach_avoid_spark_v1","""event"",""trial"",""time""
""fullscreenenter"",""1"",""1874""
","
","
","""event"",""trial"",""time""
""fullscreenenter"",""1"",""1874""
","
","","","","","","1362.5","images/plane1.png","","","learning","1","1","1","1","plane","vehicles","1","0","","neutral","0"
"html-keyboard-response","102","529697","0.0-9.0-2.0-0.15","3871","1","17","Female","approach_avoid_spark_v1","""event"",""trial"",""time""
""fullscreenenter"",""1"",""1874""
","
","
","""event"",""trial"",""time""
""fullscreenenter"",""1"",""1874""
","
","","","","","","null","<div style=""font-size:60px;"">+</div>","null","","fixation","","","","","","","","","","",""
"aa-learning-trial","103","532703","0.0-9.0-2.0-1.15","3871","1","17","Female","approach_avoid_spark_v1","""event"",""trial"",""time""
""fullscreenenter"",""1"",""1874""
","
","
","""event"",""trial"",""time""
""fullscreenenter"",""1"",""1874""
","
","","","","","","1016.5","images/plane4.png","","","learning","2","2","1","1","plane","vehicles","1","0","","neutral","0"
"html-keyboard-response","104","533205","0.0-9.0-2.0-0.16","3871","1","17","Female","approach_avoid_spark_v1","""event"",""trial"",""time""
""fullscreenenter"",""1"",""1874""
","
","
","""event"",""trial"",""time""
""fullscreenenter"",""1"",""1874""
","
","","","","","","null","<div style=""font-size:60px;"">+</div>","null","","fixation","","","","","","","","","","",""
"aa-learning-trial","105","536211","0.0-9.0-2.0-1.16","3871","1","17","Female","approach_avoid_spark_v1","""event"",""trial"",""time""
""fullscreenenter"",""1"",""1874""
","
","
","""event"",""trial"",""time""
""fullscreenenter"",""1"",""1874""
","
","","","","","","758.6000000238419","images/plane1.png","","","learning","2","2","1","1","plane","vehicles","1","0","","neutral","0"
"html-keyboard-response","106","536714","0.0-9.0-2.0-0.17","3871","1","17","Female","approach_avoid_spark_v1","""event"",""trial"",""time""
""fullscreenenter"",""1"",""1874""
","
","
","""event"",""trial"",""time""
""fullscreenenter"",""1"",""1874""
","
","","","","","","null","<div style=""font-size:60px;"">+</div>","null","","fixation","","","","","","","","","","",""
"aa-learning-trial","107","539718","0.0-9.0-2.0-1.17","3871","1","17","Female","approach_avoid_spark_v1","""event"",""trial"",""time""
""fullscreenenter"",""1"",""1874""
","
","
","""event"",""trial"",""time""
""fullscreenenter"",""1"",""1874""
","
","","","","","","2296.3000000715256","images/truck5.png","","","learning","4","0","0","0","truck","vehicles","1","0","","good","[5]"
"html-keyboard-response","108","540220","0.0-9.0-2.0-0.18","3871","1","17","Female","approach_avoid_spark_v1","""event"",""trial"",""time""
""fullscreenenter"",""1"",""1874""
","
","
","""event"",""trial"",""time""
""fullscreenenter"",""1"",""1874""
","
","","","","","","null","<div style=""font-size:60px;"">+</div>","null","","fixation","","","","","","","","","","",""
"aa-learning-trial","109","543225","0.0-9.0-2.0-1.18","3871","1","17","Female","approach_avoid_spark_v1","""event"",""trial"",""time""
""fullscreenenter"",""1"",""1874""
","
","
","""event"",""trial"",""time""
""fullscreenenter"",""1"",""1874""
","
","","","","","","647.7999999523163","images/truck3.png","","","learning","7","7","1","1","truck","vehicles","1","0","","good","[5]"
"html-keyboard-response","110","543727","0.0-9.0-2.0-0.19","3871","1","17","Female","approach_avoid_spark_v1","""event"",""trial"",""time""
""fullscreenenter"",""1"",""1874""
","
","
","""event"",""trial"",""time""
""fullscreenenter"",""1"",""1874""
","
","","","","","","null","<div style=""font-size:60px;"">+</div>","null","","fixation","","","","","","","","","","",""
"aa-learning-trial","111","546732","0.0-9.0-2.0-1.19","3871","1","17","Female","approach_avoid_spark_v1","""event"",""trial"",""time""
""fullscreenenter"",""1"",""1874""
","
","
","""event"",""trial"",""time""
""fullscreenenter"",""1"",""1874""
","
","","","","","","1493.2000000476837","images/plane8.png","","","learning","2","0","0","0","plane","vehicles","1","0","","neutral","0"
"html-keyboard-response","112","547233","0.0-9.0-2.0-0.20","3871","1","17","Female","approach_avoid_spark_v1","""event"",""trial"",""time""
""fullscreenenter"",""1"",""1874""
","
","
","""event"",""trial"",""time""
""fullscreenenter"",""1"",""1874""
","
","","","","","","null","<div style=""font-size:60px;"">+</div>","null","","fixation","","","","","","","","","","",""
"aa-learning-trial","113","550238","0.0-9.0-2.0-1.20","3871","1","17","Female","approach_avoid_spark_v1","""event"",""trial"",""time""
""fullscreenenter"",""1"",""1874""
","
","
","""event"",""trial"",""time""
""fullscreenenter"",""1"",""1874""
","
","","","","","","1188.8000000715256","images/plane3.png","","","learning","-2","0","0","0","plane","vehicles","1","0","","neutral","0"
"html-keyboard-response","114","550740","0.0-9.0-2.0-0.21","3871","1","17","Female","approach_avoid_spark_v1","""event"",""trial"",""time""
""fullscreenenter"",""1"",""1874""
","
","
","""event"",""trial"",""time""
""fullscreenenter"",""1"",""1874""
","
","","","","","","null","<div style=""font-size:60px;"">+</div>","null","","fixation","","","","","","","","","","",""
"aa-learning-trial","115","553744","0.0-9.0-2.0-1.21","3871","1","17","Female","approach_avoid_spark_v1","""event"",""trial"",""time""
""fullscreenenter"",""1"",""1874""
","
","
","""event"",""trial"",""time""
""fullscreenenter"",""1"",""1874""
","
","","","","","","1147.6000000238419","images/train3.png","","","learning","-5","-5","1","1","train","vehicles","1","0","","bad","[-3]"
"html-keyboard-response","116","554245","0.0-9.0-2.0-0.22","3871","1","17","Female","approach_avoid_spark_v1","""event"",""trial"",""time""
""fullscreenenter"",""1"",""1874""
","
","
","""event"",""trial"",""time""
""fullscreenenter"",""1"",""1874""
","
","","","","","","null","<div style=""font-size:60px;"">+</div>","null","","fixation","","","","","","","","","","",""
"aa-learning-trial","117","557250","0.0-9.0-2.0-1.22","3871","1","17","Female","approach_avoid_spark_v1","""event"",""trial"",""time""
""fullscreenenter"",""1"",""1874""
","
","
","""event"",""trial"",""time""
""fullscreenenter"",""1"",""1874""
","
","","","","","","703.7000000476837","images/plane3.png","","","learning","1","1","1","1","plane","vehicles","1","0","","neutral","0"
"html-keyboard-response","118","557752","0.0-9.0-2.0-0.23","3871","1","17","Female","approach_avoid_spark_v1","""event"",""trial"",""time""
""fullscreenenter"",""1"",""1874""
","
","
","""event"",""trial"",""time""
""fullscreenenter"",""1"",""1874""
","
","","","","","","null","<div style=""font-size:60px;"">+</div>","null","","fixation","","","","","","","","","","",""
"aa-learning-trial","119","560757","0.0-9.0-2.0-1.23","3871","1","17","Female","approach_avoid_spark_v1","""event"",""trial"",""time""
""fullscreenenter"",""1"",""1874""
","
","
","""event"",""trial"",""time""
""fullscreenenter"",""1"",""1874""
","
","","","","","","599.2999999523163","images/truck3.png","","","learning","5","5","1","1","truck","vehicles","1","0","","good","[5]"
"html-keyboard-response","120","561258","0.0-9.0-2.0-0.24","3871","1","17","Female","approach_avoid_spark_v1","""event"",""trial"",""time""
""fullscreenenter"",""1"",""1874""
","
","
","""event"",""trial"",""time""
""fullscreenenter"",""1"",""1874""
","
","","","","","","null","<div style=""font-size:60px;"">+</div>","null","","fixation","","","","","","","","","","",""
"aa-learning-trial","121","564263","0.0-9.0-2.0-1.24","3871","1","17","Female","approach_avoid_spark_v1","""event"",""trial"",""time""
""fullscreenenter"",""1"",""1874""
","
","
","""event"",""trial"",""time""
""fullscreenenter"",""1"",""1874""
","
","","","","","","973.6999999284744","images/truck7.png","","","learning","4","4","1","1","truck","vehicles","1","0","","good","[5]"
"html-keyboard-response","122","564765","0.0-9.0-2.0-0.25","3871","1","17","Female","approach_avoid_spark_v1","""event"",""trial"",""time""
""fullscreenenter"",""1"",""1874""
","
","
","""event"",""trial"",""time""
""fullscreenenter"",""1"",""1874""
","
","","","","","","null","<div style=""font-size:60px;"">+</div>","null","","fixation","","","","","","","","","","",""
"aa-learning-trial","123","567769","0.0-9.0-2.0-1.25","3871","1","17","Female","approach_avoid_spark_v1","""event"",""trial"",""time""
""fullscreenenter"",""1"",""1874""
","
","
","""event"",""trial"",""time""
""fullscreenenter"",""1"",""1874""
","
","","","","","","2080.899999976158","images/train1.png","","","learning","-4","-4","1","1","train","vehicles","1","0","","bad","[-3]"
"html-keyboard-response","124","568271","0.0-9.0-2.0-0.26","3871","1","17","Female","approach_avoid_spark_v1","""event"",""trial"",""time""
""fullscreenenter"",""1"",""1874""
","
","
","""event"",""trial"",""time""
""fullscreenenter"",""1"",""1874""
","
","","","","","","null","<div style=""font-size:60px;"">+</div>","null","","fixation","","","","","","","","","","",""
"aa-learning-trial","125","571276","0.0-9.0-2.0-1.26","3871","1","17","Female","approach_avoid_spark_v1","""event"",""trial"",""time""
""fullscreenenter"",""1"",""1874""
","
","
","""event"",""trial"",""time""
""fullscreenenter"",""1"",""1874""
","
","","","","","","1170.1000000238419","images/train3.png","","","learning","-4","-4","1","1","train","vehicles","1","0","","bad","[-3]"
"html-keyboard-response","126","571777","0.0-9.0-2.0-0.27","3871","1","17","Female","approach_avoid_spark_v1","""event"",""trial"",""time""
""fullscreenenter"",""1"",""1874""
","
","
","""event"",""trial"",""time""
""fullscreenenter"",""1"",""1874""
","
","","","","","","null","<div style=""font-size:60px;"">+</div>","null","","fixation","","","","","","","","","","",""
"aa-learning-trial","127","574781","0.0-9.0-2.0-1.27","3871","1","17","Female","approach_avoid_spark_v1","""event"",""trial"",""time""
""fullscreenenter"",""1"",""1874""
","
","
","""event"",""trial"",""time""
""fullscreenenter"",""1"",""1874""
","
","","","","","","687.6999999284744","images/train1.png","","","learning","-4","0","0","0","train","vehicles","1","0","","bad","[-3]"
"html-keyboard-response","128","575283","0.0-9.0-2.0-0.28","3871","1","17","Female","approach_avoid_spark_v1","""event"",""trial"",""time""
""fullscreenenter"",""1"",""1874""
","
","
","""event"",""trial"",""time""
""fullscreenenter"",""1"",""1874""
","
","","","","","","null","<div style=""font-size:60px;"">+</div>","null","","fixation","","","","","","","","","","",""
"aa-learning-trial","129","578287","0.0-9.0-2.0-1.28","3871","1","17","Female","approach_avoid_spark_v1","""event"",""trial"",""time""
""fullscreenenter"",""1"",""1874""
","
","
","""event"",""trial"",""time""
""fullscreenenter"",""1"",""1874""
","
","","","","","","1419.1000000238419","images/train6.png","","","learning","-2","0","0","0","train","vehicles","1","0","","bad","[-3]"
"html-keyboard-response","130","578789","0.0-9.0-2.0-0.29","3871","1","17","Female","approach_avoid_spark_v1","""event"",""trial"",""time""
""fullscreenenter"",""1"",""1874""
","
","
","""event"",""trial"",""time""
""fullscreenenter"",""1"",""1874""
","
","","","","","","null","<div style=""font-size:60px;"">+</div>","null","","fixation","","","","","","","","","","",""
"aa-learning-trial","131","581793","0.0-9.0-2.0-1.29","3871","1","17","Female","approach_avoid_spark_v1","""event"",""trial"",""time""
""fullscreenenter"",""1"",""1874""
","
","
","""event"",""trial"",""time""
""fullscreenenter"",""1"",""1874""
","
","","","","","","653.7999999523163","images/train3.png","","","learning","-1","0","0","0","train","vehicles","1","0","","bad","[-3]"
"html-keyboard-response","132","582295","0.0-9.0-2.0-0.30","3871","1","17","Female","approach_avoid_spark_v1","""event"",""trial"",""time""
""fullscreenenter"",""1"",""1874""
","
","
","""event"",""trial"",""time""
""fullscreenenter"",""1"",""1874""
","
","","","","","","null","<div style=""font-size:60px;"">+</div>","null","","fixation","","","","","","","","","","",""
"aa-learning-trial","133","585300","0.0-9.0-2.0-1.30","3871","1","17","Female","approach_avoid_spark_v1","""event"",""trial"",""time""
""fullscreenenter"",""1"",""1874""
","
","
","""event"",""trial"",""time""
""fullscreenenter"",""1"",""1874""
","
","","","","","","480.3000000715256","images/train3.png","","","learning","-5","0","0","0","train","vehicles","1","0","","bad","[-3]"
"html-keyboard-response","134","585802","0.0-9.0-2.0-0.31","3871","1","17","Female","approach_avoid_spark_v1","""event"",""trial"",""time""
""fullscreenenter"",""1"",""1874""
","
","
","""event"",""trial"",""time""
""fullscreenenter"",""1"",""1874""
","
","","","","","","null","<div style=""font-size:60px;"">+</div>","null","","fixation","","","","","","","","","","",""
"aa-learning-trial","135","588807","0.0-9.0-2.0-1.31","3871","1","17","Female","approach_avoid_spark_v1","""event"",""trial"",""time""
""fullscreenenter"",""1"",""1874""
","
","
","""event"",""trial"",""time""
""fullscreenenter"",""1"",""1874""
","
","","","","","","437.7999999523163","images/truck3.png","","","learning","6","6","1","1","truck","vehicles","1","0","","good","[5]"
"html-keyboard-response","136","589309","0.0-9.0-2.0-0.32","3871","1","17","Female","approach_avoid_spark_v1","""event"",""trial"",""time""
""fullscreenenter"",""1"",""1874""
","
","
","""event"",""trial"",""time""
""fullscreenenter"",""1"",""1874""
","
","","","","","","null","<div style=""font-size:60px;"">+</div>","null","","fixation","","","","","","","","","","",""
"aa-learning-trial","137","592314","0.0-9.0-2.0-1.32","3871","1","17","Female","approach_avoid_spark_v1","""event"",""trial"",""time""
""fullscreenenter"",""1"",""1874""
","
","
","""event"",""trial"",""time""
""fullscreenenter"",""1"",""1874""
","
","","","","","","1572","images/plane3.png","","","learning","[1]","1","1","1","plane","vehicles","1","0","","neutral","0"
"html-keyboard-response","138","592815","0.0-9.0-2.0-0.33","3871","1","17","Female","approach_avoid_spark_v1","""event"",""trial"",""time""
""fullscreenenter"",""1"",""1874""
","
","
","""event"",""trial"",""time""
""fullscreenenter"",""1"",""1874""
","
","","","","","","null","<div style=""font-size:60px;"">+</div>","null","","fixation","","","","","","","","","","",""
"aa-learning-trial","139","595820","0.0-9.0-2.0-1.33","3871","1","17","Female","approach_avoid_spark_v1","""event"",""trial"",""time""
""fullscreenenter"",""1"",""1874""
","
","
","""event"",""trial"",""time""
""fullscreenenter"",""1"",""1874""
","
","","","","","","557.2000000476837","images/truck3.png","","","learning","5","5","1","1","truck","vehicles","1","0","","good","[5]"
"html-keyboard-response","140","596322","0.0-9.0-2.0-0.34","3871","1","17","Female","approach_avoid_spark_v1","""event"",""trial"",""time""
""fullscreenenter"",""1"",""1874""
","
","
","""event"",""trial"",""time""
""fullscreenenter"",""1"",""1874""
","
","","","","","","null","<div style=""font-size:60px;"">+</div>","null","","fixation","","","","","","","","","","",""
"aa-learning-trial","141","599327","0.0-9.0-2.0-1.34","3871","1","17","Female","approach_avoid_spark_v1","""event"",""trial"",""time""
""fullscreenenter"",""1"",""1874""
","
","
","""event"",""trial"",""time""
""fullscreenenter"",""1"",""1874""
","
","","","","","","953.7000000476837","images/plane7.png","","","learning","[1]","1","1","1","plane","vehicles","1","0","","neutral","0"
"html-keyboard-response","142","599829","0.0-9.0-2.0-0.35","3871","1","17","Female","approach_avoid_spark_v1","""event"",""trial"",""time""
""fullscreenenter"",""1"",""1874""
","
","
","""event"",""trial"",""time""
""fullscreenenter"",""1"",""1874""
","
","","","","","","null","<div style=""font-size:60px;"">+</div>","null","","fixation","","","","","","","","","","",""
"aa-learning-trial","143","602834","0.0-9.0-2.0-1.35","3871","1","17","Female","approach_avoid_spark_v1","""event"",""trial"",""time""
""fullscreenenter"",""1"",""1874""
","
","
","""event"",""trial"",""time""
""fullscreenenter"",""1"",""1874""
","
","","","","","","1237","images/truck4.png","","","learning","2","2","1","1","truck","vehicles","1","0","","good","[5]"
"html-keyboard-response","144","603336","0.0-9.0-2.0-0.36","3871","1","17","Female","approach_avoid_spark_v1","""event"",""trial"",""time""
""fullscreenenter"",""1"",""1874""
","
","
","""event"",""trial"",""time""
""fullscreenenter"",""1"",""1874""
","
","","","","","","null","<div style=""font-size:60px;"">+</div>","null","","fixation","","","","","","","","","","",""
"aa-learning-trial","145","606341","0.0-9.0-2.0-1.36","3871","1","17","Female","approach_avoid_spark_v1","""event"",""trial"",""time""
""fullscreenenter"",""1"",""1874""
","
","
","""event"",""trial"",""time""
""fullscreenenter"",""1"",""1874""
","
","","","","","","1829.7999999523163","images/truck7.png","","","learning","4","4","1","1","truck","vehicles","1","0","","good","[5]"
"html-keyboard-response","146","606842","0.0-9.0-2.0-0.37","3871","1","17","Female","approach_avoid_spark_v1","""event"",""trial"",""time""
""fullscreenenter"",""1"",""1874""
","
","
","""event"",""trial"",""time""
""fullscreenenter"",""1"",""1874""
","
","","","","","","null","<div style=""font-size:60px;"">+</div>","null","","fixation","","","","","","","","","","",""
"aa-learning-trial","147","609846","0.0-9.0-2.0-1.37","3871","1","17","Female","approach_avoid_spark_v1","""event"",""trial"",""time""
""fullscreenenter"",""1"",""1874""
","
","
","""event"",""trial"",""time""
""fullscreenenter"",""1"",""1874""
","
","","","","","","1132.8000000715256","images/plane1.png","","","learning","[1]","1","1","1","plane","vehicles","1","0","","neutral","0"
"html-keyboard-response","148","610349","0.0-9.0-2.0-0.38","3871","1","17","Female","approach_avoid_spark_v1","""event"",""trial"",""time""
""fullscreenenter"",""1"",""1874""
","
","
","""event"",""trial"",""time""
""fullscreenenter"",""1"",""1874""
","
","","","","","","null","<div style=""font-size:60px;"">+</div>","null","","fixation","","","","","","","","","","",""
"aa-learning-trial","149","613354","0.0-9.0-2.0-1.38","3871","1","17","Female","approach_avoid_spark_v1","""event"",""trial"",""time""
""fullscreenenter"",""1"",""1874""
","
","
","""event"",""trial"",""time""
""fullscreenenter"",""1"",""1874""
","
","","","","","","837","images/truck7.png","","","learning","1","1","1","1","truck","vehicles","1","0","","good","[5]"
"html-keyboard-response","150","613856","0.0-9.0-2.0-0.39","3871","1","17","Female","approach_avoid_spark_v1","""event"",""trial"",""time""
""fullscreenenter"",""1"",""1874""
","
","
","""event"",""trial"",""time""
""fullscreenenter"",""1"",""1874""
","
","","","","","","null","<div style=""font-size:60px;"">+</div>","null","","fixation","","","","","","","","","","",""
"aa-learning-trial","151","616861","0.0-9.0-2.0-1.39","3871","1","17","Female","approach_avoid_spark_v1","""event"",""trial"",""time""
""fullscreenenter"",""1"",""1874""
","
","
","""event"",""trial"",""time""
""fullscreenenter"",""1"",""1874""
","
","","","","","","883.8999999761581","images/train2.png","","","learning","-4","-4","1","1","train","vehicles","1","0","","bad","[-3]"
"html-keyboard-response","152","617363","0.0-9.0-2.0-0.40","3871","1","17","Female","approach_avoid_spark_v1","""event"",""trial"",""time""
""fullscreenenter"",""1"",""1874""
","
","
","""event"",""trial"",""time""
""fullscreenenter"",""1"",""1874""
","
","","","","","","null","<div style=""font-size:60px;"">+</div>","null","","fixation","","","","","","","","","","",""
"aa-learning-trial","153","620369","0.0-9.0-2.0-1.40","3871","1","17","Female","approach_avoid_spark_v1","""event"",""trial"",""time""
""fullscreenenter"",""1"",""1874""
","
","
","""event"",""trial"",""time""
""fullscreenenter"",""1"",""1874""
","
","","","","","","1818.7999999523163","images/truck2.png","","","learning","4","4","1","1","truck","vehicles","1","0","","good","[5]"
"html-keyboard-response","154","620870","0.0-9.0-2.0-0.41","3871","1","17","Female","approach_avoid_spark_v1","""event"",""trial"",""time""
""fullscreenenter"",""1"",""1874""
","
","
","""event"",""trial"",""time""
""fullscreenenter"",""1"",""1874""
","
","","","","","","null","<div style=""font-size:60px;"">+</div>","null","","fixation","","","","","","","","","","",""
"aa-learning-trial","155","623876","0.0-9.0-2.0-1.41","3871","1","17","Female","approach_avoid_spark_v1","""event"",""trial"",""time""
""fullscreenenter"",""1"",""1874""
","
","
","""event"",""trial"",""time""
""fullscreenenter"",""1"",""1874""
","
","","","","","","1291.2999999523163","images/train1.png","","","learning","-1","0","0","0","train","vehicles","1","0","","bad","[-3]"
"html-keyboard-response","156","624377","0.0-9.0-2.0-0.42","3871","1","17","Female","approach_avoid_spark_v1","""event"",""trial"",""time""
""fullscreenenter"",""1"",""1874""
","
","
","""event"",""trial"",""time""
""fullscreenenter"",""1"",""1874""
","
","","","","","","null","<div style=""font-size:60px;"">+</div>","null","","fixation","","","","","","","","","","",""
"aa-learning-trial","157","627383","0.0-9.0-2.0-1.42","3871","1","17","Female","approach_avoid_spark_v1","""event"",""trial"",""time""
""fullscreenenter"",""1"",""1874""
","
","
","""event"",""trial"",""time""
""fullscreenenter"",""1"",""1874""
","
","","","","","","844.5","images/plane3.png","","","learning","-1","0","0","0","plane","vehicles","1","0","","neutral","0"
"html-keyboard-response","158","627885","0.0-9.0-2.0-0.43","3871","1","17","Female","approach_avoid_spark_v1","""event"",""trial"",""time""
""fullscreenenter"",""1"",""1874""
","
","
","""event"",""trial"",""time""
""fullscreenenter"",""1"",""1874""
","
","","","","","","null","<div style=""font-size:60px;"">+</div>","null","","fixation","","","","","","","","","","",""
"aa-learning-trial","159","630890","0.0-9.0-2.0-1.43","3871","1","17","Female","approach_avoid_spark_v1","""event"",""trial"",""time""
""fullscreenenter"",""1"",""1874""
","
","
","""event"",""trial"",""time""
""fullscreenenter"",""1"",""1874""
","
","","","","","","1607.2000000476837","images/train5.png","","","learning","-2","-2","1","1","train","vehicles","1","0","","bad","[-3]"
"html-keyboard-response","160","631392","0.0-9.0-2.0-0.44","3871","1","17","Female","approach_avoid_spark_v1","""event"",""trial"",""time""
""fullscreenenter"",""1"",""1874""
","
","
","""event"",""trial"",""time""
""fullscreenenter"",""1"",""1874""
","
","","","","","","null","<div style=""font-size:60px;"">+</div>","null","","fixation","","","","","","","","","","",""
"aa-learning-trial","161","634398","0.0-9.0-2.0-1.44","3871","1","17","Female","approach_avoid_spark_v1","""event"",""trial"",""time""
""fullscreenenter"",""1"",""1874""
","
","
","""event"",""trial"",""time""
""fullscreenenter"",""1"",""1874""
","
","","","","","","1244.6000000238419","images/truck5.png","","","learning","5","5","1","1","truck","vehicles","1","0","","good","[5]"
"html-keyboard-response","162","634903","0.0-9.0-2.0-0.45","3871","1","17","Female","approach_avoid_spark_v1","""event"",""trial"",""time""
""fullscreenenter"",""1"",""1874""
","
","
","""event"",""trial"",""time""
""fullscreenenter"",""1"",""1874""
","
","","","","","","null","<div style=""font-size:60px;"">+</div>","null","","fixation","","","","","","","","","","",""
"aa-learning-trial","163","637908","0.0-9.0-2.0-1.45","3871","1","17","Female","approach_avoid_spark_v1","""event"",""trial"",""time""
""fullscreenenter"",""1"",""1874""
","
","
","""event"",""trial"",""time""
""fullscreenenter"",""1"",""1874""
","
","","","","","","646.1000000238419","images/plane1.png","","","learning","-1","-1","1","1","plane","vehicles","1","0","","neutral","0"
"html-keyboard-response","164","638410","0.0-9.0-2.0-0.46","3871","1","17","Female","approach_avoid_spark_v1","""event"",""trial"",""time""
""fullscreenenter"",""1"",""1874""
","
","
","""event"",""trial"",""time""
""fullscreenenter"",""1"",""1874""
","
","","","","","","null","<div style=""font-size:60px;"">+</div>","null","","fixation","","","","","","","","","","",""
"aa-learning-trial","165","641415","0.0-9.0-2.0-1.46","3871","1","17","Female","approach_avoid_spark_v1","""event"",""trial"",""time""
""fullscreenenter"",""1"",""1874""
","
","
","""event"",""trial"",""time""
""fullscreenenter"",""1"",""1874""
","
","","","","","","1851","images/train5.png","","","learning","-4","0","0","0","train","vehicles","1","0","","bad","[-3]"
"html-keyboard-response","166","641918","0.0-9.0-2.0-0.47","3871","1","17","Female","approach_avoid_spark_v1","""event"",""trial"",""time""
""fullscreenenter"",""1"",""1874""
","
","
","""event"",""trial"",""time""
""fullscreenenter"",""1"",""1874""
","
","","","","","","null","<div style=""font-size:60px;"">+</div>","null","","fixation","","","","","","","","","","",""
"aa-learning-trial","167","644923","0.0-9.0-2.0-1.47","3871","1","17","Female","approach_avoid_spark_v1","""event"",""trial"",""time""
""fullscreenenter"",""1"",""1874""
","
","
","""event"",""trial"",""time""
""fullscreenenter"",""1"",""1874""
","
","","","","","","990.5","images/truck7.png","","","learning","6","6","1","1","truck","vehicles","1","0","","good","[5]"
"html-keyboard-response","168","645425","0.0-9.0-2.0-0.48","3871","1","17","Female","approach_avoid_spark_v1","""event"",""trial"",""time""
""fullscreenenter"",""1"",""1874""
","
","
","""event"",""trial"",""time""
""fullscreenenter"",""1"",""1874""
","
","","","","","","null","<div style=""font-size:60px;"">+</div>","null","","fixation","","","","","","","","","","",""
"aa-learning-trial","169","648430","0.0-9.0-2.0-1.48","3871","1","17","Female","approach_avoid_spark_v1","""event"",""trial"",""time""
""fullscreenenter"",""1"",""1874""
","
","
","""event"",""trial"",""time""
""fullscreenenter"",""1"",""1874""
","
","","","","","","820.3000000715256","images/plane1.png","","","learning","1","1","1","1","plane","vehicles","1","0","","neutral","0"
"html-keyboard-response","170","648932","0.0-9.0-2.0-0.49","3871","1","17","Female","approach_avoid_spark_v1","""event"",""trial"",""time""
""fullscreenenter"",""1"",""1874""
","
","
","""event"",""trial"",""time""
""fullscreenenter"",""1"",""1874""
","
","","","","","","null","<div style=""font-size:60px;"">+</div>","null","","fixation","","","","","","","","","","",""
"aa-learning-trial","171","651936","0.0-9.0-2.0-1.49","3871","1","17","Female","approach_avoid_spark_v1","""event"",""trial"",""time""
""fullscreenenter"",""1"",""1874""
","
","
","""event"",""trial"",""time""
""fullscreenenter"",""1"",""1874""
","
","","","","","","617.2000000476837","images/plane7.png","","","learning","1","1","1","1","plane","vehicles","1","0","","neutral","0"
"html-keyboard-response","172","652438","0.0-9.0-2.0-0.50","3871","1","17","Female","approach_avoid_spark_v1","""event"",""trial"",""time""
""fullscreenenter"",""1"",""1874""
","
","
","""event"",""trial"",""time""
""fullscreenenter"",""1"",""1874""
","
","","","","","","null","<div style=""font-size:60px;"">+</div>","null","","fixation","","","","","","","","","","",""
"aa-learning-trial","173","655443","0.0-9.0-2.0-1.50","3871","1","17","Female","approach_avoid_spark_v1","""event"",""trial"",""time""
""fullscreenenter"",""1"",""1874""
","
","
","""event"",""trial"",""time""
""fullscreenenter"",""1"",""1874""
","
","","","","","","1402.2000000476837","images/train1.png","","","learning","-3","0","0","0","train","vehicles","1","0","","bad","[-3]"
"html-button-response","174","922334","0.0-9.0-3.0","3871","1","17","Female","approach_avoid_spark_v1","""event"",""trial"",""time""
""fullscreenenter"",""1"",""1874""
","
","
","""event"",""trial"",""time""
""fullscreenenter"",""1"",""1874""
","
","","","","","","266886.7999999523","<p> You have completed the round! <p> In this round, you earned 56 points! </p>","0","","break","","","","","","","","","","",""
"html-button-response","175","924778","0.0-10.0","3871","1","17","Female","approach_avoid_spark_v1","""event"",""trial"",""time""
""fullscreenenter"",""1"",""1874""
","
","
","""event"",""trial"",""time""
""fullscreenenter"",""1"",""1874""
","
","","","","","","2441.8000000715256","<p> Now it's time to play another round. </p>","0","","transition_screen","","","","","","","","","","",""
"preload","176","924917","0.0-11.0-0.0","3871","1","17","Female","approach_avoid_spark_v1","""event"",""trial"",""time""
""fullscreenenter"",""1"",""1874""
","
","
","""event"",""trial"",""time""
""fullscreenenter"",""1"",""1874""
","
","true","false","[]","[]","[]","","","","","","","","","","","","","","","",""
"learning-instructions","177","931832","0.0-11.0-1.0-0.0","3871","1","17","Female","approach_avoid_spark_v1","""event"",""trial"",""time""
""fullscreenenter"",""1"",""1874""
","
","
","""event"",""trial"",""time""
""fullscreenenter"",""1"",""1874""
","
","","","","","","3021.8000000715256","<p> Your goal in this round is to decorate your friend's new house with furniture. </p></div>","","0","instructions","","","","","","","","","","",""
"learning-instructions","178","943771","0.0-11.0-1.0-0.1","3871","1","17","Female","approach_avoid_spark_v1","""event"",""trial"",""time""
""fullscreenenter"",""1"",""1874""
","
","
","""event"",""trial"",""time""
""fullscreenenter"",""1"",""1874""
","
","","","","","","3046","<p> Your friend likes some pieces of furniture but not others.  </p><p> On each turn, you will see a piece of furniture.   </p><p> You need to decide whether to put it in your friend's house or not.  </p>","","0","instructions","","","","","","","","","","",""
"learning-instructions","179","951326","0.0-11.0-1.0-0.2","3871","1","17","Female","approach_avoid_spark_v1","""event"",""trial"",""time""
""fullscreenenter"",""1"",""1874""
","
","
","""event"",""trial"",""time""
""fullscreenenter"",""1"",""1874""
","
","","","","","","1447","<p> You can put the furniture in her house by pressing 1 and deliver it elsewhere by pressing 0. </p><br><div class=""choice-instructions-grid""> <div class=""choice-option""><img src=""images/approach.png"" class=""choice-option-img"" stage=""instructions"" position=""0"" ><div class=""choice-option-text""> Press ""1."" </div></div><div class=""choice-option""><img src=""images/avoid.png"" class=""choice-option-img"" stage=""instructions"" position=""1"" ><div class=""choice-option-text""> Press ""0."" </div></div>","","0","instructions","","","","","","","","","","",""
"learning-instructions","180","963363","0.0-11.0-1.0-0.3","3871","1","17","Female","approach_avoid_spark_v1","""event"",""trial"",""time""
""fullscreenenter"",""1"",""1874""
","
","
","""event"",""trial"",""time""
""fullscreenenter"",""1"",""1874""
","
","","","","","","3342","<p> If you decorate your friend's house with furniture she likes, she will be happy! </p><p> But if you give her furniture that she does not like, she will be annoyed. </p>","","0","instructions","","","","","","","","","","",""
"learning-instructions","181","976744","0.0-11.0-1.0-0.4","3871","1","17","Female","approach_avoid_spark_v1","""event"",""trial"",""time""
""fullscreenenter"",""1"",""1874""
","
","
","""event"",""trial"",""time""
""fullscreenenter"",""1"",""1874""
","
","","","","","","1256.3999999761581","<p> You will earn points based on how you made your friend feel. </p><p> If you made her happy, you will WIN anywhere from 1 - 9 points, </p><p> but if you made her annoyed you will LOSE anywhere from 1 - 9 points. </p>","","0","instructions","","","","","","","","","","",""
"learning-instructions","182","984934","0.0-11.0-1.0-0.5","3871","1","17","Female","approach_avoid_spark_v1","""event"",""trial"",""time""
""fullscreenenter"",""1"",""1874""
","
","
","""event"",""trial"",""time""
""fullscreenenter"",""1"",""1874""
","
","","","","","","1542.3999999761581","<p> You will see how many points you won or lost in the center of the screen. </p><p> Here is what you would see if you won 5 points: </p><p style=""color:green;font-size:50px;font-weight:bolder"">5</p>","","0","instructions","","","","","","","","","","",""
"learning-instructions","183","989185","0.0-11.0-1.0-0.6","3871","1","17","Female","approach_avoid_spark_v1","""event"",""trial"",""time""
""fullscreenenter"",""1"",""1874""
","
","
","""event"",""trial"",""time""
""fullscreenenter"",""1"",""1874""
","
","","","","","","1419.6999999284744","<p> And here is what you would see if you lost 3 points: </p><p style=""color:red;font-size:50px;font-weight:bolder"">-3</p>","","0","instructions","","","","","","","","","","",""
"learning-instructions","184","1006929","0.0-11.0-1.0-0.7","3871","1","17","Female","approach_avoid_spark_v1","""event"",""trial"",""time""
""fullscreenenter"",""1"",""1874""
","
","
","""event"",""trial"",""time""
""fullscreenenter"",""1"",""1874""
","
","","","","","","625.5","<p> Some pieces of furniture will make her feel very happy or very annoyed. </p><p> These pieces of furniture will make you win or lose LOTS of points. </p><p> Other pieces of furniture will only make her feel a little happy or a little annoyed. </p><p> These pieces of furniture will make you win or lose small amounts of points. </p>","","0","instructions","","","","","","","","","","",""
"learning-instructions","185","1023506","0.0-11.0-1.0-0.8","3871","1","17","Female","approach_avoid_spark_v1","""event"",""trial"",""time""
""fullscreenenter"",""1"",""1874""
","
","
","""event"",""trial"",""time""
""fullscreenenter"",""1"",""1874""
","
","","","","","","3793.7000000476837","<p> If you choose to deliver a piece of furniture elsewhere, you will not win or lose any points. </p><p>  However, in the center of the screen, you will see the number of points you WOULD HAVE won or lost if you had given the furniture to your friend. </p>","","0","instructions","","","","","","","","","","",""
"learning-instructions","186","1036319","0.0-11.0-1.0-0.9","3871","1","17","Female","approach_avoid_spark_v1","""event"",""trial"",""time""
""fullscreenenter"",""1"",""1874""
","
","
","""event"",""trial"",""time""
""fullscreenenter"",""1"",""1874""
","
","","","","","","1533.8999999761581","<p> Here is what you might see if you did not give a piece of furniture to your friend that would have made her happy: </p><p style=""color:grey; font-size:50px; display: inline-block; border-spacing: 15px; border-width:3px; border-style:solid; border-color:red"">  &nbsp; 6 &nbsp; </p><p> Remember, in this case, you would not win or lose ANY points because you did not give her the furniture.  </p>","","0","instructions","","","","","","","","","","",""
"learning-instructions","187","1044509","0.0-11.0-1.0-0.10","3871","1","17","Female","approach_avoid_spark_v1","""event"",""trial"",""time""
""fullscreenenter"",""1"",""1874""
","
","
","""event"",""trial"",""time""
""fullscreenenter"",""1"",""1874""
","
","","","","","","689.1000000238419","<p> Try to make the best choice for each piece of furniture because </p><p> at the end of the game, you will earn bonus money based on how many points you earned. </p>","","0","instructions","","","","","","","","","","",""
"learning-instructions","188","1053927","0.0-11.0-1.0-0.11","3871","1","17","Female","approach_avoid_spark_v1","""event"",""trial"",""time""
""fullscreenenter"",""1"",""1874""
","
","
","""event"",""trial"",""time""
""fullscreenenter"",""1"",""1874""
","
","","","","","","1232.5","<p> You will have 3 seconds to make each choice. Try to respond before time runs out! </p><p> You will lose 5 points each time you do not make a response. </p>","","0","instructions","","","","","","","","","","",""
"html-keyboard-response","189","1054530","0.0-11.0-2.0-0.0","3871","1","17","Female","approach_avoid_spark_v1","""event"",""trial"",""time""
""fullscreenenter"",""1"",""1874""
","
","
","""event"",""trial"",""time""
""fullscreenenter"",""1"",""1874""
","
","","","","","","null","<div style=""font-size:60px;"">+</div>","null","","fixation","","","","","","","","","","",""
"aa-learning-trial","190","1057536","0.0-11.0-2.0-1.0","3871","1","17","Female","approach_avoid_spark_v1","""event"",""trial"",""time""
""fullscreenenter"",""1"",""1874""
","
","
","""event"",""trial"",""time""
""fullscreenenter"",""1"",""1874""
","
","","","","","","1098.1999999284744","images/bed4.png","","","learning","-4","-4","1","1","bed","furniture","2","1","","bad","[-5]"
"html-keyboard-response","191","1058039","0.0-11.0-2.0-0.1","3871","1","17","Female","approach_avoid_spark_v1","""event"",""trial"",""time""
""fullscreenenter"",""1"",""1874""
","
","
","""event"",""trial"",""time""
""fullscreenenter"",""1"",""1874""
","
","","","","","","null","<div style=""font-size:60px;"">+</div>","null","","fixation","","","","","","","","","","",""
"aa-learning-trial","192","1061044","0.0-11.0-2.0-1.1","3871","1","17","Female","approach_avoid_spark_v1","""event"",""trial"",""time""
""fullscreenenter"",""1"",""1874""
","
","
","""event"",""trial"",""time""
""fullscreenenter"",""1"",""1874""
","
","","","","","","1603.9000000953674","images/chair8.png","","","learning","4","4","1","1","chair","furniture","2","1","","good","[3]"
"html-keyboard-response","193","1061546","0.0-11.0-2.0-0.2","3871","1","17","Female","approach_avoid_spark_v1","""event"",""trial"",""time""
""fullscreenenter"",""1"",""1874""
","
","
","""event"",""trial"",""time""
""fullscreenenter"",""1"",""1874""
","
","","","","","","null","<div style=""font-size:60px;"">+</div>","null","","fixation","","","","","","","","","","",""
"aa-learning-trial","194","1064551","0.0-11.0-2.0-1.2","3871","1","17","Female","approach_avoid_spark_v1","""event"",""trial"",""time""
""fullscreenenter"",""1"",""1874""
","
","
","""event"",""trial"",""time""
""fullscreenenter"",""1"",""1874""
","
","","","","","","695.2999999523163","images/bed3.png","","","learning","-1","-1","1","1","bed","furniture","2","1","","bad","[-5]"
"html-keyboard-response","195","1065054","0.0-11.0-2.0-0.3","3871","1","17","Female","approach_avoid_spark_v1","""event"",""trial"",""time""
""fullscreenenter"",""1"",""1874""
","
","
","""event"",""trial"",""time""
""fullscreenenter"",""1"",""1874""
","
","","","","","","null","<div style=""font-size:60px;"">+</div>","null","","fixation","","","","","","","","","","",""
"aa-learning-trial","196","1068060","0.0-11.0-2.0-1.3","3871","1","17","Female","approach_avoid_spark_v1","""event"",""trial"",""time""
""fullscreenenter"",""1"",""1874""
","
","
","""event"",""trial"",""time""
""fullscreenenter"",""1"",""1874""
","
","","","","","","981.0999999046326","images/table8.png","","","learning","5","0","0","0","table","furniture","2","1","","neutral","0"
"html-keyboard-response","197","1068562","0.0-11.0-2.0-0.4","3871","1","17","Female","approach_avoid_spark_v1","""event"",""trial"",""time""
""fullscreenenter"",""1"",""1874""
","
","
","""event"",""trial"",""time""
""fullscreenenter"",""1"",""1874""
","
","","","","","","null","<div style=""font-size:60px;"">+</div>","null","","fixation","","","","","","","","","","",""
"aa-learning-trial","198","1071568","0.0-11.0-2.0-1.4","3871","1","17","Female","approach_avoid_spark_v1","""event"",""trial"",""time""
""fullscreenenter"",""1"",""1874""
","
","
","""event"",""trial"",""time""
""fullscreenenter"",""1"",""1874""
","
","","","","","","760.6000000238419","images/chair7.png","","","learning","-2","-2","1","1","chair","furniture","2","1","","good","[3]"
"html-keyboard-response","199","1072070","0.0-11.0-2.0-0.5","3871","1","17","Female","approach_avoid_spark_v1","""event"",""trial"",""time""
""fullscreenenter"",""1"",""1874""
","
","
","""event"",""trial"",""time""
""fullscreenenter"",""1"",""1874""
","
","","","","","","null","<div style=""font-size:60px;"">+</div>","null","","fixation","","","","","","","","","","",""
"aa-learning-trial","200","1075075","0.0-11.0-2.0-1.5","3871","1","17","Female","approach_avoid_spark_v1","""event"",""trial"",""time""
""fullscreenenter"",""1"",""1874""
","
","
","""event"",""trial"",""time""
""fullscreenenter"",""1"",""1874""
","
","","","","","","1577.6000000238419","images/bed1.png","","","learning","8","0","0","0","bed","furniture","2","1","","bad","[-5]"
"html-keyboard-response","201","1075578","0.0-11.0-2.0-0.6","3871","1","17","Female","approach_avoid_spark_v1","""event"",""trial"",""time""
""fullscreenenter"",""1"",""1874""
","
","
","""event"",""trial"",""time""
""fullscreenenter"",""1"",""1874""
","
","","","","","","null","<div style=""font-size:60px;"">+</div>","null","","fixation","","","","","","","","","","",""
"aa-learning-trial","202","1078584","0.0-11.0-2.0-1.6","3871","1","17","Female","approach_avoid_spark_v1","""event"",""trial"",""time""
""fullscreenenter"",""1"",""1874""
","
","
","""event"",""trial"",""time""
""fullscreenenter"",""1"",""1874""
","
","","","","","","748.5","images/table7.png","","","learning","-6","-6","1","1","table","furniture","2","1","","neutral","0"
"html-keyboard-response","203","1079087","0.0-11.0-2.0-0.7","3871","1","17","Female","approach_avoid_spark_v1","""event"",""trial"",""time""
""fullscreenenter"",""1"",""1874""
","
","
","""event"",""trial"",""time""
""fullscreenenter"",""1"",""1874""
","
","","","","","","null","<div style=""font-size:60px;"">+</div>","null","","fixation","","","","","","","","","","",""
"aa-learning-trial","204","1082092","0.0-11.0-2.0-1.7","3871","1","17","Female","approach_avoid_spark_v1","""event"",""trial"",""time""
""fullscreenenter"",""1"",""1874""
","
","
","""event"",""trial"",""time""
""fullscreenenter"",""1"",""1874""
","
","","","","","","1853.6000000238419","images/chair7.png","","","learning","-2","-2","1","1","chair","furniture","2","1","","good","[3]"
"html-keyboard-response","205","1082594","0.0-11.0-2.0-0.8","3871","1","17","Female","approach_avoid_spark_v1","""event"",""trial"",""time""
""fullscreenenter"",""1"",""1874""
","
","
","""event"",""trial"",""time""
""fullscreenenter"",""1"",""1874""
","
","","","","","","null","<div style=""font-size:60px;"">+</div>","null","","fixation","","","","","","","","","","",""
"aa-learning-trial","206","1085600","0.0-11.0-2.0-1.8","3871","1","17","Female","approach_avoid_spark_v1","""event"",""trial"",""time""
""fullscreenenter"",""1"",""1874""
","
","
","""event"",""trial"",""time""
""fullscreenenter"",""1"",""1874""
","
","","","","","","818.1999999284744","images/bed4.png","","","learning","-4","0","0","0","bed","furniture","2","1","","bad","[-5]"
"html-keyboard-response","207","1086102","0.0-11.0-2.0-0.9","3871","1","17","Female","approach_avoid_spark_v1","""event"",""trial"",""time""
""fullscreenenter"",""1"",""1874""
","
","
","""event"",""trial"",""time""
""fullscreenenter"",""1"",""1874""
","
","","","","","","null","<div style=""font-size:60px;"">+</div>","null","","fixation","","","","","","","","","","",""
"aa-learning-trial","208","1089107","0.0-11.0-2.0-1.9","3871","1","17","Female","approach_avoid_spark_v1","""event"",""trial"",""time""
""fullscreenenter"",""1"",""1874""
","
","
","""event"",""trial"",""time""
""fullscreenenter"",""1"",""1874""
","
","","","","","","1055.8999999761581","images/table1.png","","","learning","1","1","1","1","table","furniture","2","1","","neutral","0"
"html-keyboard-response","209","1089610","0.0-11.0-2.0-0.10","3871","1","17","Female","approach_avoid_spark_v1","""event"",""trial"",""time""
""fullscreenenter"",""1"",""1874""
","
","
","""event"",""trial"",""time""
""fullscreenenter"",""1"",""1874""
","
","","","","","","null","<div style=""font-size:60px;"">+</div>","null","","fixation","","","","","","","","","","",""
"aa-learning-trial","210","1092616","0.0-11.0-2.0-1.10","3871","1","17","Female","approach_avoid_spark_v1","""event"",""trial"",""time""
""fullscreenenter"",""1"",""1874""
","
","
","""event"",""trial"",""time""
""fullscreenenter"",""1"",""1874""
","
","","","","","","617.7000000476837","images/table1.png","","","learning","1","1","1","1","table","furniture","2","1","","neutral","0"
"html-keyboard-response","211","1093119","0.0-11.0-2.0-0.11","3871","1","17","Female","approach_avoid_spark_v1","""event"",""trial"",""time""
""fullscreenenter"",""1"",""1874""
","
","
","""event"",""trial"",""time""
""fullscreenenter"",""1"",""1874""
","
","","","","","","null","<div style=""font-size:60px;"">+</div>","null","","fixation","","","","","","","","","","",""
"aa-learning-trial","212","1096125","0.0-11.0-2.0-1.11","3871","1","17","Female","approach_avoid_spark_v1","""event"",""trial"",""time""
""fullscreenenter"",""1"",""1874""
","
","
","""event"",""trial"",""time""
""fullscreenenter"",""1"",""1874""
","
","","","","","","866","images/chair1.png","","","learning","-5","-5","1","1","chair","furniture","2","1","","good","[3]"
"html-keyboard-response","213","1096628","0.0-11.0-2.0-0.12","3871","1","17","Female","approach_avoid_spark_v1","""event"",""trial"",""time""
""fullscreenenter"",""1"",""1874""
","
","
","""event"",""trial"",""time""
""fullscreenenter"",""1"",""1874""
","
","","","","","","null","<div style=""font-size:60px;"">+</div>","null","","fixation","","","","","","","","","","",""
"aa-learning-trial","214","1099633","0.0-11.0-2.0-1.12","3871","1","17","Female","approach_avoid_spark_v1","""event"",""trial"",""time""
""fullscreenenter"",""1"",""1874""
","
","
","""event"",""trial"",""time""
""fullscreenenter"",""1"",""1874""
","
","","","","","","1884.7999999523163","images/bed3.png","","","learning","-1","0","0","0","bed","furniture","2","1","","bad","[-5]"
"html-keyboard-response","215","1100136","0.0-11.0-2.0-0.13","3871","1","17","Female","approach_avoid_spark_v1","""event"",""trial"",""time""
""fullscreenenter"",""1"",""1874""
","
","
","""event"",""trial"",""time""
""fullscreenenter"",""1"",""1874""
","
","","","","","","null","<div style=""font-size:60px;"">+</div>","null","","fixation","","","","","","","","","","",""
"aa-learning-trial","216","1103141","0.0-11.0-2.0-1.13","3871","1","17","Female","approach_avoid_spark_v1","""event"",""trial"",""time""
""fullscreenenter"",""1"",""1874""
","
","
","""event"",""trial"",""time""
""fullscreenenter"",""1"",""1874""
","
","","","","","","927.2000000476837","images/table7.png","","","learning","-6","-6","1","1","table","furniture","2","1","","neutral","0"
"html-keyboard-response","217","1103645","0.0-11.0-2.0-0.14","3871","1","17","Female","approach_avoid_spark_v1","""event"",""trial"",""time""
""fullscreenenter"",""1"",""1874""
","
","
","""event"",""trial"",""time""
""fullscreenenter"",""1"",""1874""
","
","","","","","","null","<div style=""font-size:60px;"">+</div>","null","","fixation","","","","","","","","","","",""
"aa-learning-trial","218","1106651","0.0-11.0-2.0-1.14","3871","1","17","Female","approach_avoid_spark_v1","""event"",""trial"",""time""
""fullscreenenter"",""1"",""1874""
","
","
","""event"",""trial"",""time""
""fullscreenenter"",""1"",""1874""
","
","","","","","","929.8999999761581","images/chair1.png","","","learning","-5","0","0","0","chair","furniture","2","1","","good","[3]"
"html-keyboard-response","219","1107153","0.0-11.0-2.0-0.15","3871","1","17","Female","approach_avoid_spark_v1","""event"",""trial"",""time""
""fullscreenenter"",""1"",""1874""
","
","
","""event"",""trial"",""time""
""fullscreenenter"",""1"",""1874""
","
","","","","","","null","<div style=""font-size:60px;"">+</div>","null","","fixation","","","","","","","","","","",""
"aa-learning-trial","220","1110160","0.0-11.0-2.0-1.15","3871","1","17","Female","approach_avoid_spark_v1","""event"",""trial"",""time""
""fullscreenenter"",""1"",""1874""
","
","
","""event"",""trial"",""time""
""fullscreenenter"",""1"",""1874""
","
","","","","","","918.2999999523163","images/bed3.png","","","learning","-1","0","0","0","bed","furniture","2","1","","bad","[-5]"
"html-keyboard-response","221","1110662","0.0-11.0-2.0-0.16","3871","1","17","Female","approach_avoid_spark_v1","""event"",""trial"",""time""
""fullscreenenter"",""1"",""1874""
","
","
","""event"",""trial"",""time""
""fullscreenenter"",""1"",""1874""
","
","","","","","","null","<div style=""font-size:60px;"">+</div>","null","","fixation","","","","","","","","","","",""
"aa-learning-trial","222","1113668","0.0-11.0-2.0-1.16","3871","1","17","Female","approach_avoid_spark_v1","""event"",""trial"",""time""
""fullscreenenter"",""1"",""1874""
","
","
","""event"",""trial"",""time""
""fullscreenenter"",""1"",""1874""
","
","","","","","","1782.6000000238419","images/chair7.png","","","learning","-2","-2","1","1","chair","furniture","2","1","","good","[3]"
"html-keyboard-response","223","1114170","0.0-11.0-2.0-0.17","3871","1","17","Female","approach_avoid_spark_v1","""event"",""trial"",""time""
""fullscreenenter"",""1"",""1874""
","
","
","""event"",""trial"",""time""
""fullscreenenter"",""1"",""1874""
","
","","","","","","null","<div style=""font-size:60px;"">+</div>","null","","fixation","","","","","","","","","","",""
"aa-learning-trial","224","1117175","0.0-11.0-2.0-1.17","3871","1","17","Female","approach_avoid_spark_v1","""event"",""trial"",""time""
""fullscreenenter"",""1"",""1874""
","
","
","""event"",""trial"",""time""
""fullscreenenter"",""1"",""1874""
","
","","","","","","981.6000000238419","images/table7.png","","","learning","-6","0","0","0","table","furniture","2","1","","neutral","0"
"html-keyboard-response","225","1117677","0.0-11.0-2.0-0.18","3871","1","17","Female","approach_avoid_spark_v1","""event"",""trial"",""time""
""fullscreenenter"",""1"",""1874""
","
","
","""event"",""trial"",""time""
""fullscreenenter"",""1"",""1874""
","
","","","","","","null","<div style=""font-size:60px;"">+</div>","null","","fixation","","","","","","","","","","",""
"aa-learning-trial","226","1120681","0.0-11.0-2.0-1.18","3871","1","17","Female","approach_avoid_spark_v1","""event"",""trial"",""time""
""fullscreenenter"",""1"",""1874""
","
","
","""event"",""trial"",""time""
""fullscreenenter"",""1"",""1874""
","
","","","","","","1016.8000000715256","images/bed1.png","","","learning","8","0","0","0","bed","furniture","2","1","","bad","[-5]"
"html-keyboard-response","227","1121183","0.0-11.0-2.0-0.19","3871","1","17","Female","approach_avoid_spark_v1","""event"",""trial"",""time""
""fullscreenenter"",""1"",""1874""
","
","
","""event"",""trial"",""time""
""fullscreenenter"",""1"",""1874""
","
","","","","","","null","<div style=""font-size:60px;"">+</div>","null","","fixation","","","","","","","","","","",""
"aa-learning-trial","228","1124188","0.0-11.0-2.0-1.19","3871","1","17","Female","approach_avoid_spark_v1","""event"",""trial"",""time""
""fullscreenenter"",""1"",""1874""
","
","
","""event"",""trial"",""time""
""fullscreenenter"",""1"",""1874""
","
","","","","","","750.1000000238419","images/chair7.png","","","learning","-2","0","0","0","chair","furniture","2","1","","good","[3]"
"html-keyboard-response","229","1124690","0.0-11.0-2.0-0.20","3871","1","17","Female","approach_avoid_spark_v1","""event"",""trial"",""time""
""fullscreenenter"",""1"",""1874""
","
","
","""event"",""trial"",""time""
""fullscreenenter"",""1"",""1874""
","
","","","","","","null","<div style=""font-size:60px;"">+</div>","null","","fixation","","","","","","","","","","",""
"aa-learning-trial","230","1127695","0.0-11.0-2.0-1.20","3871","1","17","Female","approach_avoid_spark_v1","""event"",""trial"",""time""
""fullscreenenter"",""1"",""1874""
","
","
","""event"",""trial"",""time""
""fullscreenenter"",""1"",""1874""
","
","","","","","","978.5999999046326","images/chair8.png","","","learning","4","0","0","0","chair","furniture","2","1","","good","[3]"
"html-keyboard-response","231","1128197","0.0-11.0-2.0-0.21","3871","1","17","Female","approach_avoid_spark_v1","""event"",""trial"",""time""
""fullscreenenter"",""1"",""1874""
","
","
","""event"",""trial"",""time""
""fullscreenenter"",""1"",""1874""
","
","","","","","","null","<div style=""font-size:60px;"">+</div>","null","","fixation","","","","","","","","","","",""
"aa-learning-trial","232","1131202","0.0-11.0-2.0-1.21","3871","1","17","Female","approach_avoid_spark_v1","""event"",""trial"",""time""
""fullscreenenter"",""1"",""1874""
","
","
","""event"",""trial"",""time""
""fullscreenenter"",""1"",""1874""
","
","","","","","","832.5","images/bed8.png","","","learning","-7","-7","1","1","bed","furniture","2","1","","bad","[-5]"
"html-keyboard-response","233","1131704","0.0-11.0-2.0-0.22","3871","1","17","Female","approach_avoid_spark_v1","""event"",""trial"",""time""
""fullscreenenter"",""1"",""1874""
","
","
","""event"",""trial"",""time""
""fullscreenenter"",""1"",""1874""
","
","","","","","","null","<div style=""font-size:60px;"">+</div>","null","","fixation","","","","","","","","","","",""
"aa-learning-trial","234","1134708","0.0-11.0-2.0-1.22","3871","1","17","Female","approach_avoid_spark_v1","""event"",""trial"",""time""
""fullscreenenter"",""1"",""1874""
","
","
","""event"",""trial"",""time""
""fullscreenenter"",""1"",""1874""
","
","","","","","","1263.8999999761581","images/bed4.png","","","learning","-4","0","0","0","bed","furniture","2","1","","bad","[-5]"
"html-keyboard-response","235","1135210","0.0-11.0-2.0-0.23","3871","1","17","Female","approach_avoid_spark_v1","""event"",""trial"",""time""
""fullscreenenter"",""1"",""1874""
","
","
","""event"",""trial"",""time""
""fullscreenenter"",""1"",""1874""
","
