"trial_type","trial_index","time_elapsed","internal_node_id","subject_id","task_condition","age","gender","task_version","interactions","blur_events","focus_events","fullscreenenter_events","fullscreenexit_events","success","timeout","failed_images","failed_audio","failed_video","rt","stimulus","response","button_pressed","task_part","approach_reward","points","key_press","option_selected","stim_cat","task_block","block_condition","block_number","correct","cat_type","mean_cat_reward"
"pavlovia","0","3","0.0-0.0","5433","2","24","Female","approach_avoid_spark_v1","""event"",""trial"",""time""
""fullscreenenter"",""1"",""1489""
","
","
","""event"",""trial"",""time""
""fullscreenenter"",""1"",""1489""
","
","","","","","","","","","","","","","","","","","","","","",""
"fullscreen","1","2474","0.0-1.0","5433","2","24","Female","approach_avoid_spark_v1","""event"",""trial"",""time""
""fullscreenenter"",""1"",""1489""
","
","
","""event"",""trial"",""time""
""fullscreenenter"",""1"",""1489""
","
","true","","","","","","","","","","","","","","","","","","","",""
"preload","2","28272","0.0-2.0","5433","2","24","Female","approach_avoid_spark_v1","""event"",""trial"",""time""
""fullscreenenter"",""1"",""1489""
","
","
","""event"",""trial"",""time""
""fullscreenenter"",""1"",""1489""
","
","true","false","[]","[]","[]","","","","","","","","","","","","","","","",""
"audio-keyboard-response","3","30049","0.0-3.0","5433","2","24","Female","approach_avoid_spark_v1","""event"",""trial"",""time""
""fullscreenenter"",""1"",""1489""
","
","
","""event"",""trial"",""time""
""fullscreenenter"",""1"",""1489""
","
","","","","","","1781.3333333333326","audio/beep_loop.wav"," ","","","","","","","","","","","","",""
"audio-button-response","4","31511","0.0-4.0","5433","2","24","Female","approach_avoid_spark_v1","""event"",""trial"",""time""
""fullscreenenter"",""1"",""1489""
","
","
","""event"",""trial"",""time""
""fullscreenenter"",""1"",""1489""
","
","","","","","","1459","audio/shark.wav","4","","","","","","","","","","","","",""
"audio-button-response","5","33665","0.0-5.0","5433","2","24","Female","approach_avoid_spark_v1","""event"",""trial"",""time""
""fullscreenenter"",""1"",""1489""
","
","
","""event"",""trial"",""time""
""fullscreenenter"",""1"",""1489""
","
","","","","","","1152","audio/turtle.wav","1","","","","","","","","","","","","",""
"preload","6","44685","0.0-6.0","5433","2","24","Female","approach_avoid_spark_v1","""event"",""trial"",""time""
""fullscreenenter"",""1"",""1489""
","
","
","""event"",""trial"",""time""
""fullscreenenter"",""1"",""1489""
","
","true","false","[]","[]","[]","","","","","","","","","","","","","","","",""
"html-keyboard-response","7","46048","0.0-7.0","5433","2","24","Female","approach_avoid_spark_v1","""event"",""trial"",""time""
""fullscreenenter"",""1"",""1489""
","
","
","""event"",""trial"",""time""
""fullscreenenter"",""1"",""1489""
","
","","","","","","1361.4000000953674","Welcome to the experiment. Press any key to begin and to advance the instructions."," ","","","","","","","","","","","","",""
"learning-instructions","8","53905","0.0-8.0-0.0-0.0","5433","2","24","Female","approach_avoid_spark_v1","""event"",""trial"",""time""
""fullscreenenter"",""1"",""1489""
","
","
","""event"",""trial"",""time""
""fullscreenenter"",""1"",""1489""
","
","","","","","","905.2999999523163","<p> Welcome! Today you are going to play 6 different rounds of a decision-making game. </p><p> Use the mouse to click next to continue. </p>","","0","instructions","","","","","","","","","","",""
"learning-instructions","9","57183","0.0-8.0-0.0-0.1","5433","2","24","Female","approach_avoid_spark_v1","""event"",""trial"",""time""
""fullscreenenter"",""1"",""1489""
","
","
","""event"",""trial"",""time""
""fullscreenenter"",""1"",""1489""
","
","","","","","","542.1999998092651","<p> You will start with a practice round to learn the rules. </p>","","0","instructions","","","","","","","","","","",""
"learning-instructions","10","60987","0.0-8.0-0.0-0.2","5433","2","24","Female","approach_avoid_spark_v1","""event"",""trial"",""time""
""fullscreenenter"",""1"",""1489""
","
","
","""event"",""trial"",""time""
""fullscreenenter"",""1"",""1489""
","
","","","","","","356.7000000476837","<p> Your goal in this round is to give out sports equipment to kids. </p></div>","","0","instructions","","","","","","","","","","",""
"learning-instructions","11","68936","0.0-8.0-0.0-0.3","5433","2","24","Female","approach_avoid_spark_v1","""event"",""trial"",""time""
""fullscreenenter"",""1"",""1489""
","
","
","""event"",""trial"",""time""
""fullscreenenter"",""1"",""1489""
","
","","","","","","396.09999990463257","<p> The kids only like some of the equipment.  </p><p> On each turn, you will see a piece of sports equipment.   </p><p> You need to decide whether to give it to the kids or not.  </p>","","0","instructions","","","","","","","","","","",""
"learning-instructions","12","75135","0.0-8.0-0.0-0.4","5433","2","24","Female","approach_avoid_spark_v1","""event"",""trial"",""time""
""fullscreenenter"",""1"",""1489""
""blur"",""13"",""83172""
""focus"",""13"",""84935""
","""event"",""trial"",""time""
""blur"",""13"",""83172""
","""event"",""trial"",""time""
""focus"",""13"",""84935""
","""event"",""trial"",""time""
""fullscreenenter"",""1"",""1489""
","
","","","","","","1444.5","<p> You can give them the equipment by pressing 1 and choose not to give it to them by pressing 0. </p><br><div class=""choice-instructions-grid""> <div class=""choice-option""><img src=""images/approach.png"" class=""choice-option-img"" stage=""instructions"" position=""0"" ><div class=""choice-option-text""> Press ""1."" </div></div><div class=""choice-option""><img src=""images/avoid.png"" class=""choice-option-img"" stage=""instructions"" position=""1"" ><div class=""choice-option-text""> Press ""0."" </div></div>","","0","instructions","","","","","","","","","","",""
"learning-instructions","13","85730","0.0-8.0-0.0-0.5","5433","2","24","Female","approach_avoid_spark_v1","""event"",""trial"",""time""
""fullscreenenter"",""1"",""1489""
""blur"",""13"",""83172""
""focus"",""13"",""84935""
","""event"",""trial"",""time""
""blur"",""13"",""83172""
","""event"",""trial"",""time""
""focus"",""13"",""84935""
","""event"",""trial"",""time""
""fullscreenenter"",""1"",""1489""
","
","","","","","","3200.399999856949","<p> If you give them a piece of equipment they like, they will be happy! </p><p> But if you give them a piece of equipment they do not like, they will be sad. </p>","","0","instructions","","","","","","","","","","",""
"learning-instructions","14","97492","0.0-8.0-0.0-0.6","5433","2","24","Female","approach_avoid_spark_v1","""event"",""trial"",""time""
""fullscreenenter"",""1"",""1489""
""blur"",""13"",""83172""
""focus"",""13"",""84935""
","""event"",""trial"",""time""
""blur"",""13"",""83172""
","""event"",""trial"",""time""
""focus"",""13"",""84935""
","""event"",""trial"",""time""
""fullscreenenter"",""1"",""1489""
","
","","","","","","1241.7999999523163","<p> You will earn points based on how you make kids feel. </p><p> If you make them happy, you will WIN anywhere from 1 - 9 points, </p><p> but if you make them sad, you will LOSE anywhere from 1 - 9 points. </p>","","0","instructions","","","","","","","","","","",""
"learning-instructions","15","107952","0.0-8.0-0.0-0.7","5433","2","24","Female","approach_avoid_spark_v1","""event"",""trial"",""time""
""fullscreenenter"",""1"",""1489""
""blur"",""13"",""83172""
""focus"",""13"",""84935""
","""event"",""trial"",""time""
""blur"",""13"",""83172""
","""event"",""trial"",""time""
""focus"",""13"",""84935""
","""event"",""trial"",""time""
""fullscreenenter"",""1"",""1489""
","
","","","","","","912.7000000476837","<p> You will see how many points you won or lost in the center of the screen. </p><p> Here is what you would see if you won 6 points: </p><p style=""color:green;font-size:50px;font-weight:bolder"">6</p><p style=""color:green"">The text is GREEN because you WON points.</p>","","0","instructions","","","","","","","","","","",""
"learning-instructions","16","114208","0.0-8.0-0.0-0.8","5433","2","24","Female","approach_avoid_spark_v1","""event"",""trial"",""time""
""fullscreenenter"",""1"",""1489""
""blur"",""13"",""83172""
""focus"",""13"",""84935""
","""event"",""trial"",""time""
""blur"",""13"",""83172""
","""event"",""trial"",""time""
""focus"",""13"",""84935""
","""event"",""trial"",""time""
""fullscreenenter"",""1"",""1489""
","
","","","","","","757.9000000953674","<p> And here is what you would see if you lost 4 points: </p><p style=""color:red;font-size:50px;font-weight:bolder"">-4</p><p style=""color:red"">The text is RED because you LOST points. </p>","","0","instructions","","","","","","","","","","",""
"learning-instructions","17","129487","0.0-8.0-0.0-0.9","5433","2","24","Female","approach_avoid_spark_v1","""event"",""trial"",""time""
""fullscreenenter"",""1"",""1489""
""blur"",""13"",""83172""
""focus"",""13"",""84935""
","""event"",""trial"",""time""
""blur"",""13"",""83172""
","""event"",""trial"",""time""
""focus"",""13"",""84935""
","""event"",""trial"",""time""
""fullscreenenter"",""1"",""1489""
","
","","","","","","564","<p> Some of the equipment will make the kids VERY happy or sad. </p><p> These pieces of equipment will make you win or lose LOTS of points. </p><p> Other pieces of equipment will only make the kids a little happy or sad. </p><p> These pieces of equipment will make you win or lose small amounts of points. </p>","","0","instructions","","","","","","","","","","",""
"learning-instructions","18","141178","0.0-8.0-0.0-0.10","5433","2","24","Female","approach_avoid_spark_v1","""event"",""trial"",""time""
""fullscreenenter"",""1"",""1489""
""blur"",""13"",""83172""
""focus"",""13"",""84935""
","""event"",""trial"",""time""
""blur"",""13"",""83172""
","""event"",""trial"",""time""
""focus"",""13"",""84935""
","""event"",""trial"",""time""
""fullscreenenter"",""1"",""1489""
","
","","","","","","1067.9000000953674","<p> If you choose not to give them the equipment, you will not win or lose any points. </p><p>  However, in the center of the screen, you will see the number of points you WOULD HAVE won or lost if you had given them the equipment. </p>","","0","instructions","","","","","","","","","","",""
"learning-instructions","19","163237","0.0-8.0-0.0-0.11","5433","2","24","Female","approach_avoid_spark_v1","""event"",""trial"",""time""
""fullscreenenter"",""1"",""1489""
""blur"",""13"",""83172""
""focus"",""13"",""84935""
","""event"",""trial"",""time""
""blur"",""13"",""83172""
","""event"",""trial"",""time""
""focus"",""13"",""84935""
","""event"",""trial"",""time""
""fullscreenenter"",""1"",""1489""
","
","","","","","","516.2000000476837","<p> Here is what you might see if you did not give the equipment to the kids but it would have made them happy: </p><p style=""color:grey; font-size:50px; display: inline-block; border-spacing: 15px; border-width:3px; border-style:solid; border-color:red"">  &nbsp; 7 &nbsp; </p><p> Remember, in this case, you would not win or lose ANY points because you did not give them the equipment.  </p><p style=""color:grey"">The text is GREY because you earned ZERO points. </p><p style=""color:red"">However, choosing to give the kids the equipment would have made you win points. The box around the text is RED because you chose the worse option. </p>","","0","instructions","","","","","","","","","","",""
"learning-instructions","20","185293","0.0-8.0-0.0-0.12","5433","2","24","Female","approach_avoid_spark_v1","""event"",""trial"",""time""
""fullscreenenter"",""1"",""1489""
""blur"",""13"",""83172""
""focus"",""13"",""84935""
","""event"",""trial"",""time""
""blur"",""13"",""83172""
","""event"",""trial"",""time""
""focus"",""13"",""84935""
","""event"",""trial"",""time""
""fullscreenenter"",""1"",""1489""
","
","","","","","","981.8999998569489","<p> Here is what you might see if you did not give the equipment to the kids but it would have made them sad: </p><p style=""color:grey;font-size:50px; display: inline-block; border-spacing: 15px; border-width:3px; border-style:solid; border-color:green"">  &nbsp; -8 &nbsp; </p><p> Remember, in this case, you would not win or lose ANY points because you did not give them the equipment.  </p><p style=""color:grey"">The text is GREY because you earned ZERO points. </p><p  style=""color:green""> Choosing to give the kids the equipment would have made you lose points. The box around the text is GREEN because you chose the better option.</p>","","0","instructions","","","","","","","","","","",""
"learning-instructions","21","195410","0.0-8.0-0.0-0.13","5433","2","24","Female","approach_avoid_spark_v1","""event"",""trial"",""time""
""fullscreenenter"",""1"",""1489""
""blur"",""13"",""83172""
""focus"",""13"",""84935""
","""event"",""trial"",""time""
""blur"",""13"",""83172""
","""event"",""trial"",""time""
""focus"",""13"",""84935""
","""event"",""trial"",""time""
""fullscreenenter"",""1"",""1489""
","
","","","","","","1050.0999999046326","<p> You will have 3 seconds to make each choice. Try to respond before time runs out! </p><p> You will lose 5 points each time you do not make a response. </p>","","0","instructions","","","","","","","","","","",""
"learning-instructions","22","201347","0.0-8.0-0.0-0.14","5433","2","24","Female","approach_avoid_spark_v1","""event"",""trial"",""time""
""fullscreenenter"",""1"",""1489""
""blur"",""13"",""83172""
""focus"",""13"",""84935""
","""event"",""trial"",""time""
""blur"",""13"",""83172""
","""event"",""trial"",""time""
""focus"",""13"",""84935""
","""event"",""trial"",""time""
""fullscreenenter"",""1"",""1489""
","
","","","","","","527.2000000476837","<p> This is just a practice round, but in the real game, your bonus payment will depend on your total number of points.","","0","instructions","","","","","","","","","","",""
"learning-instructions","23","208186","0.0-8.0-0.0-0.15","5433","2","24","Female","approach_avoid_spark_v1","""event"",""trial"",""time""
""fullscreenenter"",""1"",""1489""
""blur"",""13"",""83172""
""focus"",""13"",""84935""
","""event"",""trial"",""time""
""blur"",""13"",""83172""
","""event"",""trial"",""time""
""focus"",""13"",""84935""
","""event"",""trial"",""time""
""fullscreenenter"",""1"",""1489""
","
","","","","","","1073.7999999523163","<p> Remember, you can give them the equipment by pressing 1 and choose not to give it to them by pressing 0. </p><br><div class=""choice-instructions-grid""> <div class=""choice-option""><img src=""images/approach.png"" class=""choice-option-img"" stage=""instructions"" position=""0"" ><div class=""choice-option-text""> Press ""1."" </div></div><div class=""choice-option""><img src=""images/avoid.png"" class=""choice-option-img"" stage=""instructions"" position=""1"" ><div class=""choice-option-text""> Press ""0."" </div></div>","","0","instructions","","","","","","","","","","",""
"html-button-response","24","209311","0.0-8.0-1.0","5433","2","24","Female","approach_avoid_spark_v1","""event"",""trial"",""time""
""fullscreenenter"",""1"",""1489""
""blur"",""13"",""83172""
""focus"",""13"",""84935""
","""event"",""trial"",""time""
""blur"",""13"",""83172""
","""event"",""trial"",""time""
""focus"",""13"",""84935""
","""event"",""trial"",""time""
""fullscreenenter"",""1"",""1489""
","
","","","","","","1008.4000000953674","<p> Ready to practice? </p>","0","","","","","","","","","","","","",""
"html-keyboard-response","25","209934","0.0-8.0-2.0-0.0","5433","2","24","Female","approach_avoid_spark_v1","""event"",""trial"",""time""
""fullscreenenter"",""1"",""1489""
""blur"",""13"",""83172""
""focus"",""13"",""84935""
","""event"",""trial"",""time""
""blur"",""13"",""83172""
","""event"",""trial"",""time""
""focus"",""13"",""84935""
","""event"",""trial"",""time""
""fullscreenenter"",""1"",""1489""
","
","","","","","","null","<div style=""font-size:60px;"">+</div>","null","","fixation","","","","","","","","","","",""
"aa-learning-trial","26","212939","0.0-8.0-2.0-1.0","5433","2","24","Female","approach_avoid_spark_v1","""event"",""trial"",""time""
""fullscreenenter"",""1"",""1489""
""blur"",""13"",""83172""
""focus"",""13"",""84935""
","""event"",""trial"",""time""
""blur"",""13"",""83172""
","""event"",""trial"",""time""
""focus"",""13"",""84935""
","""event"",""trial"",""time""
""fullscreenenter"",""1"",""1489""
","
","","","","","","998.5999999046326","images/ball1.png","","","learning","-2","-2","1","1","practice","practice","practice","-1","","",""
"html-keyboard-response","27","213441","0.0-8.0-2.0-0.1","5433","2","24","Female","approach_avoid_spark_v1","""event"",""trial"",""time""
""fullscreenenter"",""1"",""1489""
""blur"",""13"",""83172""
""focus"",""13"",""84935""
","""event"",""trial"",""time""
""blur"",""13"",""83172""
","""event"",""trial"",""time""
""focus"",""13"",""84935""
","""event"",""trial"",""time""
""fullscreenenter"",""1"",""1489""
","
","","","","","","null","<div style=""font-size:60px;"">+</div>","null","","fixation","","","","","","","","","","",""
"aa-learning-trial","28","216450","0.0-8.0-2.0-1.1","5433","2","24","Female","approach_avoid_spark_v1","""event"",""trial"",""time""
""fullscreenenter"",""1"",""1489""
""blur"",""13"",""83172""
""focus"",""13"",""84935""
","""event"",""trial"",""time""
""blur"",""13"",""83172""
","""event"",""trial"",""time""
""focus"",""13"",""84935""
","""event"",""trial"",""time""
""fullscreenenter"",""1"",""1489""
","
","","","","","","995.8999998569489","images/ball1.png","","","learning","-4","0","0","0","practice","practice","practice","-1","","",""
"html-keyboard-response","29","216957","0.0-8.0-2.0-0.2","5433","2","24","Female","approach_avoid_spark_v1","""event"",""trial"",""time""
""fullscreenenter"",""1"",""1489""
""blur"",""13"",""83172""
""focus"",""13"",""84935""
","""event"",""trial"",""time""
""blur"",""13"",""83172""
","""event"",""trial"",""time""
""focus"",""13"",""84935""
","""event"",""trial"",""time""
""fullscreenenter"",""1"",""1489""
","
","","","","","","null","<div style=""font-size:60px;"">+</div>","null","","fixation","","","","","","","","","","",""
"aa-learning-trial","30","219977","0.0-8.0-2.0-1.2","5433","2","24","Female","approach_avoid_spark_v1","""event"",""trial"",""time""
""fullscreenenter"",""1"",""1489""
""blur"",""13"",""83172""
""focus"",""13"",""84935""
","""event"",""trial"",""time""
""blur"",""13"",""83172""
","""event"",""trial"",""time""
""focus"",""13"",""84935""
","""event"",""trial"",""time""
""fullscreenenter"",""1"",""1489""
","
","","","","","","1032.3999998569489","images/ball1.png","","","learning","6","0","0","0","practice","practice","practice","-1","","",""
"html-keyboard-response","31","220481","0.0-8.0-2.0-0.3","5433","2","24","Female","approach_avoid_spark_v1","""event"",""trial"",""time""
""fullscreenenter"",""1"",""1489""
""blur"",""13"",""83172""
""focus"",""13"",""84935""
","""event"",""trial"",""time""
""blur"",""13"",""83172""
","""event"",""trial"",""time""
""focus"",""13"",""84935""
","""event"",""trial"",""time""
""fullscreenenter"",""1"",""1489""
","
","","","","","","null","<div style=""font-size:60px;"">+</div>","null","","fixation","","","","","","","","","","",""
"aa-learning-trial","32","223491","0.0-8.0-2.0-1.3","5433","2","24","Female","approach_avoid_spark_v1","""event"",""trial"",""time""
""fullscreenenter"",""1"",""1489""
""blur"",""13"",""83172""
""focus"",""13"",""84935""
","""event"",""trial"",""time""
""blur"",""13"",""83172""
","""event"",""trial"",""time""
""focus"",""13"",""84935""
","""event"",""trial"",""time""
""fullscreenenter"",""1"",""1489""
","
","","","","","","771.9000000953674","images/ball2.png","","","learning","-1","0","0","0","practice","practice","practice","-1","","",""
"html-keyboard-response","33","224006","0.0-8.0-2.0-0.4","5433","2","24","Female","approach_avoid_spark_v1","""event"",""trial"",""time""
""fullscreenenter"",""1"",""1489""
""blur"",""13"",""83172""
""focus"",""13"",""84935""
","""event"",""trial"",""time""
""blur"",""13"",""83172""
","""event"",""trial"",""time""
""focus"",""13"",""84935""
","""event"",""trial"",""time""
""fullscreenenter"",""1"",""1489""
","
","","","","","","null","<div style=""font-size:60px;"">+</div>","null","","fixation","","","","","","","","","","",""
"aa-learning-trial","34","227016","0.0-8.0-2.0-1.4","5433","2","24","Female","approach_avoid_spark_v1","""event"",""trial"",""time""
""fullscreenenter"",""1"",""1489""
""blur"",""13"",""83172""
""focus"",""13"",""84935""
","""event"",""trial"",""time""
""blur"",""13"",""83172""
","""event"",""trial"",""time""
""focus"",""13"",""84935""
","""event"",""trial"",""time""
""fullscreenenter"",""1"",""1489""
","
","","","","","","929","images/racket2.png","","","learning","-6","-6","1","1","practice","practice","practice","-1","","",""
"html-keyboard-response","35","227532","0.0-8.0-2.0-0.5","5433","2","24","Female","approach_avoid_spark_v1","""event"",""trial"",""time""
""fullscreenenter"",""1"",""1489""
""blur"",""13"",""83172""
""focus"",""13"",""84935""
","""event"",""trial"",""time""
""blur"",""13"",""83172""
","""event"",""trial"",""time""
""focus"",""13"",""84935""
","""event"",""trial"",""time""
""fullscreenenter"",""1"",""1489""
","
","","","","","","null","<div style=""font-size:60px;"">+</div>","null","","fixation","","","","","","","","","","",""
"aa-learning-trial","36","230537","0.0-8.0-2.0-1.5","5433","2","24","Female","approach_avoid_spark_v1","""event"",""trial"",""time""
""fullscreenenter"",""1"",""1489""
""blur"",""13"",""83172""
""focus"",""13"",""84935""
","""event"",""trial"",""time""
""blur"",""13"",""83172""
","""event"",""trial"",""time""
""focus"",""13"",""84935""
","""event"",""trial"",""time""
""fullscreenenter"",""1"",""1489""
","
","","","","","","1304.8999998569489","images/racket3.png","","","learning","-4","-4","1","1","practice","practice","practice","-1","","",""
"html-keyboard-response","37","231056","0.0-8.0-2.0-0.6","5433","2","24","Female","approach_avoid_spark_v1","""event"",""trial"",""time""
""fullscreenenter"",""1"",""1489""
""blur"",""13"",""83172""
""focus"",""13"",""84935""
","""event"",""trial"",""time""
""blur"",""13"",""83172""
","""event"",""trial"",""time""
""focus"",""13"",""84935""
","""event"",""trial"",""time""
""fullscreenenter"",""1"",""1489""
","
","","","","","","null","<div style=""font-size:60px;"">+</div>","null","","fixation","","","","","","","","","","",""
"aa-learning-trial","38","234068","0.0-8.0-2.0-1.6","5433","2","24","Female","approach_avoid_spark_v1","""event"",""trial"",""time""
""fullscreenenter"",""1"",""1489""
""blur"",""13"",""83172""
""focus"",""13"",""84935""
","""event"",""trial"",""time""
""blur"",""13"",""83172""
","""event"",""trial"",""time""
""focus"",""13"",""84935""
","""event"",""trial"",""time""
""fullscreenenter"",""1"",""1489""
","
","","","","","","1076.5999999046326","images/racket1.png","","","learning","-1","0","0","0","practice","practice","practice","-1","","",""
"html-keyboard-response","39","234578","0.0-8.0-2.0-0.7","5433","2","24","Female","approach_avoid_spark_v1","""event"",""trial"",""time""
""fullscreenenter"",""1"",""1489""
""blur"",""13"",""83172""
""focus"",""13"",""84935""
","""event"",""trial"",""time""
""blur"",""13"",""83172""
","""event"",""trial"",""time""
""focus"",""13"",""84935""
","""event"",""trial"",""time""
""fullscreenenter"",""1"",""1489""
","
","","","","","","null","<div style=""font-size:60px;"">+</div>","null","","fixation","","","","","","","","","","",""
"aa-learning-trial","40","237585","0.0-8.0-2.0-1.7","5433","2","24","Female","approach_avoid_spark_v1","""event"",""trial"",""time""
""fullscreenenter"",""1"",""1489""
""blur"",""13"",""83172""
""focus"",""13"",""84935""
","""event"",""trial"",""time""
""blur"",""13"",""83172""
","""event"",""trial"",""time""
""focus"",""13"",""84935""
","""event"",""trial"",""time""
""fullscreenenter"",""1"",""1489""
","
","","","","","","656","images/racket1.png","","","learning","5","0","0","0","practice","practice","practice","-1","","",""
"html-keyboard-response","41","238089","0.0-8.0-2.0-0.8","5433","2","24","Female","approach_avoid_spark_v1","""event"",""trial"",""time""
""fullscreenenter"",""1"",""1489""
""blur"",""13"",""83172""
""focus"",""13"",""84935""
","""event"",""trial"",""time""
""blur"",""13"",""83172""
","""event"",""trial"",""time""
""focus"",""13"",""84935""
","""event"",""trial"",""time""
""fullscreenenter"",""1"",""1489""
","
","","","","","","null","<div style=""font-size:60px;"">+</div>","null","","fixation","","","","","","","","","","",""
"aa-learning-trial","42","241111","0.0-8.0-2.0-1.8","5433","2","24","Female","approach_avoid_spark_v1","""event"",""trial"",""time""
""fullscreenenter"",""1"",""1489""
""blur"",""13"",""83172""
""focus"",""13"",""84935""
","""event"",""trial"",""time""
""blur"",""13"",""83172""
","""event"",""trial"",""time""
""focus"",""13"",""84935""
","""event"",""trial"",""time""
""fullscreenenter"",""1"",""1489""
","
","","","","","","491","images/racket1.png","","","learning","5","0","0","0","practice","practice","practice","-1","","",""
"html-keyboard-response","43","241614","0.0-8.0-2.0-0.9","5433","2","24","Female","approach_avoid_spark_v1","""event"",""trial"",""time""
""fullscreenenter"",""1"",""1489""
""blur"",""13"",""83172""
""focus"",""13"",""84935""
","""event"",""trial"",""time""
""blur"",""13"",""83172""
","""event"",""trial"",""time""
""focus"",""13"",""84935""
","""event"",""trial"",""time""
""fullscreenenter"",""1"",""1489""
","
","","","","","","null","<div style=""font-size:60px;"">+</div>","null","","fixation","","","","","","","","","","",""
"aa-learning-trial","44","244617","0.0-8.0-2.0-1.9","5433","2","24","Female","approach_avoid_spark_v1","""event"",""trial"",""time""
""fullscreenenter"",""1"",""1489""
""blur"",""13"",""83172""
""focus"",""13"",""84935""
","""event"",""trial"",""time""
""blur"",""13"",""83172""
","""event"",""trial"",""time""
""focus"",""13"",""84935""
","""event"",""trial"",""time""
""fullscreenenter"",""1"",""1489""
","
","","","","","","1552.7000000476837","images/ball2.png","","","learning","-1","0","0","0","practice","practice","practice","-1","","",""
"html-keyboard-response","45","245121","0.0-8.0-2.0-0.10","5433","2","24","Female","approach_avoid_spark_v1","""event"",""trial"",""time""
""fullscreenenter"",""1"",""1489""
""blur"",""13"",""83172""
""focus"",""13"",""84935""
","""event"",""trial"",""time""
""blur"",""13"",""83172""
","""event"",""trial"",""time""
""focus"",""13"",""84935""
","""event"",""trial"",""time""
""fullscreenenter"",""1"",""1489""
","
","","","","","","null","<div style=""font-size:60px;"">+</div>","null","","fixation","","","","","","","","","","",""
"aa-learning-trial","46","248128","0.0-8.0-2.0-1.10","5433","2","24","Female","approach_avoid_spark_v1","""event"",""trial"",""time""
""fullscreenenter"",""1"",""1489""
""blur"",""13"",""83172""
""focus"",""13"",""84935""
","""event"",""trial"",""time""
""blur"",""13"",""83172""
","""event"",""trial"",""time""
""focus"",""13"",""84935""
","""event"",""trial"",""time""
""fullscreenenter"",""1"",""1489""
","
","","","","","","1035.2999999523163","images/racket1.png","","","learning","9","9","1","1","practice","practice","practice","-1","","",""
"html-keyboard-response","47","248634","0.0-8.0-2.0-0.11","5433","2","24","Female","approach_avoid_spark_v1","""event"",""trial"",""time""
""fullscreenenter"",""1"",""1489""
""blur"",""13"",""83172""
""focus"",""13"",""84935""
","""event"",""trial"",""time""
""blur"",""13"",""83172""
","""event"",""trial"",""time""
""focus"",""13"",""84935""
","""event"",""trial"",""time""
""fullscreenenter"",""1"",""1489""
","
","","","","","","null","<div style=""font-size:60px;"">+</div>","null","","fixation","","","","","","","","","","",""
"aa-learning-trial","48","251648","0.0-8.0-2.0-1.11","5433","2","24","Female","approach_avoid_spark_v1","""event"",""trial"",""time""
""fullscreenenter"",""1"",""1489""
""blur"",""13"",""83172""
""focus"",""13"",""84935""
","""event"",""trial"",""time""
""blur"",""13"",""83172""
","""event"",""trial"",""time""
""focus"",""13"",""84935""
","""event"",""trial"",""time""
""fullscreenenter"",""1"",""1489""
","
","","","","","","877.7999999523163","images/ball2.png","","","learning","-9","0","0","0","practice","practice","practice","-1","","",""
"html-button-response","49","253677","0.0-8.0-3.0","5433","2","24","Female","approach_avoid_spark_v1","""event"",""trial"",""time""
""fullscreenenter"",""1"",""1489""
""blur"",""13"",""83172""
""focus"",""13"",""84935""
","""event"",""trial"",""time""
""blur"",""13"",""83172""
","""event"",""trial"",""time""
""focus"",""13"",""84935""
","""event"",""trial"",""time""
""fullscreenenter"",""1"",""1489""
","
","","","","","","2027.2999999523163","<p> You earned -3 points in the practice round! </p>","0","","break","","","","","","","","","","",""
"learning-instructions","50","260881","0.0-8.0-4.0-0.0","5433","2","24","Female","approach_avoid_spark_v1","""event"",""trial"",""time""
""fullscreenenter"",""1"",""1489""
""blur"",""13"",""83172""
""focus"",""13"",""84935""
","""event"",""trial"",""time""
""blur"",""13"",""83172""
","""event"",""trial"",""time""
""focus"",""13"",""84935""
","""event"",""trial"",""time""
""fullscreenenter"",""1"",""1489""
","
","","","","","","1200.1000001430511","<p> It's almost time to start the real game. </p><p> Before you start, we're going to ask you a few questions about how the game works. </p>","","0","instructions","","","","","","","","","","",""
"preload","51","264509","0.0-8.0-5.0","5433","2","24","Female","approach_avoid_spark_v1","""event"",""trial"",""time""
""fullscreenenter"",""1"",""1489""
""blur"",""13"",""83172""
""focus"",""13"",""84935""
","""event"",""trial"",""time""
""blur"",""13"",""83172""
","""event"",""trial"",""time""
""focus"",""13"",""84935""
","""event"",""trial"",""time""
""fullscreenenter"",""1"",""1489""
","
","true","false","[]","[]","[]","","","","","","","","","","","","","","","",""
"comp-q","52","270313","0.0-8.0-6.0-0.0","5433","2","24","Female","approach_avoid_spark_v1","""event"",""trial"",""time""
""fullscreenenter"",""1"",""1489""
""blur"",""13"",""83172""
""focus"",""13"",""84935""
","""event"",""trial"",""time""
""blur"",""13"",""83172""
","""event"",""trial"",""time""
""focus"",""13"",""84935""
","""event"",""trial"",""time""
""fullscreenenter"",""1"",""1489""
","
","","","","","","802.9000000953674","<p> <b> True or False? </b> </p><p> If you see a number in GREY, that means you earned that many points. </p>","","1","comp_question","","","","","","","","","true","",""
"comp-q","53","279658","0.0-8.0-6.0-1.0","5433","2","24","Female","approach_avoid_spark_v1","""event"",""trial"",""time""
""fullscreenenter"",""1"",""1489""
""blur"",""13"",""83172""
""focus"",""13"",""84935""
","""event"",""trial"",""time""
""blur"",""13"",""83172""
","""event"",""trial"",""time""
""focus"",""13"",""84935""
","""event"",""trial"",""time""
""fullscreenenter"",""1"",""1489""
","
","","","","","","968.5","<p><b> That's right! </b> If you see a grey number, it means you earned ZERO points. <br> The grey numbers show the points you WOULD HAVE earned if you had made the other choice. </p>","","0","comp_answer","","","","","","","","","","",""
"comp-q","54","284923","0.0-8.0-7.0-0.0","5433","2","24","Female","approach_avoid_spark_v1","""event"",""trial"",""time""
""fullscreenenter"",""1"",""1489""
""blur"",""13"",""83172""
""focus"",""13"",""84935""
","""event"",""trial"",""time""
""blur"",""13"",""83172""
","""event"",""trial"",""time""
""focus"",""13"",""84935""
","""event"",""trial"",""time""
""fullscreenenter"",""1"",""1489""
","
","","","","","","573","<p> <b> True or False? </b> </p><p> You will have as much time as you want to make each choice. </p>","","1","comp_question","","","","","","","","","true","",""
"comp-q","55","289662","0.0-8.0-7.0-1.0","5433","2","24","Female","approach_avoid_spark_v1","""event"",""trial"",""time""
""fullscreenenter"",""1"",""1489""
""blur"",""13"",""83172""
""focus"",""13"",""84935""
","""event"",""trial"",""time""
""blur"",""13"",""83172""
","""event"",""trial"",""time""
""focus"",""13"",""84935""
","""event"",""trial"",""time""
""fullscreenenter"",""1"",""1489""
","
","","","","","","682.7999999523163","<p> <b> That's right! </b> You will only have 3 seconds to make each choice. </p>","","0","comp_answer","","","","","","","","","","",""
"comp-q","56","294916","0.0-8.0-8.0-0.0","5433","2","24","Female","approach_avoid_spark_v1","""event"",""trial"",""time""
""fullscreenenter"",""1"",""1489""
""blur"",""13"",""83172""
""focus"",""13"",""84935""
","""event"",""trial"",""time""
""blur"",""13"",""83172""
","""event"",""trial"",""time""
""focus"",""13"",""84935""
","""event"",""trial"",""time""
""fullscreenenter"",""1"",""1489""
","
","","","","","","585.2999999523163","<p> <b> True or False? </b> </p><p> You should use the '1' and '0' keys to make your choices. </p>","","0","comp_question","","","","","","","","","true","",""
"comp-q","57","300618","0.0-8.0-8.0-1.0","5433","2","24","Female","approach_avoid_spark_v1","""event"",""trial"",""time""
""fullscreenenter"",""1"",""1489""
""blur"",""13"",""83172""
""focus"",""13"",""84935""
","""event"",""trial"",""time""
""blur"",""13"",""83172""
","""event"",""trial"",""time""
""focus"",""13"",""84935""
","""event"",""trial"",""time""
""fullscreenenter"",""1"",""1489""
","
","","","","","","1075.5999999046326","<p> <b> That's right! </b> You should use the '1' and '0' keys to make each choice. </p>","","0","comp_answer","","","","","","","","","","",""
"learning-instructions","58","308100","0.0-8.0-9.0-0.0","5433","2","24","Female","approach_avoid_spark_v1","""event"",""trial"",""time""
""fullscreenenter"",""1"",""1489""
""blur"",""13"",""83172""
""focus"",""13"",""84935""
","""event"",""trial"",""time""
""blur"",""13"",""83172""
","""event"",""trial"",""time""
""focus"",""13"",""84935""
","""event"",""trial"",""time""
""fullscreenenter"",""1"",""1489""
","
","","","","","","1208.2999999523163","<p> It's now time to start the real game. </p>Do your best, because the points you earn in the next rounds will influence your bonus payment. </p>","","0","instructions","","","","","","","","","","",""
"preload","59","308228","0.0-9.0-0.0","5433","2","24","Female","approach_avoid_spark_v1","""event"",""trial"",""time""
""fullscreenenter"",""1"",""1489""
""blur"",""13"",""83172""
""focus"",""13"",""84935""
","""event"",""trial"",""time""
""blur"",""13"",""83172""
","""event"",""trial"",""time""
""focus"",""13"",""84935""
","""event"",""trial"",""time""
""fullscreenenter"",""1"",""1489""
","
","true","false","[]","[]","[]","","","","","","","","","","","","","","","",""
"learning-instructions","60","313159","0.0-9.0-1.0-0.0","5433","2","24","Female","approach_avoid_spark_v1","""event"",""trial"",""time""
""fullscreenenter"",""1"",""1489""
""blur"",""13"",""83172""
""focus"",""13"",""84935""
","""event"",""trial"",""time""
""blur"",""13"",""83172""
","""event"",""trial"",""time""
""focus"",""13"",""84935""
","""event"",""trial"",""time""
""fullscreenenter"",""1"",""1489""
","
","","","","","","799.7999999523163","<p> Your goal in this round is to take care of lots of farm animals. </p></div>","","0","instructions","","","","","","","","","","",""
"learning-instructions","61","323912","0.0-9.0-1.0-0.1","5433","2","24","Female","approach_avoid_spark_v1","""event"",""trial"",""time""
""fullscreenenter"",""1"",""1489""
""blur"",""13"",""83172""
""focus"",""13"",""84935""
","""event"",""trial"",""time""
""blur"",""13"",""83172""
","""event"",""trial"",""time""
""focus"",""13"",""84935""
","""event"",""trial"",""time""
""fullscreenenter"",""1"",""1489""
","
","","","","","","552.2000000476837","<p> Some farm animals are hungry, while other farm animals are already full.  </p><p> On each turn, you will see a farm animal.   </p><p> You need to decide whether to feed it or not.  </p>","","0","instructions","","","","","","","","","","",""
"learning-instructions","62","330762","0.0-9.0-1.0-0.2","5433","2","24","Female","approach_avoid_spark_v1","""event"",""trial"",""time""
""fullscreenenter"",""1"",""1489""
""blur"",""13"",""83172""
""focus"",""13"",""84935""
","""event"",""trial"",""time""
""blur"",""13"",""83172""
","""event"",""trial"",""time""
""focus"",""13"",""84935""
","""event"",""trial"",""time""
""fullscreenenter"",""1"",""1489""
","
","","","","","","1012.4000000953674","<p> You can feed the farm animal by pressing 1 and leave the farm animal alone by pressing 0. </p><br><div class=""choice-instructions-grid""> <div class=""choice-option""><img src=""images/approach.png"" class=""choice-option-img"" stage=""instructions"" position=""0"" ><div class=""choice-option-text""> Press ""1."" </div></div><div class=""choice-option""><img src=""images/avoid.png"" class=""choice-option-img"" stage=""instructions"" position=""1"" ><div class=""choice-option-text""> Press ""0."" </div></div>","","0","instructions","","","","","","","","","","",""
"learning-instructions","63","341474","0.0-9.0-1.0-0.3","5433","2","24","Female","approach_avoid_spark_v1","""event"",""trial"",""time""
""fullscreenenter"",""1"",""1489""
""blur"",""13"",""83172""
""focus"",""13"",""84935""
","""event"",""trial"",""time""
""blur"",""13"",""83172""
","""event"",""trial"",""time""
""focus"",""13"",""84935""
","""event"",""trial"",""time""
""fullscreenenter"",""1"",""1489""
","
","","","","","","1005.2999999523163","<p> If you feed a hungry farm animal, you will make it feel satisfied! </p><p> But if you feed the farm animal and it was already full, you will make it feel sick. </p>","","0","instructions","","","","","","","","","","",""
"learning-instructions","64","354851","0.0-9.0-1.0-0.4","5433","2","24","Female","approach_avoid_spark_v1","""event"",""trial"",""time""
""fullscreenenter"",""1"",""1489""
""blur"",""13"",""83172""
""focus"",""13"",""84935""
","""event"",""trial"",""time""
""blur"",""13"",""83172""
","""event"",""trial"",""time""
""focus"",""13"",""84935""
","""event"",""trial"",""time""
""fullscreenenter"",""1"",""1489""
","
","","","","","","680.7000000476837","<p> You will earn points based on how you made the farm animal feel. </p><p> If you made it satisfied, you will WIN anywhere from 1 - 9 points, </p><p> but if you made it sick, you will LOSE anywhere from 1 - 9 points. </p>","","0","instructions","","","","","","","","","","",""
"learning-instructions","65","364720","0.0-9.0-1.0-0.5","5433","2","24","Female","approach_avoid_spark_v1","""event"",""trial"",""time""
""fullscreenenter"",""1"",""1489""
""blur"",""13"",""83172""
""focus"",""13"",""84935""
","""event"",""trial"",""time""
""blur"",""13"",""83172""
","""event"",""trial"",""time""
""focus"",""13"",""84935""
","""event"",""trial"",""time""
""fullscreenenter"",""1"",""1489""
","
","","","","","","2129.0999999046326","<p> You will see how many points you won or lost in the center of the screen. </p><p> Here is what you would see if you won 5 points: </p><p style=""color:green;font-size:50px;font-weight:bolder"">5</p>","","0","instructions","","","","","","","","","","",""
"learning-instructions","66","369037","0.0-9.0-1.0-0.6","5433","2","24","Female","approach_avoid_spark_v1","""event"",""trial"",""time""
""fullscreenenter"",""1"",""1489""
""blur"",""13"",""83172""
""focus"",""13"",""84935""
","""event"",""trial"",""time""
""blur"",""13"",""83172""
","""event"",""trial"",""time""
""focus"",""13"",""84935""
","""event"",""trial"",""time""
""fullscreenenter"",""1"",""1489""
","
","","","","","","877.3999998569489","<p> And here is what you would see if you lost 3 points: </p><p style=""color:red;font-size:50px;font-weight:bolder"">-3</p>","","0","instructions","","","","","","","","","","",""
"learning-instructions","67","389470","0.0-9.0-1.0-0.7","5433","2","24","Female","approach_avoid_spark_v1","""event"",""trial"",""time""
""fullscreenenter"",""1"",""1489""
""blur"",""13"",""83172""
""focus"",""13"",""84935""
","""event"",""trial"",""time""
""blur"",""13"",""83172""
","""event"",""trial"",""time""
""focus"",""13"",""84935""
","""event"",""trial"",""time""
""fullscreenenter"",""1"",""1489""
","
","","","","","","4311.099999904633","<p> Some farm animals will become very satisfied or very sick. </p><p> These farm animals will make you win or lose LOTS of points. </p><p> Other farm animals have less strong feelings. </p><p> These farm animals will make you win or lose small amounts of points. </p>","","0","instructions","","","","","","","","","","",""
"learning-instructions","68","402715","0.0-9.0-1.0-0.8","5433","2","24","Female","approach_avoid_spark_v1","""event"",""trial"",""time""
""fullscreenenter"",""1"",""1489""
""blur"",""13"",""83172""
""focus"",""13"",""84935""
","""event"",""trial"",""time""
""blur"",""13"",""83172""
","""event"",""trial"",""time""
""focus"",""13"",""84935""
","""event"",""trial"",""time""
""fullscreenenter"",""1"",""1489""
","
","","","","","","726.5","<p> If you choose to leave the farm animal alone, you will not win or lose any points. </p><p>  However, in the center of the screen, you will see the number of points you WOULD HAVE won or lost if you had fed the farm animal. </p>","","0","instructions","","","","","","","","","","",""
"learning-instructions","69","414869","0.0-9.0-1.0-0.9","5433","2","24","Female","approach_avoid_spark_v1","""event"",""trial"",""time""
""fullscreenenter"",""1"",""1489""
""blur"",""13"",""83172""
""focus"",""13"",""84935""
","""event"",""trial"",""time""
""blur"",""13"",""83172""
","""event"",""trial"",""time""
""focus"",""13"",""84935""
","""event"",""trial"",""time""
""fullscreenenter"",""1"",""1489""
","
","","","","","","438.59999990463257","<p> Here is what you might see if you did not feed the farm animal but the animal was hungry: </p><p style=""color:grey; font-size:50px; display: inline-block; border-spacing: 15px; border-width:3px; border-style:solid; border-color:red"">  &nbsp; 6 &nbsp; </p><p> Remember, in this case, you would not win or lose ANY points because you did not feed the farm animal.  </p>","","0","instructions","","","","","","","","","","",""
"learning-instructions","70","423140","0.0-9.0-1.0-0.10","5433","2","24","Female","approach_avoid_spark_v1","""event"",""trial"",""time""
""fullscreenenter"",""1"",""1489""
""blur"",""13"",""83172""
""focus"",""13"",""84935""
","""event"",""trial"",""time""
""blur"",""13"",""83172""
","""event"",""trial"",""time""
""focus"",""13"",""84935""
","""event"",""trial"",""time""
""fullscreenenter"",""1"",""1489""
","
","","","","","","398.69999980926514","<p> Try to make the best choice for each farm animal because </p><p> at the end of the game, you will earn bonus money based on how many points you earned. </p>","","0","instructions","","","","","","","","","","",""
"learning-instructions","71","431690","0.0-9.0-1.0-0.11","5433","2","24","Female","approach_avoid_spark_v1","""event"",""trial"",""time""
""fullscreenenter"",""1"",""1489""
""blur"",""13"",""83172""
""focus"",""13"",""84935""
","""event"",""trial"",""time""
""blur"",""13"",""83172""
","""event"",""trial"",""time""
""focus"",""13"",""84935""
","""event"",""trial"",""time""
""fullscreenenter"",""1"",""1489""
","
","","","","","","360.69999980926514","<p> You will have 3 seconds to make each choice. Try to respond before time runs out! </p><p> You will lose 5 points each time you do not make a response. </p>","","0","instructions","","","","","","","","","","",""
"html-keyboard-response","72","432313","0.0-9.0-2.0-0.0","5433","2","24","Female","approach_avoid_spark_v1","""event"",""trial"",""time""
""fullscreenenter"",""1"",""1489""
""blur"",""13"",""83172""
""focus"",""13"",""84935""
","""event"",""trial"",""time""
""blur"",""13"",""83172""
","""event"",""trial"",""time""
""focus"",""13"",""84935""
","""event"",""trial"",""time""
""fullscreenenter"",""1"",""1489""
","
","","","","","","null","<div style=""font-size:60px;"">+</div>","null","","fixation","","","","","","","","","","",""
"aa-learning-trial","73","435322","0.0-9.0-2.0-1.0","5433","2","24","Female","approach_avoid_spark_v1","""event"",""trial"",""time""
""fullscreenenter"",""1"",""1489""
""blur"",""13"",""83172""
""focus"",""13"",""84935""
","""event"",""trial"",""time""
""blur"",""13"",""83172""
","""event"",""trial"",""time""
""focus"",""13"",""84935""
","""event"",""trial"",""time""
""fullscreenenter"",""1"",""1489""
","
","","","","","","511.7999999523163","images/sheep1.png","","","learning","-1","0","0","0","sheep","animals","2","0","","bad","[-3]"
"html-keyboard-response","74","435824","0.0-9.0-2.0-0.1","5433","2","24","Female","approach_avoid_spark_v1","""event"",""trial"",""time""
""fullscreenenter"",""1"",""1489""
""blur"",""13"",""83172""
""focus"",""13"",""84935""
","""event"",""trial"",""time""
""blur"",""13"",""83172""
","""event"",""trial"",""time""
""focus"",""13"",""84935""
","""event"",""trial"",""time""
""fullscreenenter"",""1"",""1489""
","
","","","","","","null","<div style=""font-size:60px;"">+</div>","null","","fixation","","","","","","","","","","",""
"aa-learning-trial","75","438840","0.0-9.0-2.0-1.1","5433","2","24","Female","approach_avoid_spark_v1","""event"",""trial"",""time""
""fullscreenenter"",""1"",""1489""
""blur"",""13"",""83172""
""focus"",""13"",""84935""
","""event"",""trial"",""time""
""blur"",""13"",""83172""
","""event"",""trial"",""time""
""focus"",""13"",""84935""
","""event"",""trial"",""time""
""fullscreenenter"",""1"",""1489""
","
","","","","","","526.1999998092651","images/cow8.png","","","learning","2","0","0","0","cow","animals","2","0","","good","[6]"
"html-keyboard-response","76","439352","0.0-9.0-2.0-0.2","5433","2","24","Female","approach_avoid_spark_v1","""event"",""trial"",""time""
""fullscreenenter"",""1"",""1489""
""blur"",""13"",""83172""
""focus"",""13"",""84935""
","""event"",""trial"",""time""
""blur"",""13"",""83172""
","""event"",""trial"",""time""
""focus"",""13"",""84935""
","""event"",""trial"",""time""
""fullscreenenter"",""1"",""1489""
","
","","","","","","null","<div style=""font-size:60px;"">+</div>","null","","fixation","","","","","","","","","","",""
"aa-learning-trial","77","442366","0.0-9.0-2.0-1.2","5433","2","24","Female","approach_avoid_spark_v1","""event"",""trial"",""time""
""fullscreenenter"",""1"",""1489""
""blur"",""13"",""83172""
""focus"",""13"",""84935""
","""event"",""trial"",""time""
""blur"",""13"",""83172""
","""event"",""trial"",""time""
""focus"",""13"",""84935""
","""event"",""trial"",""time""
""fullscreenenter"",""1"",""1489""
","
","","","","","","1131.0999999046326","images/sheep1.png","","","learning","-1","0","0","0","sheep","animals","2","0","","bad","[-3]"
"html-keyboard-response","78","442886","0.0-9.0-2.0-0.3","5433","2","24","Female","approach_avoid_spark_v1","""event"",""trial"",""time""
""fullscreenenter"",""1"",""1489""
""blur"",""13"",""83172""
""focus"",""13"",""84935""
","""event"",""trial"",""time""
""blur"",""13"",""83172""
","""event"",""trial"",""time""
""focus"",""13"",""84935""
","""event"",""trial"",""time""
""fullscreenenter"",""1"",""1489""
","
","","","","","","null","<div style=""font-size:60px;"">+</div>","null","","fixation","","","","","","","","","","",""
"aa-learning-trial","79","445907","0.0-9.0-2.0-1.3","5433","2","24","Female","approach_avoid_spark_v1","""event"",""trial"",""time""
""fullscreenenter"",""1"",""1489""
""blur"",""13"",""83172""
""focus"",""13"",""84935""
","""event"",""trial"",""time""
""blur"",""13"",""83172""
","""event"",""trial"",""time""
""focus"",""13"",""84935""
","""event"",""trial"",""time""
""fullscreenenter"",""1"",""1489""
","
","","","","","","996.7000000476837","images/cow2.png","","","learning","6","0","0","0","cow","animals","2","0","","good","[6]"
"html-keyboard-response","80","446420","0.0-9.0-2.0-0.4","5433","2","24","Female","approach_avoid_spark_v1","""event"",""trial"",""time""
""fullscreenenter"",""1"",""1489""
""blur"",""13"",""83172""
""focus"",""13"",""84935""
","""event"",""trial"",""time""
""blur"",""13"",""83172""
","""event"",""trial"",""time""
""focus"",""13"",""84935""
","""event"",""trial"",""time""
""fullscreenenter"",""1"",""1489""
","
","","","","","","null","<div style=""font-size:60px;"">+</div>","null","","fixation","","","","","","","","","","",""
"aa-learning-trial","81","449444","0.0-9.0-2.0-1.4","5433","2","24","Female","approach_avoid_spark_v1","""event"",""trial"",""time""
""fullscreenenter"",""1"",""1489""
""blur"",""13"",""83172""
""focus"",""13"",""84935""
","""event"",""trial"",""time""
""blur"",""13"",""83172""
","""event"",""trial"",""time""
""focus"",""13"",""84935""
","""event"",""trial"",""time""
""fullscreenenter"",""1"",""1489""
","
","","","","","","1270","images/goat5.png","","","learning","-5","0","0","0","goat","animals","2","0","","neutral","0"
"html-keyboard-response","82","449956","0.0-9.0-2.0-0.5","5433","2","24","Female","approach_avoid_spark_v1","""event"",""trial"",""time""
""fullscreenenter"",""1"",""1489""
""blur"",""13"",""83172""
""focus"",""13"",""84935""
","""event"",""trial"",""time""
""blur"",""13"",""83172""
","""event"",""trial"",""time""
""focus"",""13"",""84935""
","""event"",""trial"",""time""
""fullscreenenter"",""1"",""1489""
","
","","","","","","null","<div style=""font-size:60px;"">+</div>","null","","fixation","","","","","","","","","","",""
"aa-learning-trial","83","452980","0.0-9.0-2.0-1.5","5433","2","24","Female","approach_avoid_spark_v1","""event"",""trial"",""time""
""fullscreenenter"",""1"",""1489""
""blur"",""13"",""83172""
""focus"",""13"",""84935""
","""event"",""trial"",""time""
""blur"",""13"",""83172""
","""event"",""trial"",""time""
""focus"",""13"",""84935""
","""event"",""trial"",""time""
""fullscreenenter"",""1"",""1489""
","
","","","","","","1132","images/goat1.png","","","learning","4","0","0","0","goat","animals","2","0","","neutral","0"
"html-keyboard-response","84","453496","0.0-9.0-2.0-0.6","5433","2","24","Female","approach_avoid_spark_v1","""event"",""trial"",""time""
""fullscreenenter"",""1"",""1489""
""blur"",""13"",""83172""
""focus"",""13"",""84935""
","""event"",""trial"",""time""
""blur"",""13"",""83172""
","""event"",""trial"",""time""
""focus"",""13"",""84935""
","""event"",""trial"",""time""
""fullscreenenter"",""1"",""1489""
","
","","","","","","null","<div style=""font-size:60px;"">+</div>","null","","fixation","","","","","","","","","","",""
"aa-learning-trial","85","456504","0.0-9.0-2.0-1.6","5433","2","24","Female","approach_avoid_spark_v1","""event"",""trial"",""time""
""fullscreenenter"",""1"",""1489""
""blur"",""13"",""83172""
""focus"",""13"",""84935""
","""event"",""trial"",""time""
""blur"",""13"",""83172""
","""event"",""trial"",""time""
""focus"",""13"",""84935""
","""event"",""trial"",""time""
""fullscreenenter"",""1"",""1489""
","
","","","","","","865.7000000476837","images/sheep6.png","","","learning","-9","-9","1","1","sheep","animals","2","0","","bad","[-3]"
"html-keyboard-response","86","457005","0.0-9.0-2.0-0.7","5433","2","24","Female","approach_avoid_spark_v1","""event"",""trial"",""time""
""fullscreenenter"",""1"",""1489""
""blur"",""13"",""83172""
""focus"",""13"",""84935""
","""event"",""trial"",""time""
""blur"",""13"",""83172""
","""event"",""trial"",""time""
""focus"",""13"",""84935""
","""event"",""trial"",""time""
""fullscreenenter"",""1"",""1489""
","
","","","","","","null","<div style=""font-size:60px;"">+</div>","null","","fixation","","","","","","","","","","",""
"aa-learning-trial","87","460008","0.0-9.0-2.0-1.7","5433","2","24","Female","approach_avoid_spark_v1","""event"",""trial"",""time""
""fullscreenenter"",""1"",""1489""
""blur"",""13"",""83172""
""focus"",""13"",""84935""
","""event"",""trial"",""time""
""blur"",""13"",""83172""
","""event"",""trial"",""time""
""focus"",""13"",""84935""
","""event"",""trial"",""time""
""fullscreenenter"",""1"",""1489""
","
","","","","","","863.2000000476837","images/goat1.png","","","learning","4","0","0","0","goat","animals","2","0","","neutral","0"
"html-keyboard-response","88","460513","0.0-9.0-2.0-0.8","5433","2","24","Female","approach_avoid_spark_v1","""event"",""trial"",""time""
""fullscreenenter"",""1"",""1489""
""blur"",""13"",""83172""
""focus"",""13"",""84935""
","""event"",""trial"",""time""
""blur"",""13"",""83172""
","""event"",""trial"",""time""
""focus"",""13"",""84935""
","""event"",""trial"",""time""
""fullscreenenter"",""1"",""1489""
","
","","","","","","null","<div style=""font-size:60px;"">+</div>","null","","fixation","","","","","","","","","","",""
"aa-learning-trial","89","463519","0.0-9.0-2.0-1.8","5433","2","24","Female","approach_avoid_spark_v1","""event"",""trial"",""time""
""fullscreenenter"",""1"",""1489""
""blur"",""13"",""83172""
""focus"",""13"",""84935""
","""event"",""trial"",""time""
""blur"",""13"",""83172""
","""event"",""trial"",""time""
""focus"",""13"",""84935""
","""event"",""trial"",""time""
""fullscreenenter"",""1"",""1489""
","
","","","","","","1492","images/cow2.png","","","learning","6","6","1","1","cow","animals","2","0","","good","[6]"
"html-keyboard-response","90","464031","0.0-9.0-2.0-0.9","5433","2","24","Female","approach_avoid_spark_v1","""event"",""trial"",""time""
""fullscreenenter"",""1"",""1489""
""blur"",""13"",""83172""
""focus"",""13"",""84935""
","""event"",""trial"",""time""
""blur"",""13"",""83172""
","""event"",""trial"",""time""
""focus"",""13"",""84935""
","""event"",""trial"",""time""
""fullscreenenter"",""1"",""1489""
","
","","","","","","null","<div style=""font-size:60px;"">+</div>","null","","fixation","","","","","","","","","","",""
"aa-learning-trial","91","467041","0.0-9.0-2.0-1.9","5433","2","24","Female","approach_avoid_spark_v1","""event"",""trial"",""time""
""fullscreenenter"",""1"",""1489""
""blur"",""13"",""83172""
""focus"",""13"",""84935""
","""event"",""trial"",""time""
""blur"",""13"",""83172""
","""event"",""trial"",""time""
""focus"",""13"",""84935""
","""event"",""trial"",""time""
""fullscreenenter"",""1"",""1489""
","
","","","","","","1037.0999999046326","images/sheep6.png","","","learning","-9","-9","1","1","sheep","animals","2","0","","bad","[-3]"
"html-keyboard-response","92","467545","0.0-9.0-2.0-0.10","5433","2","24","Female","approach_avoid_spark_v1","""event"",""trial"",""time""
""fullscreenenter"",""1"",""1489""
""blur"",""13"",""83172""
""focus"",""13"",""84935""
","""event"",""trial"",""time""
""blur"",""13"",""83172""
","""event"",""trial"",""time""
""focus"",""13"",""84935""
","""event"",""trial"",""time""
""fullscreenenter"",""1"",""1489""
","
","","","","","","null","<div style=""font-size:60px;"">+</div>","null","","fixation","","","","","","","","","","",""
"aa-learning-trial","93","470553","0.0-9.0-2.0-1.10","5433","2","24","Female","approach_avoid_spark_v1","""event"",""trial"",""time""
""fullscreenenter"",""1"",""1489""
""blur"",""13"",""83172""
""focus"",""13"",""84935""
","""event"",""trial"",""time""
""blur"",""13"",""83172""
","""event"",""trial"",""time""
""focus"",""13"",""84935""
","""event"",""trial"",""time""
""fullscreenenter"",""1"",""1489""
","
","","","","","","948.7000000476837","images/cow8.png","","","learning","2","2","1","1","cow","animals","2","0","","good","[6]"
"html-keyboard-response","94","471057","0.0-9.0-2.0-0.11","5433","2","24","Female","approach_avoid_spark_v1","""event"",""trial"",""time""
""fullscreenenter"",""1"",""1489""
""blur"",""13"",""83172""
""focus"",""13"",""84935""
","""event"",""trial"",""time""
""blur"",""13"",""83172""
","""event"",""trial"",""time""
""focus"",""13"",""84935""
","""event"",""trial"",""time""
""fullscreenenter"",""1"",""1489""
","
","","","","","","null","<div style=""font-size:60px;"">+</div>","null","","fixation","","","","","","","","","","",""
"aa-learning-trial","95","474066","0.0-9.0-2.0-1.11","5433","2","24","Female","approach_avoid_spark_v1","""event"",""trial"",""time""
""fullscreenenter"",""1"",""1489""
""blur"",""13"",""83172""
""focus"",""13"",""84935""
","""event"",""trial"",""time""
""blur"",""13"",""83172""
","""event"",""trial"",""time""
""focus"",""13"",""84935""
","""event"",""trial"",""time""
""fullscreenenter"",""1"",""1489""
","
","","","","","","882.5","images/goat6.png","","","learning","-8","-8","1","1","goat","animals","2","0","","neutral","0"
"html-keyboard-response","96","474569","0.0-9.0-2.0-0.12","5433","2","24","Female","approach_avoid_spark_v1","""event"",""trial"",""time""
""fullscreenenter"",""1"",""1489""
""blur"",""13"",""83172""
""focus"",""13"",""84935""
","""event"",""trial"",""time""
""blur"",""13"",""83172""
","""event"",""trial"",""time""
""focus"",""13"",""84935""
","""event"",""trial"",""time""
""fullscreenenter"",""1"",""1489""
","
","","","","","","null","<div style=""font-size:60px;"">+</div>","null","","fixation","","","","","","","","","","",""
"aa-learning-trial","97","477576","0.0-9.0-2.0-1.12","5433","2","24","Female","approach_avoid_spark_v1","""event"",""trial"",""time""
""fullscreenenter"",""1"",""1489""
""blur"",""13"",""83172""
""focus"",""13"",""84935""
","""event"",""trial"",""time""
""blur"",""13"",""83172""
","""event"",""trial"",""time""
""focus"",""13"",""84935""
","""event"",""trial"",""time""
""fullscreenenter"",""1"",""1489""
","
","","","","","","1426.5999999046326","images/cow1.png","","","learning","3","3","1","1","cow","animals","2","0","","good","[6]"
"html-keyboard-response","98","478082","0.0-9.0-2.0-0.13","5433","2","24","Female","approach_avoid_spark_v1","""event"",""trial"",""time""
""fullscreenenter"",""1"",""1489""
""blur"",""13"",""83172""
""focus"",""13"",""84935""
","""event"",""trial"",""time""
""blur"",""13"",""83172""
","""event"",""trial"",""time""
""focus"",""13"",""84935""
","""event"",""trial"",""time""
""fullscreenenter"",""1"",""1489""
","
","","","","","","null","<div style=""font-size:60px;"">+</div>","null","","fixation","","","","","","","","","","",""
"aa-learning-trial","99","481091","0.0-9.0-2.0-1.13","5433","2","24","Female","approach_avoid_spark_v1","""event"",""trial"",""time""
""fullscreenenter"",""1"",""1489""
""blur"",""13"",""83172""
""focus"",""13"",""84935""
","""event"",""trial"",""time""
""blur"",""13"",""83172""
","""event"",""trial"",""time""
""focus"",""13"",""84935""
","""event"",""trial"",""time""
""fullscreenenter"",""1"",""1489""
","
","","","","","","1292.6000001430511","images/sheep3.png","","","learning","-3","0","0","0","sheep","animals","2","0","","bad","[-3]"
"html-keyboard-response","100","481593","0.0-9.0-2.0-0.14","5433","2","24","Female","approach_avoid_spark_v1","""event"",""trial"",""time""
""fullscreenenter"",""1"",""1489""
""blur"",""13"",""83172""
""focus"",""13"",""84935""
","""event"",""trial"",""time""
""blur"",""13"",""83172""
","""event"",""trial"",""time""
""focus"",""13"",""84935""
","""event"",""trial"",""time""
""fullscreenenter"",""1"",""1489""
","
","","","","","","null","<div style=""font-size:60px;"">+</div>","null","","fixation","","","","","","","","","","",""
"aa-learning-trial","101","484601","0.0-9.0-2.0-1.14","5433","2","24","Female","approach_avoid_spark_v1","""event"",""trial"",""time""
""fullscreenenter"",""1"",""1489""
""blur"",""13"",""83172""
""focus"",""13"",""84935""
","""event"",""trial"",""time""
""blur"",""13"",""83172""
","""event"",""trial"",""time""
""focus"",""13"",""84935""
","""event"",""trial"",""time""
""fullscreenenter"",""1"",""1489""
","
","","","","","","1317","images/goat6.png","","","learning","-8","0","0","0","goat","animals","2","0","","neutral","0"
"html-keyboard-response","102","485119","0.0-9.0-2.0-0.15","5433","2","24","Female","approach_avoid_spark_v1","""event"",""trial"",""time""
""fullscreenenter"",""1"",""1489""
""blur"",""13"",""83172""
""focus"",""13"",""84935""
","""event"",""trial"",""time""
""blur"",""13"",""83172""
","""event"",""trial"",""time""
""focus"",""13"",""84935""
","""event"",""trial"",""time""
""fullscreenenter"",""1"",""1489""
","
","","","","","","null","<div style=""font-size:60px;"">+</div>","null","","fixation","","","","","","","","","","",""
"aa-learning-trial","103","488130","0.0-9.0-2.0-1.15","5433","2","24","Female","approach_avoid_spark_v1","""event"",""trial"",""time""
""fullscreenenter"",""1"",""1489""
""blur"",""13"",""83172""
""focus"",""13"",""84935""
","""event"",""trial"",""time""
""blur"",""13"",""83172""
","""event"",""trial"",""time""
""focus"",""13"",""84935""
","""event"",""trial"",""time""
""fullscreenenter"",""1"",""1489""
","
","","","","","","892.4000000953674","images/cow8.png","","","learning","2","2","1","1","cow","animals","2","0","","good","[6]"
"html-keyboard-response","104","488634","0.0-9.0-2.0-0.16","5433","2","24","Female","approach_avoid_spark_v1","""event"",""trial"",""time""
""fullscreenenter"",""1"",""1489""
""blur"",""13"",""83172""
""focus"",""13"",""84935""
","""event"",""trial"",""time""
""blur"",""13"",""83172""
","""event"",""trial"",""time""
""focus"",""13"",""84935""
","""event"",""trial"",""time""
""fullscreenenter"",""1"",""1489""
","
","","","","","","null","<div style=""font-size:60px;"">+</div>","null","","fixation","","","","","","","","","","",""
"aa-learning-trial","105","491640","0.0-9.0-2.0-1.16","5433","2","24","Female","approach_avoid_spark_v1","""event"",""trial"",""time""
""fullscreenenter"",""1"",""1489""
""blur"",""13"",""83172""
""focus"",""13"",""84935""
","""event"",""trial"",""time""
""blur"",""13"",""83172""
","""event"",""trial"",""time""
""focus"",""13"",""84935""
","""event"",""trial"",""time""
""fullscreenenter"",""1"",""1489""
","
","","","","","","1049.9000000953674","images/cow2.png","","","learning","6","6","1","1","cow","animals","2","0","","good","[6]"
"html-keyboard-response","106","492146","0.0-9.0-2.0-0.17","5433","2","24","Female","approach_avoid_spark_v1","""event"",""trial"",""time""
""fullscreenenter"",""1"",""1489""
""blur"",""13"",""83172""
""focus"",""13"",""84935""
","""event"",""trial"",""time""
""blur"",""13"",""83172""
","""event"",""trial"",""time""
""focus"",""13"",""84935""
","""event"",""trial"",""time""
""fullscreenenter"",""1"",""1489""
","
","","","","","","null","<div style=""font-size:60px;"">+</div>","null","","fixation","","","","","","","","","","",""
"aa-learning-trial","107","495153","0.0-9.0-2.0-1.17","5433","2","24","Female","approach_avoid_spark_v1","""event"",""trial"",""time""
""fullscreenenter"",""1"",""1489""
""blur"",""13"",""83172""
""focus"",""13"",""84935""
","""event"",""trial"",""time""
""blur"",""13"",""83172""
","""event"",""trial"",""time""
""focus"",""13"",""84935""
","""event"",""trial"",""time""
""fullscreenenter"",""1"",""1489""
","
","","","","","","825.9000000953674","images/sheep6.png","","","learning","-9","0","0","0","sheep","animals","2","0","","bad","[-3]"
"html-keyboard-response","108","495657","0.0-9.0-2.0-0.18","5433","2","24","Female","approach_avoid_spark_v1","""event"",""trial"",""time""
""fullscreenenter"",""1"",""1489""
""blur"",""13"",""83172""
""focus"",""13"",""84935""
","""event"",""trial"",""time""
""blur"",""13"",""83172""
","""event"",""trial"",""time""
""focus"",""13"",""84935""
","""event"",""trial"",""time""
""fullscreenenter"",""1"",""1489""
","
","","","","","","null","<div style=""font-size:60px;"">+</div>","null","","fixation","","","","","","","","","","",""
"aa-learning-trial","109","498666","0.0-9.0-2.0-1.18","5433","2","24","Female","approach_avoid_spark_v1","""event"",""trial"",""time""
""fullscreenenter"",""1"",""1489""
""blur"",""13"",""83172""
""focus"",""13"",""84935""
","""event"",""trial"",""time""
""blur"",""13"",""83172""
","""event"",""trial"",""time""
""focus"",""13"",""84935""
","""event"",""trial"",""time""
""fullscreenenter"",""1"",""1489""
","
","","","","","","1169.5","images/sheep5.png","","","learning","5","0","0","0","sheep","animals","2","0","","bad","[-3]"
"html-keyboard-response","110","499169","0.0-9.0-2.0-0.19","5433","2","24","Female","approach_avoid_spark_v1","""event"",""trial"",""time""
""fullscreenenter"",""1"",""1489""
""blur"",""13"",""83172""
""focus"",""13"",""84935""
","""event"",""trial"",""time""
""blur"",""13"",""83172""
","""event"",""trial"",""time""
""focus"",""13"",""84935""
","""event"",""trial"",""time""
""fullscreenenter"",""1"",""1489""
","
","","","","","","null","<div style=""font-size:60px;"">+</div>","null","","fixation","","","","","","","","","","",""
"aa-learning-trial","111","502178","0.0-9.0-2.0-1.19","5433","2","24","Female","approach_avoid_spark_v1","""event"",""trial"",""time""
""fullscreenenter"",""1"",""1489""
""blur"",""13"",""83172""
""focus"",""13"",""84935""
","""event"",""trial"",""time""
""blur"",""13"",""83172""
","""event"",""trial"",""time""
""focus"",""13"",""84935""
","""event"",""trial"",""time""
""fullscreenenter"",""1"",""1489""
","
","","","","","","1298.2999999523163","images/goat1.png","","","learning","4","4","1","1","goat","animals","2","0","","neutral","0"
"html-keyboard-response","112","502681","0.0-9.0-2.0-0.20","5433","2","24","Female","approach_avoid_spark_v1","""event"",""trial"",""time""
""fullscreenenter"",""1"",""1489""
""blur"",""13"",""83172""
""focus"",""13"",""84935""
","""event"",""trial"",""time""
""blur"",""13"",""83172""
","""event"",""trial"",""time""
""focus"",""13"",""84935""
","""event"",""trial"",""time""
""fullscreenenter"",""1"",""1489""
","
","","","","","","null","<div style=""font-size:60px;"">+</div>","null","","fixation","","","","","","","","","","",""
"aa-learning-trial","113","505690","0.0-9.0-2.0-1.20","5433","2","24","Female","approach_avoid_spark_v1","""event"",""trial"",""time""
""fullscreenenter"",""1"",""1489""
""blur"",""13"",""83172""
""focus"",""13"",""84935""
","""event"",""trial"",""time""
""blur"",""13"",""83172""
","""event"",""trial"",""time""
""focus"",""13"",""84935""
","""event"",""trial"",""time""
""fullscreenenter"",""1"",""1489""
","
","","","","","","761.5","images/goat6.png","","","learning","-8","0","0","0","goat","animals","2","0","","neutral","0"
"html-keyboard-response","114","506194","0.0-9.0-2.0-0.21","5433","2","24","Female","approach_avoid_spark_v1","""event"",""trial"",""time""
""fullscreenenter"",""1"",""1489""
""blur"",""13"",""83172""
""focus"",""13"",""84935""
","""event"",""trial"",""time""
""blur"",""13"",""83172""
","""event"",""trial"",""time""
""focus"",""13"",""84935""
","""event"",""trial"",""time""
""fullscreenenter"",""1"",""1489""
","
","","","","","","null","<div style=""font-size:60px;"">+</div>","null","","fixation","","","","","","","","","","",""
"aa-learning-trial","115","509201","0.0-9.0-2.0-1.21","5433","2","24","Female","approach_avoid_spark_v1","""event"",""trial"",""time""
""fullscreenenter"",""1"",""1489""
""blur"",""13"",""83172""
""focus"",""13"",""84935""
","""event"",""trial"",""time""
""blur"",""13"",""83172""
","""event"",""trial"",""time""
""focus"",""13"",""84935""
","""event"",""trial"",""time""
""fullscreenenter"",""1"",""1489""
","
","","","","","","1165.3999998569489","images/sheep1.png","","","learning","-1","-1","1","1","sheep","animals","2","0","","bad","[-3]"
"html-keyboard-response","116","509706","0.0-9.0-2.0-0.22","5433","2","24","Female","approach_avoid_spark_v1","""event"",""trial"",""time""
""fullscreenenter"",""1"",""1489""
""blur"",""13"",""83172""
""focus"",""13"",""84935""
","""event"",""trial"",""time""
""blur"",""13"",""83172""
","""event"",""trial"",""time""
""focus"",""13"",""84935""
","""event"",""trial"",""time""
""fullscreenenter"",""1"",""1489""
","
","","","","","","null","<div style=""font-size:60px;"">+</div>","null","","fixation","","","","","","","","","","",""
"aa-learning-trial","117","512714","0.0-9.0-2.0-1.22","5433","2","24","Female","approach_avoid_spark_v1","""event"",""trial"",""time""
""fullscreenenter"",""1"",""1489""
""blur"",""13"",""83172""
""focus"",""13"",""84935""
","""event"",""trial"",""time""
""blur"",""13"",""83172""
","""event"",""trial"",""time""
""focus"",""13"",""84935""
","""event"",""trial"",""time""
""fullscreenenter"",""1"",""1489""
","
","","","","","","898.8999998569489","images/sheep8.png","","","learning","8","8","1","1","sheep","animals","2","0","","bad","[-3]"
"html-keyboard-response","118","513219","0.0-9.0-2.0-0.23","5433","2","24","Female","approach_avoid_spark_v1","""event"",""trial"",""time""
""fullscreenenter"",""1"",""1489""
""blur"",""13"",""83172""
""focus"",""13"",""84935""
","""event"",""trial"",""time""
""blur"",""13"",""83172""
","""event"",""trial"",""time""
""focus"",""13"",""84935""
","""event"",""trial"",""time""
""fullscreenenter"",""1"",""1489""
","
","","","","","","null","<div style=""font-size:60px;"">+</div>","null","","fixation","","","","","","","","","","",""
"aa-learning-trial","119","516226","0.0-9.0-2.0-1.23","5433","2","24","Female","approach_avoid_spark_v1","""event"",""trial"",""time""
""fullscreenenter"",""1"",""1489""
""blur"",""13"",""83172""
""focus"",""13"",""84935""
","""event"",""trial"",""time""
""blur"",""13"",""83172""
","""event"",""trial"",""time""
""focus"",""13"",""84935""
","""event"",""trial"",""time""
""fullscreenenter"",""1"",""1489""
","
","","","","","","1144.2999999523163","images/goat1.png","","","learning","4","4","1","1","goat","animals","2","0","","neutral","0"
"html-keyboard-response","120","516729","0.0-9.0-2.0-0.24","5433","2","24","Female","approach_avoid_spark_v1","""event"",""trial"",""time""
""fullscreenenter"",""1"",""1489""
""blur"",""13"",""83172""
""focus"",""13"",""84935""
","""event"",""trial"",""time""
""blur"",""13"",""83172""
","""event"",""trial"",""time""
""focus"",""13"",""84935""
","""event"",""trial"",""time""
""fullscreenenter"",""1"",""1489""
","
","","","","","","null","<div style=""font-size:60px;"">+</div>","null","","fixation","","","","","","","","","","",""
"aa-learning-trial","121","519738","0.0-9.0-2.0-1.24","5433","2","24","Female","approach_avoid_spark_v1","""event"",""trial"",""time""
""fullscreenenter"",""1"",""1489""
""blur"",""13"",""83172""
""focus"",""13"",""84935""
","""event"",""trial"",""time""
""blur"",""13"",""83172""
","""event"",""trial"",""time""
""focus"",""13"",""84935""
","""event"",""trial"",""time""
""fullscreenenter"",""1"",""1489""
","
","","","","","","723.2000000476837","images/cow8.png","","","learning","2","2","1","1","cow","animals","2","0","","good","[6]"
"html-keyboard-response","122","520242","0.0-9.0-2.0-0.25","5433","2","24","Female","approach_avoid_spark_v1","""event"",""trial"",""time""
""fullscreenenter"",""1"",""1489""
""blur"",""13"",""83172""
""focus"",""13"",""84935""
","""event"",""trial"",""time""
""blur"",""13"",""83172""
","""event"",""trial"",""time""
""focus"",""13"",""84935""
","""event"",""trial"",""time""
""fullscreenenter"",""1"",""1489""
","
","","","","","","null","<div style=""font-size:60px;"">+</div>","null","","fixation","","","","","","","","","","",""
"aa-learning-trial","123","523250","0.0-9.0-2.0-1.25","5433","2","24","Female","approach_avoid_spark_v1","""event"",""trial"",""time""
""fullscreenenter"",""1"",""1489""
""blur"",""13"",""83172""
""focus"",""13"",""84935""
","""event"",""trial"",""time""
""blur"",""13"",""83172""
","""event"",""trial"",""time""
""focus"",""13"",""84935""
","""event"",""trial"",""time""
""fullscreenenter"",""1"",""1489""
","
","","","","","","983.5999999046326","images/cow2.png","","","learning","6","6","1","1","cow","animals","2","0","","good","[6]"
"html-keyboard-response","124","523753","0.0-9.0-2.0-0.26","5433","2","24","Female","approach_avoid_spark_v1","""event"",""trial"",""time""
""fullscreenenter"",""1"",""1489""
""blur"",""13"",""83172""
""focus"",""13"",""84935""
","""event"",""trial"",""time""
""blur"",""13"",""83172""
","""event"",""trial"",""time""
""focus"",""13"",""84935""
","""event"",""trial"",""time""
""fullscreenenter"",""1"",""1489""
","
","","","","","","null","<div style=""font-size:60px;"">+</div>","null","","fixation","","","","","","","","","","",""
"aa-learning-trial","125","526762","0.0-9.0-2.0-1.26","5433","2","24","Female","approach_avoid_spark_v1","""event"",""trial"",""time""
""fullscreenenter"",""1"",""1489""
""blur"",""13"",""83172""
""focus"",""13"",""84935""
","""event"",""trial"",""time""
""blur"",""13"",""83172""
","""event"",""trial"",""time""
""focus"",""13"",""84935""
","""event"",""trial"",""time""
""fullscreenenter"",""1"",""1489""
","
","","","","","","1008.0999999046326","images/cow5.png","","","learning","-4","0","0","0","cow","animals","2","0","","good","[6]"
"html-keyboard-response","126","527265","0.0-9.0-2.0-0.27","5433","2","24","Female","approach_avoid_spark_v1","""event"",""trial"",""time""
""fullscreenenter"",""1"",""1489""
""blur"",""13"",""83172""
""focus"",""13"",""84935""
","""event"",""trial"",""time""
""blur"",""13"",""83172""
","""event"",""trial"",""time""
""focus"",""13"",""84935""
","""event"",""trial"",""time""
""fullscreenenter"",""1"",""1489""
","
","","","","","","null","<div style=""font-size:60px;"">+</div>","null","","fixation","","","","","","","","","","",""
"aa-learning-trial","127","530273","0.0-9.0-2.0-1.27","5433","2","24","Female","approach_avoid_spark_v1","""event"",""trial"",""time""
""fullscreenenter"",""1"",""1489""
""blur"",""13"",""83172""
""focus"",""13"",""84935""
","""event"",""trial"",""time""
""blur"",""13"",""83172""
","""event"",""trial"",""time""
""focus"",""13"",""84935""
","""event"",""trial"",""time""
""fullscreenenter"",""1"",""1489""
","
","","","","","","768.5","images/goat6.png","","","learning","-8","0","0","0","goat","animals","2","0","","neutral","0"
"html-keyboard-response","128","530782","0.0-9.0-2.0-0.28","5433","2","24","Female","approach_avoid_spark_v1","""event"",""trial"",""time""
""fullscreenenter"",""1"",""1489""
""blur"",""13"",""83172""
""focus"",""13"",""84935""
","""event"",""trial"",""time""
""blur"",""13"",""83172""
","""event"",""trial"",""time""
""focus"",""13"",""84935""
","""event"",""trial"",""time""
""fullscreenenter"",""1"",""1489""
","
","","","","","","null","<div style=""font-size:60px;"">+</div>","null","","fixation","","","","","","","","","","",""
"aa-learning-trial","129","533794","0.0-9.0-2.0-1.28","5433","2","24","Female","approach_avoid_spark_v1","""event"",""trial"",""time""
""fullscreenenter"",""1"",""1489""
""blur"",""13"",""83172""
""focus"",""13"",""84935""
","""event"",""trial"",""time""
""blur"",""13"",""83172""
","""event"",""trial"",""time""
""focus"",""13"",""84935""
","""event"",""trial"",""time""
""fullscreenenter"",""1"",""1489""
","
","","","","","","1167.2000000476837","images/goat4.png","","","learning","1","0","0","0","goat","animals","2","0","","neutral","0"
"html-keyboard-response","130","534298","0.0-9.0-2.0-0.29","5433","2","24","Female","approach_avoid_spark_v1","""event"",""trial"",""time""
""fullscreenenter"",""1"",""1489""
""blur"",""13"",""83172""
""focus"",""13"",""84935""
","""event"",""trial"",""time""
""blur"",""13"",""83172""
","""event"",""trial"",""time""
""focus"",""13"",""84935""
","""event"",""trial"",""time""
""fullscreenenter"",""1"",""1489""
","
","","","","","","null","<div style=""font-size:60px;"">+</div>","null","","fixation","","","","","","","","","","",""
"aa-learning-trial","131","537314","0.0-9.0-2.0-1.29","5433","2","24","Female","approach_avoid_spark_v1","""event"",""trial"",""time""
""fullscreenenter"",""1"",""1489""
""blur"",""13"",""83172""
""focus"",""13"",""84935""
","""event"",""trial"",""time""
""blur"",""13"",""83172""
","""event"",""trial"",""time""
""focus"",""13"",""84935""
","""event"",""trial"",""time""
""fullscreenenter"",""1"",""1489""
","
","","","","","","1343.5999999046326","images/sheep1.png","","","learning","-1","-1","1","1","sheep","animals","2","0","","bad","[-3]"
"html-keyboard-response","132","537817","0.0-9.0-2.0-0.30","5433","2","24","Female","approach_avoid_spark_v1","""event"",""trial"",""time""
""fullscreenenter"",""1"",""1489""
""blur"",""13"",""83172""
""focus"",""13"",""84935""
","""event"",""trial"",""time""
""blur"",""13"",""83172""
","""event"",""trial"",""time""
""focus"",""13"",""84935""
","""event"",""trial"",""time""
""fullscreenenter"",""1"",""1489""
","
","","","","","","null","<div style=""font-size:60px;"">+</div>","null","","fixation","","","","","","","","","","",""
"aa-learning-trial","133","540825","0.0-9.0-2.0-1.30","5433","2","24","Female","approach_avoid_spark_v1","""event"",""trial"",""time""
""fullscreenenter"",""1"",""1489""
""blur"",""13"",""83172""
""focus"",""13"",""84935""
","""event"",""trial"",""time""
""blur"",""13"",""83172""
","""event"",""trial"",""time""
""focus"",""13"",""84935""
","""event"",""trial"",""time""
""fullscreenenter"",""1"",""1489""
","
","","","","","","913.7000000476837","images/sheep1.png","","","learning","-1","0","0","0","sheep","animals","2","0","","bad","[-3]"
"html-keyboard-response","134","541330","0.0-9.0-2.0-0.31","5433","2","24","Female","approach_avoid_spark_v1","""event"",""trial"",""time""
""fullscreenenter"",""1"",""1489""
""blur"",""13"",""83172""
""focus"",""13"",""84935""
","""event"",""trial"",""time""
""blur"",""13"",""83172""
","""event"",""trial"",""time""
""focus"",""13"",""84935""
","""event"",""trial"",""time""
""fullscreenenter"",""1"",""1489""
","
","","","","","","null","<div style=""font-size:60px;"">+</div>","null","","fixation","","","","","","","","","","",""
"aa-learning-trial","135","544338","0.0-9.0-2.0-1.31","5433","2","24","Female","approach_avoid_spark_v1","""event"",""trial"",""time""
""fullscreenenter"",""1"",""1489""
""blur"",""13"",""83172""
""focus"",""13"",""84935""
","""event"",""trial"",""time""
""blur"",""13"",""83172""
","""event"",""trial"",""time""
""focus"",""13"",""84935""
","""event"",""trial"",""time""
""fullscreenenter"",""1"",""1489""
","
","","","","","","1042.0999999046326","images/cow8.png","","","learning","2","2","1","1","cow","animals","2","0","","good","[6]"
"html-keyboard-response","136","544841","0.0-9.0-2.0-0.32","5433","2","24","Female","approach_avoid_spark_v1","""event"",""trial"",""time""
""fullscreenenter"",""1"",""1489""
""blur"",""13"",""83172""
""focus"",""13"",""84935""
","""event"",""trial"",""time""
""blur"",""13"",""83172""
","""event"",""trial"",""time""
""focus"",""13"",""84935""
","""event"",""trial"",""time""
""fullscreenenter"",""1"",""1489""
","
","","","","","","null","<div style=""font-size:60px;"">+</div>","null","","fixation","","","","","","","","","","",""
"aa-learning-trial","137","547850","0.0-9.0-2.0-1.32","5433","2","24","Female","approach_avoid_spark_v1","""event"",""trial"",""time""
""fullscreenenter"",""1"",""1489""
""blur"",""13"",""83172""
""focus"",""13"",""84935""
","""event"",""trial"",""time""
""blur"",""13"",""83172""
","""event"",""trial"",""time""
""focus"",""13"",""84935""
","""event"",""trial"",""time""
""fullscreenenter"",""1"",""1489""
","
","","","","","","1242.8000001907349","images/sheep6.png","","","learning","-9","-9","1","1","sheep","animals","2","0","","bad","[-3]"
"html-keyboard-response","138","548354","0.0-9.0-2.0-0.33","5433","2","24","Female","approach_avoid_spark_v1","""event"",""trial"",""time""
""fullscreenenter"",""1"",""1489""
""blur"",""13"",""83172""
""focus"",""13"",""84935""
","""event"",""trial"",""time""
""blur"",""13"",""83172""
","""event"",""trial"",""time""
""focus"",""13"",""84935""
","""event"",""trial"",""time""
""fullscreenenter"",""1"",""1489""
","
","","","","","","null","<div style=""font-size:60px;"">+</div>","null","","fixation","","","","","","","","","","",""
"aa-learning-trial","139","551371","0.0-9.0-2.0-1.33","5433","2","24","Female","approach_avoid_spark_v1","""event"",""trial"",""time""
""fullscreenenter"",""1"",""1489""
""blur"",""13"",""83172""
""focus"",""13"",""84935""
","""event"",""trial"",""time""
""blur"",""13"",""83172""
","""event"",""trial"",""time""
""focus"",""13"",""84935""
","""event"",""trial"",""time""
""fullscreenenter"",""1"",""1489""
","
","","","","","","1248.6000001430511","images/cow1.png","","","learning","3","0","0","0","cow","animals","2","0","","good","[6]"
"html-keyboard-response","140","551873","0.0-9.0-2.0-0.34","5433","2","24","Female","approach_avoid_spark_v1","""event"",""trial"",""time""
""fullscreenenter"",""1"",""1489""
""blur"",""13"",""83172""
""focus"",""13"",""84935""
","""event"",""trial"",""time""
""blur"",""13"",""83172""
","""event"",""trial"",""time""
""focus"",""13"",""84935""
","""event"",""trial"",""time""
""fullscreenenter"",""1"",""1489""
","
","","","","","","null","<div style=""font-size:60px;"">+</div>","null","","fixation","","","","","","","","","","",""
"aa-learning-trial","141","554891","0.0-9.0-2.0-1.34","5433","2","24","Female","approach_avoid_spark_v1","""event"",""trial"",""time""
""fullscreenenter"",""1"",""1489""
""blur"",""13"",""83172""
""focus"",""13"",""84935""
","""event"",""trial"",""time""
""blur"",""13"",""83172""
","""event"",""trial"",""time""
""focus"",""13"",""84935""
","""event"",""trial"",""time""
""fullscreenenter"",""1"",""1489""
","
","","","","","","890.2000000476837","images/cow2.png","","","learning","6","6","1","1","cow","animals","2","0","","good","[6]"
"html-keyboard-response","142","555394","0.0-9.0-2.0-0.35","5433","2","24","Female","approach_avoid_spark_v1","""event"",""trial"",""time""
""fullscreenenter"",""1"",""1489""
""blur"",""13"",""83172""
""focus"",""13"",""84935""
","""event"",""trial"",""time""
""blur"",""13"",""83172""
","""event"",""trial"",""time""
""focus"",""13"",""84935""
","""event"",""trial"",""time""
""fullscreenenter"",""1"",""1489""
","
","","","","","","null","<div style=""font-size:60px;"">+</div>","null","","fixation","","","","","","","","","","",""
"aa-learning-trial","143","558402","0.0-9.0-2.0-1.35","5433","2","24","Female","approach_avoid_spark_v1","""event"",""trial"",""time""
""fullscreenenter"",""1"",""1489""
""blur"",""13"",""83172""
""focus"",""13"",""84935""
","""event"",""trial"",""time""
""blur"",""13"",""83172""
","""event"",""trial"",""time""
""focus"",""13"",""84935""
","""event"",""trial"",""time""
""fullscreenenter"",""1"",""1489""
","
","","","","","","839.7999999523163","images/sheep6.png","","","learning","-9","0","0","0","sheep","animals","2","0","","bad","[-3]"
"html-keyboard-response","144","558906","0.0-9.0-2.0-0.36","5433","2","24","Female","approach_avoid_spark_v1","""event"",""trial"",""time""
""fullscreenenter"",""1"",""1489""
""blur"",""13"",""83172""
""focus"",""13"",""84935""
","""event"",""trial"",""time""
""blur"",""13"",""83172""
","""event"",""trial"",""time""
""focus"",""13"",""84935""
","""event"",""trial"",""time""
""fullscreenenter"",""1"",""1489""
","
","","","","","","null","<div style=""font-size:60px;"">+</div>","null","","fixation","","","","","","","","","","",""
"aa-learning-trial","145","561914","0.0-9.0-2.0-1.36","5433","2","24","Female","approach_avoid_spark_v1","""event"",""trial"",""time""
""fullscreenenter"",""1"",""1489""
""blur"",""13"",""83172""
""focus"",""13"",""84935""
","""event"",""trial"",""time""
""blur"",""13"",""83172""
","""event"",""trial"",""time""
""focus"",""13"",""84935""
","""event"",""trial"",""time""
""fullscreenenter"",""1"",""1489""
","
","","","","","","975.5","images/cow7.png","","","learning","-6","0","0","0","cow","animals","2","0","","good","[6]"
"html-keyboard-response","146","562419","0.0-9.0-2.0-0.37","5433","2","24","Female","approach_avoid_spark_v1","""event"",""trial"",""time""
""fullscreenenter"",""1"",""1489""
""blur"",""13"",""83172""
""focus"",""13"",""84935""
","""event"",""trial"",""time""
""blur"",""13"",""83172""
","""event"",""trial"",""time""
""focus"",""13"",""84935""
","""event"",""trial"",""time""
""fullscreenenter"",""1"",""1489""
","
","","","","","","null","<div style=""font-size:60px;"">+</div>","null","","fixation","","","","","","","","","","",""
"aa-learning-trial","147","565438","0.0-9.0-2.0-1.37","5433","2","24","Female","approach_avoid_spark_v1","""event"",""trial"",""time""
""fullscreenenter"",""1"",""1489""
""blur"",""13"",""83172""
""focus"",""13"",""84935""
","""event"",""trial"",""time""
""blur"",""13"",""83172""
","""event"",""trial"",""time""
""focus"",""13"",""84935""
","""event"",""trial"",""time""
""fullscreenenter"",""1"",""1489""
","
","","","","","","799.9000000953674","images/sheep3.png","","","learning","-3","0","0","0","sheep","animals","2","0","","bad","[-3]"
"html-keyboard-response","148","565945","0.0-9.0-2.0-0.38","5433","2","24","Female","approach_avoid_spark_v1","""event"",""trial"",""time""
""fullscreenenter"",""1"",""1489""
""blur"",""13"",""83172""
""focus"",""13"",""84935""
","""event"",""trial"",""time""
""blur"",""13"",""83172""
","""event"",""trial"",""time""
""focus"",""13"",""84935""
","""event"",""trial"",""time""
""fullscreenenter"",""1"",""1489""
","
","","","","","","null","<div style=""font-size:60px;"">+</div>","null","","fixation","","","","","","","","","","",""
"aa-learning-trial","149","568954","0.0-9.0-2.0-1.38","5433","2","24","Female","approach_avoid_spark_v1","""event"",""trial"",""time""
""fullscreenenter"",""1"",""1489""
""blur"",""13"",""83172""
""focus"",""13"",""84935""
","""event"",""trial"",""time""
""blur"",""13"",""83172""
","""event"",""trial"",""time""
""focus"",""13"",""84935""
","""event"",""trial"",""time""
""fullscreenenter"",""1"",""1489""
","
","","","","","","1256.5999999046326","images/goat1.png","","","learning","4","4","1","1","goat","animals","2","0","","neutral","0"
"html-keyboard-response","150","569460","0.0-9.0-2.0-0.39","5433","2","24","Female","approach_avoid_spark_v1","""event"",""trial"",""time""
""fullscreenenter"",""1"",""1489""
""blur"",""13"",""83172""
""focus"",""13"",""84935""
","""event"",""trial"",""time""
""blur"",""13"",""83172""
","""event"",""trial"",""time""
""focus"",""13"",""84935""
","""event"",""trial"",""time""
""fullscreenenter"",""1"",""1489""
","
","","","","","","null","<div style=""font-size:60px;"">+</div>","null","","fixation","","","","","","","","","","",""
"aa-learning-trial","151","572471","0.0-9.0-2.0-1.39","5433","2","24","Female","approach_avoid_spark_v1","""event"",""trial"",""time""
""fullscreenenter"",""1"",""1489""
""blur"",""13"",""83172""
""focus"",""13"",""84935""
","""event"",""trial"",""time""
""blur"",""13"",""83172""
","""event"",""trial"",""time""
""focus"",""13"",""84935""
","""event"",""trial"",""time""
""fullscreenenter"",""1"",""1489""
","
","","","","","","886.5999999046326","images/goat5.png","","","learning","-5","0","0","0","goat","animals","2","0","","neutral","0"
"html-keyboard-response","152","572977","0.0-9.0-2.0-0.40","5433","2","24","Female","approach_avoid_spark_v1","""event"",""trial"",""time""
""fullscreenenter"",""1"",""1489""
""blur"",""13"",""83172""
""focus"",""13"",""84935""
","""event"",""trial"",""time""
""blur"",""13"",""83172""
","""event"",""trial"",""time""
""focus"",""13"",""84935""
","""event"",""trial"",""time""
""fullscreenenter"",""1"",""1489""
","
","","","","","","null","<div style=""font-size:60px;"">+</div>","null","","fixation","","","","","","","","","","",""
"aa-learning-trial","153","575986","0.0-9.0-2.0-1.40","5433","2","24","Female","approach_avoid_spark_v1","""event"",""trial"",""time""
""fullscreenenter"",""1"",""1489""
""blur"",""13"",""83172""
""focus"",""13"",""84935""
","""event"",""trial"",""time""
""blur"",""13"",""83172""
","""event"",""trial"",""time""
""focus"",""13"",""84935""
","""event"",""trial"",""time""
""fullscreenenter"",""1"",""1489""
","
","","","","","","1291.3000001907349","images/cow2.png","","","learning","6","6","1","1","cow","animals","2","0","","good","[6]"
"html-keyboard-response","154","576490","0.0-9.0-2.0-0.41","5433","2","24","Female","approach_avoid_spark_v1","""event"",""trial"",""time""
""fullscreenenter"",""1"",""1489""
""blur"",""13"",""83172""
""focus"",""13"",""84935""
","""event"",""trial"",""time""
""blur"",""13"",""83172""
","""event"",""trial"",""time""
""focus"",""13"",""84935""
","""event"",""trial"",""time""
""fullscreenenter"",""1"",""1489""
","
","","","","","","null","<div style=""font-size:60px;"">+</div>","null","","fixation","","","","","","","","","","",""
"aa-learning-trial","155","579507","0.0-9.0-2.0-1.41","5433","2","24","Female","approach_avoid_spark_v1","""event"",""trial"",""time""
""fullscreenenter"",""1"",""1489""
""blur"",""13"",""83172""
""focus"",""13"",""84935""
","""event"",""trial"",""time""
""blur"",""13"",""83172""
","""event"",""trial"",""time""
""focus"",""13"",""84935""
","""event"",""trial"",""time""
""fullscreenenter"",""1"",""1489""
","
","","","","","","614.7000000476837","images/goat6.png","","","learning","-8","0","0","0","goat","animals","2","0","","neutral","0"
"html-keyboard-response","156","580009","0.0-9.0-2.0-0.42","5433","2","24","Female","approach_avoid_spark_v1","""event"",""trial"",""time""
""fullscreenenter"",""1"",""1489""
""blur"",""13"",""83172""
""focus"",""13"",""84935""
","""event"",""trial"",""time""
""blur"",""13"",""83172""
","""event"",""trial"",""time""
""focus"",""13"",""84935""
","""event"",""trial"",""time""
""fullscreenenter"",""1"",""1489""
","
","","","","","","null","<div style=""font-size:60px;"">+</div>","null","","fixation","","","","","","","","","","",""
"aa-learning-trial","157","583018","0.0-9.0-2.0-1.42","5433","2","24","Female","approach_avoid_spark_v1","""event"",""trial"",""time""
""fullscreenenter"",""1"",""1489""
""blur"",""13"",""83172""
""focus"",""13"",""84935""
","""event"",""trial"",""time""
""blur"",""13"",""83172""
","""event"",""trial"",""time""
""focus"",""13"",""84935""
","""event"",""trial"",""time""
""fullscreenenter"",""1"",""1489""
","
","","","","","","1579.2999999523163","images/cow1.png","","","learning","3","3","1","1","cow","animals","2","0","","good","[6]"
"html-keyboard-response","158","583522","0.0-9.0-2.0-0.43","5433","2","24","Female","approach_avoid_spark_v1","""event"",""trial"",""time""
""fullscreenenter"",""1"",""1489""
""blur"",""13"",""83172""
""focus"",""13"",""84935""
","""event"",""trial"",""time""
""blur"",""13"",""83172""
","""event"",""trial"",""time""
""focus"",""13"",""84935""
","""event"",""trial"",""time""
""fullscreenenter"",""1"",""1489""
","
","","","","","","null","<div style=""font-size:60px;"">+</div>","null","","fixation","","","","","","","","","","",""
"aa-learning-trial","159","586538","0.0-9.0-2.0-1.43","5433","2","24","Female","approach_avoid_spark_v1","""event"",""trial"",""time""
""fullscreenenter"",""1"",""1489""
""blur"",""13"",""83172""
""focus"",""13"",""84935""
","""event"",""trial"",""time""
""blur"",""13"",""83172""
","""event"",""trial"",""time""
""focus"",""13"",""84935""
","""event"",""trial"",""time""
""fullscreenenter"",""1"",""1489""
","
","","","","","","969.2000000476837","images/goat5.png","","","learning","-5","0","0","0","goat","animals","2","0","","neutral","0"
"html-keyboard-response","160","587051","0.0-9.0-2.0-0.44","5433","2","24","Female","approach_avoid_spark_v1","""event"",""trial"",""time""
""fullscreenenter"",""1"",""1489""
""blur"",""13"",""83172""
""focus"",""13"",""84935""
","""event"",""trial"",""time""
""blur"",""13"",""83172""
","""event"",""trial"",""time""
""focus"",""13"",""84935""
","""event"",""trial"",""time""
""fullscreenenter"",""1"",""1489""
","
","","","","","","null","<div style=""font-size:60px;"">+</div>","null","","fixation","","","","","","","","","","",""
"aa-learning-trial","161","590059","0.0-9.0-2.0-1.44","5433","2","24","Female","approach_avoid_spark_v1","""event"",""trial"",""time""
""fullscreenenter"",""1"",""1489""
""blur"",""13"",""83172""
""focus"",""13"",""84935""
","""event"",""trial"",""time""
""blur"",""13"",""83172""
","""event"",""trial"",""time""
""focus"",""13"",""84935""
","""event"",""trial"",""time""
""fullscreenenter"",""1"",""1489""
","
","","","","","","1023.0999999046326","images/sheep3.png","","","learning","-3","0","0","0","sheep","animals","2","0","","bad","[-3]"
"html-keyboard-response","162","590570","0.0-9.0-2.0-0.45","5433","2","24","Female","approach_avoid_spark_v1","""event"",""trial"",""time""
""fullscreenenter"",""1"",""1489""
""blur"",""13"",""83172""
""focus"",""13"",""84935""
","""event"",""trial"",""time""
""blur"",""13"",""83172""
","""event"",""trial"",""time""
""focus"",""13"",""84935""
","""event"",""trial"",""time""
""fullscreenenter"",""1"",""1489""
","
","","","","","","null","<div style=""font-size:60px;"">+</div>","null","","fixation","","","","","","","","","","",""
"aa-learning-trial","163","593596","0.0-9.0-2.0-1.45","5433","2","24","Female","approach_avoid_spark_v1","""event"",""trial"",""time""
""fullscreenenter"",""1"",""1489""
""blur"",""13"",""83172""
""focus"",""13"",""84935""
","""event"",""trial"",""time""
""blur"",""13"",""83172""
","""event"",""trial"",""time""
""focus"",""13"",""84935""
","""event"",""trial"",""time""
""fullscreenenter"",""1"",""1489""
","
","","","","","","648.7000000476837","images/goat6.png","","","learning","-8","0","0","0","goat","animals","2","0","","neutral","0"
"html-keyboard-response","164","594105","0.0-9.0-2.0-0.46","5433","2","24","Female","approach_avoid_spark_v1","""event"",""trial"",""time""
""fullscreenenter"",""1"",""1489""
""blur"",""13"",""83172""
""focus"",""13"",""84935""
","""event"",""trial"",""time""
""blur"",""13"",""83172""
","""event"",""trial"",""time""
""focus"",""13"",""84935""
","""event"",""trial"",""time""
""fullscreenenter"",""1"",""1489""
","
","","","","","","null","<div style=""font-size:60px;"">+</div>","null","","fixation","","","","","","","","","","",""
"aa-learning-trial","165","597121","0.0-9.0-2.0-1.46","5433","2","24","Female","approach_avoid_spark_v1","""event"",""trial"",""time""
""fullscreenenter"",""1"",""1489""
""blur"",""13"",""83172""
""focus"",""13"",""84935""
","""event"",""trial"",""time""
""blur"",""13"",""83172""
","""event"",""trial"",""time""
""focus"",""13"",""84935""
","""event"",""trial"",""time""
""fullscreenenter"",""1"",""1489""
","
","","","","","","1268.7999999523163","images/sheep6.png","","","learning","-9","0","0","0","sheep","animals","2","0","","bad","[-3]"
"html-keyboard-response","166","597626","0.0-9.0-2.0-0.47","5433","2","24","Female","approach_avoid_spark_v1","""event"",""trial"",""time""
""fullscreenenter"",""1"",""1489""
""blur"",""13"",""83172""
""focus"",""13"",""84935""
","""event"",""trial"",""time""
""blur"",""13"",""83172""
","""event"",""trial"",""time""
""focus"",""13"",""84935""
","""event"",""trial"",""time""
""fullscreenenter"",""1"",""1489""
","
","","","","","","null","<div style=""font-size:60px;"">+</div>","null","","fixation","","","","","","","","","","",""
"aa-learning-trial","167","600635","0.0-9.0-2.0-1.47","5433","2","24","Female","approach_avoid_spark_v1","""event"",""trial"",""time""
""fullscreenenter"",""1"",""1489""
""blur"",""13"",""83172""
""focus"",""13"",""84935""
","""event"",""trial"",""time""
""blur"",""13"",""83172""
","""event"",""trial"",""time""
""focus"",""13"",""84935""
","""event"",""trial"",""time""
""fullscreenenter"",""1"",""1489""
","
","","","","","","1852.8999998569489","images/cow8.png","","","learning","2","2","1","1","cow","animals","2","0","","good","[6]"
"html-keyboard-response","168","601140","0.0-9.0-2.0-0.48","5433","2","24","Female","approach_avoid_spark_v1","""event"",""trial"",""time""
""fullscreenenter"",""1"",""1489""
""blur"",""13"",""83172""
""focus"",""13"",""84935""
","""event"",""trial"",""time""
""blur"",""13"",""83172""
","""event"",""trial"",""time""
""focus"",""13"",""84935""
","""event"",""trial"",""time""
""fullscreenenter"",""1"",""1489""
","
","","","","","","null","<div style=""font-size:60px;"">+</div>","null","","fixation","","","","","","","","","","",""
"aa-learning-trial","169","604154","0.0-9.0-2.0-1.48","5433","2","24","Female","approach_avoid_spark_v1","""event"",""trial"",""time""
""fullscreenenter"",""1"",""1489""
""blur"",""13"",""83172""
""focus"",""13"",""84935""
","""event"",""trial"",""time""
""blur"",""13"",""83172""
","""event"",""trial"",""time""
""focus"",""13"",""84935""
","""event"",""trial"",""time""
""fullscreenenter"",""1"",""1489""
","
","","","","","","1157.5999999046326","images/goat1.png","","","learning","4","4","1","1","goat","animals","2","0","","neutral","0"
"html-keyboard-response","170","604671","0.0-9.0-2.0-0.49","5433","2","24","Female","approach_avoid_spark_v1","""event"",""trial"",""time""
""fullscreenenter"",""1"",""1489""
""blur"",""13"",""83172""
""focus"",""13"",""84935""
","""event"",""trial"",""time""
""blur"",""13"",""83172""
","""event"",""trial"",""time""
""focus"",""13"",""84935""
","""event"",""trial"",""time""
""fullscreenenter"",""1"",""1489""
","
","","","","","","null","<div style=""font-size:60px;"">+</div>","null","","fixation","","","","","","","","","","",""
"aa-learning-trial","171","607674","0.0-9.0-2.0-1.49","5433","2","24","Female","approach_avoid_spark_v1","""event"",""trial"",""time""
""fullscreenenter"",""1"",""1489""
""blur"",""13"",""83172""
""focus"",""13"",""84935""
","""event"",""trial"",""time""
""blur"",""13"",""83172""
","""event"",""trial"",""time""
""focus"",""13"",""84935""
","""event"",""trial"",""time""
""fullscreenenter"",""1"",""1489""
","
","","","","","","782.5999999046326","images/goat3.png","","","learning","9","0","0","0","goat","animals","2","0","","neutral","0"
"html-keyboard-response","172","608177","0.0-9.0-2.0-0.50","5433","2","24","Female","approach_avoid_spark_v1","""event"",""trial"",""time""
""fullscreenenter"",""1"",""1489""
""blur"",""13"",""83172""
""focus"",""13"",""84935""
","""event"",""trial"",""time""
""blur"",""13"",""83172""
","""event"",""trial"",""time""
""focus"",""13"",""84935""
","""event"",""trial"",""time""
""fullscreenenter"",""1"",""1489""
","
","","","","","","null","<div style=""font-size:60px;"">+</div>","null","","fixation","","","","","","","","","","",""
