"trial_type","trial_index","time_elapsed","internal_node_id","subject_id","task_condition","age","gender","task_version","interactions","blur_events","focus_events","fullscreenenter_events","fullscreenexit_events","success","timeout","failed_images","failed_audio","failed_video","rt","stimulus","response","button_pressed","task_part","approach_reward","points","key_press","option_selected","stim_cat","task_block","block_condition","block_number","correct","cat_type","mean_cat_reward"
"pavlovia","0","4","0.0-0.0","7145","1","20","Male","approach_avoid_spark_v1","""event"",""trial"",""time""
""fullscreenenter"",""1"",""2389""
","
","
","""event"",""trial"",""time""
""fullscreenenter"",""1"",""2389""
","
","","","","","","","","","","","","","","","","","","","","",""
"fullscreen","1","3365","0.0-1.0","7145","1","20","Male","approach_avoid_spark_v1","""event"",""trial"",""time""
""fullscreenenter"",""1"",""2389""
","
","
","""event"",""trial"",""time""
""fullscreenenter"",""1"",""2389""
","
","true","","","","","","","","","","","","","","","","","","","",""
"preload","2","7488","0.0-2.0","7145","1","20","Male","approach_avoid_spark_v1","""event"",""trial"",""time""
""fullscreenenter"",""1"",""2389""
","
","
","""event"",""trial"",""time""
""fullscreenenter"",""1"",""2389""
","
","true","false","[]","[]","[]","","","","","","","","","","","","","","","",""
"audio-keyboard-response","3","10386","0.0-3.0","7145","1","20","Male","approach_avoid_spark_v1","""event"",""trial"",""time""
""fullscreenenter"",""1"",""2389""
","
","
","""event"",""trial"",""time""
""fullscreenenter"",""1"",""2389""
","
","","","","","","2890.666666666666","audio/beep_loop.wav"," ","","","","","","","","","","","","",""
"audio-button-response","4","12855","0.0-4.0","7145","1","20","Male","approach_avoid_spark_v1","""event"",""trial"",""time""
""fullscreenenter"",""1"",""2389""
","
","
","""event"",""trial"",""time""
""fullscreenenter"",""1"",""2389""
","
","","","","","","2469","audio/shark.wav","4","","","","","","","","","","","","",""
"audio-button-response","5","15303","0.0-5.0","7145","1","20","Male","approach_avoid_spark_v1","""event"",""trial"",""time""
""fullscreenenter"",""1"",""2389""
","
","
","""event"",""trial"",""time""
""fullscreenenter"",""1"",""2389""
","
","","","","","","1440","audio/turtle.wav","1","","","","","","","","","","","","",""
"preload","6","18512","0.0-6.0","7145","1","20","Male","approach_avoid_spark_v1","""event"",""trial"",""time""
""fullscreenenter"",""1"",""2389""
","
","
","""event"",""trial"",""time""
""fullscreenenter"",""1"",""2389""
","
","true","false","[]","[]","[]","","","","","","","","","","","","","","","",""
"html-keyboard-response","7","31203","0.0-7.0","7145","1","20","Male","approach_avoid_spark_v1","""event"",""trial"",""time""
""fullscreenenter"",""1"",""2389""
","
","
","""event"",""trial"",""time""
""fullscreenenter"",""1"",""2389""
","
","","","","","","12690.5","Welcome to the experiment. Press any key to begin and to advance the instructions."," ","","","","","","","","","","","","",""
"learning-instructions","8","39718","0.0-8.0-0.0-0.0","7145","1","20","Male","approach_avoid_spark_v1","""event"",""trial"",""time""
""fullscreenenter"",""1"",""2389""
","
","
","""event"",""trial"",""time""
""fullscreenenter"",""1"",""2389""
","
","","","","","","1558.5","<p> Welcome! Today you are going to play 6 different rounds of a decision-making game. </p><p> Use the mouse to click next to continue. </p>","","0","instructions","","","","","","","","","","",""
"learning-instructions","9","43487","0.0-8.0-0.0-0.1","7145","1","20","Male","approach_avoid_spark_v1","""event"",""trial"",""time""
""fullscreenenter"",""1"",""2389""
","
","
","""event"",""trial"",""time""
""fullscreenenter"",""1"",""2389""
","
","","","","","","1038.0999999642372","<p> You will start with a practice round to learn the rules. </p>","","0","instructions","","","","","","","","","","",""
"learning-instructions","10","47967","0.0-8.0-0.0-0.2","7145","1","20","Male","approach_avoid_spark_v1","""event"",""trial"",""time""
""fullscreenenter"",""1"",""2389""
","
","
","""event"",""trial"",""time""
""fullscreenenter"",""1"",""2389""
","
","","","","","","1027.4000000357628","<p> Your goal in this round is to give out sports equipment to kids. </p></div>","","0","instructions","","","","","","","","","","",""
"learning-instructions","11","56230","0.0-8.0-0.0-0.3","7145","1","20","Male","approach_avoid_spark_v1","""event"",""trial"",""time""
""fullscreenenter"",""1"",""2389""
","
","
","""event"",""trial"",""time""
""fullscreenenter"",""1"",""2389""
","
","","","","","","711.5","<p> The kids only like some of the equipment.  </p><p> On each turn, you will see a piece of sports equipment.   </p><p> You need to decide whether to give it to the kids or not.  </p>","","0","instructions","","","","","","","","","","",""
"learning-instructions","12","61677","0.0-8.0-0.0-0.4","7145","1","20","Male","approach_avoid_spark_v1","""event"",""trial"",""time""
""fullscreenenter"",""1"",""2389""
","
","
","""event"",""trial"",""time""
""fullscreenenter"",""1"",""2389""
","
","","","","","","698.8999999761581","<p> You can give them the equipment by pressing 1 and choose not to give it to them by pressing 0. </p><br><div class=""choice-instructions-grid""> <div class=""choice-option""><img src=""images/approach.png"" class=""choice-option-img"" stage=""instructions"" position=""0"" ><div class=""choice-option-text""> Press ""1."" </div></div><div class=""choice-option""><img src=""images/avoid.png"" class=""choice-option-img"" stage=""instructions"" position=""1"" ><div class=""choice-option-text""> Press ""0."" </div></div>","","0","instructions","","","","","","","","","","",""
"learning-instructions","13","69862","0.0-8.0-0.0-0.5","7145","1","20","Male","approach_avoid_spark_v1","""event"",""trial"",""time""
""fullscreenenter"",""1"",""2389""
","
","
","""event"",""trial"",""time""
""fullscreenenter"",""1"",""2389""
","
","","","","","","803.3999999761581","<p> If you give them a piece of equipment they like, they will be happy! </p><p> But if you give them a piece of equipment they do not like, they will be sad. </p>","","0","instructions","","","","","","","","","","",""
"learning-instructions","14","80902","0.0-8.0-0.0-0.6","7145","1","20","Male","approach_avoid_spark_v1","""event"",""trial"",""time""
""fullscreenenter"",""1"",""2389""
","
","
","""event"",""trial"",""time""
""fullscreenenter"",""1"",""2389""
","
","","","","","","534.5999999642372","<p> You will earn points based on how you make kids feel. </p><p> If you make them happy, you will WIN anywhere from 1 - 9 points, </p><p> but if you make them sad, you will LOSE anywhere from 1 - 9 points. </p>","","0","instructions","","","","","","","","","","",""
"learning-instructions","15","95447","0.0-8.0-0.0-0.7","7145","1","20","Male","approach_avoid_spark_v1","""event"",""trial"",""time""
""fullscreenenter"",""1"",""2389""
","
","
","""event"",""trial"",""time""
""fullscreenenter"",""1"",""2389""
","
","","","","","","4988.599999964237","<p> You will see how many points you won or lost in the center of the screen. </p><p> Here is what you would see if you won 6 points: </p><p style=""color:green;font-size:50px;font-weight:bolder"">6</p><p style=""color:green"">The text is GREEN because you WON points.</p>","","0","instructions","","","","","","","","","","",""
"learning-instructions","16","103485","0.0-8.0-0.0-0.8","7145","1","20","Male","approach_avoid_spark_v1","""event"",""trial"",""time""
""fullscreenenter"",""1"",""2389""
","
","
","""event"",""trial"",""time""
""fullscreenenter"",""1"",""2389""
","
","","","","","","2536.399999976158","<p> And here is what you would see if you lost 4 points: </p><p style=""color:red;font-size:50px;font-weight:bolder"">-4</p><p style=""color:red"">The text is RED because you LOST points. </p>","","0","instructions","","","","","","","","","","",""
"learning-instructions","17","122165","0.0-8.0-0.0-0.9","7145","1","20","Male","approach_avoid_spark_v1","""event"",""trial"",""time""
""fullscreenenter"",""1"",""2389""
","
","
","""event"",""trial"",""time""
""fullscreenenter"",""1"",""2389""
","
","","","","","","3968","<p> Some of the equipment will make the kids VERY happy or sad. </p><p> These pieces of equipment will make you win or lose LOTS of points. </p><p> Other pieces of equipment will only make the kids a little happy or sad. </p><p> These pieces of equipment will make you win or lose small amounts of points. </p>","","0","instructions","","","","","","","","","","",""
"learning-instructions","18","134905","0.0-8.0-0.0-0.10","7145","1","20","Male","approach_avoid_spark_v1","""event"",""trial"",""time""
""fullscreenenter"",""1"",""2389""
","
","
","""event"",""trial"",""time""
""fullscreenenter"",""1"",""2389""
","
","","","","","","2116.300000011921","<p> If you choose not to give them the equipment, you will not win or lose any points. </p><p>  However, in the center of the screen, you will see the number of points you WOULD HAVE won or lost if you had given them the equipment. </p>","","0","instructions","","","","","","","","","","",""
"learning-instructions","19","166374","0.0-8.0-0.0-0.11","7145","1","20","Male","approach_avoid_spark_v1","""event"",""trial"",""time""
""fullscreenenter"",""1"",""2389""
","
","
","""event"",""trial"",""time""
""fullscreenenter"",""1"",""2389""
","
","","","","","","9945.300000011921","<p> Here is what you might see if you did not give the equipment to the kids but it would have made them happy: </p><p style=""color:grey; font-size:50px; display: inline-block; border-spacing: 15px; border-width:3px; border-style:solid; border-color:red"">  &nbsp; 7 &nbsp; </p><p> Remember, in this case, you would not win or lose ANY points because you did not give them the equipment.  </p><p style=""color:grey"">The text is GREY because you earned ZERO points. </p><p style=""color:red"">However, choosing to give the kids the equipment would have made you win points. The box around the text is RED because you chose the worse option. </p>","","0","instructions","","","","","","","","","","",""
"learning-instructions","20","188582","0.0-8.0-0.0-0.12","7145","1","20","Male","approach_avoid_spark_v1","""event"",""trial"",""time""
""fullscreenenter"",""1"",""2389""
","
","
","""event"",""trial"",""time""
""fullscreenenter"",""1"",""2389""
","
","","","","","","1143.199999988079","<p> Here is what you might see if you did not give the equipment to the kids but it would have made them sad: </p><p style=""color:grey;font-size:50px; display: inline-block; border-spacing: 15px; border-width:3px; border-style:solid; border-color:green"">  &nbsp; -8 &nbsp; </p><p> Remember, in this case, you would not win or lose ANY points because you did not give them the equipment.  </p><p style=""color:grey"">The text is GREY because you earned ZERO points. </p><p  style=""color:green""> Choosing to give the kids the equipment would have made you lose points. The box around the text is GREEN because you chose the better option.</p>","","0","instructions","","","","","","","","","","",""
"learning-instructions","21","199582","0.0-8.0-0.0-0.13","7145","1","20","Male","approach_avoid_spark_v1","""event"",""trial"",""time""
""fullscreenenter"",""1"",""2389""
","
","
","""event"",""trial"",""time""
""fullscreenenter"",""1"",""2389""
","
","","","","","","1713.5","<p> You will have 3 seconds to make each choice. Try to respond before time runs out! </p><p> You will lose 5 points each time you do not make a response. </p>","","0","instructions","","","","","","","","","","",""
"learning-instructions","22","206828","0.0-8.0-0.0-0.14","7145","1","20","Male","approach_avoid_spark_v1","""event"",""trial"",""time""
""fullscreenenter"",""1"",""2389""
","
","
","""event"",""trial"",""time""
""fullscreenenter"",""1"",""2389""
","
","","","","","","1839.9000000357628","<p> This is just a practice round, but in the real game, your bonus payment will depend on your total number of points.","","0","instructions","","","","","","","","","","",""
"learning-instructions","23","213387","0.0-8.0-0.0-0.15","7145","1","20","Male","approach_avoid_spark_v1","""event"",""trial"",""time""
""fullscreenenter"",""1"",""2389""
","
","
","""event"",""trial"",""time""
""fullscreenenter"",""1"",""2389""
","
","","","","","","798.8000000119209","<p> Remember, you can give them the equipment by pressing 1 and choose not to give it to them by pressing 0. </p><br><div class=""choice-instructions-grid""> <div class=""choice-option""><img src=""images/approach.png"" class=""choice-option-img"" stage=""instructions"" position=""0"" ><div class=""choice-option-text""> Press ""1."" </div></div><div class=""choice-option""><img src=""images/avoid.png"" class=""choice-option-img"" stage=""instructions"" position=""1"" ><div class=""choice-option-text""> Press ""0."" </div></div>","","0","instructions","","","","","","","","","","",""
"html-button-response","24","215068","0.0-8.0-1.0","7145","1","20","Male","approach_avoid_spark_v1","""event"",""trial"",""time""
""fullscreenenter"",""1"",""2389""
","
","
","""event"",""trial"",""time""
""fullscreenenter"",""1"",""2389""
","
","","","","","","1572.5","<p> Ready to practice? </p>","0","","","","","","","","","","","","",""
"html-keyboard-response","25","215689","0.0-8.0-2.0-0.0","7145","1","20","Male","approach_avoid_spark_v1","""event"",""trial"",""time""
""fullscreenenter"",""1"",""2389""
","
","
","""event"",""trial"",""time""
""fullscreenenter"",""1"",""2389""
","
","","","","","","null","<div style=""font-size:60px;"">+</div>","null","","fixation","","","","","","","","","","",""
"aa-learning-trial","26","218701","0.0-8.0-2.0-1.0","7145","1","20","Male","approach_avoid_spark_v1","""event"",""trial"",""time""
""fullscreenenter"",""1"",""2389""
","
","
","""event"",""trial"",""time""
""fullscreenenter"",""1"",""2389""
","
","","","","","","1212.199999988079","images/ball4.png","","","learning","-4","-4","1","1","practice","practice","practice","-1","","",""
"html-keyboard-response","27","219202","0.0-8.0-2.0-0.1","7145","1","20","Male","approach_avoid_spark_v1","""event"",""trial"",""time""
""fullscreenenter"",""1"",""2389""
","
","
","""event"",""trial"",""time""
""fullscreenenter"",""1"",""2389""
","
","","","","","","null","<div style=""font-size:60px;"">+</div>","null","","fixation","","","","","","","","","","",""
"aa-learning-trial","28","222209","0.0-8.0-2.0-1.1","7145","1","20","Male","approach_avoid_spark_v1","""event"",""trial"",""time""
""fullscreenenter"",""1"",""2389""
","
","
","""event"",""trial"",""time""
""fullscreenenter"",""1"",""2389""
","
","","","","","","1694.2999999523163","images/ball3.png","","","learning","-6","-6","1","1","practice","practice","practice","-1","","",""
"html-keyboard-response","29","222719","0.0-8.0-2.0-0.2","7145","1","20","Male","approach_avoid_spark_v1","""event"",""trial"",""time""
""fullscreenenter"",""1"",""2389""
","
","
","""event"",""trial"",""time""
""fullscreenenter"",""1"",""2389""
","
","","","","","","null","<div style=""font-size:60px;"">+</div>","null","","fixation","","","","","","","","","","",""
"aa-learning-trial","30","225733","0.0-8.0-2.0-1.2","7145","1","20","Male","approach_avoid_spark_v1","""event"",""trial"",""time""
""fullscreenenter"",""1"",""2389""
","
","
","""event"",""trial"",""time""
""fullscreenenter"",""1"",""2389""
","
","","","","","","1089.5","images/ball1.png","","","learning","1","0","0","0","practice","practice","practice","-1","","",""
"html-keyboard-response","31","226246","0.0-8.0-2.0-0.3","7145","1","20","Male","approach_avoid_spark_v1","""event"",""trial"",""time""
""fullscreenenter"",""1"",""2389""
","
","
","""event"",""trial"",""time""
""fullscreenenter"",""1"",""2389""
","
","","","","","","null","<div style=""font-size:60px;"">+</div>","null","","fixation","","","","","","","","","","",""
"aa-learning-trial","32","229251","0.0-8.0-2.0-1.3","7145","1","20","Male","approach_avoid_spark_v1","""event"",""trial"",""time""
""fullscreenenter"",""1"",""2389""
","
","
","""event"",""trial"",""time""
""fullscreenenter"",""1"",""2389""
","
","","","","","","2116.400000035763","images/ball1.png","","","learning","-1","0","0","0","practice","practice","practice","-1","","",""
"html-keyboard-response","33","229752","0.0-8.0-2.0-0.4","7145","1","20","Male","approach_avoid_spark_v1","""event"",""trial"",""time""
""fullscreenenter"",""1"",""2389""
","
","
","""event"",""trial"",""time""
""fullscreenenter"",""1"",""2389""
","
","","","","","","null","<div style=""font-size:60px;"">+</div>","null","","fixation","","","","","","","","","","",""
"aa-learning-trial","34","232761","0.0-8.0-2.0-1.4","7145","1","20","Male","approach_avoid_spark_v1","""event"",""trial"",""time""
""fullscreenenter"",""1"",""2389""
","
","
","""event"",""trial"",""time""
""fullscreenenter"",""1"",""2389""
","
","","","","","","1082.5","images/racket1.png","","","learning","1","1","1","1","practice","practice","practice","-1","","",""
"html-keyboard-response","35","233273","0.0-8.0-2.0-0.5","7145","1","20","Male","approach_avoid_spark_v1","""event"",""trial"",""time""
""fullscreenenter"",""1"",""2389""
","
","
","""event"",""trial"",""time""
""fullscreenenter"",""1"",""2389""
","
","","","","","","null","<div style=""font-size:60px;"">+</div>","null","","fixation","","","","","","","","","","",""
"aa-learning-trial","36","236279","0.0-8.0-2.0-1.5","7145","1","20","Male","approach_avoid_spark_v1","""event"",""trial"",""time""
""fullscreenenter"",""1"",""2389""
","
","
","""event"",""trial"",""time""
""fullscreenenter"",""1"",""2389""
","
","","","","","","2492.899999976158","images/ball3.png","","","learning","-4","0","0","0","practice","practice","practice","-1","","",""
"html-keyboard-response","37","236792","0.0-8.0-2.0-0.6","7145","1","20","Male","approach_avoid_spark_v1","""event"",""trial"",""time""
""fullscreenenter"",""1"",""2389""
","
","
","""event"",""trial"",""time""
""fullscreenenter"",""1"",""2389""
","
","","","","","","null","<div style=""font-size:60px;"">+</div>","null","","fixation","","","","","","","","","","",""
"aa-learning-trial","38","239795","0.0-8.0-2.0-1.6","7145","1","20","Male","approach_avoid_spark_v1","""event"",""trial"",""time""
""fullscreenenter"",""1"",""2389""
","
","
","""event"",""trial"",""time""
""fullscreenenter"",""1"",""2389""
","
","","","","","","1673.6000000238419","images/ball3.png","","","learning","6","0","0","0","practice","practice","practice","-1","","",""
"html-keyboard-response","39","240307","0.0-8.0-2.0-0.7","7145","1","20","Male","approach_avoid_spark_v1","""event"",""trial"",""time""
""fullscreenenter"",""1"",""2389""
","
","
","""event"",""trial"",""time""
""fullscreenenter"",""1"",""2389""
","
","","","","","","null","<div style=""font-size:60px;"">+</div>","null","","fixation","","","","","","","","","","",""
"aa-learning-trial","40","243309","0.0-8.0-2.0-1.7","7145","1","20","Male","approach_avoid_spark_v1","""event"",""trial"",""time""
""fullscreenenter"",""1"",""2389""
","
","
","""event"",""trial"",""time""
""fullscreenenter"",""1"",""2389""
","
","","","","","","1838.199999988079","images/racket3.png","","","learning","-6","-6","1","1","practice","practice","practice","-1","","",""
"html-keyboard-response","41","243811","0.0-8.0-2.0-0.8","7145","1","20","Male","approach_avoid_spark_v1","""event"",""trial"",""time""
""fullscreenenter"",""1"",""2389""
","
","
","""event"",""trial"",""time""
""fullscreenenter"",""1"",""2389""
","
","","","","","","null","<div style=""font-size:60px;"">+</div>","null","","fixation","","","","","","","","","","",""
"aa-learning-trial","42","246814","0.0-8.0-2.0-1.8","7145","1","20","Male","approach_avoid_spark_v1","""event"",""trial"",""time""
""fullscreenenter"",""1"",""2389""
","
","
","""event"",""trial"",""time""
""fullscreenenter"",""1"",""2389""
","
","","","","","","1162.300000011921","images/racket2.png","","","learning","-9","-9","1","1","practice","practice","practice","-1","","",""
"html-keyboard-response","43","247316","0.0-8.0-2.0-0.9","7145","1","20","Male","approach_avoid_spark_v1","""event"",""trial"",""time""
""fullscreenenter"",""1"",""2389""
","
","
","""event"",""trial"",""time""
""fullscreenenter"",""1"",""2389""
","
","","","","","","null","<div style=""font-size:60px;"">+</div>","null","","fixation","","","","","","","","","","",""
"aa-learning-trial","44","250319","0.0-8.0-2.0-1.9","7145","1","20","Male","approach_avoid_spark_v1","""event"",""trial"",""time""
""fullscreenenter"",""1"",""2389""
","
","
","""event"",""trial"",""time""
""fullscreenenter"",""1"",""2389""
","
","","","","","","2697.800000011921","images/ball1.png","","","learning","-9","-9","1","1","practice","practice","practice","-1","","",""
"html-keyboard-response","45","250820","0.0-8.0-2.0-0.10","7145","1","20","Male","approach_avoid_spark_v1","""event"",""trial"",""time""
""fullscreenenter"",""1"",""2389""
","
","
","""event"",""trial"",""time""
""fullscreenenter"",""1"",""2389""
","
","","","","","","null","<div style=""font-size:60px;"">+</div>","null","","fixation","","","","","","","","","","",""
"aa-learning-trial","46","253823","0.0-8.0-2.0-1.10","7145","1","20","Male","approach_avoid_spark_v1","""event"",""trial"",""time""
""fullscreenenter"",""1"",""2389""
","
","
","""event"",""trial"",""time""
""fullscreenenter"",""1"",""2389""
","
","","","","","","1866.5","images/ball2.png","","","learning","-6","-6","1","1","practice","practice","practice","-1","","",""
"html-keyboard-response","47","254325","0.0-8.0-2.0-0.11","7145","1","20","Male","approach_avoid_spark_v1","""event"",""trial"",""time""
""fullscreenenter"",""1"",""2389""
","
","
","""event"",""trial"",""time""
""fullscreenenter"",""1"",""2389""
","
","","","","","","null","<div style=""font-size:60px;"">+</div>","null","","fixation","","","","","","","","","","",""
"aa-learning-trial","48","257327","0.0-8.0-2.0-1.11","7145","1","20","Male","approach_avoid_spark_v1","""event"",""trial"",""time""
""fullscreenenter"",""1"",""2389""
","
","
","""event"",""trial"",""time""
""fullscreenenter"",""1"",""2389""
","
","","","","","","885.5","images/racket3.png","","","learning","5","5","1","1","practice","practice","practice","-1","","",""
"html-button-response","49","260018","0.0-8.0-3.0","7145","1","20","Male","approach_avoid_spark_v1","""event"",""trial"",""time""
""fullscreenenter"",""1"",""2389""
","
","
","""event"",""trial"",""time""
""fullscreenenter"",""1"",""2389""
","
","","","","","","2688.899999976158","<p> You earned -34 points in the practice round! </p>","0","","break","","","","","","","","","","",""
"learning-instructions","50","268215","0.0-8.0-4.0-0.0","7145","1","20","Male","approach_avoid_spark_v1","""event"",""trial"",""time""
""fullscreenenter"",""1"",""2389""
","
","
","""event"",""trial"",""time""
""fullscreenenter"",""1"",""2389""
","
","","","","","","2227.899999976158","<p> It's almost time to start the real game. </p><p> Before you start, we're going to ask you a few questions about how the game works. </p>","","0","instructions","","","","","","","","","","",""
"preload","51","269873","0.0-8.0-5.0","7145","1","20","Male","approach_avoid_spark_v1","""event"",""trial"",""time""
""fullscreenenter"",""1"",""2389""
","
","
","""event"",""trial"",""time""
""fullscreenenter"",""1"",""2389""
","
","true","false","[]","[]","[]","","","","","","","","","","","","","","","",""
"comp-q","52","277079","0.0-8.0-6.0-0.0","7145","1","20","Male","approach_avoid_spark_v1","""event"",""trial"",""time""
""fullscreenenter"",""1"",""2389""
","
","
","""event"",""trial"",""time""
""fullscreenenter"",""1"",""2389""
","
","","","","","","2211.300000011921","<p> <b> True or False? </b> </p><p> If you see a number in GREY, that means you earned that many points. </p>","","1","comp_question","","","","","","","","","true","",""
"comp-q","53","288243","0.0-8.0-6.0-1.0","7145","1","20","Male","approach_avoid_spark_v1","""event"",""trial"",""time""
""fullscreenenter"",""1"",""2389""
","
","
","""event"",""trial"",""time""
""fullscreenenter"",""1"",""2389""
","
","","","","","","2796","<p><b> That's right! </b> If you see a grey number, it means you earned ZERO points. <br> The grey numbers show the points you WOULD HAVE earned if you had made the other choice. </p>","","0","comp_answer","","","","","","","","","","",""
"comp-q","54","294404","0.0-8.0-7.0-0.0","7145","1","20","Male","approach_avoid_spark_v1","""event"",""trial"",""time""
""fullscreenenter"",""1"",""2389""
","
","
","""event"",""trial"",""time""
""fullscreenenter"",""1"",""2389""
","
","","","","","","1466.5999999642372","<p> <b> True or False? </b> </p><p> You will have as much time as you want to make each choice. </p>","","1","comp_question","","","","","","","","","true","",""
"comp-q","55","299873","0.0-8.0-7.0-1.0","7145","1","20","Male","approach_avoid_spark_v1","""event"",""trial"",""time""
""fullscreenenter"",""1"",""2389""
","
","
","""event"",""trial"",""time""
""fullscreenenter"",""1"",""2389""
","
","","","","","","1426.2000000476837","<p> <b> That's right! </b> You will only have 3 seconds to make each choice. </p>","","0","comp_answer","","","","","","","","","","",""
"comp-q","56","305591","0.0-8.0-8.0-0.0","7145","1","20","Male","approach_avoid_spark_v1","""event"",""trial"",""time""
""fullscreenenter"",""1"",""2389""
","
","
","""event"",""trial"",""time""
""fullscreenenter"",""1"",""2389""
","
","","","","","","1055.5","<p> <b> True or False? </b> </p><p> You should use the '1' and '0' keys to make your choices. </p>","","0","comp_question","","","","","","","","","true","",""
"comp-q","57","311507","0.0-8.0-8.0-1.0","7145","1","20","Male","approach_avoid_spark_v1","""event"",""trial"",""time""
""fullscreenenter"",""1"",""2389""
","
","
","""event"",""trial"",""time""
""fullscreenenter"",""1"",""2389""
","
","","","","","","1300.5","<p> <b> That's right! </b> You should use the '1' and '0' keys to make each choice. </p>","","0","comp_answer","","","","","","","","","","",""
"learning-instructions","58","319233","0.0-8.0-9.0-0.0","7145","1","20","Male","approach_avoid_spark_v1","""event"",""trial"",""time""
""fullscreenenter"",""1"",""2389""
","
","
","""event"",""trial"",""time""
""fullscreenenter"",""1"",""2389""
","
","","","","","","1456","<p> It's now time to start the real game. </p>Do your best, because the points you earn in the next rounds will influence your bonus payment. </p>","","0","instructions","","","","","","","","","","",""
"preload","59","319366","0.0-9.0-0.0","7145","1","20","Male","approach_avoid_spark_v1","""event"",""trial"",""time""
""fullscreenenter"",""1"",""2389""
","
","
","""event"",""trial"",""time""
""fullscreenenter"",""1"",""2389""
","
","true","false","[]","[]","[]","","","","","","","","","","","","","","","",""
"learning-instructions","60","326836","0.0-9.0-1.0-0.0","7145","1","20","Male","approach_avoid_spark_v1","""event"",""trial"",""time""
""fullscreenenter"",""1"",""2389""
","
","
","""event"",""trial"",""time""
""fullscreenenter"",""1"",""2389""
","
","","","","","","2229.699999988079","<p> Your goal in this round is to sell different plants to a picky customer. </p></div>","","0","instructions","","","","","","","","","","",""
"learning-instructions","61","337021","0.0-9.0-1.0-0.1","7145","1","20","Male","approach_avoid_spark_v1","""event"",""trial"",""time""
""fullscreenenter"",""1"",""2389""
","
","
","""event"",""trial"",""time""
""fullscreenenter"",""1"",""2389""
","
","","","","","","664.6000000238419","<p> The customer likes some plants and dislikes others.  </p><p> On each turn, you will see a plant.   </p><p> You need to decide whether to offer it to the customer or not.  </p>","","0","instructions","","","","","","","","","","",""
"learning-instructions","62","352525","0.0-9.0-1.0-0.2","7145","1","20","Male","approach_avoid_spark_v1","""event"",""trial"",""time""
""fullscreenenter"",""1"",""2389""
","
","
","""event"",""trial"",""time""
""fullscreenenter"",""1"",""2389""
","
","","","","","","9748.800000011921","<p> You can offer the plant by pressing 1 and decide to not offer it by pressing 0. </p><br><div class=""choice-instructions-grid""> <div class=""choice-option""><img src=""images/approach.png"" class=""choice-option-img"" stage=""instructions"" position=""0"" ><div class=""choice-option-text""> Press ""1."" </div></div><div class=""choice-option""><img src=""images/avoid.png"" class=""choice-option-img"" stage=""instructions"" position=""1"" ><div class=""choice-option-text""> Press ""0."" </div></div>","","0","instructions","","","","","","","","","","",""
"learning-instructions","63","363725","0.0-9.0-1.0-0.3","7145","1","20","Male","approach_avoid_spark_v1","""event"",""trial"",""time""
""fullscreenenter"",""1"",""2389""
","
","
","""event"",""trial"",""time""
""fullscreenenter"",""1"",""2389""
","
","","","","","","2088.300000011921","<p> If you offer a plant to the customer that she likes, she will be very pleased! </p><p> But if you offer a plant that she does NOT like, she will be annoyed. </p>","","0","instructions","","","","","","","","","","",""
"learning-instructions","64","378748","0.0-9.0-1.0-0.4","7145","1","20","Male","approach_avoid_spark_v1","""event"",""trial"",""time""
""fullscreenenter"",""1"",""2389""
","
","
","""event"",""trial"",""time""
""fullscreenenter"",""1"",""2389""
","
","","","","","","2382.199999988079","<p> You will earn points based on how you made the customer feel. </p><p> If you made her pleased, you will WIN anywhere from 1 - 9 points, </p><p> but if you made her annoyed, you will LOSE anywhere from 1 - 9 points. </p>","","0","instructions","","","","","","","","","","",""
"learning-instructions","65","387235","0.0-9.0-1.0-0.5","7145","1","20","Male","approach_avoid_spark_v1","""event"",""trial"",""time""
""fullscreenenter"",""1"",""2389""
","
","
","""event"",""trial"",""time""
""fullscreenenter"",""1"",""2389""
","
","","","","","","777.5","<p> You will see how many points you won or lost in the center of the screen. </p><p> Here is what you would see if you won 5 points: </p><p style=""color:green;font-size:50px;font-weight:bolder"">5</p>","","0","instructions","","","","","","","","","","",""
"learning-instructions","66","391543","0.0-9.0-1.0-0.6","7145","1","20","Male","approach_avoid_spark_v1","""event"",""trial"",""time""
""fullscreenenter"",""1"",""2389""
","
","
","""event"",""trial"",""time""
""fullscreenenter"",""1"",""2389""
","
","","","","","","765.8000000119209","<p> And here is what you would see if you lost 3 points: </p><p style=""color:red;font-size:50px;font-weight:bolder"">-3</p>","","0","instructions","","","","","","","","","","",""
"learning-instructions","67","407119","0.0-9.0-1.0-0.7","7145","1","20","Male","approach_avoid_spark_v1","""event"",""trial"",""time""
""fullscreenenter"",""1"",""2389""
","
","
","""event"",""trial"",""time""
""fullscreenenter"",""1"",""2389""
","
","","","","","","642.5","<p> Some plants will make the customer VERY pleased or annoyed. </p><p> These plants will make you win or lose LOTS of points. </p><p> The customer will have less strong feelings about other plants. </p><p> These plants will make you win or lose small amounts of points. </p>","","0","instructions","","","","","","","","","","",""
"learning-instructions","68","420923","0.0-9.0-1.0-0.8","7145","1","20","Male","approach_avoid_spark_v1","""event"",""trial"",""time""
""fullscreenenter"",""1"",""2389""
","
","
","""event"",""trial"",""time""
""fullscreenenter"",""1"",""2389""
","
","","","","","","1046.1000000238419","<p> If you choose to not offer the plant to the customer, you will not win or lose any points. </p><p>  However, in the center of the screen, you will see the number of points you WOULD HAVE won or lost if you had offered the plant. </p>","","0","instructions","","","","","","","","","","",""
"learning-instructions","69","433708","0.0-9.0-1.0-0.9","7145","1","20","Male","approach_avoid_spark_v1","""event"",""trial"",""time""
""fullscreenenter"",""1"",""2389""
","
","
","""event"",""trial"",""time""
""fullscreenenter"",""1"",""2389""
","
","","","","","","1170.6000000238419","<p> Here is what you might see if you did not offer the plant but the customer would have liked it: </p><p style=""color:grey; font-size:50px; display: inline-block; border-spacing: 15px; border-width:3px; border-style:solid; border-color:red"">  &nbsp; 6 &nbsp; </p><p> Remember, in this case, you would not win or lose ANY points because you did not offer the plant.  </p>","","0","instructions","","","","","","","","","","",""
"learning-instructions","70","442791","0.0-9.0-1.0-0.10","7145","1","20","Male","approach_avoid_spark_v1","""event"",""trial"",""time""
""fullscreenenter"",""1"",""2389""
","
","
","""event"",""trial"",""time""
""fullscreenenter"",""1"",""2389""
","
","","","","","","1243.5999999642372","<p> Try to make the best choice for each plant because </p><p> at the end of the game, you will earn bonus money based on how many points you earned. </p>","","0","instructions","","","","","","","","","","",""
"learning-instructions","71","453050","0.0-9.0-1.0-0.11","7145","1","20","Male","approach_avoid_spark_v1","""event"",""trial"",""time""
""fullscreenenter"",""1"",""2389""
","
","
","""event"",""trial"",""time""
""fullscreenenter"",""1"",""2389""
","
","","","","","","2063.399999976158","<p> You will have 3 seconds to make each choice. Try to respond before time runs out! </p><p> You will lose 5 points each time you do not make a response. </p>","","0","instructions","","","","","","","","","","",""
"html-keyboard-response","72","453671","0.0-9.0-2.0-0.0","7145","1","20","Male","approach_avoid_spark_v1","""event"",""trial"",""time""
""fullscreenenter"",""1"",""2389""
","
","
","""event"",""trial"",""time""
""fullscreenenter"",""1"",""2389""
","
","","","","","","null","<div style=""font-size:60px;"">+</div>","null","","fixation","","","","","","","","","","",""
"aa-learning-trial","73","456686","0.0-9.0-2.0-1.0","7145","1","20","Male","approach_avoid_spark_v1","""event"",""trial"",""time""
""fullscreenenter"",""1"",""2389""
","
","
","""event"",""trial"",""time""
""fullscreenenter"",""1"",""2389""
","
","","","","","","1131.199999988079","images/cactus2.png","","","learning","1","0","0","0","cactus","plants","1","0","","good","[3]"
"html-keyboard-response","74","457201","0.0-9.0-2.0-0.1","7145","1","20","Male","approach_avoid_spark_v1","""event"",""trial"",""time""
""fullscreenenter"",""1"",""2389""
","
","
","""event"",""trial"",""time""
""fullscreenenter"",""1"",""2389""
","
","","","","","","null","<div style=""font-size:60px;"">+</div>","null","","fixation","","","","","","","","","","",""
"aa-learning-trial","75","460211","0.0-9.0-2.0-1.1","7145","1","20","Male","approach_avoid_spark_v1","""event"",""trial"",""time""
""fullscreenenter"",""1"",""2389""
","
","
","""event"",""trial"",""time""
""fullscreenenter"",""1"",""2389""
","
","","","","","","1123.8999999761581","images/flower1.png","","","learning","[-1]","-1","1","1","flower","plants","1","0","","neutral","0"
"html-keyboard-response","76","460727","0.0-9.0-2.0-0.2","7145","1","20","Male","approach_avoid_spark_v1","""event"",""trial"",""time""
""fullscreenenter"",""1"",""2389""
","
","
","""event"",""trial"",""time""
""fullscreenenter"",""1"",""2389""
","
","","","","","","null","<div style=""font-size:60px;"">+</div>","null","","fixation","","","","","","","","","","",""
"aa-learning-trial","77","463738","0.0-9.0-2.0-1.2","7145","1","20","Male","approach_avoid_spark_v1","""event"",""trial"",""time""
""fullscreenenter"",""1"",""2389""
","
","
","""event"",""trial"",""time""
""fullscreenenter"",""1"",""2389""
","
","","","","","","1781.3999999761581","images/flower1.png","","","learning","-1","0","0","0","flower","plants","1","0","","neutral","0"
"html-keyboard-response","78","464251","0.0-9.0-2.0-0.3","7145","1","20","Male","approach_avoid_spark_v1","""event"",""trial"",""time""
""fullscreenenter"",""1"",""2389""
","
","
","""event"",""trial"",""time""
""fullscreenenter"",""1"",""2389""
","
","","","","","","null","<div style=""font-size:60px;"">+</div>","null","","fixation","","","","","","","","","","",""
"aa-learning-trial","79","467267","0.0-9.0-2.0-1.3","7145","1","20","Male","approach_avoid_spark_v1","""event"",""trial"",""time""
""fullscreenenter"",""1"",""2389""
","
","
","""event"",""trial"",""time""
""fullscreenenter"",""1"",""2389""
","
","","","","","","1250.0999999642372","images/cactus8.png","","","learning","4","4","1","1","cactus","plants","1","0","","good","[3]"
"html-keyboard-response","80","467782","0.0-9.0-2.0-0.4","7145","1","20","Male","approach_avoid_spark_v1","""event"",""trial"",""time""
""fullscreenenter"",""1"",""2389""
","
","
","""event"",""trial"",""time""
""fullscreenenter"",""1"",""2389""
","
","","","","","","null","<div style=""font-size:60px;"">+</div>","null","","fixation","","","","","","","","","","",""
"aa-learning-trial","81","470792","0.0-9.0-2.0-1.4","7145","1","20","Male","approach_avoid_spark_v1","""event"",""trial"",""time""
""fullscreenenter"",""1"",""2389""
","
","
","""event"",""trial"",""time""
""fullscreenenter"",""1"",""2389""
","
","","","","","","841.5","images/cactus1.png","","","learning","3","0","0","0","cactus","plants","1","0","","good","[3]"
"html-keyboard-response","82","471307","0.0-9.0-2.0-0.5","7145","1","20","Male","approach_avoid_spark_v1","""event"",""trial"",""time""
""fullscreenenter"",""1"",""2389""
","
","
","""event"",""trial"",""time""
""fullscreenenter"",""1"",""2389""
","
","","","","","","null","<div style=""font-size:60px;"">+</div>","null","","fixation","","","","","","","","","","",""
"aa-learning-trial","83","474324","0.0-9.0-2.0-1.5","7145","1","20","Male","approach_avoid_spark_v1","""event"",""trial"",""time""
""fullscreenenter"",""1"",""2389""
","
","
","""event"",""trial"",""time""
""fullscreenenter"",""1"",""2389""
","
","","","","","","1234.4000000357628","images/tree8.png","","","learning","-8","0","0","0","tree","plants","1","0","","bad","[-5]"
"html-keyboard-response","84","474839","0.0-9.0-2.0-0.6","7145","1","20","Male","approach_avoid_spark_v1","""event"",""trial"",""time""
""fullscreenenter"",""1"",""2389""
","
","
","""event"",""trial"",""time""
""fullscreenenter"",""1"",""2389""
","
","","","","","","null","<div style=""font-size:60px;"">+</div>","null","","fixation","","","","","","","","","","",""
"aa-learning-trial","85","477857","0.0-9.0-2.0-1.6","7145","1","20","Male","approach_avoid_spark_v1","""event"",""trial"",""time""
""fullscreenenter"",""1"",""2389""
","
","
","""event"",""trial"",""time""
""fullscreenenter"",""1"",""2389""
","
","","","","","","838.5","images/cactus2.png","","","learning","2","2","1","1","cactus","plants","1","0","","good","[3]"
"html-keyboard-response","86","478371","0.0-9.0-2.0-0.7","7145","1","20","Male","approach_avoid_spark_v1","""event"",""trial"",""time""
""fullscreenenter"",""1"",""2389""
","
","
","""event"",""trial"",""time""
""fullscreenenter"",""1"",""2389""
","
","","","","","","null","<div style=""font-size:60px;"">+</div>","null","","fixation","","","","","","","","","","",""
"aa-learning-trial","87","481375","0.0-9.0-2.0-1.7","7145","1","20","Male","approach_avoid_spark_v1","""event"",""trial"",""time""
""fullscreenenter"",""1"",""2389""
","
","
","""event"",""trial"",""time""
""fullscreenenter"",""1"",""2389""
","
","","","","","","779.4000000357628","images/tree1.png","","","learning","-5","0","0","0","tree","plants","1","0","","bad","[-5]"
"html-keyboard-response","88","481878","0.0-9.0-2.0-0.8","7145","1","20","Male","approach_avoid_spark_v1","""event"",""trial"",""time""
""fullscreenenter"",""1"",""2389""
","
","
","""event"",""trial"",""time""
""fullscreenenter"",""1"",""2389""
","
","","","","","","null","<div style=""font-size:60px;"">+</div>","null","","fixation","","","","","","","","","","",""
"aa-learning-trial","89","484882","0.0-9.0-2.0-1.8","7145","1","20","Male","approach_avoid_spark_v1","""event"",""trial"",""time""
""fullscreenenter"",""1"",""2389""
","
","
","""event"",""trial"",""time""
""fullscreenenter"",""1"",""2389""
","
","","","","","","723.6000000238419","images/cactus1.png","","","learning","1","1","1","1","cactus","plants","1","0","","good","[3]"
"html-keyboard-response","90","485384","0.0-9.0-2.0-0.9","7145","1","20","Male","approach_avoid_spark_v1","""event"",""trial"",""time""
""fullscreenenter"",""1"",""2389""
","
","
","""event"",""trial"",""time""
""fullscreenenter"",""1"",""2389""
","
","","","","","","null","<div style=""font-size:60px;"">+</div>","null","","fixation","","","","","","","","","","",""
"aa-learning-trial","91","488388","0.0-9.0-2.0-1.9","7145","1","20","Male","approach_avoid_spark_v1","""event"",""trial"",""time""
""fullscreenenter"",""1"",""2389""
","
","
","""event"",""trial"",""time""
""fullscreenenter"",""1"",""2389""
","
","","","","","","658.4000000357628","images/tree8.png","","","learning","-6","0","0","0","tree","plants","1","0","","bad","[-5]"
"html-keyboard-response","92","488890","0.0-9.0-2.0-0.10","7145","1","20","Male","approach_avoid_spark_v1","""event"",""trial"",""time""
""fullscreenenter"",""1"",""2389""
","
","
","""event"",""trial"",""time""
""fullscreenenter"",""1"",""2389""
","
","","","","","","null","<div style=""font-size:60px;"">+</div>","null","","fixation","","","","","","","","","","",""
"aa-learning-trial","93","491893","0.0-9.0-2.0-1.10","7145","1","20","Male","approach_avoid_spark_v1","""event"",""trial"",""time""
""fullscreenenter"",""1"",""2389""
","
","
","""event"",""trial"",""time""
""fullscreenenter"",""1"",""2389""
","
","","","","","","496.10000002384186","images/tree1.png","","","learning","-6","0","0","0","tree","plants","1","0","","bad","[-5]"
"html-keyboard-response","94","492395","0.0-9.0-2.0-0.11","7145","1","20","Male","approach_avoid_spark_v1","""event"",""trial"",""time""
""fullscreenenter"",""1"",""2389""
","
","
","""event"",""trial"",""time""
""fullscreenenter"",""1"",""2389""
","
","","","","","","null","<div style=""font-size:60px;"">+</div>","null","","fixation","","","","","","","","","","",""
"aa-learning-trial","95","495400","0.0-9.0-2.0-1.11","7145","1","20","Male","approach_avoid_spark_v1","""event"",""trial"",""time""
""fullscreenenter"",""1"",""2389""
","
","
","""event"",""trial"",""time""
""fullscreenenter"",""1"",""2389""
","
","","","","","","1505.4000000357628","images/flower2.png","","","learning","[1]","1","1","1","flower","plants","1","0","","neutral","0"
"html-keyboard-response","96","495902","0.0-9.0-2.0-0.12","7145","1","20","Male","approach_avoid_spark_v1","""event"",""trial"",""time""
""fullscreenenter"",""1"",""2389""
","
","
","""event"",""trial"",""time""
""fullscreenenter"",""1"",""2389""
","
","","","","","","null","<div style=""font-size:60px;"">+</div>","null","","fixation","","","","","","","","","","",""
"aa-learning-trial","97","498906","0.0-9.0-2.0-1.12","7145","1","20","Male","approach_avoid_spark_v1","""event"",""trial"",""time""
""fullscreenenter"",""1"",""2389""
","
","
","""event"",""trial"",""time""
""fullscreenenter"",""1"",""2389""
","
","","","","","","635.1000000238419","images/tree6.png","","","learning","-3","0","0","0","tree","plants","1","0","","bad","[-5]"
"html-keyboard-response","98","499409","0.0-9.0-2.0-0.13","7145","1","20","Male","approach_avoid_spark_v1","""event"",""trial"",""time""
""fullscreenenter"",""1"",""2389""
","
","
","""event"",""trial"",""time""
""fullscreenenter"",""1"",""2389""
","
","","","","","","null","<div style=""font-size:60px;"">+</div>","null","","fixation","","","","","","","","","","",""
"aa-learning-trial","99","502413","0.0-9.0-2.0-1.13","7145","1","20","Male","approach_avoid_spark_v1","""event"",""trial"",""time""
""fullscreenenter"",""1"",""2389""
","
","
","""event"",""trial"",""time""
""fullscreenenter"",""1"",""2389""
","
","","","","","","826.4000000357628","images/flower4.png","","","learning","1","1","1","1","flower","plants","1","0","","neutral","0"
"html-keyboard-response","100","502915","0.0-9.0-2.0-0.14","7145","1","20","Male","approach_avoid_spark_v1","""event"",""trial"",""time""
""fullscreenenter"",""1"",""2389""
","
","
","""event"",""trial"",""time""
""fullscreenenter"",""1"",""2389""
","
","","","","","","null","<div style=""font-size:60px;"">+</div>","null","","fixation","","","","","","","","","","",""
"aa-learning-trial","101","505921","0.0-9.0-2.0-1.14","7145","1","20","Male","approach_avoid_spark_v1","""event"",""trial"",""time""
""fullscreenenter"",""1"",""2389""
","
","
","""event"",""trial"",""time""
""fullscreenenter"",""1"",""2389""
","
","","","","","","674","images/flower4.png","","","learning","3","3","1","1","flower","plants","1","0","","neutral","0"
"html-keyboard-response","102","506423","0.0-9.0-2.0-0.15","7145","1","20","Male","approach_avoid_spark_v1","""event"",""trial"",""time""
""fullscreenenter"",""1"",""2389""
","
","
","""event"",""trial"",""time""
""fullscreenenter"",""1"",""2389""
","
","","","","","","null","<div style=""font-size:60px;"">+</div>","null","","fixation","","","","","","","","","","",""
"aa-learning-trial","103","509428","0.0-9.0-2.0-1.15","7145","1","20","Male","approach_avoid_spark_v1","""event"",""trial"",""time""
""fullscreenenter"",""1"",""2389""
","
","
","""event"",""trial"",""time""
""fullscreenenter"",""1"",""2389""
","
","","","","","","559.6000000238419","images/flower4.png","","","learning","1","1","1","1","flower","plants","1","0","","neutral","0"
"html-keyboard-response","104","509930","0.0-9.0-2.0-0.16","7145","1","20","Male","approach_avoid_spark_v1","""event"",""trial"",""time""
""fullscreenenter"",""1"",""2389""
","
","
","""event"",""trial"",""time""
""fullscreenenter"",""1"",""2389""
","
","","","","","","null","<div style=""font-size:60px;"">+</div>","null","","fixation","","","","","","","","","","",""
"aa-learning-trial","105","512934","0.0-9.0-2.0-1.16","7145","1","20","Male","approach_avoid_spark_v1","""event"",""trial"",""time""
""fullscreenenter"",""1"",""2389""
","
","
","""event"",""trial"",""time""
""fullscreenenter"",""1"",""2389""
","
","","","","","","787.3999999761581","images/cactus6.png","","","learning","5","5","1","1","cactus","plants","1","0","","good","[3]"
"html-keyboard-response","106","513436","0.0-9.0-2.0-0.17","7145","1","20","Male","approach_avoid_spark_v1","""event"",""trial"",""time""
""fullscreenenter"",""1"",""2389""
","
","
","""event"",""trial"",""time""
""fullscreenenter"",""1"",""2389""
","
","","","","","","null","<div style=""font-size:60px;"">+</div>","null","","fixation","","","","","","","","","","",""
"aa-learning-trial","107","516440","0.0-9.0-2.0-1.17","7145","1","20","Male","approach_avoid_spark_v1","""event"",""trial"",""time""
""fullscreenenter"",""1"",""2389""
","
","
","""event"",""trial"",""time""
""fullscreenenter"",""1"",""2389""
","
","","","","","","693.3999999761581","images/cactus8.png","","","learning","1","1","1","1","cactus","plants","1","0","","good","[3]"
"html-keyboard-response","108","516941","0.0-9.0-2.0-0.18","7145","1","20","Male","approach_avoid_spark_v1","""event"",""trial"",""time""
""fullscreenenter"",""1"",""2389""
","
","
","""event"",""trial"",""time""
""fullscreenenter"",""1"",""2389""
","
","","","","","","null","<div style=""font-size:60px;"">+</div>","null","","fixation","","","","","","","","","","",""
"aa-learning-trial","109","519946","0.0-9.0-2.0-1.18","7145","1","20","Male","approach_avoid_spark_v1","""event"",""trial"",""time""
""fullscreenenter"",""1"",""2389""
","
","
","""event"",""trial"",""time""
""fullscreenenter"",""1"",""2389""
","
","","","","","","595.1000000238419","images/flower4.png","","","learning","2","2","1","1","flower","plants","1","0","","neutral","0"
"html-keyboard-response","110","520448","0.0-9.0-2.0-0.19","7145","1","20","Male","approach_avoid_spark_v1","""event"",""trial"",""time""
""fullscreenenter"",""1"",""2389""
","
","
","""event"",""trial"",""time""
""fullscreenenter"",""1"",""2389""
","
","","","","","","null","<div style=""font-size:60px;"">+</div>","null","","fixation","","","","","","","","","","",""
"aa-learning-trial","111","523452","0.0-9.0-2.0-1.19","7145","1","20","Male","approach_avoid_spark_v1","""event"",""trial"",""time""
""fullscreenenter"",""1"",""2389""
","
","
","""event"",""trial"",""time""
""fullscreenenter"",""1"",""2389""
","
","","","","","","536","images/tree8.png","","","learning","-5","0","0","0","tree","plants","1","0","","bad","[-5]"
"html-keyboard-response","112","523954","0.0-9.0-2.0-0.20","7145","1","20","Male","approach_avoid_spark_v1","""event"",""trial"",""time""
""fullscreenenter"",""1"",""2389""
","
","
","""event"",""trial"",""time""
""fullscreenenter"",""1"",""2389""
","
","","","","","","null","<div style=""font-size:60px;"">+</div>","null","","fixation","","","","","","","","","","",""
"aa-learning-trial","113","526958","0.0-9.0-2.0-1.20","7145","1","20","Male","approach_avoid_spark_v1","""event"",""trial"",""time""
""fullscreenenter"",""1"",""2389""
","
","
","""event"",""trial"",""time""
""fullscreenenter"",""1"",""2389""
","
","","","","","","535.1999999880791","images/tree8.png","","","learning","-3","0","0","0","tree","plants","1","0","","bad","[-5]"
"html-keyboard-response","114","527460","0.0-9.0-2.0-0.21","7145","1","20","Male","approach_avoid_spark_v1","""event"",""trial"",""time""
""fullscreenenter"",""1"",""2389""
","
","
","""event"",""trial"",""time""
""fullscreenenter"",""1"",""2389""
","
","","","","","","null","<div style=""font-size:60px;"">+</div>","null","","fixation","","","","","","","","","","",""
"aa-learning-trial","115","530465","0.0-9.0-2.0-1.21","7145","1","20","Male","approach_avoid_spark_v1","""event"",""trial"",""time""
""fullscreenenter"",""1"",""2389""
","
","
","""event"",""trial"",""time""
""fullscreenenter"",""1"",""2389""
","
","","","","","","645.6999999880791","images/tree4.png","","","learning","-5","0","0","0","tree","plants","1","0","","bad","[-5]"
"html-keyboard-response","116","530966","0.0-9.0-2.0-0.22","7145","1","20","Male","approach_avoid_spark_v1","""event"",""trial"",""time""
""fullscreenenter"",""1"",""2389""
","
","
","""event"",""trial"",""time""
""fullscreenenter"",""1"",""2389""
","
","","","","","","null","<div style=""font-size:60px;"">+</div>","null","","fixation","","","","","","","","","","",""
"aa-learning-trial","117","533971","0.0-9.0-2.0-1.22","7145","1","20","Male","approach_avoid_spark_v1","""event"",""trial"",""time""
""fullscreenenter"",""1"",""2389""
","
","
","""event"",""trial"",""time""
""fullscreenenter"",""1"",""2389""
","
","","","","","","615.1999999880791","images/tree1.png","","","learning","-3","0","0","0","tree","plants","1","0","","bad","[-5]"
"html-keyboard-response","118","534473","0.0-9.0-2.0-0.23","7145","1","20","Male","approach_avoid_spark_v1","""event"",""trial"",""time""
""fullscreenenter"",""1"",""2389""
","
","
","""event"",""trial"",""time""
""fullscreenenter"",""1"",""2389""
","
","","","","","","null","<div style=""font-size:60px;"">+</div>","null","","fixation","","","","","","","","","","",""
"aa-learning-trial","119","537478","0.0-9.0-2.0-1.23","7145","1","20","Male","approach_avoid_spark_v1","""event"",""trial"",""time""
""fullscreenenter"",""1"",""2389""
","
","
","""event"",""trial"",""time""
""fullscreenenter"",""1"",""2389""
","
","","","","","","558.9000000357628","images/tree6.png","","","learning","-5","0","0","0","tree","plants","1","0","","bad","[-5]"
"html-keyboard-response","120","537979","0.0-9.0-2.0-0.24","7145","1","20","Male","approach_avoid_spark_v1","""event"",""trial"",""time""
""fullscreenenter"",""1"",""2389""
","
","
","""event"",""trial"",""time""
""fullscreenenter"",""1"",""2389""
","
","","","","","","null","<div style=""font-size:60px;"">+</div>","null","","fixation","","","","","","","","","","",""
"aa-learning-trial","121","540983","0.0-9.0-2.0-1.24","7145","1","20","Male","approach_avoid_spark_v1","""event"",""trial"",""time""
""fullscreenenter"",""1"",""2389""
","
","
","""event"",""trial"",""time""
""fullscreenenter"",""1"",""2389""
","
","","","","","","797.1000000238419","images/cactus2.png","","","learning","4","4","1","1","cactus","plants","1","0","","good","[3]"
"html-keyboard-response","122","541484","0.0-9.0-2.0-0.25","7145","1","20","Male","approach_avoid_spark_v1","""event"",""trial"",""time""
""fullscreenenter"",""1"",""2389""
","
","
","""event"",""trial"",""time""
""fullscreenenter"",""1"",""2389""
","
","","","","","","null","<div style=""font-size:60px;"">+</div>","null","","fixation","","","","","","","","","","",""
"aa-learning-trial","123","544489","0.0-9.0-2.0-1.25","7145","1","20","Male","approach_avoid_spark_v1","""event"",""trial"",""time""
""fullscreenenter"",""1"",""2389""
","
","
","""event"",""trial"",""time""
""fullscreenenter"",""1"",""2389""
","
","","","","","","762.3999999761581","images/flower3.png","","","learning","1","1","1","1","flower","plants","1","0","","neutral","0"
"html-keyboard-response","124","544992","0.0-9.0-2.0-0.26","7145","1","20","Male","approach_avoid_spark_v1","""event"",""trial"",""time""
""fullscreenenter"",""1"",""2389""
","
","
","""event"",""trial"",""time""
""fullscreenenter"",""1"",""2389""
","
","","","","","","null","<div style=""font-size:60px;"">+</div>","null","","fixation","","","","","","","","","","",""
"aa-learning-trial","125","547997","0.0-9.0-2.0-1.26","7145","1","20","Male","approach_avoid_spark_v1","""event"",""trial"",""time""
""fullscreenenter"",""1"",""2389""
","
","
","""event"",""trial"",""time""
""fullscreenenter"",""1"",""2389""
","
","","","","","","599.8999999761581","images/flower1.png","","","learning","[-1]","-1","1","1","flower","plants","1","0","","neutral","0"
"html-keyboard-response","126","548499","0.0-9.0-2.0-0.27","7145","1","20","Male","approach_avoid_spark_v1","""event"",""trial"",""time""
""fullscreenenter"",""1"",""2389""
","
","
","""event"",""trial"",""time""
""fullscreenenter"",""1"",""2389""
","
","","","","","","null","<div style=""font-size:60px;"">+</div>","null","","fixation","","","","","","","","","","",""
"aa-learning-trial","127","551505","0.0-9.0-2.0-1.27","7145","1","20","Male","approach_avoid_spark_v1","""event"",""trial"",""time""
""fullscreenenter"",""1"",""2389""
","
","
","""event"",""trial"",""time""
""fullscreenenter"",""1"",""2389""
","
","","","","","","1059.6000000238419","images/cactus1.png","","","learning","2","2","1","1","cactus","plants","1","0","","good","[3]"
"html-keyboard-response","128","552007","0.0-9.0-2.0-0.28","7145","1","20","Male","approach_avoid_spark_v1","""event"",""trial"",""time""
""fullscreenenter"",""1"",""2389""
","
","
","""event"",""trial"",""time""
""fullscreenenter"",""1"",""2389""
","
","","","","","","null","<div style=""font-size:60px;"">+</div>","null","","fixation","","","","","","","","","","",""
"aa-learning-trial","129","555012","0.0-9.0-2.0-1.28","7145","1","20","Male","approach_avoid_spark_v1","""event"",""trial"",""time""
""fullscreenenter"",""1"",""2389""
","
","
","""event"",""trial"",""time""
""fullscreenenter"",""1"",""2389""
","
","","","","","","610.1999999880791","images/tree6.png","","","learning","-5","0","0","0","tree","plants","1","0","","bad","[-5]"
"html-keyboard-response","130","555514","0.0-9.0-2.0-0.29","7145","1","20","Male","approach_avoid_spark_v1","""event"",""trial"",""time""
""fullscreenenter"",""1"",""2389""
","
","
","""event"",""trial"",""time""
""fullscreenenter"",""1"",""2389""
","
","","","","","","null","<div style=""font-size:60px;"">+</div>","null","","fixation","","","","","","","","","","",""
"aa-learning-trial","131","558518","0.0-9.0-2.0-1.29","7145","1","20","Male","approach_avoid_spark_v1","""event"",""trial"",""time""
""fullscreenenter"",""1"",""2389""
","
","
","""event"",""trial"",""time""
""fullscreenenter"",""1"",""2389""
","
","","","","","","760.8000000119209","images/flower2.png","","","learning","[-1]","-1","1","1","flower","plants","1","0","","neutral","0"
"html-keyboard-response","132","559019","0.0-9.0-2.0-0.30","7145","1","20","Male","approach_avoid_spark_v1","""event"",""trial"",""time""
""fullscreenenter"",""1"",""2389""
","
","
","""event"",""trial"",""time""
""fullscreenenter"",""1"",""2389""
","
","","","","","","null","<div style=""font-size:60px;"">+</div>","null","","fixation","","","","","","","","","","",""
"aa-learning-trial","133","562025","0.0-9.0-2.0-1.30","7145","1","20","Male","approach_avoid_spark_v1","""event"",""trial"",""time""
""fullscreenenter"",""1"",""2389""
","
","
","""event"",""trial"",""time""
""fullscreenenter"",""1"",""2389""
","
","","","","","","668.5999999642372","images/cactus1.png","","","learning","2","2","1","1","cactus","plants","1","0","","good","[3]"
"html-keyboard-response","134","562527","0.0-9.0-2.0-0.31","7145","1","20","Male","approach_avoid_spark_v1","""event"",""trial"",""time""
""fullscreenenter"",""1"",""2389""
","
","
","""event"",""trial"",""time""
""fullscreenenter"",""1"",""2389""
","
","","","","","","null","<div style=""font-size:60px;"">+</div>","null","","fixation","","","","","","","","","","",""
"aa-learning-trial","135","565532","0.0-9.0-2.0-1.31","7145","1","20","Male","approach_avoid_spark_v1","""event"",""trial"",""time""
""fullscreenenter"",""1"",""2389""
","
","
","""event"",""trial"",""time""
""fullscreenenter"",""1"",""2389""
","
","","","","","","697.6000000238419","images/flower2.png","","","learning","1","1","1","1","flower","plants","1","0","","neutral","0"
"html-keyboard-response","136","566034","0.0-9.0-2.0-0.32","7145","1","20","Male","approach_avoid_spark_v1","""event"",""trial"",""time""
""fullscreenenter"",""1"",""2389""
","
","
","""event"",""trial"",""time""
""fullscreenenter"",""1"",""2389""
","
","","","","","","null","<div style=""font-size:60px;"">+</div>","null","","fixation","","","","","","","","","","",""
"aa-learning-trial","137","569039","0.0-9.0-2.0-1.32","7145","1","20","Male","approach_avoid_spark_v1","""event"",""trial"",""time""
""fullscreenenter"",""1"",""2389""
","
","
","""event"",""trial"",""time""
""fullscreenenter"",""1"",""2389""
","
","","","","","","607.8000000119209","images/cactus8.png","","","learning","1","1","1","1","cactus","plants","1","0","","good","[3]"
"html-keyboard-response","138","569541","0.0-9.0-2.0-0.33","7145","1","20","Male","approach_avoid_spark_v1","""event"",""trial"",""time""
""fullscreenenter"",""1"",""2389""
","
","
","""event"",""trial"",""time""
""fullscreenenter"",""1"",""2389""
","
","","","","","","null","<div style=""font-size:60px;"">+</div>","null","","fixation","","","","","","","","","","",""
"aa-learning-trial","139","572545","0.0-9.0-2.0-1.33","7145","1","20","Male","approach_avoid_spark_v1","""event"",""trial"",""time""
""fullscreenenter"",""1"",""2389""
","
","
","""event"",""trial"",""time""
""fullscreenenter"",""1"",""2389""
","
","","","","","","536.6999999880791","images/flower4.png","","","learning","1","1","1","1","flower","plants","1","0","","neutral","0"
"html-keyboard-response","140","573047","0.0-9.0-2.0-0.34","7145","1","20","Male","approach_avoid_spark_v1","""event"",""trial"",""time""
""fullscreenenter"",""1"",""2389""
","
","
","""event"",""trial"",""time""
""fullscreenenter"",""1"",""2389""
","
","","","","","","null","<div style=""font-size:60px;"">+</div>","null","","fixation","","","","","","","","","","",""
"aa-learning-trial","141","576053","0.0-9.0-2.0-1.34","7145","1","20","Male","approach_avoid_spark_v1","""event"",""trial"",""time""
""fullscreenenter"",""1"",""2389""
","
","
","""event"",""trial"",""time""
""fullscreenenter"",""1"",""2389""
","
","","","","","","612.5999999642372","images/tree8.png","","","learning","-3","0","0","0","tree","plants","1","0","","bad","[-5]"
"html-keyboard-response","142","576554","0.0-9.0-2.0-0.35","7145","1","20","Male","approach_avoid_spark_v1","""event"",""trial"",""time""
""fullscreenenter"",""1"",""2389""
","
","
","""event"",""trial"",""time""
""fullscreenenter"",""1"",""2389""
","
","","","","","","null","<div style=""font-size:60px;"">+</div>","null","","fixation","","","","","","","","","","",""
"aa-learning-trial","143","579559","0.0-9.0-2.0-1.35","7145","1","20","Male","approach_avoid_spark_v1","""event"",""trial"",""time""
""fullscreenenter"",""1"",""2389""
","
","
","""event"",""trial"",""time""
""fullscreenenter"",""1"",""2389""
","
","","","","","","635.6000000238419","images/tree7.png","","","learning","-7","0","0","0","tree","plants","1","0","","bad","[-5]"
"html-keyboard-response","144","580061","0.0-9.0-2.0-0.36","7145","1","20","Male","approach_avoid_spark_v1","""event"",""trial"",""time""
""fullscreenenter"",""1"",""2389""
","
","
","""event"",""trial"",""time""
""fullscreenenter"",""1"",""2389""
","
","","","","","","null","<div style=""font-size:60px;"">+</div>","null","","fixation","","","","","","","","","","",""
"aa-learning-trial","145","583066","0.0-9.0-2.0-1.36","7145","1","20","Male","approach_avoid_spark_v1","""event"",""trial"",""time""
""fullscreenenter"",""1"",""2389""
","
","
","""event"",""trial"",""time""
""fullscreenenter"",""1"",""2389""
","
","","","","","","692.3000000119209","images/flower1.png","","","learning","1","0","0","0","flower","plants","1","0","","neutral","0"
"html-keyboard-response","146","583568","0.0-9.0-2.0-0.37","7145","1","20","Male","approach_avoid_spark_v1","""event"",""trial"",""time""
""fullscreenenter"",""1"",""2389""
","
","
","""event"",""trial"",""time""
""fullscreenenter"",""1"",""2389""
","
","","","","","","null","<div style=""font-size:60px;"">+</div>","null","","fixation","","","","","","","","","","",""
"aa-learning-trial","147","586572","0.0-9.0-2.0-1.37","7145","1","20","Male","approach_avoid_spark_v1","""event"",""trial"",""time""
""fullscreenenter"",""1"",""2389""
","
","
","""event"",""trial"",""time""
""fullscreenenter"",""1"",""2389""
","
","","","","","","613.3999999761581","images/flower1.png","","","learning","-3","-3","1","1","flower","plants","1","0","","neutral","0"
"html-keyboard-response","148","587073","0.0-9.0-2.0-0.38","7145","1","20","Male","approach_avoid_spark_v1","""event"",""trial"",""time""
""fullscreenenter"",""1"",""2389""
","
","
","""event"",""trial"",""time""
""fullscreenenter"",""1"",""2389""
","
","","","","","","null","<div style=""font-size:60px;"">+</div>","null","","fixation","","","","","","","","","","",""
"aa-learning-trial","149","590077","0.0-9.0-2.0-1.38","7145","1","20","Male","approach_avoid_spark_v1","""event"",""trial"",""time""
""fullscreenenter"",""1"",""2389""
","
","
","""event"",""trial"",""time""
""fullscreenenter"",""1"",""2389""
","
","","","","","","760.1000000238419","images/cactus2.png","","","learning","5","5","1","1","cactus","plants","1","0","","good","[3]"
"html-keyboard-response","150","590580","0.0-9.0-2.0-0.39","7145","1","20","Male","approach_avoid_spark_v1","""event"",""trial"",""time""
""fullscreenenter"",""1"",""2389""
","
","
","""event"",""trial"",""time""
""fullscreenenter"",""1"",""2389""
","
","","","","","","null","<div style=""font-size:60px;"">+</div>","null","","fixation","","","","","","","","","","",""
"aa-learning-trial","151","593585","0.0-9.0-2.0-1.39","7145","1","20","Male","approach_avoid_spark_v1","""event"",""trial"",""time""
""fullscreenenter"",""1"",""2389""
","
","
","""event"",""trial"",""time""
""fullscreenenter"",""1"",""2389""
","
","","","","","","671.9000000357628","images/cactus1.png","","","learning","4","4","1","1","cactus","plants","1","0","","good","[3]"
"html-keyboard-response","152","594087","0.0-9.0-2.0-0.40","7145","1","20","Male","approach_avoid_spark_v1","""event"",""trial"",""time""
""fullscreenenter"",""1"",""2389""
","
","
","""event"",""trial"",""time""
""fullscreenenter"",""1"",""2389""
","
","","","","","","null","<div style=""font-size:60px;"">+</div>","null","","fixation","","","","","","","","","","",""
"aa-learning-trial","153","597091","0.0-9.0-2.0-1.40","7145","1","20","Male","approach_avoid_spark_v1","""event"",""trial"",""time""
""fullscreenenter"",""1"",""2389""
","
","
","""event"",""trial"",""time""
""fullscreenenter"",""1"",""2389""
","
","","","","","","584.6000000238419","images/tree8.png","","","learning","-4","0","0","0","tree","plants","1","0","","bad","[-5]"
"html-keyboard-response","154","597593","0.0-9.0-2.0-0.41","7145","1","20","Male","approach_avoid_spark_v1","""event"",""trial"",""time""
""fullscreenenter"",""1"",""2389""
","
","
","""event"",""trial"",""time""
""fullscreenenter"",""1"",""2389""
","
","","","","","","null","<div style=""font-size:60px;"">+</div>","null","","fixation","","","","","","","","","","",""
"aa-learning-trial","155","600598","0.0-9.0-2.0-1.41","7145","1","20","Male","approach_avoid_spark_v1","""event"",""trial"",""time""
""fullscreenenter"",""1"",""2389""
","
","
","""event"",""trial"",""time""
""fullscreenenter"",""1"",""2389""
","
","","","","","","747.3000000119209","images/cactus5.png","","","learning","4","4","1","1","cactus","plants","1","0","","good","[3]"
"html-keyboard-response","156","601101","0.0-9.0-2.0-0.42","7145","1","20","Male","approach_avoid_spark_v1","""event"",""trial"",""time""
""fullscreenenter"",""1"",""2389""
","
","
","""event"",""trial"",""time""
""fullscreenenter"",""1"",""2389""
","
","","","","","","null","<div style=""font-size:60px;"">+</div>","null","","fixation","","","","","","","","","","",""
"aa-learning-trial","157","604105","0.0-9.0-2.0-1.42","7145","1","20","Male","approach_avoid_spark_v1","""event"",""trial"",""time""
""fullscreenenter"",""1"",""2389""
","
","
","""event"",""trial"",""time""
""fullscreenenter"",""1"",""2389""
","
","","","","","","553.6999999880791","images/flower4.png","","","learning","-1","-1","1","1","flower","plants","1","0","","neutral","0"
"html-keyboard-response","158","604608","0.0-9.0-2.0-0.43","7145","1","20","Male","approach_avoid_spark_v1","""event"",""trial"",""time""
""fullscreenenter"",""1"",""2389""
","
","
","""event"",""trial"",""time""
""fullscreenenter"",""1"",""2389""
","
","","","","","","null","<div style=""font-size:60px;"">+</div>","null","","fixation","","","","","","","","","","",""
"aa-learning-trial","159","607612","0.0-9.0-2.0-1.43","7145","1","20","Male","approach_avoid_spark_v1","""event"",""trial"",""time""
""fullscreenenter"",""1"",""2389""
","
","
","""event"",""trial"",""time""
""fullscreenenter"",""1"",""2389""
","
","","","","","","698.8999999761581","images/tree1.png","","","learning","-5","0","0","0","tree","plants","1","0","","bad","[-5]"
"html-keyboard-response","160","608113","0.0-9.0-2.0-0.44","7145","1","20","Male","approach_avoid_spark_v1","""event"",""trial"",""time""
""fullscreenenter"",""1"",""2389""
","
","
","""event"",""trial"",""time""
""fullscreenenter"",""1"",""2389""
","
","","","","","","null","<div style=""font-size:60px;"">+</div>","null","","fixation","","","","","","","","","","",""
"aa-learning-trial","161","611116","0.0-9.0-2.0-1.44","7145","1","20","Male","approach_avoid_spark_v1","""event"",""trial"",""time""
""fullscreenenter"",""1"",""2389""
","
","
","""event"",""trial"",""time""
""fullscreenenter"",""1"",""2389""
","
","","","","","","561.1999999880791","images/cactus2.png","","","learning","7","7","1","1","cactus","plants","1","0","","good","[3]"
"html-keyboard-response","162","611618","0.0-9.0-2.0-0.45","7145","1","20","Male","approach_avoid_spark_v1","""event"",""trial"",""time""
""fullscreenenter"",""1"",""2389""
","
","
","""event"",""trial"",""time""
""fullscreenenter"",""1"",""2389""
","
","","","","","","null","<div style=""font-size:60px;"">+</div>","null","","fixation","","","","","","","","","","",""
"aa-learning-trial","163","614621","0.0-9.0-2.0-1.45","7145","1","20","Male","approach_avoid_spark_v1","""event"",""trial"",""time""
""fullscreenenter"",""1"",""2389""
","
","
","""event"",""trial"",""time""
""fullscreenenter"",""1"",""2389""
","
","","","","","","633.8000000119209","images/cactus1.png","","","learning","2","2","1","1","cactus","plants","1","0","","good","[3]"
"html-keyboard-response","164","615124","0.0-9.0-2.0-0.46","7145","1","20","Male","approach_avoid_spark_v1","""event"",""trial"",""time""
""fullscreenenter"",""1"",""2389""
","
","
","""event"",""trial"",""time""
""fullscreenenter"",""1"",""2389""
","
","","","","","","null","<div style=""font-size:60px;"">+</div>","null","","fixation","","","","","","","","","","",""
"aa-learning-trial","165","618129","0.0-9.0-2.0-1.46","7145","1","20","Male","approach_avoid_spark_v1","""event"",""trial"",""time""
""fullscreenenter"",""1"",""2389""
","
","
","""event"",""trial"",""time""
""fullscreenenter"",""1"",""2389""
","
","","","","","","907.1999999880791","images/flower7.png","","","learning","-1","-1","1","1","flower","plants","1","0","","neutral","0"
"html-keyboard-response","166","618630","0.0-9.0-2.0-0.47","7145","1","20","Male","approach_avoid_spark_v1","""event"",""trial"",""time""
""fullscreenenter"",""1"",""2389""
","
","
","""event"",""trial"",""time""
""fullscreenenter"",""1"",""2389""
","
","","","","","","null","<div style=""font-size:60px;"">+</div>","null","","fixation","","","","","","","","","","",""
"aa-learning-trial","167","621635","0.0-9.0-2.0-1.47","7145","1","20","Male","approach_avoid_spark_v1","""event"",""trial"",""time""
""fullscreenenter"",""1"",""2389""
","
","
","""event"",""trial"",""time""
""fullscreenenter"",""1"",""2389""
","
","","","","","","864.3999999761581","images/flower1.png","","","learning","-2","-2","1","1","flower","plants","1","0","","neutral","0"
"html-keyboard-response","168","622138","0.0-9.0-2.0-0.48","7145","1","20","Male","approach_avoid_spark_v1","""event"",""trial"",""time""
""fullscreenenter"",""1"",""2389""
","
","
","""event"",""trial"",""time""
""fullscreenenter"",""1"",""2389""
","
","","","","","","null","<div style=""font-size:60px;"">+</div>","null","","fixation","","","","","","","","","","",""
"aa-learning-trial","169","625143","0.0-9.0-2.0-1.48","7145","1","20","Male","approach_avoid_spark_v1","""event"",""trial"",""time""
""fullscreenenter"",""1"",""2389""
","
","
","""event"",""trial"",""time""
""fullscreenenter"",""1"",""2389""
","
","","","","","","749.4000000357628","images/cactus2.png","","","learning","5","5","1","1","cactus","plants","1","0","","good","[3]"
"html-keyboard-response","170","625645","0.0-9.0-2.0-0.49","7145","1","20","Male","approach_avoid_spark_v1","""event"",""trial"",""time""
""fullscreenenter"",""1"",""2389""
","
","
","""event"",""trial"",""time""
""fullscreenenter"",""1"",""2389""
","
","","","","","","null","<div style=""font-size:60px;"">+</div>","null","","fixation","","","","","","","","","","",""
"aa-learning-trial","171","628648","0.0-9.0-2.0-1.49","7145","1","20","Male","approach_avoid_spark_v1","""event"",""trial"",""time""
""fullscreenenter"",""1"",""2389""
","
","
","""event"",""trial"",""time""
""fullscreenenter"",""1"",""2389""
","
","","","","","","650.0999999642372","images/tree1.png","","","learning","-7","0","0","0","tree","plants","1","0","","bad","[-5]"
"html-keyboard-response","172","629150","0.0-9.0-2.0-0.50","7145","1","20","Male","approach_avoid_spark_v1","""event"",""trial"",""time""
""fullscreenenter"",""1"",""2389""
","
","
","""event"",""trial"",""time""
""fullscreenenter"",""1"",""2389""
","
","","","","","","null","<div style=""font-size:60px;"">+</div>","null","","fixation","","","","","","","","","","",""
"aa-learning-trial","173","632153","0.0-9.0-2.0-1.50","7145","1","20","Male","approach_avoid_spark_v1","""event"",""trial"",""time""
""fullscreenenter"",""1"",""2389""
","
","
","""event"",""trial"",""time""
""fullscreenenter"",""1"",""2389""
","
","","","","","","523","images/tree1.png","","","learning","-4","0","0","0","tree","plants","1","0","","bad","[-5]"
"html-button-response","174","635102","0.0-9.0-3.0","7145","1","20","Male","approach_avoid_spark_v1","""event"",""trial"",""time""
""fullscreenenter"",""1"",""2389""
","
","
","""event"",""trial"",""time""
""fullscreenenter"",""1"",""2389""
","
","","","","","","2946.5","<p> You have completed the round! <p> In this round, you earned 50 points! </p>","0","","break","","","","","","","","","","",""
"html-button-response","175","635966","0.0-10.0","7145","1","20","Male","approach_avoid_spark_v1","""event"",""trial"",""time""
""fullscreenenter"",""1"",""2389""
","
","
","""event"",""trial"",""time""
""fullscreenenter"",""1"",""2389""
","
","","","","","","862.8999999761581","<p> Now it's time to play another round. </p>","0","","transition_screen","","","","","","","","","","",""
"preload","176","636096","0.0-11.0-0.0","7145","1","20","Male","approach_avoid_spark_v1","""event"",""trial"",""time""
""fullscreenenter"",""1"",""2389""
","
","
","""event"",""trial"",""time""
""fullscreenenter"",""1"",""2389""
","
","true","false","[]","[]","[]","","","","","","","","","","","","","","","",""
"learning-instructions","177","643255","0.0-11.0-1.0-0.0","7145","1","20","Male","approach_avoid_spark_v1","""event"",""trial"",""time""
""fullscreenenter"",""1"",""2389""
","
","
","""event"",""trial"",""time""
""fullscreenenter"",""1"",""2389""
","
","","","","","","1934.800000011921","<p> Your goal in this round is to decorate your friend's new house with furniture. </p></div>","","0","instructions","","","","","","","","","","",""
"learning-instructions","178","655490","0.0-11.0-1.0-0.1","7145","1","20","Male","approach_avoid_spark_v1","""event"",""trial"",""time""
""fullscreenenter"",""1"",""2389""
","
","
","""event"",""trial"",""time""
""fullscreenenter"",""1"",""2389""
","
","","","","","","2319.800000011921","<p> Your friend likes some pieces of furniture but not others.  </p><p> On each turn, you will see a piece of furniture.   </p><p> You need to decide whether to put it in your friend's house or not.  </p>","","0","instructions","","","","","","","","","","",""
"learning-instructions","179","662017","0.0-11.0-1.0-0.2","7145","1","20","Male","approach_avoid_spark_v1","""event"",""trial"",""time""
""fullscreenenter"",""1"",""2389""
","
","
","""event"",""trial"",""time""
""fullscreenenter"",""1"",""2389""
","
","","","","","","606.3000000119209","<p> You can put the furniture in her house by pressing 1 and deliver it elsewhere by pressing 0. </p><br><div class=""choice-instructions-grid""> <div class=""choice-option""><img src=""images/approach.png"" class=""choice-option-img"" stage=""instructions"" position=""0"" ><div class=""choice-option-text""> Press ""1."" </div></div><div class=""choice-option""><img src=""images/avoid.png"" class=""choice-option-img"" stage=""instructions"" position=""1"" ><div class=""choice-option-text""> Press ""0."" </div></div>","","0","instructions","","","","","","","","","","",""
"learning-instructions","180","672405","0.0-11.0-1.0-0.3","7145","1","20","Male","approach_avoid_spark_v1","""event"",""trial"",""time""
""fullscreenenter"",""1"",""2389""
","
","
","""event"",""trial"",""time""
""fullscreenenter"",""1"",""2389""
","
","","","","","","1454.5","<p> If you decorate your friend's house with furniture she likes, she will be happy! </p><p> But if you give her furniture that she does not like, she will be annoyed. </p>","","0","instructions","","","","","","","","","","",""
"learning-instructions","181","686126","0.0-11.0-1.0-0.4","7145","1","20","Male","approach_avoid_spark_v1","""event"",""trial"",""time""
""fullscreenenter"",""1"",""2389""
","
","
","""event"",""trial"",""time""
""fullscreenenter"",""1"",""2389""
","
","","","","","","1356.9000000357628","<p> You will earn points based on how you made your friend feel. </p><p> If you made her happy, you will WIN anywhere from 1 - 9 points, </p><p> but if you made her annoyed you will LOSE anywhere from 1 - 9 points. </p>","","0","instructions","","","","","","","","","","",""
"learning-instructions","182","694194","0.0-11.0-1.0-0.5","7145","1","20","Male","approach_avoid_spark_v1","""event"",""trial"",""time""
""fullscreenenter"",""1"",""2389""
","
","
","""event"",""trial"",""time""
""fullscreenenter"",""1"",""2389""
","
","","","","","","1414.3999999761581","<p> You will see how many points you won or lost in the center of the screen. </p><p> Here is what you would see if you won 5 points: </p><p style=""color:green;font-size:50px;font-weight:bolder"">5</p>","","0","instructions","","","","","","","","","","",""
"learning-instructions","183","697617","0.0-11.0-1.0-0.6","7145","1","20","Male","approach_avoid_spark_v1","""event"",""trial"",""time""
""fullscreenenter"",""1"",""2389""
","
","
","""event"",""trial"",""time""
""fullscreenenter"",""1"",""2389""
","
","","","","","","587.1999999880791","<p> And here is what you would see if you lost 3 points: </p><p style=""color:red;font-size:50px;font-weight:bolder"">-3</p>","","0","instructions","","","","","","","","","","",""
"learning-instructions","184","716130","0.0-11.0-1.0-0.7","7145","1","20","Male","approach_avoid_spark_v1","""event"",""trial"",""time""
""fullscreenenter"",""1"",""2389""
","
","
","""event"",""trial"",""time""
""fullscreenenter"",""1"",""2389""
","
","","","","","","1110.3999999761581","<p> Some pieces of furniture will make her feel very happy or very annoyed. </p><p> These pieces of furniture will make you win or lose LOTS of points. </p><p> Other pieces of furniture will only make her feel a little happy or a little annoyed. </p><p> These pieces of furniture will make you win or lose small amounts of points. </p>","","0","instructions","","","","","","","","","","",""
"learning-instructions","185","729672","0.0-11.0-1.0-0.8","7145","1","20","Male","approach_avoid_spark_v1","""event"",""trial"",""time""
""fullscreenenter"",""1"",""2389""
","
","
","""event"",""trial"",""time""
""fullscreenenter"",""1"",""2389""
","
","","","","","","703.1000000238419","<p> If you choose to deliver a piece of furniture elsewhere, you will not win or lose any points. </p><p>  However, in the center of the screen, you will see the number of points you WOULD HAVE won or lost if you had given the furniture to your friend. </p>","","0","instructions","","","","","","","","","","",""
"learning-instructions","186","742268","0.0-11.0-1.0-0.9","7145","1","20","Male","approach_avoid_spark_v1","""event"",""trial"",""time""
""fullscreenenter"",""1"",""2389""
","
","
","""event"",""trial"",""time""
""fullscreenenter"",""1"",""2389""
","
","","","","","","1058.3999999761581","<p> Here is what you might see if you did not give a piece of furniture to your friend that would have made her happy: </p><p style=""color:grey; font-size:50px; display: inline-block; border-spacing: 15px; border-width:3px; border-style:solid; border-color:red"">  &nbsp; 6 &nbsp; </p><p> Remember, in this case, you would not win or lose ANY points because you did not give her the furniture.  </p>","","0","instructions","","","","","","","","","","",""
"learning-instructions","187","751157","0.0-11.0-1.0-0.10","7145","1","20","Male","approach_avoid_spark_v1","""event"",""trial"",""time""
""fullscreenenter"",""1"",""2389""
","
","
","""event"",""trial"",""time""
""fullscreenenter"",""1"",""2389""
","
","","","","","","1157.3999999761581","<p> Try to make the best choice for each piece of furniture because </p><p> at the end of the game, you will earn bonus money based on how many points you earned. </p>","","0","instructions","","","","","","","","","","",""
"learning-instructions","188","759950","0.0-11.0-1.0-0.11","7145","1","20","Male","approach_avoid_spark_v1","""event"",""trial"",""time""
""fullscreenenter"",""1"",""2389""
","
","
","""event"",""trial"",""time""
""fullscreenenter"",""1"",""2389""
","
","","","","","","590","<p> You will have 3 seconds to make each choice. Try to respond before time runs out! </p><p> You will lose 5 points each time you do not make a response. </p>","","0","instructions","","","","","","","","","","",""
"html-keyboard-response","189","760566","0.0-11.0-2.0-0.0","7145","1","20","Male","approach_avoid_spark_v1","""event"",""trial"",""time""
""fullscreenenter"",""1"",""2389""
","
","
","""event"",""trial"",""time""
""fullscreenenter"",""1"",""2389""
","
","","","","","","null","<div style=""font-size:60px;"">+</div>","null","","fixation","","","","","","","","","","",""
"aa-learning-trial","190","763571","0.0-11.0-2.0-1.0","7145","1","20","Male","approach_avoid_spark_v1","""event"",""trial"",""time""
""fullscreenenter"",""1"",""2389""
","
","
","""event"",""trial"",""time""
""fullscreenenter"",""1"",""2389""
","
","","","","","","1150.5","images/table6.png","","","learning","-1","-1","1","1","table","furniture","2","1","","neutral","0"
"html-keyboard-response","191","764087","0.0-11.0-2.0-0.1","7145","1","20","Male","approach_avoid_spark_v1","""event"",""trial"",""time""
""fullscreenenter"",""1"",""2389""
","
","
","""event"",""trial"",""time""
""fullscreenenter"",""1"",""2389""
","
","","","","","","null","<div style=""font-size:60px;"">+</div>","null","","fixation","","","","","","","","","","",""
"aa-learning-trial","192","767098","0.0-11.0-2.0-1.1","7145","1","20","Male","approach_avoid_spark_v1","""event"",""trial"",""time""
""fullscreenenter"",""1"",""2389""
","
","
","""event"",""trial"",""time""
""fullscreenenter"",""1"",""2389""
","
","","","","","","601","images/chair1.png","","","learning","-7","-7","1","1","chair","furniture","2","1","","bad","[-5]"
"html-keyboard-response","193","767614","0.0-11.0-2.0-0.2","7145","1","20","Male","approach_avoid_spark_v1","""event"",""trial"",""time""
""fullscreenenter"",""1"",""2389""
","
","
","""event"",""trial"",""time""
""fullscreenenter"",""1"",""2389""
","
","","","","","","null","<div style=""font-size:60px;"">+</div>","null","","fixation","","","","","","","","","","",""
"aa-learning-trial","194","770622","0.0-11.0-2.0-1.2","7145","1","20","Male","approach_avoid_spark_v1","""event"",""trial"",""time""
""fullscreenenter"",""1"",""2389""
","
","
","""event"",""trial"",""time""
""fullscreenenter"",""1"",""2389""
","
","","","","","","1306","images/table6.png","","","learning","-1","0","0","0","table","furniture","2","1","","neutral","0"
"html-keyboard-response","195","771137","0.0-11.0-2.0-0.3","7145","1","20","Male","approach_avoid_spark_v1","""event"",""trial"",""time""
""fullscreenenter"",""1"",""2389""
","
","
","""event"",""trial"",""time""
""fullscreenenter"",""1"",""2389""
","
","","","","","","null","<div style=""font-size:60px;"">+</div>","null","","fixation","","","","","","","","","","",""
"aa-learning-trial","196","774153","0.0-11.0-2.0-1.3","7145","1","20","Male","approach_avoid_spark_v1","""event"",""trial"",""time""
""fullscreenenter"",""1"",""2389""
","
","
","""event"",""trial"",""time""
""fullscreenenter"",""1"",""2389""
","
","","","","","","838","images/sofa1.png","","","learning","4","4","1","1","sofa","furniture","2","1","","good","[3]"
"html-keyboard-response","197","774667","0.0-11.0-2.0-0.4","7145","1","20","Male","approach_avoid_spark_v1","""event"",""trial"",""time""
""fullscreenenter"",""1"",""2389""
","
","
","""event"",""trial"",""time""
""fullscreenenter"",""1"",""2389""
","
","","","","","","null","<div style=""font-size:60px;"">+</div>","null","","fixation","","","","","","","","","","",""
"aa-learning-trial","198","777686","0.0-11.0-2.0-1.4","7145","1","20","Male","approach_avoid_spark_v1","""event"",""trial"",""time""
""fullscreenenter"",""1"",""2389""
","
","
","""event"",""trial"",""time""
""fullscreenenter"",""1"",""2389""
","
","","","","","","595.5999999642372","images/sofa3.png","","","learning","2","2","1","1","sofa","furniture","2","1","","good","[3]"
"html-keyboard-response","199","778201","0.0-11.0-2.0-0.5","7145","1","20","Male","approach_avoid_spark_v1","""event"",""trial"",""time""
""fullscreenenter"",""1"",""2389""
","
","
","""event"",""trial"",""time""
""fullscreenenter"",""1"",""2389""
","
","","","","","","null","<div style=""font-size:60px;"">+</div>","null","","fixation","","","","","","","","","","",""
"aa-learning-trial","200","781204","0.0-11.0-2.0-1.5","7145","1","20","Male","approach_avoid_spark_v1","""event"",""trial"",""time""
""fullscreenenter"",""1"",""2389""
","
","
","""event"",""trial"",""time""
""fullscreenenter"",""1"",""2389""
","
","","","","","","536","images/sofa8.png","","","learning","-6","-6","1","1","sofa","furniture","2","1","","good","[3]"
"html-keyboard-response","201","781709","0.0-11.0-2.0-0.6","7145","1","20","Male","approach_avoid_spark_v1","""event"",""trial"",""time""
""fullscreenenter"",""1"",""2389""
","
","
","""event"",""trial"",""time""
""fullscreenenter"",""1"",""2389""
","
","","","","","","null","<div style=""font-size:60px;"">+</div>","null","","fixation","","","","","","","","","","",""
"aa-learning-trial","202","784718","0.0-11.0-2.0-1.6","7145","1","20","Male","approach_avoid_spark_v1","""event"",""trial"",""time""
""fullscreenenter"",""1"",""2389""
","
","
","""event"",""trial"",""time""
""fullscreenenter"",""1"",""2389""
","
","","","","","","741.3000000119209","images/chair6.png","","","learning","5","5","1","1","chair","furniture","2","1","","bad","[-5]"
"html-keyboard-response","203","785235","0.0-11.0-2.0-0.7","7145","1","20","Male","approach_avoid_spark_v1","""event"",""trial"",""time""
""fullscreenenter"",""1"",""2389""
","
","
","""event"",""trial"",""time""
""fullscreenenter"",""1"",""2389""
","
","","","","","","null","<div style=""font-size:60px;"">+</div>","null","","fixation","","","","","","","","","","",""
"aa-learning-trial","204","788248","0.0-11.0-2.0-1.7","7145","1","20","Male","approach_avoid_spark_v1","""event"",""trial"",""time""
""fullscreenenter"",""1"",""2389""
","
","
","""event"",""trial"",""time""
""fullscreenenter"",""1"",""2389""
","
","","","","","","797.6999999880791","images/table7.png","","","learning","-3","-3","1","1","table","furniture","2","1","","neutral","0"
"html-keyboard-response","205","788750","0.0-11.0-2.0-0.8","7145","1","20","Male","approach_avoid_spark_v1","""event"",""trial"",""time""
""fullscreenenter"",""1"",""2389""
","
","
","""event"",""trial"",""time""
""fullscreenenter"",""1"",""2389""
","
","","","","","","null","<div style=""font-size:60px;"">+</div>","null","","fixation","","","","","","","","","","",""
"aa-learning-trial","206","791755","0.0-11.0-2.0-1.8","7145","1","20","Male","approach_avoid_spark_v1","""event"",""trial"",""time""
""fullscreenenter"",""1"",""2389""
","
","
","""event"",""trial"",""time""
""fullscreenenter"",""1"",""2389""
","
","","","","","","1110.5","images/chair8.png","","","learning","-4","0","0","0","chair","furniture","2","1","","bad","[-5]"
"html-keyboard-response","207","792256","0.0-11.0-2.0-0.9","7145","1","20","Male","approach_avoid_spark_v1","""event"",""trial"",""time""
""fullscreenenter"",""1"",""2389""
","
","
","""event"",""trial"",""time""
""fullscreenenter"",""1"",""2389""
","
","","","","","","null","<div style=""font-size:60px;"">+</div>","null","","fixation","","","","","","","","","","",""
"aa-learning-trial","208","795258","0.0-11.0-2.0-1.9","7145","1","20","Male","approach_avoid_spark_v1","""event"",""trial"",""time""
""fullscreenenter"",""1"",""2389""
","
","
","""event"",""trial"",""time""
""fullscreenenter"",""1"",""2389""
","
","","","","","","466.5","images/chair8.png","","","learning","-4","0","0","0","chair","furniture","2","1","","bad","[-5]"
"html-keyboard-response","209","795760","0.0-11.0-2.0-0.10","7145","1","20","Male","approach_avoid_spark_v1","""event"",""trial"",""time""
""fullscreenenter"",""1"",""2389""
","
","
","""event"",""trial"",""time""
""fullscreenenter"",""1"",""2389""
","
","","","","","","null","<div style=""font-size:60px;"">+</div>","null","","fixation","","","","","","","","","","",""
"aa-learning-trial","210","798765","0.0-11.0-2.0-1.10","7145","1","20","Male","approach_avoid_spark_v1","""event"",""trial"",""time""
""fullscreenenter"",""1"",""2389""
","
","
","""event"",""trial"",""time""
""fullscreenenter"",""1"",""2389""
","
","","","","","","773.1000000238419","images/sofa8.png","","","learning","-6","-6","1","1","sofa","furniture","2","1","","good","[3]"
"html-keyboard-response","211","799267","0.0-11.0-2.0-0.11","7145","1","20","Male","approach_avoid_spark_v1","""event"",""trial"",""time""
""fullscreenenter"",""1"",""2389""
","
","
","""event"",""trial"",""time""
""fullscreenenter"",""1"",""2389""
","
","","","","","","null","<div style=""font-size:60px;"">+</div>","null","","fixation","","","","","","","","","","",""
"aa-learning-trial","212","802271","0.0-11.0-2.0-1.11","7145","1","20","Male","approach_avoid_spark_v1","""event"",""trial"",""time""
""fullscreenenter"",""1"",""2389""
","
","
","""event"",""trial"",""time""
""fullscreenenter"",""1"",""2389""
","
","","","","","","1008.3999999761581","images/table1.png","","","learning","9","0","0","0","table","furniture","2","1","","neutral","0"
"html-keyboard-response","213","802773","0.0-11.0-2.0-0.12","7145","1","20","Male","approach_avoid_spark_v1","""event"",""trial"",""time""
""fullscreenenter"",""1"",""2389""
","
","
","""event"",""trial"",""time""
""fullscreenenter"",""1"",""2389""
","
","","","","","","null","<div style=""font-size:60px;"">+</div>","null","","fixation","","","","","","","","","","",""
"aa-learning-trial","214","805778","0.0-11.0-2.0-1.12","7145","1","20","Male","approach_avoid_spark_v1","""event"",""trial"",""time""
""fullscreenenter"",""1"",""2389""
","
","
","""event"",""trial"",""time""
""fullscreenenter"",""1"",""2389""
","
","","","","","","670.8000000119209","images/chair6.png","","","learning","5","5","1","1","chair","furniture","2","1","","bad","[-5]"
"html-keyboard-response","215","806280","0.0-11.0-2.0-0.13","7145","1","20","Male","approach_avoid_spark_v1","""event"",""trial"",""time""
""fullscreenenter"",""1"",""2389""
","
","
","""event"",""trial"",""time""
""fullscreenenter"",""1"",""2389""
","
","","","","","","null","<div style=""font-size:60px;"">+</div>","null","","fixation","","","","","","","","","","",""
"aa-learning-trial","216","809285","0.0-11.0-2.0-1.13","7145","1","20","Male","approach_avoid_spark_v1","""event"",""trial"",""time""
""fullscreenenter"",""1"",""2389""
","
","
","""event"",""trial"",""time""
""fullscreenenter"",""1"",""2389""
","
","","","","","","610","images/table1.png","","","learning","9","9","1","1","table","furniture","2","1","","neutral","0"
"html-keyboard-response","217","809787","0.0-11.0-2.0-0.14","7145","1","20","Male","approach_avoid_spark_v1","""event"",""trial"",""time""
""fullscreenenter"",""1"",""2389""
","
","
","""event"",""trial"",""time""
""fullscreenenter"",""1"",""2389""
","
","","","","","","null","<div style=""font-size:60px;"">+</div>","null","","fixation","","","","","","","","","","",""
"aa-learning-trial","218","812793","0.0-11.0-2.0-1.14","7145","1","20","Male","approach_avoid_spark_v1","""event"",""trial"",""time""
""fullscreenenter"",""1"",""2389""
","
","
","""event"",""trial"",""time""
""fullscreenenter"",""1"",""2389""
","
","","","","","","789.1999999880791","images/sofa1.png","","","learning","4","4","1","1","sofa","furniture","2","1","","good","[3]"
"html-keyboard-response","219","813295","0.0-11.0-2.0-0.15","7145","1","20","Male","approach_avoid_spark_v1","""event"",""trial"",""time""
""fullscreenenter"",""1"",""2389""
","
","
","""event"",""trial"",""time""
""fullscreenenter"",""1"",""2389""
","
","","","","","","null","<div style=""font-size:60px;"">+</div>","null","","fixation","","","","","","","","","","",""
"aa-learning-trial","220","816299","0.0-11.0-2.0-1.15","7145","1","20","Male","approach_avoid_spark_v1","""event"",""trial"",""time""
""fullscreenenter"",""1"",""2389""
","
","
","""event"",""trial"",""time""
""fullscreenenter"",""1"",""2389""
","
","","","","","","907.5","images/table7.png","","","learning","-3","0","0","0","table","furniture","2","1","","neutral","0"
"html-keyboard-response","221","816801","0.0-11.0-2.0-0.16","7145","1","20","Male","approach_avoid_spark_v1","""event"",""trial"",""time""
""fullscreenenter"",""1"",""2389""
","
","
","""event"",""trial"",""time""
""fullscreenenter"",""1"",""2389""
","
","","","","","","null","<div style=""font-size:60px;"">+</div>","null","","fixation","","","","","","","","","","",""
"aa-learning-trial","222","819805","0.0-11.0-2.0-1.16","7145","1","20","Male","approach_avoid_spark_v1","""event"",""trial"",""time""
""fullscreenenter"",""1"",""2389""
","
","
","""event"",""trial"",""time""
""fullscreenenter"",""1"",""2389""
","
","","","","","","692.1999999880791","images/sofa1.png","","","learning","4","4","1","1","sofa","furniture","2","1","","good","[3]"
"html-keyboard-response","223","820307","0.0-11.0-2.0-0.17","7145","1","20","Male","approach_avoid_spark_v1","""event"",""trial"",""time""
""fullscreenenter"",""1"",""2389""
","
","
","""event"",""trial"",""time""
""fullscreenenter"",""1"",""2389""
","
","","","","","","null","<div style=""font-size:60px;"">+</div>","null","","fixation","","","","","","","","","","",""
"aa-learning-trial","224","823310","0.0-11.0-2.0-1.17","7145","1","20","Male","approach_avoid_spark_v1","""event"",""trial"",""time""
""fullscreenenter"",""1"",""2389""
","
","
","""event"",""trial"",""time""
""fullscreenenter"",""1"",""2389""
","
","","","","","","786.1999999880791","images/table6.png","","","learning","-1","0","0","0","table","furniture","2","1","","neutral","0"
"html-keyboard-response","225","823811","0.0-11.0-2.0-0.18","7145","1","20","Male","approach_avoid_spark_v1","""event"",""trial"",""time""
""fullscreenenter"",""1"",""2389""
","
","
","""event"",""trial"",""time""
""fullscreenenter"",""1"",""2389""
","
","","","","","","null","<div style=""font-size:60px;"">+</div>","null","","fixation","","","","","","","","","","",""
"aa-learning-trial","226","826815","0.0-11.0-2.0-1.18","7145","1","20","Male","approach_avoid_spark_v1","""event"",""trial"",""time""
""fullscreenenter"",""1"",""2389""
","
","
","""event"",""trial"",""time""
""fullscreenenter"",""1"",""2389""
","
","","","","","","496.9000000357628","images/table6.png","","","learning","-1","0","0","0","table","furniture","2","1","","neutral","0"
"html-keyboard-response","227","827317","0.0-11.0-2.0-0.19","7145","1","20","Male","approach_avoid_spark_v1","""event"",""trial"",""time""
""fullscreenenter"",""1"",""2389""
","
","
","""event"",""trial"",""time""
""fullscreenenter"",""1"",""2389""
","
","","","","","","null","<div style=""font-size:60px;"">+</div>","null","","fixation","","","","","","","","","","",""
"aa-learning-trial","228","830321","0.0-11.0-2.0-1.19","7145","1","20","Male","approach_avoid_spark_v1","""event"",""trial"",""time""
""fullscreenenter"",""1"",""2389""
","
","
","""event"",""trial"",""time""
""fullscreenenter"",""1"",""2389""
","
","","","","","","1071.6000000238419","images/chair8.png","","","learning","-4","-4","1","1","chair","furniture","2","1","","bad","[-5]"
"html-keyboard-response","229","830827","0.0-11.0-2.0-0.20","7145","1","20","Male","approach_avoid_spark_v1","""event"",""trial"",""time""
""fullscreenenter"",""1"",""2389""
","
","
","""event"",""trial"",""time""
""fullscreenenter"",""1"",""2389""
","
","","","","","","null","<div style=""font-size:60px;"">+</div>","null","","fixation","","","","","","","","","","",""
"aa-learning-trial","230","833832","0.0-11.0-2.0-1.20","7145","1","20","Male","approach_avoid_spark_v1","""event"",""trial"",""time""
""fullscreenenter"",""1"",""2389""
","
","
","""event"",""trial"",""time""
""fullscreenenter"",""1"",""2389""
","
","","","","","","641.8000000119209","images/sofa8.png","","","learning","-6","0","0","0","sofa","furniture","2","1","","good","[3]"
"html-keyboard-response","231","834334","0.0-11.0-2.0-0.21","7145","1","20","Male","approach_avoid_spark_v1","""event"",""trial"",""time""
""fullscreenenter"",""1"",""2389""
","
","
","""event"",""trial"",""time""
""fullscreenenter"",""1"",""2389""
","
","","","","","","null","<div style=""font-size:60px;"">+</div>","null","","fixation","","","","","","","","","","",""
"aa-learning-trial","232","837338","0.0-11.0-2.0-1.21","7145","1","20","Male","approach_avoid_spark_v1","""event"",""trial"",""time""
""fullscreenenter"",""1"",""2389""
","
","
","""event"",""trial"",""time""
""fullscreenenter"",""1"",""2389""
","
","","","","","","710.8000000119209","images/sofa1.png","","","learning","4","4","1","1","sofa","furniture","2","1","","good","[3]"
"html-keyboard-response","233","837841","0.0-11.0-2.0-0.22","7145","1","20","Male","approach_avoid_spark_v1","""event"",""trial"",""time""
""fullscreenenter"",""1"",""2389""
","
","
","""event"",""trial"",""time""
""fullscreenenter"",""1"",""2389""
","
","","","","","","null","<div style=""font-size:60px;"">+</div>","null","","fixation","","","","","","","","","","",""
"aa-learning-trial","234","840845","0.0-11.0-2.0-1.22","7145","1","20","Male","approach_avoid_spark_v1","""event"",""trial"",""time""
""fullscreenenter"",""1"",""2389""
","
","
","""event"",""trial"",""time""
""fullscreenenter"",""1"",""2389""
","
","","","","","","896.7999999523163","images/chair3.png","","","learning","8","0","0","0","chair","furniture","2","1","","bad","[-5]"
"html-keyboard-response","235","841347","0.0-11.0-2.0-0.23","7145","1","20","Male","approach_avoid_spark_v1","""event"",""trial"",""time""
""fullscreenenter"",""1"",""2389""
","
","
","""event"",""trial"",""time""
""fullscreenenter"",""1"",""2389""
","
","","","","","","null","<div style=""font-size:60px;"">+</div>","null","","fixation","","","","","","","","","","",""
"aa-learning-trial","236","844352","0.0-11.0-2.0-1.23","7145","1","20","Male","approach_avoid_spark_v1","""event"",""trial"",""time""
""fullscreenenter"",""1"",""2389""
","
","
","""event"",""trial"",""time""
""fullscreenenter"",""1"",""2389""
","
","","","","","","729.6999999880791","images/sofa6.png","","","learning","-5","-5","1","1","sofa","furniture","2","1","","good","[3]"
"html-keyboard-response","237","844854","0.0-11.0-2.0-0.24","7145","1","20","Male","approach_avoid_spark_v1","""event"",""trial"",""time""
