"trial_type","trial_index","time_elapsed","internal_node_id","subject_id","task_condition","age","gender","task_version","interactions","blur_events","focus_events","fullscreenenter_events","fullscreenexit_events","success","timeout","failed_images","failed_audio","failed_video","rt","stimulus","response","button_pressed","task_part","approach_reward","points","key_press","option_selected","stim_cat","task_block","block_condition","block_number","correct","cat_type","mean_cat_reward"
"pavlovia","0","15","0.0-0.0","3820","2","12","Male","approach_avoid_spark_v1","""event"",""trial"",""time""
""fullscreenenter"",""1"",""1575""
","
","
","""event"",""trial"",""time""
""fullscreenenter"",""1"",""1575""
","
","","","","","","","","","","","","","","","","","","","","",""
"fullscreen","1","2561","0.0-1.0","3820","2","12","Male","approach_avoid_spark_v1","""event"",""trial"",""time""
""fullscreenenter"",""1"",""1575""
","
","
","""event"",""trial"",""time""
""fullscreenenter"",""1"",""1575""
","
","true","","","","","","","","","","","","","","","","","","","",""
"preload","2","5036","0.0-2.0","3820","2","12","Male","approach_avoid_spark_v1","""event"",""trial"",""time""
""fullscreenenter"",""1"",""1575""
","
","
","""event"",""trial"",""time""
""fullscreenenter"",""1"",""1575""
","
","true","false","[]","[]","[]","","","","","","","","","","","","","","","",""
"audio-keyboard-response","3","8839","0.0-3.0","3820","2","12","Male","approach_avoid_spark_v1","""event"",""trial"",""time""
""fullscreenenter"",""1"",""1575""
","
","
","""event"",""trial"",""time""
""fullscreenenter"",""1"",""1575""
","
","","","","","","3799.9999999999995","audio/beep_loop.wav"," ","","","","","","","","","","","","",""
"audio-button-response","4","11331","0.0-4.0","3820","2","12","Male","approach_avoid_spark_v1","""event"",""trial"",""time""
""fullscreenenter"",""1"",""1575""
","
","
","""event"",""trial"",""time""
""fullscreenenter"",""1"",""1575""
","
","","","","","","2491","audio/shark.wav","4","","","","","","","","","","","","",""
"audio-button-response","5","13562","0.0-5.0","3820","2","12","Male","approach_avoid_spark_v1","""event"",""trial"",""time""
""fullscreenenter"",""1"",""1575""
","
","
","""event"",""trial"",""time""
""fullscreenenter"",""1"",""1575""
","
","","","","","","1219","audio/turtle.wav","1","","","","","","","","","","","","",""
"preload","6","16003","0.0-6.0","3820","2","12","Male","approach_avoid_spark_v1","""event"",""trial"",""time""
""fullscreenenter"",""1"",""1575""
","
","
","""event"",""trial"",""time""
""fullscreenenter"",""1"",""1575""
","
","true","false","[]","[]","[]","","","","","","","","","","","","","","","",""
"html-keyboard-response","7","18407","0.0-7.0","3820","2","12","Male","approach_avoid_spark_v1","""event"",""trial"",""time""
""fullscreenenter"",""1"",""1575""
","
","
","""event"",""trial"",""time""
""fullscreenenter"",""1"",""1575""
","
","","","","","","2402.800000000745","Welcome to the experiment. Press any key to begin and to advance the instructions."," ","","","","","","","","","","","","",""
"learning-instructions","8","26625","0.0-8.0-0.0-0.0","3820","2","12","Male","approach_avoid_spark_v1","""event"",""trial"",""time""
""fullscreenenter"",""1"",""1575""
","
","
","""event"",""trial"",""time""
""fullscreenenter"",""1"",""1575""
","
","","","","","","1257.0999999996275","<p> Welcome! Today you are going to play 6 different rounds of a decision-making game. </p><p> Use the mouse to click next to continue. </p>","","0","instructions","","","","","","","","","","",""
"learning-instructions","9","31209","0.0-8.0-0.0-0.1","3820","2","12","Male","approach_avoid_spark_v1","""event"",""trial"",""time""
""fullscreenenter"",""1"",""1575""
","
","
","""event"",""trial"",""time""
""fullscreenenter"",""1"",""1575""
","
","","","","","","1851.7000000001863","<p> You will start with a practice round to learn the rules. </p>","","0","instructions","","","","","","","","","","",""
"learning-instructions","10","35024","0.0-8.0-0.0-0.2","3820","2","12","Male","approach_avoid_spark_v1","""event"",""trial"",""time""
""fullscreenenter"",""1"",""1575""
","
","
","""event"",""trial"",""time""
""fullscreenenter"",""1"",""1575""
","
","","","","","","366.09999999962747","<p> Your goal in this round is to give out sports equipment to kids. </p></div>","","0","instructions","","","","","","","","","","",""
"learning-instructions","11","43267","0.0-8.0-0.0-0.3","3820","2","12","Male","approach_avoid_spark_v1","""event"",""trial"",""time""
""fullscreenenter"",""1"",""1575""
","
","
","""event"",""trial"",""time""
""fullscreenenter"",""1"",""1575""
","
","","","","","","679.2999999998137","<p> The kids only like some of the equipment.  </p><p> On each turn, you will see a piece of sports equipment.   </p><p> You need to decide whether to give it to the kids or not.  </p>","","0","instructions","","","","","","","","","","",""
"learning-instructions","12","48579","0.0-8.0-0.0-0.4","3820","2","12","Male","approach_avoid_spark_v1","""event"",""trial"",""time""
""fullscreenenter"",""1"",""1575""
","
","
","""event"",""trial"",""time""
""fullscreenenter"",""1"",""1575""
","
","","","","","","559.8999999994412","<p> You can give them the equipment by pressing 1 and choose not to give it to them by pressing 0. </p><br><div class=""choice-instructions-grid""> <div class=""choice-option""><img src=""images/approach.png"" class=""choice-option-img"" stage=""instructions"" position=""0"" ><div class=""choice-option-text""> Press ""1."" </div></div><div class=""choice-option""><img src=""images/avoid.png"" class=""choice-option-img"" stage=""instructions"" position=""1"" ><div class=""choice-option-text""> Press ""0."" </div></div>","","0","instructions","","","","","","","","","","",""
"learning-instructions","13","57223","0.0-8.0-0.0-0.5","3820","2","12","Male","approach_avoid_spark_v1","""event"",""trial"",""time""
""fullscreenenter"",""1"",""1575""
","
","
","""event"",""trial"",""time""
""fullscreenenter"",""1"",""1575""
","
","","","","","","1265.1000000005588","<p> If you give them a piece of equipment they like, they will be happy! </p><p> But if you give them a piece of equipment they do not like, they will be sad. </p>","","0","instructions","","","","","","","","","","",""
"learning-instructions","14","69965","0.0-8.0-0.0-0.6","3820","2","12","Male","approach_avoid_spark_v1","""event"",""trial"",""time""
""fullscreenenter"",""1"",""1575""
","
","
","""event"",""trial"",""time""
""fullscreenenter"",""1"",""1575""
","
","","","","","","2227","<p> You will earn points based on how you make kids feel. </p><p> If you make them happy, you will WIN anywhere from 1 - 9 points, </p><p> but if you make them sad, you will LOSE anywhere from 1 - 9 points. </p>","","0","instructions","","","","","","","","","","",""
"learning-instructions","15","80718","0.0-8.0-0.0-0.7","3820","2","12","Male","approach_avoid_spark_v1","""event"",""trial"",""time""
""fullscreenenter"",""1"",""1575""
","
","
","""event"",""trial"",""time""
""fullscreenenter"",""1"",""1575""
","
","","","","","","1189.0999999996275","<p> You will see how many points you won or lost in the center of the screen. </p><p> Here is what you would see if you won 6 points: </p><p style=""color:green;font-size:50px;font-weight:bolder"">6</p><p style=""color:green"">The text is GREEN because you WON points.</p>","","0","instructions","","","","","","","","","","",""
"learning-instructions","16","89105","0.0-8.0-0.0-0.8","3820","2","12","Male","approach_avoid_spark_v1","""event"",""trial"",""time""
""fullscreenenter"",""1"",""1575""
","
","
","""event"",""trial"",""time""
""fullscreenenter"",""1"",""1575""
","
","","","","","","2886.7000000001863","<p> And here is what you would see if you lost 4 points: </p><p style=""color:red;font-size:50px;font-weight:bolder"">-4</p><p style=""color:red"">The text is RED because you LOST points. </p>","","0","instructions","","","","","","","","","","",""
"learning-instructions","17","106327","0.0-8.0-0.0-0.9","3820","2","12","Male","approach_avoid_spark_v1","""event"",""trial"",""time""
""fullscreenenter"",""1"",""1575""
","
","
","""event"",""trial"",""time""
""fullscreenenter"",""1"",""1575""
","
","","","","","","2507.699999999255","<p> Some of the equipment will make the kids VERY happy or sad. </p><p> These pieces of equipment will make you win or lose LOTS of points. </p><p> Other pieces of equipment will only make the kids a little happy or sad. </p><p> These pieces of equipment will make you win or lose small amounts of points. </p>","","0","instructions","","","","","","","","","","",""
"learning-instructions","18","118979","0.0-8.0-0.0-0.10","3820","2","12","Male","approach_avoid_spark_v1","""event"",""trial"",""time""
""fullscreenenter"",""1"",""1575""
","
","
","""event"",""trial"",""time""
""fullscreenenter"",""1"",""1575""
","
","","","","","","2031.2000000001863","<p> If you choose not to give them the equipment, you will not win or lose any points. </p><p>  However, in the center of the screen, you will see the number of points you WOULD HAVE won or lost if you had given them the equipment. </p>","","0","instructions","","","","","","","","","","",""
"learning-instructions","19","143275","0.0-8.0-0.0-0.11","3820","2","12","Male","approach_avoid_spark_v1","""event"",""trial"",""time""
""fullscreenenter"",""1"",""1575""
","
","
","""event"",""trial"",""time""
""fullscreenenter"",""1"",""1575""
","
","","","","","","2775.2999999998137","<p> Here is what you might see if you did not give the equipment to the kids but it would have made them happy: </p><p style=""color:grey; font-size:50px; display: inline-block; border-spacing: 15px; border-width:3px; border-style:solid; border-color:red"">  &nbsp; 7 &nbsp; </p><p> Remember, in this case, you would not win or lose ANY points because you did not give them the equipment.  </p><p style=""color:grey"">The text is GREY because you earned ZERO points. </p><p style=""color:red"">However, choosing to give the kids the equipment would have made you win points. The box around the text is RED because you chose the worse option. </p>","","0","instructions","","","","","","","","","","",""
"learning-instructions","20","166296","0.0-8.0-0.0-0.12","3820","2","12","Male","approach_avoid_spark_v1","""event"",""trial"",""time""
""fullscreenenter"",""1"",""1575""
","
","
","""event"",""trial"",""time""
""fullscreenenter"",""1"",""1575""
","
","","","","","","1958.6000000005588","<p> Here is what you might see if you did not give the equipment to the kids but it would have made them sad: </p><p style=""color:grey;font-size:50px; display: inline-block; border-spacing: 15px; border-width:3px; border-style:solid; border-color:green"">  &nbsp; -8 &nbsp; </p><p> Remember, in this case, you would not win or lose ANY points because you did not give them the equipment.  </p><p style=""color:grey"">The text is GREY because you earned ZERO points. </p><p  style=""color:green""> Choosing to give the kids the equipment would have made you lose points. The box around the text is GREEN because you chose the better option.</p>","","0","instructions","","","","","","","","","","",""
"learning-instructions","21","177015","0.0-8.0-0.0-0.13","3820","2","12","Male","approach_avoid_spark_v1","""event"",""trial"",""time""
""fullscreenenter"",""1"",""1575""
","
","
","""event"",""trial"",""time""
""fullscreenenter"",""1"",""1575""
","
","","","","","","1866.800000000745","<p> You will have 3 seconds to make each choice. Try to respond before time runs out! </p><p> You will lose 5 points each time you do not make a response. </p>","","0","instructions","","","","","","","","","","",""
"learning-instructions","22","184043","0.0-8.0-0.0-0.14","3820","2","12","Male","approach_avoid_spark_v1","""event"",""trial"",""time""
""fullscreenenter"",""1"",""1575""
","
","
","""event"",""trial"",""time""
""fullscreenenter"",""1"",""1575""
","
","","","","","","1614.7000000001863","<p> This is just a practice round, but in the real game, your bonus payment will depend on your total number of points.","","0","instructions","","","","","","","","","","",""
"learning-instructions","23","191076","0.0-8.0-0.0-0.15","3820","2","12","Male","approach_avoid_spark_v1","""event"",""trial"",""time""
""fullscreenenter"",""1"",""1575""
","
","
","""event"",""trial"",""time""
""fullscreenenter"",""1"",""1575""
","
","","","","","","1278.2000000001863","<p> Remember, you can give them the equipment by pressing 1 and choose not to give it to them by pressing 0. </p><br><div class=""choice-instructions-grid""> <div class=""choice-option""><img src=""images/approach.png"" class=""choice-option-img"" stage=""instructions"" position=""0"" ><div class=""choice-option-text""> Press ""1."" </div></div><div class=""choice-option""><img src=""images/avoid.png"" class=""choice-option-img"" stage=""instructions"" position=""1"" ><div class=""choice-option-text""> Press ""0."" </div></div>","","0","instructions","","","","","","","","","","",""
"html-button-response","24","193366","0.0-8.0-1.0","3820","2","12","Male","approach_avoid_spark_v1","""event"",""trial"",""time""
""fullscreenenter"",""1"",""1575""
","
","
","""event"",""trial"",""time""
""fullscreenenter"",""1"",""1575""
","
","","","","","","2180.7999999998137","<p> Ready to practice? </p>","0","","","","","","","","","","","","",""
"html-keyboard-response","25","193978","0.0-8.0-2.0-0.0","3820","2","12","Male","approach_avoid_spark_v1","""event"",""trial"",""time""
""fullscreenenter"",""1"",""1575""
","
","
","""event"",""trial"",""time""
""fullscreenenter"",""1"",""1575""
","
","","","","","","null","<div style=""font-size:60px;"">+</div>","null","","fixation","","","","","","","","","","",""
"aa-learning-trial","26","196982","0.0-8.0-2.0-1.0","3820","2","12","Male","approach_avoid_spark_v1","""event"",""trial"",""time""
""fullscreenenter"",""1"",""1575""
","
","
","""event"",""trial"",""time""
""fullscreenenter"",""1"",""1575""
","
","","","","","","3002.399999999441","images/racket1.png","","","learning","-9","-9","1","1","practice","practice","practice","-1","","",""
"html-keyboard-response","27","197492","0.0-8.0-2.0-0.1","3820","2","12","Male","approach_avoid_spark_v1","""event"",""trial"",""time""
""fullscreenenter"",""1"",""1575""
","
","
","""event"",""trial"",""time""
""fullscreenenter"",""1"",""1575""
","
","","","","","","null","<div style=""font-size:60px;"">+</div>","null","","fixation","","","","","","","","","","",""
"aa-learning-trial","28","200503","0.0-8.0-2.0-1.1","3820","2","12","Male","approach_avoid_spark_v1","""event"",""trial"",""time""
""fullscreenenter"",""1"",""1575""
","
","
","""event"",""trial"",""time""
""fullscreenenter"",""1"",""1575""
","
","","","","","","1624.7000000001863","images/racket3.png","","","learning","3","3","1","1","practice","practice","practice","-1","","",""
"html-keyboard-response","29","201020","0.0-8.0-2.0-0.2","3820","2","12","Male","approach_avoid_spark_v1","""event"",""trial"",""time""
""fullscreenenter"",""1"",""1575""
","
","
","""event"",""trial"",""time""
""fullscreenenter"",""1"",""1575""
","
","","","","","","null","<div style=""font-size:60px;"">+</div>","null","","fixation","","","","","","","","","","",""
"aa-learning-trial","30","204032","0.0-8.0-2.0-1.2","3820","2","12","Male","approach_avoid_spark_v1","""event"",""trial"",""time""
""fullscreenenter"",""1"",""1575""
","
","
","""event"",""trial"",""time""
""fullscreenenter"",""1"",""1575""
","
","","","","","","2384","images/ball2.png","","","learning","-7","-5","2","","practice","practice","practice","-1","","",""
"html-keyboard-response","31","204535","0.0-8.0-2.0-0.3","3820","2","12","Male","approach_avoid_spark_v1","""event"",""trial"",""time""
""fullscreenenter"",""1"",""1575""
","
","
","""event"",""trial"",""time""
""fullscreenenter"",""1"",""1575""
","
","","","","","","null","<div style=""font-size:60px;"">+</div>","null","","fixation","","","","","","","","","","",""
"aa-learning-trial","32","207544","0.0-8.0-2.0-1.3","3820","2","12","Male","approach_avoid_spark_v1","""event"",""trial"",""time""
""fullscreenenter"",""1"",""1575""
","
","
","""event"",""trial"",""time""
""fullscreenenter"",""1"",""1575""
","
","","","","","","1470","images/racket4.png","","","learning","-7","-7","1","1","practice","practice","practice","-1","","",""
"html-keyboard-response","33","208047","0.0-8.0-2.0-0.4","3820","2","12","Male","approach_avoid_spark_v1","""event"",""trial"",""time""
""fullscreenenter"",""1"",""1575""
","
","
","""event"",""trial"",""time""
""fullscreenenter"",""1"",""1575""
","
","","","","","","null","<div style=""font-size:60px;"">+</div>","null","","fixation","","","","","","","","","","",""
"aa-learning-trial","34","211059","0.0-8.0-2.0-1.4","3820","2","12","Male","approach_avoid_spark_v1","""event"",""trial"",""time""
""fullscreenenter"",""1"",""1575""
","
","
","""event"",""trial"",""time""
""fullscreenenter"",""1"",""1575""
","
","","","","","","741.2000000001863","images/ball1.png","","","learning","6","-5","3","","practice","practice","practice","-1","","",""
"html-keyboard-response","35","211579","0.0-8.0-2.0-0.5","3820","2","12","Male","approach_avoid_spark_v1","""event"",""trial"",""time""
""fullscreenenter"",""1"",""1575""
","
","
","""event"",""trial"",""time""
""fullscreenenter"",""1"",""1575""
","
","","","","","","null","<div style=""font-size:60px;"">+</div>","null","","fixation","","","","","","","","","","",""
"aa-learning-trial","36","214589","0.0-8.0-2.0-1.5","3820","2","12","Male","approach_avoid_spark_v1","""event"",""trial"",""time""
""fullscreenenter"",""1"",""1575""
","
","
","""event"",""trial"",""time""
""fullscreenenter"",""1"",""1575""
","
","","","","","","1330.1000000005588","images/racket4.png","","","learning","-3","-3","1","1","practice","practice","practice","-1","","",""
"html-keyboard-response","37","215104","0.0-8.0-2.0-0.6","3820","2","12","Male","approach_avoid_spark_v1","""event"",""trial"",""time""
""fullscreenenter"",""1"",""1575""
","
","
","""event"",""trial"",""time""
""fullscreenenter"",""1"",""1575""
","
","","","","","","null","<div style=""font-size:60px;"">+</div>","null","","fixation","","","","","","","","","","",""
"aa-learning-trial","38","218111","0.0-8.0-2.0-1.6","3820","2","12","Male","approach_avoid_spark_v1","""event"",""trial"",""time""
""fullscreenenter"",""1"",""1575""
","
","
","""event"",""trial"",""time""
""fullscreenenter"",""1"",""1575""
","
","","","","","","620.7000000001863","images/racket2.png","","","learning","9","-5","3","","practice","practice","practice","-1","","",""
"html-keyboard-response","39","218620","0.0-8.0-2.0-0.7","3820","2","12","Male","approach_avoid_spark_v1","""event"",""trial"",""time""
""fullscreenenter"",""1"",""1575""
","
","
","""event"",""trial"",""time""
""fullscreenenter"",""1"",""1575""
","
","","","","","","null","<div style=""font-size:60px;"">+</div>","null","","fixation","","","","","","","","","","",""
"aa-learning-trial","40","221624","0.0-8.0-2.0-1.7","3820","2","12","Male","approach_avoid_spark_v1","""event"",""trial"",""time""
""fullscreenenter"",""1"",""1575""
","
","
","""event"",""trial"",""time""
""fullscreenenter"",""1"",""1575""
","
","","","","","","null","images/ball1.png","","","learning","-9","-5","","null","practice","practice","practice","-1","","",""
"html-keyboard-response","41","222134","0.0-8.0-2.0-0.8","3820","2","12","Male","approach_avoid_spark_v1","""event"",""trial"",""time""
""fullscreenenter"",""1"",""1575""
","
","
","""event"",""trial"",""time""
""fullscreenenter"",""1"",""1575""
","
","","","","","","null","<div style=""font-size:60px;"">+</div>","null","","fixation","","","","","","","","","","",""
"aa-learning-trial","42","225143","0.0-8.0-2.0-1.8","3820","2","12","Male","approach_avoid_spark_v1","""event"",""trial"",""time""
""fullscreenenter"",""1"",""1575""
","
","
","""event"",""trial"",""time""
""fullscreenenter"",""1"",""1575""
","
","","","","","","709.7999999998137","images/ball3.png","","","learning","-3","-3","1","1","practice","practice","practice","-1","","",""
"html-keyboard-response","43","225649","0.0-8.0-2.0-0.9","3820","2","12","Male","approach_avoid_spark_v1","""event"",""trial"",""time""
""fullscreenenter"",""1"",""1575""
","
","
","""event"",""trial"",""time""
""fullscreenenter"",""1"",""1575""
","
","","","","","","null","<div style=""font-size:60px;"">+</div>","null","","fixation","","","","","","","","","","",""
"aa-learning-trial","44","228665","0.0-8.0-2.0-1.9","3820","2","12","Male","approach_avoid_spark_v1","""event"",""trial"",""time""
""fullscreenenter"",""1"",""1575""
","
","
","""event"",""trial"",""time""
""fullscreenenter"",""1"",""1575""
","
","","","","","","644.5","images/racket2.png","","","learning","-2","-5","2","","practice","practice","practice","-1","","",""
"html-keyboard-response","45","229167","0.0-8.0-2.0-0.10","3820","2","12","Male","approach_avoid_spark_v1","""event"",""trial"",""time""
""fullscreenenter"",""1"",""1575""
","
","
","""event"",""trial"",""time""
""fullscreenenter"",""1"",""1575""
","
","","","","","","null","<div style=""font-size:60px;"">+</div>","null","","fixation","","","","","","","","","","",""
"aa-learning-trial","46","232177","0.0-8.0-2.0-1.10","3820","2","12","Male","approach_avoid_spark_v1","""event"",""trial"",""time""
""fullscreenenter"",""1"",""1575""
","
","
","""event"",""trial"",""time""
""fullscreenenter"",""1"",""1575""
","
","","","","","","1245.5","images/ball3.png","","","learning","-5","-5","1","1","practice","practice","practice","-1","","",""
"html-keyboard-response","47","232680","0.0-8.0-2.0-0.11","3820","2","12","Male","approach_avoid_spark_v1","""event"",""trial"",""time""
""fullscreenenter"",""1"",""1575""
","
","
","""event"",""trial"",""time""
""fullscreenenter"",""1"",""1575""
","
","","","","","","null","<div style=""font-size:60px;"">+</div>","null","","fixation","","","","","","","","","","",""
"aa-learning-trial","48","235687","0.0-8.0-2.0-1.11","3820","2","12","Male","approach_avoid_spark_v1","""event"",""trial"",""time""
""fullscreenenter"",""1"",""1575""
","
","
","""event"",""trial"",""time""
""fullscreenenter"",""1"",""1575""
","
","","","","","","397.20000000018626","images/ball3.png","","","learning","7","-5","3","","practice","practice","practice","-1","","",""
"html-button-response","49","238737","0.0-8.0-3.0","3820","2","12","Male","approach_avoid_spark_v1","""event"",""trial"",""time""
""fullscreenenter"",""1"",""1575""
","
","
","""event"",""trial"",""time""
""fullscreenenter"",""1"",""1575""
","
","","","","","","3047.9000000003725","<p> You earned -54 points in the practice round! </p>","0","","break","","","","","","","","","","",""
"learning-instructions","50","245598","0.0-8.0-4.0-0.0","3820","2","12","Male","approach_avoid_spark_v1","""event"",""trial"",""time""
""fullscreenenter"",""1"",""1575""
","
","
","""event"",""trial"",""time""
""fullscreenenter"",""1"",""1575""
","
","","","","","","890.6999999992549","<p> It's almost time to start the real game. </p><p> Before you start, we're going to ask you a few questions about how the game works. </p>","","0","instructions","","","","","","","","","","",""
"preload","51","246639","0.0-8.0-5.0","3820","2","12","Male","approach_avoid_spark_v1","""event"",""trial"",""time""
""fullscreenenter"",""1"",""1575""
","
","
","""event"",""trial"",""time""
""fullscreenenter"",""1"",""1575""
","
","true","false","[]","[]","[]","","","","","","","","","","","","","","","",""
"comp-q","52","254842","0.0-8.0-6.0-0.0","3820","2","12","Male","approach_avoid_spark_v1","""event"",""trial"",""time""
""fullscreenenter"",""1"",""1575""
""fullscreenexit"",""53"",""262641""
","
","
","""event"",""trial"",""time""
""fullscreenenter"",""1"",""1575""
","""event"",""trial"",""time""
""fullscreenexit"",""53"",""262641""
","","","","","","3205.2999999998137","<p> <b> True or False? </b> </p><p> If you see a number in GREY, that means you earned that many points. </p>","","1","comp_question","","","","","","","","","true","",""
"comp-q","53","265419","0.0-8.0-6.0-1.0","3820","2","12","Male","approach_avoid_spark_v1","""event"",""trial"",""time""
""fullscreenenter"",""1"",""1575""
""fullscreenexit"",""53"",""262641""
","
","
","""event"",""trial"",""time""
""fullscreenenter"",""1"",""1575""
","""event"",""trial"",""time""
""fullscreenexit"",""53"",""262641""
","","","","","","2221.0999999996275","<p><b> That's right! </b> If you see a grey number, it means you earned ZERO points. <br> The grey numbers show the points you WOULD HAVE earned if you had made the other choice. </p>","","0","comp_answer","","","","","","","","","","",""
"comp-q","54","270889","0.0-8.0-7.0-0.0","3820","2","12","Male","approach_avoid_spark_v1","""event"",""trial"",""time""
""fullscreenenter"",""1"",""1575""
""fullscreenexit"",""53"",""262641""
","
","
","""event"",""trial"",""time""
""fullscreenenter"",""1"",""1575""
","""event"",""trial"",""time""
""fullscreenexit"",""53"",""262641""
","","","","","","781.4000000003725","<p> <b> True or False? </b> </p><p> You will have as much time as you want to make each choice. </p>","","1","comp_question","","","","","","","","","true","",""
"comp-q","55","276452","0.0-8.0-7.0-1.0","3820","2","12","Male","approach_avoid_spark_v1","""event"",""trial"",""time""
""fullscreenenter"",""1"",""1575""
""fullscreenexit"",""53"",""262641""
","
","
","""event"",""trial"",""time""
""fullscreenenter"",""1"",""1575""
","""event"",""trial"",""time""
""fullscreenexit"",""53"",""262641""
","","","","","","1523.5999999996275","<p> <b> That's right! </b> You will only have 3 seconds to make each choice. </p>","","0","comp_answer","","","","","","","","","","",""
"comp-q","56","282707","0.0-8.0-8.0-0.0","3820","2","12","Male","approach_avoid_spark_v1","""event"",""trial"",""time""
""fullscreenenter"",""1"",""1575""
""fullscreenexit"",""53"",""262641""
","
","
","""event"",""trial"",""time""
""fullscreenenter"",""1"",""1575""
","""event"",""trial"",""time""
""fullscreenexit"",""53"",""262641""
","","","","","","1588.5999999996275","<p> <b> True or False? </b> </p><p> You should use the '1' and '0' keys to make your choices. </p>","","0","comp_question","","","","","","","","","true","",""
"comp-q","57","287912","0.0-8.0-8.0-1.0","3820","2","12","Male","approach_avoid_spark_v1","""event"",""trial"",""time""
""fullscreenenter"",""1"",""1575""
""fullscreenexit"",""53"",""262641""
","
","
","""event"",""trial"",""time""
""fullscreenenter"",""1"",""1575""
","""event"",""trial"",""time""
""fullscreenexit"",""53"",""262641""
","","","","","","594.7999999998137","<p> <b> That's right! </b> You should use the '1' and '0' keys to make each choice. </p>","","0","comp_answer","","","","","","","","","","",""
"learning-instructions","58","295879","0.0-8.0-9.0-0.0","3820","2","12","Male","approach_avoid_spark_v1","""event"",""trial"",""time""
""fullscreenenter"",""1"",""1575""
""fullscreenexit"",""53"",""262641""
","
","
","""event"",""trial"",""time""
""fullscreenenter"",""1"",""1575""
","""event"",""trial"",""time""
""fullscreenexit"",""53"",""262641""
","","","","","","1690.9000000003725","<p> It's now time to start the real game. </p>Do your best, because the points you earn in the next rounds will influence your bonus payment. </p>","","0","instructions","","","","","","","","","","",""
"preload","59","296000","0.0-9.0-0.0","3820","2","12","Male","approach_avoid_spark_v1","""event"",""trial"",""time""
""fullscreenenter"",""1"",""1575""
""fullscreenexit"",""53"",""262641""
","
","
","""event"",""trial"",""time""
""fullscreenenter"",""1"",""1575""
","""event"",""trial"",""time""
""fullscreenexit"",""53"",""262641""
","true","false","[]","[]","[]","","","","","","","","","","","","","","","",""
"learning-instructions","60","301711","0.0-9.0-1.0-0.0","3820","2","12","Male","approach_avoid_spark_v1","""event"",""trial"",""time""
""fullscreenenter"",""1"",""1575""
""fullscreenexit"",""53"",""262641""
","
","
","""event"",""trial"",""time""
""fullscreenenter"",""1"",""1575""
","""event"",""trial"",""time""
""fullscreenexit"",""53"",""262641""
","","","","","","1222.5","<p> Your goal in this round is to decorate your friend's new house with furniture. </p></div>","","0","instructions","","","","","","","","","","",""
"learning-instructions","61","313087","0.0-9.0-1.0-0.1","3820","2","12","Male","approach_avoid_spark_v1","""event"",""trial"",""time""
""fullscreenenter"",""1"",""1575""
""fullscreenexit"",""53"",""262641""
","
","
","""event"",""trial"",""time""
""fullscreenenter"",""1"",""1575""
","""event"",""trial"",""time""
""fullscreenexit"",""53"",""262641""
","","","","","","1858.5999999996275","<p> Your friend likes some pieces of furniture but not others.  </p><p> On each turn, you will see a piece of furniture.   </p><p> You need to decide whether to put it in your friend's house or not.  </p>","","0","instructions","","","","","","","","","","",""
"learning-instructions","62","319257","0.0-9.0-1.0-0.2","3820","2","12","Male","approach_avoid_spark_v1","""event"",""trial"",""time""
""fullscreenenter"",""1"",""1575""
""fullscreenexit"",""53"",""262641""
","
","
","""event"",""trial"",""time""
""fullscreenenter"",""1"",""1575""
","""event"",""trial"",""time""
""fullscreenexit"",""53"",""262641""
","","","","","","728.7000000001863","<p> You can put the furniture in her house by pressing 1 and deliver it elsewhere by pressing 0. </p><br><div class=""choice-instructions-grid""> <div class=""choice-option""><img src=""images/approach.png"" class=""choice-option-img"" stage=""instructions"" position=""0"" ><div class=""choice-option-text""> Press ""1."" </div></div><div class=""choice-option""><img src=""images/avoid.png"" class=""choice-option-img"" stage=""instructions"" position=""1"" ><div class=""choice-option-text""> Press ""0."" </div></div>","","0","instructions","","","","","","","","","","",""
"learning-instructions","63","328891","0.0-9.0-1.0-0.3","3820","2","12","Male","approach_avoid_spark_v1","""event"",""trial"",""time""
""fullscreenenter"",""1"",""1575""
""fullscreenexit"",""53"",""262641""
","
","
","""event"",""trial"",""time""
""fullscreenenter"",""1"",""1575""
","""event"",""trial"",""time""
""fullscreenexit"",""53"",""262641""
","","","","","","1113.2000000001863","<p> If you decorate your friend's house with furniture she likes, she will be happy! </p><p> But if you give her furniture that she does not like, she will be annoyed. </p>","","0","instructions","","","","","","","","","","",""
"learning-instructions","64","341856","0.0-9.0-1.0-0.4","3820","2","12","Male","approach_avoid_spark_v1","""event"",""trial"",""time""
""fullscreenenter"",""1"",""1575""
""fullscreenexit"",""53"",""262641""
","
","
","""event"",""trial"",""time""
""fullscreenenter"",""1"",""1575""
","""event"",""trial"",""time""
""fullscreenexit"",""53"",""262641""
","","","","","","1098.2999999998137","<p> You will earn points based on how you made your friend feel. </p><p> If you made her happy, you will WIN anywhere from 1 - 9 points, </p><p> but if you made her annoyed you will LOSE anywhere from 1 - 9 points. </p>","","0","instructions","","","","","","","","","","",""
"learning-instructions","65","350505","0.0-9.0-1.0-0.5","3820","2","12","Male","approach_avoid_spark_v1","""event"",""trial"",""time""
""fullscreenenter"",""1"",""1575""
""fullscreenexit"",""53"",""262641""
","
","
","""event"",""trial"",""time""
""fullscreenenter"",""1"",""1575""
","""event"",""trial"",""time""
""fullscreenexit"",""53"",""262641""
","","","","","","1366.8999999994412","<p> You will see how many points you won or lost in the center of the screen. </p><p> Here is what you would see if you won 5 points: </p><p style=""color:green;font-size:50px;font-weight:bolder"">5</p>","","0","instructions","","","","","","","","","","",""
"learning-instructions","66","354307","0.0-9.0-1.0-0.6","3820","2","12","Male","approach_avoid_spark_v1","""event"",""trial"",""time""
""fullscreenenter"",""1"",""1575""
""fullscreenexit"",""53"",""262641""
","
","
","""event"",""trial"",""time""
""fullscreenenter"",""1"",""1575""
","""event"",""trial"",""time""
""fullscreenexit"",""53"",""262641""
","","","","","","508.90000000037253","<p> And here is what you would see if you lost 3 points: </p><p style=""color:red;font-size:50px;font-weight:bolder"">-3</p>","","0","instructions","","","","","","","","","","",""
"learning-instructions","67","372582","0.0-9.0-1.0-0.7","3820","2","12","Male","approach_avoid_spark_v1","""event"",""trial"",""time""
""fullscreenenter"",""1"",""1575""
""fullscreenexit"",""53"",""262641""
","
","
","""event"",""trial"",""time""
""fullscreenenter"",""1"",""1575""
","""event"",""trial"",""time""
""fullscreenexit"",""53"",""262641""
","","","","","","1294.9000000003725","<p> Some pieces of furniture will make her feel very happy or very annoyed. </p><p> These pieces of furniture will make you win or lose LOTS of points. </p><p> Other pieces of furniture will only make her feel a little happy or a little annoyed. </p><p> These pieces of furniture will make you win or lose small amounts of points. </p>","","0","instructions","","","","","","","","","","",""
"learning-instructions","68","386233","0.0-9.0-1.0-0.8","3820","2","12","Male","approach_avoid_spark_v1","""event"",""trial"",""time""
""fullscreenenter"",""1"",""1575""
""fullscreenexit"",""53"",""262641""
","
","
","""event"",""trial"",""time""
""fullscreenenter"",""1"",""1575""
","""event"",""trial"",""time""
""fullscreenexit"",""53"",""262641""
","","","","","","1155.1000000005588","<p> If you choose to deliver a piece of furniture elsewhere, you will not win or lose any points. </p><p>  However, in the center of the screen, you will see the number of points you WOULD HAVE won or lost if you had given the furniture to your friend. </p>","","0","instructions","","","","","","","","","","",""
"learning-instructions","69","399736","0.0-9.0-1.0-0.9","3820","2","12","Male","approach_avoid_spark_v1","""event"",""trial"",""time""
""fullscreenenter"",""1"",""1575""
""fullscreenexit"",""53"",""262641""
","
","
","""event"",""trial"",""time""
""fullscreenenter"",""1"",""1575""
","""event"",""trial"",""time""
""fullscreenexit"",""53"",""262641""
","","","","","","2328.2000000001863","<p> Here is what you might see if you did not give a piece of furniture to your friend that would have made her happy: </p><p style=""color:grey; font-size:50px; display: inline-block; border-spacing: 15px; border-width:3px; border-style:solid; border-color:red"">  &nbsp; 6 &nbsp; </p><p> Remember, in this case, you would not win or lose ANY points because you did not give her the furniture.  </p>","","0","instructions","","","","","","","","","","",""
"learning-instructions","70","411549","0.0-9.0-1.0-0.10","3820","2","12","Male","approach_avoid_spark_v1","""event"",""trial"",""time""
""fullscreenenter"",""1"",""1575""
""fullscreenexit"",""53"",""262641""
","
","
","""event"",""trial"",""time""
""fullscreenenter"",""1"",""1575""
","""event"",""trial"",""time""
""fullscreenexit"",""53"",""262641""
","","","","","","4521.5999999996275","<p> Try to make the best choice for each piece of furniture because </p><p> at the end of the game, you will earn bonus money based on how many points you earned. </p>","","0","instructions","","","","","","","","","","",""
"learning-instructions","71","421044","0.0-9.0-1.0-0.11","3820","2","12","Male","approach_avoid_spark_v1","""event"",""trial"",""time""
""fullscreenenter"",""1"",""1575""
""fullscreenexit"",""53"",""262641""
","
","
","""event"",""trial"",""time""
""fullscreenenter"",""1"",""1575""
","""event"",""trial"",""time""
""fullscreenexit"",""53"",""262641""
","","","","","","1287.4000000003725","<p> You will have 3 seconds to make each choice. Try to respond before time runs out! </p><p> You will lose 5 points each time you do not make a response. </p>","","0","instructions","","","","","","","","","","",""
"html-keyboard-response","72","421654","0.0-9.0-2.0-0.0","3820","2","12","Male","approach_avoid_spark_v1","""event"",""trial"",""time""
""fullscreenenter"",""1"",""1575""
""fullscreenexit"",""53"",""262641""
","
","
","""event"",""trial"",""time""
""fullscreenenter"",""1"",""1575""
","""event"",""trial"",""time""
""fullscreenexit"",""53"",""262641""
","","","","","","null","<div style=""font-size:60px;"">+</div>","null","","fixation","","","","","","","","","","",""
"aa-learning-trial","73","424656","0.0-9.0-2.0-1.0","3820","2","12","Male","approach_avoid_spark_v1","""event"",""trial"",""time""
""fullscreenenter"",""1"",""1575""
""fullscreenexit"",""53"",""262641""
","
","
","""event"",""trial"",""time""
""fullscreenenter"",""1"",""1575""
","""event"",""trial"",""time""
""fullscreenexit"",""53"",""262641""
","","","","","","1950.5999999996275","images/chair7.png","","","learning","-9","-9","1","1","chair","furniture","2","0","","bad","[-3]"
"html-keyboard-response","74","425165","0.0-9.0-2.0-0.1","3820","2","12","Male","approach_avoid_spark_v1","""event"",""trial"",""time""
""fullscreenenter"",""1"",""1575""
""fullscreenexit"",""53"",""262641""
","
","
","""event"",""trial"",""time""
""fullscreenenter"",""1"",""1575""
","""event"",""trial"",""time""
""fullscreenexit"",""53"",""262641""
","","","","","","null","<div style=""font-size:60px;"">+</div>","null","","fixation","","","","","","","","","","",""
"aa-learning-trial","75","428182","0.0-9.0-2.0-1.1","3820","2","12","Male","approach_avoid_spark_v1","""event"",""trial"",""time""
""fullscreenenter"",""1"",""1575""
""fullscreenexit"",""53"",""262641""
","
","
","""event"",""trial"",""time""
""fullscreenenter"",""1"",""1575""
","""event"",""trial"",""time""
""fullscreenexit"",""53"",""262641""
","","","","","","1751.9000000003725","images/bed4.png","","","learning","-1","-1","1","1","bed","furniture","2","0","","neutral","0"
"html-keyboard-response","76","428701","0.0-9.0-2.0-0.2","3820","2","12","Male","approach_avoid_spark_v1","""event"",""trial"",""time""
""fullscreenenter"",""1"",""1575""
""fullscreenexit"",""53"",""262641""
","
","
","""event"",""trial"",""time""
""fullscreenenter"",""1"",""1575""
","""event"",""trial"",""time""
""fullscreenexit"",""53"",""262641""
","","","","","","null","<div style=""font-size:60px;"">+</div>","null","","fixation","","","","","","","","","","",""
"aa-learning-trial","77","431710","0.0-9.0-2.0-1.2","3820","2","12","Male","approach_avoid_spark_v1","""event"",""trial"",""time""
""fullscreenenter"",""1"",""1575""
""fullscreenexit"",""53"",""262641""
","
","
","""event"",""trial"",""time""
""fullscreenenter"",""1"",""1575""
","""event"",""trial"",""time""
""fullscreenexit"",""53"",""262641""
","","","","","","591.3999999994412","images/bed5.png","","","learning","-3","0","0","0","bed","furniture","2","0","","neutral","0"
"html-keyboard-response","78","432228","0.0-9.0-2.0-0.3","3820","2","12","Male","approach_avoid_spark_v1","""event"",""trial"",""time""
""fullscreenenter"",""1"",""1575""
""fullscreenexit"",""53"",""262641""
","
","
","""event"",""trial"",""time""
""fullscreenenter"",""1"",""1575""
","""event"",""trial"",""time""
""fullscreenexit"",""53"",""262641""
","","","","","","null","<div style=""font-size:60px;"">+</div>","null","","fixation","","","","","","","","","","",""
"aa-learning-trial","79","435241","0.0-9.0-2.0-1.3","3820","2","12","Male","approach_avoid_spark_v1","""event"",""trial"",""time""
""fullscreenenter"",""1"",""1575""
""fullscreenexit"",""53"",""262641""
","
","
","""event"",""trial"",""time""
""fullscreenenter"",""1"",""1575""
","""event"",""trial"",""time""
""fullscreenexit"",""53"",""262641""
","","","","","","808.4000000003725","images/chair3.png","","","learning","-4","0","0","0","chair","furniture","2","0","","bad","[-3]"
"html-keyboard-response","80","435746","0.0-9.0-2.0-0.4","3820","2","12","Male","approach_avoid_spark_v1","""event"",""trial"",""time""
""fullscreenenter"",""1"",""1575""
""fullscreenexit"",""53"",""262641""
","
","
","""event"",""trial"",""time""
""fullscreenenter"",""1"",""1575""
","""event"",""trial"",""time""
""fullscreenexit"",""53"",""262641""
","","","","","","null","<div style=""font-size:60px;"">+</div>","null","","fixation","","","","","","","","","","",""
"aa-learning-trial","81","438763","0.0-9.0-2.0-1.4","3820","2","12","Male","approach_avoid_spark_v1","""event"",""trial"",""time""
""fullscreenenter"",""1"",""1575""
""fullscreenexit"",""53"",""262641""
","
","
","""event"",""trial"",""time""
""fullscreenenter"",""1"",""1575""
","""event"",""trial"",""time""
""fullscreenexit"",""53"",""262641""
","","","","","","1177.7999999998137","images/sofa7.png","","","learning","4","0","0","0","sofa","furniture","2","0","","good","[4]"
"html-keyboard-response","82","439285","0.0-9.0-2.0-0.5","3820","2","12","Male","approach_avoid_spark_v1","""event"",""trial"",""time""
""fullscreenenter"",""1"",""1575""
""fullscreenexit"",""53"",""262641""
","
","
","""event"",""trial"",""time""
""fullscreenenter"",""1"",""1575""
","""event"",""trial"",""time""
""fullscreenexit"",""53"",""262641""
","","","","","","null","<div style=""font-size:60px;"">+</div>","null","","fixation","","","","","","","","","","",""
"aa-learning-trial","83","442299","0.0-9.0-2.0-1.5","3820","2","12","Male","approach_avoid_spark_v1","""event"",""trial"",""time""
""fullscreenenter"",""1"",""1575""
""fullscreenexit"",""53"",""262641""
","
","
","""event"",""trial"",""time""
""fullscreenenter"",""1"",""1575""
","""event"",""trial"",""time""
""fullscreenexit"",""53"",""262641""
","","","","","","839","images/bed5.png","","","learning","-3","-3","1","1","bed","furniture","2","0","","neutral","0"
"html-keyboard-response","84","442815","0.0-9.0-2.0-0.6","3820","2","12","Male","approach_avoid_spark_v1","""event"",""trial"",""time""
""fullscreenenter"",""1"",""1575""
""fullscreenexit"",""53"",""262641""
","
","
","""event"",""trial"",""time""
""fullscreenenter"",""1"",""1575""
","""event"",""trial"",""time""
""fullscreenexit"",""53"",""262641""
","","","","","","null","<div style=""font-size:60px;"">+</div>","null","","fixation","","","","","","","","","","",""
"aa-learning-trial","85","445826","0.0-9.0-2.0-1.6","3820","2","12","Male","approach_avoid_spark_v1","""event"",""trial"",""time""
""fullscreenenter"",""1"",""1575""
""fullscreenexit"",""53"",""262641""
","
","
","""event"",""trial"",""time""
""fullscreenenter"",""1"",""1575""
","""event"",""trial"",""time""
""fullscreenexit"",""53"",""262641""
","","","","","","444.20000000018626","images/chair5.png","","","learning","3","0","0","0","chair","furniture","2","0","","bad","[-3]"
"html-keyboard-response","86","446343","0.0-9.0-2.0-0.7","3820","2","12","Male","approach_avoid_spark_v1","""event"",""trial"",""time""
""fullscreenenter"",""1"",""1575""
""fullscreenexit"",""53"",""262641""
","
","
","""event"",""trial"",""time""
""fullscreenenter"",""1"",""1575""
","""event"",""trial"",""time""
""fullscreenexit"",""53"",""262641""
","","","","","","null","<div style=""font-size:60px;"">+</div>","null","","fixation","","","","","","","","","","",""
"aa-learning-trial","87","449353","0.0-9.0-2.0-1.7","3820","2","12","Male","approach_avoid_spark_v1","""event"",""trial"",""time""
""fullscreenenter"",""1"",""1575""
""fullscreenexit"",""53"",""262641""
","
","
","""event"",""trial"",""time""
""fullscreenenter"",""1"",""1575""
","""event"",""trial"",""time""
""fullscreenexit"",""53"",""262641""
","","","","","","381.3999999994412","images/chair3.png","","","learning","-4","-4","1","1","chair","furniture","2","0","","bad","[-3]"
"html-keyboard-response","88","449858","0.0-9.0-2.0-0.8","3820","2","12","Male","approach_avoid_spark_v1","""event"",""trial"",""time""
""fullscreenenter"",""1"",""1575""
""fullscreenexit"",""53"",""262641""
","
","
","""event"",""trial"",""time""
""fullscreenenter"",""1"",""1575""
","""event"",""trial"",""time""
""fullscreenexit"",""53"",""262641""
","","","","","","null","<div style=""font-size:60px;"">+</div>","null","","fixation","","","","","","","","","","",""
"aa-learning-trial","89","452863","0.0-9.0-2.0-1.8","3820","2","12","Male","approach_avoid_spark_v1","""event"",""trial"",""time""
""fullscreenenter"",""1"",""1575""
""fullscreenexit"",""53"",""262641""
","
","
","""event"",""trial"",""time""
""fullscreenenter"",""1"",""1575""
","""event"",""trial"",""time""
""fullscreenexit"",""53"",""262641""
","","","","","","2130.2999999998137","images/sofa6.png","","","learning","-5","0","0","0","sofa","furniture","2","0","","good","[4]"
"html-keyboard-response","90","453368","0.0-9.0-2.0-0.9","3820","2","12","Male","approach_avoid_spark_v1","""event"",""trial"",""time""
""fullscreenenter"",""1"",""1575""
""fullscreenexit"",""53"",""262641""
","
","
","""event"",""trial"",""time""
""fullscreenenter"",""1"",""1575""
","""event"",""trial"",""time""
""fullscreenexit"",""53"",""262641""
","","","","","","null","<div style=""font-size:60px;"">+</div>","null","","fixation","","","","","","","","","","",""
"aa-learning-trial","91","456376","0.0-9.0-2.0-1.9","3820","2","12","Male","approach_avoid_spark_v1","""event"",""trial"",""time""
""fullscreenenter"",""1"",""1575""
""fullscreenexit"",""53"",""262641""
","
","
","""event"",""trial"",""time""
""fullscreenenter"",""1"",""1575""
","""event"",""trial"",""time""
""fullscreenexit"",""53"",""262641""
","","","","","","780.7000000001863","images/bed7.png","","","learning","7","7","1","1","bed","furniture","2","0","","neutral","0"
"html-keyboard-response","92","456880","0.0-9.0-2.0-0.10","3820","2","12","Male","approach_avoid_spark_v1","""event"",""trial"",""time""
""fullscreenenter"",""1"",""1575""
""fullscreenexit"",""53"",""262641""
","
","
","""event"",""trial"",""time""
""fullscreenenter"",""1"",""1575""
","""event"",""trial"",""time""
""fullscreenexit"",""53"",""262641""
","","","","","","null","<div style=""font-size:60px;"">+</div>","null","","fixation","","","","","","","","","","",""
"aa-learning-trial","93","459887","0.0-9.0-2.0-1.10","3820","2","12","Male","approach_avoid_spark_v1","""event"",""trial"",""time""
""fullscreenenter"",""1"",""1575""
""fullscreenexit"",""53"",""262641""
","
","
","""event"",""trial"",""time""
""fullscreenenter"",""1"",""1575""
","""event"",""trial"",""time""
""fullscreenexit"",""53"",""262641""
","","","","","","1251.9000000003725","images/sofa4.png","","","learning","8","0","0","0","sofa","furniture","2","0","","good","[4]"
"html-keyboard-response","94","460392","0.0-9.0-2.0-0.11","3820","2","12","Male","approach_avoid_spark_v1","""event"",""trial"",""time""
""fullscreenenter"",""1"",""1575""
""fullscreenexit"",""53"",""262641""
","
","
","""event"",""trial"",""time""
""fullscreenenter"",""1"",""1575""
","""event"",""trial"",""time""
""fullscreenexit"",""53"",""262641""
","","","","","","null","<div style=""font-size:60px;"">+</div>","null","","fixation","","","","","","","","","","",""
"aa-learning-trial","95","463400","0.0-9.0-2.0-1.11","3820","2","12","Male","approach_avoid_spark_v1","""event"",""trial"",""time""
""fullscreenenter"",""1"",""1575""
""fullscreenexit"",""53"",""262641""
","
","
","""event"",""trial"",""time""
""fullscreenenter"",""1"",""1575""
","""event"",""trial"",""time""
""fullscreenexit"",""53"",""262641""
","","","","","","420.79999999981374","images/chair7.png","","","learning","-9","-9","1","1","chair","furniture","2","0","","bad","[-3]"
"html-keyboard-response","96","463904","0.0-9.0-2.0-0.12","3820","2","12","Male","approach_avoid_spark_v1","""event"",""trial"",""time""
""fullscreenenter"",""1"",""1575""
""fullscreenexit"",""53"",""262641""
","
","
","""event"",""trial"",""time""
""fullscreenenter"",""1"",""1575""
","""event"",""trial"",""time""
""fullscreenexit"",""53"",""262641""
","","","","","","null","<div style=""font-size:60px;"">+</div>","null","","fixation","","","","","","","","","","",""
"aa-learning-trial","97","466912","0.0-9.0-2.0-1.12","3820","2","12","Male","approach_avoid_spark_v1","""event"",""trial"",""time""
""fullscreenenter"",""1"",""1575""
""fullscreenexit"",""53"",""262641""
","
","
","""event"",""trial"",""time""
""fullscreenenter"",""1"",""1575""
","""event"",""trial"",""time""
""fullscreenexit"",""53"",""262641""
","","","","","","342","images/sofa4.png","","","learning","8","0","0","0","sofa","furniture","2","0","","good","[4]"
"html-keyboard-response","98","467417","0.0-9.0-2.0-0.13","3820","2","12","Male","approach_avoid_spark_v1","""event"",""trial"",""time""
""fullscreenenter"",""1"",""1575""
""fullscreenexit"",""53"",""262641""
","
","
","""event"",""trial"",""time""
""fullscreenenter"",""1"",""1575""
","""event"",""trial"",""time""
""fullscreenexit"",""53"",""262641""
","","","","","","null","<div style=""font-size:60px;"">+</div>","null","","fixation","","","","","","","","","","",""
"aa-learning-trial","99","470435","0.0-9.0-2.0-1.13","3820","2","12","Male","approach_avoid_spark_v1","""event"",""trial"",""time""
""fullscreenenter"",""1"",""1575""
""fullscreenexit"",""53"",""262641""
","
","
","""event"",""trial"",""time""
""fullscreenenter"",""1"",""1575""
","""event"",""trial"",""time""
""fullscreenexit"",""53"",""262641""
","","","","","","772.1999999992549","images/sofa6.png","","","learning","-5","-5","1","1","sofa","furniture","2","0","","good","[4]"
"html-keyboard-response","100","470944","0.0-9.0-2.0-0.14","3820","2","12","Male","approach_avoid_spark_v1","""event"",""trial"",""time""
""fullscreenenter"",""1"",""1575""
""fullscreenexit"",""53"",""262641""
","
","
","""event"",""trial"",""time""
""fullscreenenter"",""1"",""1575""
","""event"",""trial"",""time""
""fullscreenexit"",""53"",""262641""
","","","","","","null","<div style=""font-size:60px;"">+</div>","null","","fixation","","","","","","","","","","",""
"aa-learning-trial","101","473957","0.0-9.0-2.0-1.14","3820","2","12","Male","approach_avoid_spark_v1","""event"",""trial"",""time""
""fullscreenenter"",""1"",""1575""
""fullscreenexit"",""53"",""262641""
","
","
","""event"",""trial"",""time""
""fullscreenenter"",""1"",""1575""
","""event"",""trial"",""time""
""fullscreenexit"",""53"",""262641""
","","","","","","916.2999999998137","images/bed4.png","","","learning","-1","0","0","0","bed","furniture","2","0","","neutral","0"
"html-keyboard-response","102","474463","0.0-9.0-2.0-0.15","3820","2","12","Male","approach_avoid_spark_v1","""event"",""trial"",""time""
""fullscreenenter"",""1"",""1575""
""fullscreenexit"",""53"",""262641""
","
","
","""event"",""trial"",""time""
""fullscreenenter"",""1"",""1575""
","""event"",""trial"",""time""
""fullscreenexit"",""53"",""262641""
","","","","","","null","<div style=""font-size:60px;"">+</div>","null","","fixation","","","","","","","","","","",""
"aa-learning-trial","103","477473","0.0-9.0-2.0-1.15","3820","2","12","Male","approach_avoid_spark_v1","""event"",""trial"",""time""
""fullscreenenter"",""1"",""1575""
""fullscreenexit"",""53"",""262641""
","
","
","""event"",""trial"",""time""
""fullscreenenter"",""1"",""1575""
","""event"",""trial"",""time""
""fullscreenexit"",""53"",""262641""
","","","","","","597.5999999996275","images/bed4.png","","","learning","-1","0","0","0","bed","furniture","2","0","","neutral","0"
"html-keyboard-response","104","477976","0.0-9.0-2.0-0.16","3820","2","12","Male","approach_avoid_spark_v1","""event"",""trial"",""time""
""fullscreenenter"",""1"",""1575""
""fullscreenexit"",""53"",""262641""
","
","
","""event"",""trial"",""time""
""fullscreenenter"",""1"",""1575""
","""event"",""trial"",""time""
""fullscreenexit"",""53"",""262641""
","","","","","","null","<div style=""font-size:60px;"">+</div>","null","","fixation","","","","","","","","","","",""
"aa-learning-trial","105","480984","0.0-9.0-2.0-1.16","3820","2","12","Male","approach_avoid_spark_v1","""event"",""trial"",""time""
""fullscreenenter"",""1"",""1575""
""fullscreenexit"",""53"",""262641""
","
","
","""event"",""trial"",""time""
""fullscreenenter"",""1"",""1575""
","""event"",""trial"",""time""
""fullscreenexit"",""53"",""262641""
","","","","","","339.3999999994412","images/sofa6.png","","","learning","-5","0","0","0","sofa","furniture","2","0","","good","[4]"
"html-keyboard-response","106","481487","0.0-9.0-2.0-0.17","3820","2","12","Male","approach_avoid_spark_v1","""event"",""trial"",""time""
""fullscreenenter"",""1"",""1575""
""fullscreenexit"",""53"",""262641""
","
","
","""event"",""trial"",""time""
""fullscreenenter"",""1"",""1575""
","""event"",""trial"",""time""
""fullscreenexit"",""53"",""262641""
","","","","","","null","<div style=""font-size:60px;"">+</div>","null","","fixation","","","","","","","","","","",""
"aa-learning-trial","107","484496","0.0-9.0-2.0-1.17","3820","2","12","Male","approach_avoid_spark_v1","""event"",""trial"",""time""
""fullscreenenter"",""1"",""1575""
""fullscreenexit"",""53"",""262641""
","
","
","""event"",""trial"",""time""
""fullscreenenter"",""1"",""1575""
","""event"",""trial"",""time""
""fullscreenexit"",""53"",""262641""
","","","","","","333.09999999962747","images/chair7.png","","","learning","-9","0","0","0","chair","furniture","2","0","","bad","[-3]"
"html-keyboard-response","108","484999","0.0-9.0-2.0-0.18","3820","2","12","Male","approach_avoid_spark_v1","""event"",""trial"",""time""
""fullscreenenter"",""1"",""1575""
""fullscreenexit"",""53"",""262641""
","
","
","""event"",""trial"",""time""
""fullscreenenter"",""1"",""1575""
","""event"",""trial"",""time""
""fullscreenexit"",""53"",""262641""
","","","","","","null","<div style=""font-size:60px;"">+</div>","null","","fixation","","","","","","","","","","",""
"aa-learning-trial","109","488021","0.0-9.0-2.0-1.18","3820","2","12","Male","approach_avoid_spark_v1","""event"",""trial"",""time""
""fullscreenenter"",""1"",""1575""
""fullscreenexit"",""53"",""262641""
","
","
","""event"",""trial"",""time""
""fullscreenenter"",""1"",""1575""
","""event"",""trial"",""time""
""fullscreenexit"",""53"",""262641""
","","","","","","532.0999999996275","images/bed4.png","","","learning","-1","-1","1","1","bed","furniture","2","0","","neutral","0"
"html-keyboard-response","110","488528","0.0-9.0-2.0-0.19","3820","2","12","Male","approach_avoid_spark_v1","""event"",""trial"",""time""
""fullscreenenter"",""1"",""1575""
""fullscreenexit"",""53"",""262641""
","
","
","""event"",""trial"",""time""
""fullscreenenter"",""1"",""1575""
","""event"",""trial"",""time""
""fullscreenexit"",""53"",""262641""
","","","","","","null","<div style=""font-size:60px;"">+</div>","null","","fixation","","","","","","","","","","",""
"aa-learning-trial","111","491536","0.0-9.0-2.0-1.19","3820","2","12","Male","approach_avoid_spark_v1","""event"",""trial"",""time""
""fullscreenenter"",""1"",""1575""
""fullscreenexit"",""53"",""262641""
","
","
","""event"",""trial"",""time""
""fullscreenenter"",""1"",""1575""
","""event"",""trial"",""time""
""fullscreenexit"",""53"",""262641""
","","","","","","109.40000000037253","images/sofa3.png","","","learning","1","1","1","1","sofa","furniture","2","0","","good","[4]"
"html-keyboard-response","112","492040","0.0-9.0-2.0-0.20","3820","2","12","Male","approach_avoid_spark_v1","""event"",""trial"",""time""
""fullscreenenter"",""1"",""1575""
""fullscreenexit"",""53"",""262641""
","
","
","""event"",""trial"",""time""
""fullscreenenter"",""1"",""1575""
","""event"",""trial"",""time""
""fullscreenexit"",""53"",""262641""
","","","","","","null","<div style=""font-size:60px;"">+</div>","null","","fixation","","","","","","","","","","",""
"aa-learning-trial","113","495047","0.0-9.0-2.0-1.20","3820","2","12","Male","approach_avoid_spark_v1","""event"",""trial"",""time""
""fullscreenenter"",""1"",""1575""
""fullscreenexit"",""53"",""262641""
","
","
","""event"",""trial"",""time""
""fullscreenenter"",""1"",""1575""
","""event"",""trial"",""time""
""fullscreenexit"",""53"",""262641""
","","","","","","323.6000000005588","images/chair7.png","","","learning","-9","-9","1","1","chair","furniture","2","0","","bad","[-3]"
"html-keyboard-response","114","495551","0.0-9.0-2.0-0.21","3820","2","12","Male","approach_avoid_spark_v1","""event"",""trial"",""time""
""fullscreenenter"",""1"",""1575""
""fullscreenexit"",""53"",""262641""
","
","
","""event"",""trial"",""time""
""fullscreenenter"",""1"",""1575""
","""event"",""trial"",""time""
""fullscreenexit"",""53"",""262641""
","","","","","","null","<div style=""font-size:60px;"">+</div>","null","","fixation","","","","","","","","","","",""
"aa-learning-trial","115","498561","0.0-9.0-2.0-1.21","3820","2","12","Male","approach_avoid_spark_v1","""event"",""trial"",""time""
""fullscreenenter"",""1"",""1575""
""fullscreenexit"",""53"",""262641""
","
","
","""event"",""trial"",""time""
""fullscreenenter"",""1"",""1575""
","""event"",""trial"",""time""
""fullscreenexit"",""53"",""262641""
","","","","","","365.79999999981374","images/sofa8.png","","","learning","-8","0","0","0","sofa","furniture","2","0","","good","[4]"
"html-keyboard-response","116","499063","0.0-9.0-2.0-0.22","3820","2","12","Male","approach_avoid_spark_v1","""event"",""trial"",""time""
""fullscreenenter"",""1"",""1575""
""fullscreenexit"",""53"",""262641""
","
","
","""event"",""trial"",""time""
""fullscreenenter"",""1"",""1575""
","""event"",""trial"",""time""
""fullscreenexit"",""53"",""262641""
","","","","","","null","<div style=""font-size:60px;"">+</div>","null","","fixation","","","","","","","","","","",""
"aa-learning-trial","117","502085","0.0-9.0-2.0-1.22","3820","2","12","Male","approach_avoid_spark_v1","""event"",""trial"",""time""
""fullscreenenter"",""1"",""1575""
""fullscreenexit"",""53"",""262641""
","
","
","""event"",""trial"",""time""
""fullscreenenter"",""1"",""1575""
","""event"",""trial"",""time""
""fullscreenexit"",""53"",""262641""
","","","","","","93.6000000005588","images/bed4.png","","","learning","-1","0","0","0","bed","furniture","2","0","","neutral","0"
"html-keyboard-response","118","502592","0.0-9.0-2.0-0.23","3820","2","12","Male","approach_avoid_spark_v1","""event"",""trial"",""time""
""fullscreenenter"",""1"",""1575""
""fullscreenexit"",""53"",""262641""
","
","
","""event"",""trial"",""time""
""fullscreenenter"",""1"",""1575""
","""event"",""trial"",""time""
""fullscreenexit"",""53"",""262641""
","","","","","","null","<div style=""font-size:60px;"">+</div>","null","","fixation","","","","","","","","","","",""
"aa-learning-trial","119","505600","0.0-9.0-2.0-1.23","3820","2","12","Male","approach_avoid_spark_v1","""event"",""trial"",""time""
""fullscreenenter"",""1"",""1575""
""fullscreenexit"",""53"",""262641""
","
","
","""event"",""trial"",""time""
""fullscreenenter"",""1"",""1575""
","""event"",""trial"",""time""
""fullscreenexit"",""53"",""262641""
","","","","","","796.2999999998137","images/chair3.png","","","learning","-4","0","0","0","chair","furniture","2","0","","bad","[-3]"
"html-keyboard-response","120","506104","0.0-9.0-2.0-0.24","3820","2","12","Male","approach_avoid_spark_v1","""event"",""trial"",""time""
""fullscreenenter"",""1"",""1575""
""fullscreenexit"",""53"",""262641""
","
","
","""event"",""trial"",""time""
""fullscreenenter"",""1"",""1575""
","""event"",""trial"",""time""
""fullscreenexit"",""53"",""262641""
","","","","","","null","<div style=""font-size:60px;"">+</div>","null","","fixation","","","","","","","","","","",""
"aa-learning-trial","121","509124","0.0-9.0-2.0-1.24","3820","2","12","Male","approach_avoid_spark_v1","""event"",""trial"",""time""
""fullscreenenter"",""1"",""1575""
""fullscreenexit"",""53"",""262641""
","
","
","""event"",""trial"",""time""
""fullscreenenter"",""1"",""1575""
","""event"",""trial"",""time""
""fullscreenexit"",""53"",""262641""
","","","","","","1180.5","images/chair5.png","","","learning","3","0","0","0","chair","furniture","2","0","","bad","[-3]"
"html-keyboard-response","122","509631","0.0-9.0-2.0-0.25","3820","2","12","Male","approach_avoid_spark_v1","""event"",""trial"",""time""
""fullscreenenter"",""1"",""1575""
""fullscreenexit"",""53"",""262641""
","
","
","""event"",""trial"",""time""
""fullscreenenter"",""1"",""1575""
","""event"",""trial"",""time""
""fullscreenexit"",""53"",""262641""
","","","","","","null","<div style=""font-size:60px;"">+</div>","null","","fixation","","","","","","","","","","",""
"aa-learning-trial","123","512653","0.0-9.0-2.0-1.25","3820","2","12","Male","approach_avoid_spark_v1","""event"",""trial"",""time""
""fullscreenenter"",""1"",""1575""
""fullscreenexit"",""53"",""262641""
","
","
","""event"",""trial"",""time""
""fullscreenenter"",""1"",""1575""
","""event"",""trial"",""time""
""fullscreenexit"",""53"",""262641""
","","","","","","356.8999999994412","images/sofa6.png","","","learning","-5","-5","1","1","sofa","furniture","2","0","","good","[4]"
"html-keyboard-response","124","513159","0.0-9.0-2.0-0.26","3820","2","12","Male","approach_avoid_spark_v1","""event"",""trial"",""time""
""fullscreenenter"",""1"",""1575""
""fullscreenexit"",""53"",""262641""
","
","
","""event"",""trial"",""time""
""fullscreenenter"",""1"",""1575""
","""event"",""trial"",""time""
""fullscreenexit"",""53"",""262641""
","","","","","","null","<div style=""font-size:60px;"">+</div>","null","","fixation","","","","","","","","","","",""
"aa-learning-trial","125","516168","0.0-9.0-2.0-1.26","3820","2","12","Male","approach_avoid_spark_v1","""event"",""trial"",""time""
""fullscreenenter"",""1"",""1575""
""fullscreenexit"",""53"",""262641""
","
","
","""event"",""trial"",""time""
""fullscreenenter"",""1"",""1575""
","""event"",""trial"",""time""
""fullscreenexit"",""53"",""262641""
","","","","","","509.59999999962747","images/sofa7.png","","","learning","4","4","1","1","sofa","furniture","2","0","","good","[4]"
"html-keyboard-response","126","516673","0.0-9.0-2.0-0.27","3820","2","12","Male","approach_avoid_spark_v1","""event"",""trial"",""time""
""fullscreenenter"",""1"",""1575""
""fullscreenexit"",""53"",""262641""
","
","
","""event"",""trial"",""time""
""fullscreenenter"",""1"",""1575""
","""event"",""trial"",""time""
""fullscreenexit"",""53"",""262641""
","","","","","","null","<div style=""font-size:60px;"">+</div>","null","","fixation","","","","","","","","","","",""
"aa-learning-trial","127","519681","0.0-9.0-2.0-1.27","3820","2","12","Male","approach_avoid_spark_v1","""event"",""trial"",""time""
""fullscreenenter"",""1"",""1575""
""fullscreenexit"",""53"",""262641""
","
","
","""event"",""trial"",""time""
""fullscreenenter"",""1"",""1575""
","""event"",""trial"",""time""
""fullscreenexit"",""53"",""262641""
","","","","","","955.8999999994412","images/bed7.png","","","learning","7","7","1","1","bed","furniture","2","0","","neutral","0"
"html-keyboard-response","128","520183","0.0-9.0-2.0-0.28","3820","2","12","Male","approach_avoid_spark_v1","""event"",""trial"",""time""
""fullscreenenter"",""1"",""1575""
""fullscreenexit"",""53"",""262641""
","
","
","""event"",""trial"",""time""
""fullscreenenter"",""1"",""1575""
","""event"",""trial"",""time""
""fullscreenexit"",""53"",""262641""
","","","","","","null","<div style=""font-size:60px;"">+</div>","null","","fixation","","","","","","","","","","",""
"aa-learning-trial","129","523192","0.0-9.0-2.0-1.28","3820","2","12","Male","approach_avoid_spark_v1","""event"",""trial"",""time""
""fullscreenenter"",""1"",""1575""
""fullscreenexit"",""53"",""262641""
","
","
","""event"",""trial"",""time""
""fullscreenenter"",""1"",""1575""
","""event"",""trial"",""time""
""fullscreenexit"",""53"",""262641""
","","","","","","236.79999999981374","images/bed4.png","","","learning","-1","-1","1","1","bed","furniture","2","0","","neutral","0"
"html-keyboard-response","130","523696","0.0-9.0-2.0-0.29","3820","2","12","Male","approach_avoid_spark_v1","""event"",""trial"",""time""
""fullscreenenter"",""1"",""1575""
""fullscreenexit"",""53"",""262641""
","
","
","""event"",""trial"",""time""
""fullscreenenter"",""1"",""1575""
","""event"",""trial"",""time""
""fullscreenexit"",""53"",""262641""
","","","","","","null","<div style=""font-size:60px;"">+</div>","null","","fixation","","","","","","","","","","",""
"aa-learning-trial","131","526703","0.0-9.0-2.0-1.29","3820","2","12","Male","approach_avoid_spark_v1","""event"",""trial"",""time""
""fullscreenenter"",""1"",""1575""
""fullscreenexit"",""53"",""262641""
","
","
","""event"",""trial"",""time""
""fullscreenenter"",""1"",""1575""
","""event"",""trial"",""time""
""fullscreenexit"",""53"",""262641""
","","","","","","100.1000000005588","images/chair3.png","","","learning","-4","0","0","0","chair","furniture","2","0","","bad","[-3]"
"html-keyboard-response","132","527208","0.0-9.0-2.0-0.30","3820","2","12","Male","approach_avoid_spark_v1","""event"",""trial"",""time""
""fullscreenenter"",""1"",""1575""
""fullscreenexit"",""53"",""262641""
","
","
","""event"",""trial"",""time""
""fullscreenenter"",""1"",""1575""
","""event"",""trial"",""time""
""fullscreenexit"",""53"",""262641""
","","","","","","null","<div style=""font-size:60px;"">+</div>","null","","fixation","","","","","","","","","","",""
"aa-learning-trial","133","530216","0.0-9.0-2.0-1.30","3820","2","12","Male","approach_avoid_spark_v1","""event"",""trial"",""time""
""fullscreenenter"",""1"",""1575""
""fullscreenexit"",""53"",""262641""
","
","
","""event"",""trial"",""time""
""fullscreenenter"",""1"",""1575""
","""event"",""trial"",""time""
""fullscreenexit"",""53"",""262641""
","","","","","","604.4000000003725","images/chair1.png","","","learning","9","9","1","1","chair","furniture","2","0","","bad","[-3]"
"html-keyboard-response","134","530720","0.0-9.0-2.0-0.31","3820","2","12","Male","approach_avoid_spark_v1","""event"",""trial"",""time""
""fullscreenenter"",""1"",""1575""
""fullscreenexit"",""53"",""262641""
","
","
","""event"",""trial"",""time""
""fullscreenenter"",""1"",""1575""
","""event"",""trial"",""time""
""fullscreenexit"",""53"",""262641""
","","","","","","null","<div style=""font-size:60px;"">+</div>","null","","fixation","","","","","","","","","","",""
"aa-learning-trial","135","533729","0.0-9.0-2.0-1.31","3820","2","12","Male","approach_avoid_spark_v1","""event"",""trial"",""time""
""fullscreenenter"",""1"",""1575""
""fullscreenexit"",""53"",""262641""
","
","
","""event"",""trial"",""time""
""fullscreenenter"",""1"",""1575""
","""event"",""trial"",""time""
""fullscreenexit"",""53"",""262641""
","","","","","","420","images/bed5.png","","","learning","-3","-3","1","1","bed","furniture","2","0","","neutral","0"
"html-keyboard-response","136","534242","0.0-9.0-2.0-0.32","3820","2","12","Male","approach_avoid_spark_v1","""event"",""trial"",""time""
""fullscreenenter"",""1"",""1575""
""fullscreenexit"",""53"",""262641""
","
","
","""event"",""trial"",""time""
""fullscreenenter"",""1"",""1575""
","""event"",""trial"",""time""
""fullscreenexit"",""53"",""262641""
","","","","","","null","<div style=""font-size:60px;"">+</div>","null","","fixation","","","","","","","","","","",""
"aa-learning-trial","137","537247","0.0-9.0-2.0-1.32","3820","2","12","Male","approach_avoid_spark_v1","""event"",""trial"",""time""
""fullscreenenter"",""1"",""1575""
""fullscreenexit"",""53"",""262641""
","
","
","""event"",""trial"",""time""
""fullscreenenter"",""1"",""1575""
","""event"",""trial"",""time""
""fullscreenexit"",""53"",""262641""
","","","","","","362.1000000005588","images/bed6.png","","","learning","5","0","0","0","bed","furniture","2","0","","neutral","0"
"html-keyboard-response","138","537752","0.0-9.0-2.0-0.33","3820","2","12","Male","approach_avoid_spark_v1","""event"",""trial"",""time""
""fullscreenenter"",""1"",""1575""
""fullscreenexit"",""53"",""262641""
","
","
","""event"",""trial"",""time""
""fullscreenenter"",""1"",""1575""
","""event"",""trial"",""time""
""fullscreenexit"",""53"",""262641""
","","","","","","null","<div style=""font-size:60px;"">+</div>","null","","fixation","","","","","","","","","","",""
"aa-learning-trial","139","540760","0.0-9.0-2.0-1.33","3820","2","12","Male","approach_avoid_spark_v1","""event"",""trial"",""time""
""fullscreenenter"",""1"",""1575""
""fullscreenexit"",""53"",""262641""
","
","
","""event"",""trial"",""time""
""fullscreenenter"",""1"",""1575""
","""event"",""trial"",""time""
""fullscreenexit"",""53"",""262641""
","","","","","","100.30000000074506","images/chair7.png","","","learning","-9","-9","1","1","chair","furniture","2","0","","bad","[-3]"
"html-keyboard-response","140","541275","0.0-9.0-2.0-0.34","3820","2","12","Male","approach_avoid_spark_v1","""event"",""trial"",""time""
""fullscreenenter"",""1"",""1575""
""fullscreenexit"",""53"",""262641""
","
","
","""event"",""trial"",""time""
""fullscreenenter"",""1"",""1575""
","""event"",""trial"",""time""
""fullscreenexit"",""53"",""262641""
","","","","","","null","<div style=""font-size:60px;"">+</div>","null","","fixation","","","","","","","","","","",""
"aa-learning-trial","141","544279","0.0-9.0-2.0-1.34","3820","2","12","Male","approach_avoid_spark_v1","""event"",""trial"",""time""
""fullscreenenter"",""1"",""1575""
""fullscreenexit"",""53"",""262641""
","
","
","""event"",""trial"",""time""
""fullscreenenter"",""1"",""1575""
","""event"",""trial"",""time""
""fullscreenexit"",""53"",""262641""
","","","","","","977.5999999996275","images/bed8.png","","","learning","-7","-7","1","1","bed","furniture","2","0","","neutral","0"
"html-keyboard-response","142","544784","0.0-9.0-2.0-0.35","3820","2","12","Male","approach_avoid_spark_v1","""event"",""trial"",""time""
""fullscreenenter"",""1"",""1575""
""fullscreenexit"",""53"",""262641""
","
","
","""event"",""trial"",""time""
""fullscreenenter"",""1"",""1575""
","""event"",""trial"",""time""
""fullscreenexit"",""53"",""262641""
","","","","","","null","<div style=""font-size:60px;"">+</div>","null","","fixation","","","","","","","","","","",""
"aa-learning-trial","143","547792","0.0-9.0-2.0-1.35","3820","2","12","Male","approach_avoid_spark_v1","""event"",""trial"",""time""
""fullscreenenter"",""1"",""1575""
""fullscreenexit"",""53"",""262641""
","
","
","""event"",""trial"",""time""
""fullscreenenter"",""1"",""1575""
","""event"",""trial"",""time""
""fullscreenexit"",""53"",""262641""
","","","","","","221","images/sofa6.png","","","learning","-5","0","0","0","sofa","furniture","2","0","","good","[4]"
"html-keyboard-response","144","548295","0.0-9.0-2.0-0.36","3820","2","12","Male","approach_avoid_spark_v1","""event"",""trial"",""time""
""fullscreenenter"",""1"",""1575""
""fullscreenexit"",""53"",""262641""
","
","
","""event"",""trial"",""time""
""fullscreenenter"",""1"",""1575""
","""event"",""trial"",""time""
""fullscreenexit"",""53"",""262641""
","","","","","","null","<div style=""font-size:60px;"">+</div>","null","","fixation","","","","","","","","","","",""
"aa-learning-trial","145","551304","0.0-9.0-2.0-1.36","3820","2","12","Male","approach_avoid_spark_v1","""event"",""trial"",""time""
""fullscreenenter"",""1"",""1575""
""fullscreenexit"",""53"",""262641""
","
","
","""event"",""trial"",""time""
""fullscreenenter"",""1"",""1575""
","""event"",""trial"",""time""
""fullscreenexit"",""53"",""262641""
","","","","","","492.90000000037253","images/bed5.png","","","learning","-3","-3","1","1","bed","furniture","2","0","","neutral","0"
"html-keyboard-response","146","551814","0.0-9.0-2.0-0.37","3820","2","12","Male","approach_avoid_spark_v1","""event"",""trial"",""time""
""fullscreenenter"",""1"",""1575""
""fullscreenexit"",""53"",""262641""
","
","
","""event"",""trial"",""time""
""fullscreenenter"",""1"",""1575""
","""event"",""trial"",""time""
""fullscreenexit"",""53"",""262641""
","","","","","","null","<div style=""font-size:60px;"">+</div>","null","","fixation","","","","","","","","","","",""
"aa-learning-trial","147","554824","0.0-9.0-2.0-1.37","3820","2","12","Male","approach_avoid_spark_v1","""event"",""trial"",""time""
""fullscreenenter"",""1"",""1575""
""fullscreenexit"",""53"",""262641""
","
","
","""event"",""trial"",""time""
""fullscreenenter"",""1"",""1575""
","""event"",""trial"",""time""
""fullscreenexit"",""53"",""262641""
","","","","","","301","images/chair3.png","","","learning","-4","0","0","0","chair","furniture","2","0","","bad","[-3]"
"html-keyboard-response","148","555328","0.0-9.0-2.0-0.38","3820","2","12","Male","approach_avoid_spark_v1","""event"",""trial"",""time""
""fullscreenenter"",""1"",""1575""
""fullscreenexit"",""53"",""262641""
","
","
","""event"",""trial"",""time""
""fullscreenenter"",""1"",""1575""
","""event"",""trial"",""time""
""fullscreenexit"",""53"",""262641""
","","","","","","null","<div style=""font-size:60px;"">+</div>","null","","fixation","","","","","","","","","","",""
"aa-learning-trial","149","558336","0.0-9.0-2.0-1.38","3820","2","12","Male","approach_avoid_spark_v1","""event"",""trial"",""time""
""fullscreenenter"",""1"",""1575""
""fullscreenexit"",""53"",""262641""
","
","
","""event"",""trial"",""time""
""fullscreenenter"",""1"",""1575""
","""event"",""trial"",""time""
""fullscreenexit"",""53"",""262641""
","","","","","","547.5","images/bed7.png","","","learning","7","7","1","1","bed","furniture","2","0","","neutral","0"
"html-keyboard-response","150","558839","0.0-9.0-2.0-0.39","3820","2","12","Male","approach_avoid_spark_v1","""event"",""trial"",""time""
""fullscreenenter"",""1"",""1575""
""fullscreenexit"",""53"",""262641""
","
","
","""event"",""trial"",""time""
""fullscreenenter"",""1"",""1575""
","""event"",""trial"",""time""
""fullscreenexit"",""53"",""262641""
","","","","","","null","<div style=""font-size:60px;"">+</div>","null","","fixation","","","","","","","","","","",""
"aa-learning-trial","151","561847","0.0-9.0-2.0-1.39","3820","2","12","Male","approach_avoid_spark_v1","""event"",""trial"",""time""
""fullscreenenter"",""1"",""1575""
""fullscreenexit"",""53"",""262641""
","
","
","""event"",""trial"",""time""
""fullscreenenter"",""1"",""1575""
","""event"",""trial"",""time""
""fullscreenexit"",""53"",""262641""
","","","","","","397.1000000005588","images/chair7.png","","","learning","-9","-5","3","","chair","furniture","2","0","","bad","[-3]"
"html-keyboard-response","152","562351","0.0-9.0-2.0-0.40","3820","2","12","Male","approach_avoid_spark_v1","""event"",""trial"",""time""
""fullscreenenter"",""1"",""1575""
""fullscreenexit"",""53"",""262641""
","
","
","""event"",""trial"",""time""
""fullscreenenter"",""1"",""1575""
","""event"",""trial"",""time""
""fullscreenexit"",""53"",""262641""
","","","","","","null","<div style=""font-size:60px;"">+</div>","null","","fixation","","","","","","","","","","",""
"aa-learning-trial","153","565360","0.0-9.0-2.0-1.40","3820","2","12","Male","approach_avoid_spark_v1","""event"",""trial"",""time""
""fullscreenenter"",""1"",""1575""
""fullscreenexit"",""53"",""262641""
","
","
","""event"",""trial"",""time""
""fullscreenenter"",""1"",""1575""
","""event"",""trial"",""time""
""fullscreenexit"",""53"",""262641""
","","","","","","1342.5","images/sofa4.png","","","learning","8","0","0","0","sofa","furniture","2","0","","good","[4]"
"html-keyboard-response","154","565863","0.0-9.0-2.0-0.41","3820","2","12","Male","approach_avoid_spark_v1","""event"",""trial"",""time""
""fullscreenenter"",""1"",""1575""
""fullscreenexit"",""53"",""262641""
","
","
","""event"",""trial"",""time""
""fullscreenenter"",""1"",""1575""
","""event"",""trial"",""time""
""fullscreenexit"",""53"",""262641""
","","","","","","null","<div style=""font-size:60px;"">+</div>","null","","fixation","","","","","","","","","","",""
"aa-learning-trial","155","568872","0.0-9.0-2.0-1.41","3820","2","12","Male","approach_avoid_spark_v1","""event"",""trial"",""time""
""fullscreenenter"",""1"",""1575""
""fullscreenexit"",""53"",""262641""
","
","
","""event"",""trial"",""time""
""fullscreenenter"",""1"",""1575""
","""event"",""trial"",""time""
""fullscreenexit"",""53"",""262641""
","","","","","","357","images/bed5.png","","","learning","-3","-3","1","1","bed","furniture","2","0","","neutral","0"
"html-keyboard-response","156","569376","0.0-9.0-2.0-0.42","3820","2","12","Male","approach_avoid_spark_v1","""event"",""trial"",""time""
""fullscreenenter"",""1"",""1575""
""fullscreenexit"",""53"",""262641""
","
","
","""event"",""trial"",""time""
""fullscreenenter"",""1"",""1575""
","""event"",""trial"",""time""
""fullscreenexit"",""53"",""262641""
","","","","","","null","<div style=""font-size:60px;"">+</div>","null","","fixation","","","","","","","","","","",""
"aa-learning-trial","157","572383","0.0-9.0-2.0-1.42","3820","2","12","Male","approach_avoid_spark_v1","""event"",""trial"",""time""
""fullscreenenter"",""1"",""1575""
""fullscreenexit"",""53"",""262641""
","
","
","""event"",""trial"",""time""
""fullscreenenter"",""1"",""1575""
","""event"",""trial"",""time""
""fullscreenexit"",""53"",""262641""
","","","","","","140.3999999994412","images/sofa6.png","","","learning","-5","0","0","0","sofa","furniture","2","0","","good","[4]"
"html-keyboard-response","158","572888","0.0-9.0-2.0-0.43","3820","2","12","Male","approach_avoid_spark_v1","""event"",""trial"",""time""
""fullscreenenter"",""1"",""1575""
""fullscreenexit"",""53"",""262641""
","
","
","""event"",""trial"",""time""
""fullscreenenter"",""1"",""1575""
","""event"",""trial"",""time""
""fullscreenexit"",""53"",""262641""
","","","","","","null","<div style=""font-size:60px;"">+</div>","null","","fixation","","","","","","","","","","",""
"aa-learning-trial","159","575897","0.0-9.0-2.0-1.43","3820","2","12","Male","approach_avoid_spark_v1","""event"",""trial"",""time""
""fullscreenenter"",""1"",""1575""
""fullscreenexit"",""53"",""262641""
","
","
","""event"",""trial"",""time""
""fullscreenenter"",""1"",""1575""
","""event"",""trial"",""time""
""fullscreenexit"",""53"",""262641""
","","","","","","2203.9000000003725","images/chair5.png","","","learning","3","3","1","1","chair","furniture","2","0","","bad","[-3]"
"html-keyboard-response","160","576403","0.0-9.0-2.0-0.44","3820","2","12","Male","approach_avoid_spark_v1","""event"",""trial"",""time""
""fullscreenenter"",""1"",""1575""
""fullscreenexit"",""53"",""262641""
","
","
","""event"",""trial"",""time""
""fullscreenenter"",""1"",""1575""
","""event"",""trial"",""time""
""fullscreenexit"",""53"",""262641""
","","","","","","null","<div style=""font-size:60px;"">+</div>","null","","fixation","","","","","","","","","","",""
"aa-learning-trial","161","579409","0.0-9.0-2.0-1.44","3820","2","12","Male","approach_avoid_spark_v1","""event"",""trial"",""time""
""fullscreenenter"",""1"",""1575""
""fullscreenexit"",""53"",""262641""
","
","
","""event"",""trial"",""time""
""fullscreenenter"",""1"",""1575""
","""event"",""trial"",""time""
""fullscreenexit"",""53"",""262641""
","","","","","","818","images/sofa4.png","","","learning","8","8","1","1","sofa","furniture","2","0","","good","[4]"
"html-keyboard-response","162","579924","0.0-9.0-2.0-0.45","3820","2","12","Male","approach_avoid_spark_v1","""event"",""trial"",""time""
""fullscreenenter"",""1"",""1575""
""fullscreenexit"",""53"",""262641""
","
","
","""event"",""trial"",""time""
""fullscreenenter"",""1"",""1575""
","""event"",""trial"",""time""
""fullscreenexit"",""53"",""262641""
","","","","","","null","<div style=""font-size:60px;"">+</div>","null","","fixation","","","","","","","","","","",""
"aa-learning-trial","163","582929","0.0-9.0-2.0-1.45","3820","2","12","Male","approach_avoid_spark_v1","""event"",""trial"",""time""
""fullscreenenter"",""1"",""1575""
""fullscreenexit"",""53"",""262641""
","
","
","""event"",""trial"",""time""
""fullscreenenter"",""1"",""1575""
","""event"",""trial"",""time""
""fullscreenexit"",""53"",""262641""
","","","","","","112.59999999962747","images/sofa7.png","","","learning","4","0","0","0","sofa","furniture","2","0","","good","[4]"
"html-keyboard-response","164","583431","0.0-9.0-2.0-0.46","3820","2","12","Male","approach_avoid_spark_v1","""event"",""trial"",""time""
""fullscreenenter"",""1"",""1575""
""fullscreenexit"",""53"",""262641""
","
","
","""event"",""trial"",""time""
""fullscreenenter"",""1"",""1575""
","""event"",""trial"",""time""
""fullscreenexit"",""53"",""262641""
","","","","","","null","<div style=""font-size:60px;"">+</div>","null","","fixation","","","","","","","","","","",""
"aa-learning-trial","165","586449","0.0-9.0-2.0-1.46","3820","2","12","Male","approach_avoid_spark_v1","""event"",""trial"",""time""
""fullscreenenter"",""1"",""1575""
""fullscreenexit"",""53"",""262641""
","
","
","""event"",""trial"",""time""
""fullscreenenter"",""1"",""1575""
","""event"",""trial"",""time""
""fullscreenexit"",""53"",""262641""
","","","","","","140.1000000005588","images/sofa4.png","","","learning","8","8","1","1","sofa","furniture","2","0","","good","[4]"
"html-keyboard-response","166","586952","0.0-9.0-2.0-0.47","3820","2","12","Male","approach_avoid_spark_v1","""event"",""trial"",""time""
""fullscreenenter"",""1"",""1575""
""fullscreenexit"",""53"",""262641""
","
","
","""event"",""trial"",""time""
""fullscreenenter"",""1"",""1575""
","""event"",""trial"",""time""
""fullscreenexit"",""53"",""262641""
","","","","","","null","<div style=""font-size:60px;"">+</div>","null","","fixation","","","","","","","","","","",""
"aa-learning-trial","167","589960","0.0-9.0-2.0-1.47","3820","2","12","Male","approach_avoid_spark_v1","""event"",""trial"",""time""
""fullscreenenter"",""1"",""1575""
""fullscreenexit"",""53"",""262641""
","
","
","""event"",""trial"",""time""
""fullscreenenter"",""1"",""1575""
","""event"",""trial"",""time""
""fullscreenexit"",""53"",""262641""
","","","","","","460.70000000018626","images/chair4.png","","","learning","2","0","0","0","chair","furniture","2","0","","bad","[-3]"
"html-keyboard-response","168","590463","0.0-9.0-2.0-0.48","3820","2","12","Male","approach_avoid_spark_v1","""event"",""trial"",""time""
""fullscreenenter"",""1"",""1575""
""fullscreenexit"",""53"",""262641""
","
","
","""event"",""trial"",""time""
""fullscreenenter"",""1"",""1575""
","""event"",""trial"",""time""
""fullscreenexit"",""53"",""262641""
","","","","","","null","<div style=""font-size:60px;"">+</div>","null","","fixation","","","","","","","","","","",""
"aa-learning-trial","169","593472","0.0-9.0-2.0-1.48","3820","2","12","Male","approach_avoid_spark_v1","""event"",""trial"",""time""
""fullscreenenter"",""1"",""1575""
""fullscreenexit"",""53"",""262641""
","
","
","""event"",""trial"",""time""
""fullscreenenter"",""1"",""1575""
","""event"",""trial"",""time""
""fullscreenexit"",""53"",""262641""
","","","","","","326.09999999962747","images/bed5.png","","","learning","-3","-3","1","1","bed","furniture","2","0","","neutral","0"
"html-keyboard-response","170","593975","0.0-9.0-2.0-0.49","3820","2","12","Male","approach_avoid_spark_v1","""event"",""trial"",""time""
""fullscreenenter"",""1"",""1575""
""fullscreenexit"",""53"",""262641""
","
","
","""event"",""trial"",""time""
""fullscreenenter"",""1"",""1575""
","""event"",""trial"",""time""
""fullscreenexit"",""53"",""262641""
","","","","","","null","<div style=""font-size:60px;"">+</div>","null","","fixation","","","","","","","","","","",""
"aa-learning-trial","171","596983","0.0-9.0-2.0-1.49","3820","2","12","Male","approach_avoid_spark_v1","""event"",""trial"",""time""
""fullscreenenter"",""1"",""1575""
""fullscreenexit"",""53"",""262641""
","
","
","""event"",""trial"",""time""
""fullscreenenter"",""1"",""1575""
","""event"",""trial"",""time""
""fullscreenexit"",""53"",""262641""
","","","","","","413.5","images/sofa4.png","","","learning","8","8","1","1","sofa","furniture","2","0","","good","[4]"
"html-keyboard-response","172","597499","0.0-9.0-2.0-0.50","3820","2","12","Male","approach_avoid_spark_v1","""event"",""trial"",""time""
""fullscreenenter"",""1"",""1575""
""fullscreenexit"",""53"",""262641""
","
","
","""event"",""trial"",""time""
""fullscreenenter"",""1"",""1575""
","""event"",""trial"",""time""
""fullscreenexit"",""53"",""262641""
","","","","","","null","<div style=""font-size:60px;"">+</div>","null","","fixation","","","","","","","","","","",""
"aa-learning-trial","173","600503","0.0-9.0-2.0-1.50","3820","2","12","Male","approach_avoid_spark_v1","""event"",""trial"",""time""
""fullscreenenter"",""1"",""1575""
""fullscreenexit"",""53"",""262641""
","
","
","""event"",""trial"",""time""
""fullscreenenter"",""1"",""1575""
","""event"",""trial"",""time""
""fullscreenexit"",""53"",""262641""
","","","","","","345.69999999925494","images/chair3.png","","","learning","-4","-4","1","1","chair","furniture","2","0","","bad","[-3]"
"html-button-response","174","606398","0.0-9.0-3.0","3820","2","12","Male","approach_avoid_spark_v1","""event"",""trial"",""time""
""fullscreenenter"",""1"",""1575""
""fullscreenexit"",""53"",""262641""
","
","
","""event"",""trial"",""time""
""fullscreenenter"",""1"",""1575""
","""event"",""trial"",""time""
""fullscreenexit"",""53"",""262641""
","","","","","","5893.799999999814","<p> You have completed the round! <p> In this round, you earned -22 points! </p>","0","","break","","","","","","","","","","",""
"html-button-response","175","607541","0.0-10.0","3820","2","12","Male","approach_avoid_spark_v1","""event"",""trial"",""time""
""fullscreenenter"",""1"",""1575""
""fullscreenexit"",""53"",""262641""
","
","
","""event"",""trial"",""time""
""fullscreenenter"",""1"",""1575""
","""event"",""trial"",""time""
""fullscreenexit"",""53"",""262641""
","","","","","","1141.2000000001863","<p> Now it's time to play another round. </p>","0","","transition_screen","","","","","","","","","","",""
"preload","176","607662","0.0-11.0-0.0","3820","2","12","Male","approach_avoid_spark_v1","""event"",""trial"",""time""
""fullscreenenter"",""1"",""1575""
""fullscreenexit"",""53"",""262641""
","
","
","""event"",""trial"",""time""
""fullscreenenter"",""1"",""1575""
","""event"",""trial"",""time""
""fullscreenexit"",""53"",""262641""
","true","false","[]","[]","[]","","","","","","","","","","","","","","","",""
"learning-instructions","177","615150","0.0-11.0-1.0-0.0","3820","2","12","Male","approach_avoid_spark_v1","""event"",""trial"",""time""
""fullscreenenter"",""1"",""1575""
""fullscreenexit"",""53"",""262641""
","
","
","""event"",""trial"",""time""
""fullscreenenter"",""1"",""1575""
","""event"",""trial"",""time""
""fullscreenexit"",""53"",""262641""
","","","","","","1811.7000000001863","<p> Your goal in this round is to sell different plants to a picky customer. </p></div>","","0","instructions","","","","","","","","","","",""
"learning-instructions","178","625044","0.0-11.0-1.0-0.1","3820","2","12","Male","approach_avoid_spark_v1","""event"",""trial"",""time""
""fullscreenenter"",""1"",""1575""
""fullscreenexit"",""53"",""262641""
","
","
","""event"",""trial"",""time""
""fullscreenenter"",""1"",""1575""
","""event"",""trial"",""time""
""fullscreenexit"",""53"",""262641""
","","","","","","727","<p> The customer likes some plants and dislikes others.  </p><p> On each turn, you will see a plant.   </p><p> You need to decide whether to offer it to the customer or not.  </p>","","0","instructions","","","","","","","","","","",""
"learning-instructions","179","631666","0.0-11.0-1.0-0.2","3820","2","12","Male","approach_avoid_spark_v1","""event"",""trial"",""time""
""fullscreenenter"",""1"",""1575""
""fullscreenexit"",""53"",""262641""
","
","
","""event"",""trial"",""time""
""fullscreenenter"",""1"",""1575""
","""event"",""trial"",""time""
""fullscreenexit"",""53"",""262641""
","","","","","","1128.7999999998137","<p> You can offer the plant by pressing 1 and decide to not offer it by pressing 0. </p><br><div class=""choice-instructions-grid""> <div class=""choice-option""><img src=""images/approach.png"" class=""choice-option-img"" stage=""instructions"" position=""0"" ><div class=""choice-option-text""> Press ""1."" </div></div><div class=""choice-option""><img src=""images/avoid.png"" class=""choice-option-img"" stage=""instructions"" position=""1"" ><div class=""choice-option-text""> Press ""0."" </div></div>","","0","instructions","","","","","","","","","","",""
"learning-instructions","180","641610","0.0-11.0-1.0-0.3","3820","2","12","Male","approach_avoid_spark_v1","""event"",""trial"",""time""
""fullscreenenter"",""1"",""1575""
""fullscreenexit"",""53"",""262641""
","
","
","""event"",""trial"",""time""
""fullscreenenter"",""1"",""1575""
","""event"",""trial"",""time""
""fullscreenexit"",""53"",""262641""
","","","","","","1153.0999999996275","<p> If you offer a plant to the customer that she likes, she will be very pleased! </p><p> But if you offer a plant that she does NOT like, she will be annoyed. </p>","","0","instructions","","","","","","","","","","",""
"learning-instructions","181","654673","0.0-11.0-1.0-0.4","3820","2","12","Male","approach_avoid_spark_v1","""event"",""trial"",""time""
""fullscreenenter"",""1"",""1575""
""fullscreenexit"",""53"",""262641""
","
","
","""event"",""trial"",""time""
""fullscreenenter"",""1"",""1575""
","""event"",""trial"",""time""
""fullscreenexit"",""53"",""262641""
","","","","","","784.7999999998137","<p> You will earn points based on how you made the customer feel. </p><p> If you made her pleased, you will WIN anywhere from 1 - 9 points, </p><p> but if you made her annoyed, you will LOSE anywhere from 1 - 9 points. </p>","","0","instructions","","","","","","","","","","",""
"learning-instructions","182","665146","0.0-11.0-1.0-0.5","3820","2","12","Male","approach_avoid_spark_v1","""event"",""trial"",""time""
""fullscreenenter"",""1"",""1575""
""fullscreenexit"",""53"",""262641""
","
","
","""event"",""trial"",""time""
""fullscreenenter"",""1"",""1575""
","""event"",""trial"",""time""
""fullscreenexit"",""53"",""262641""
","","","","","","3818.600000000559","<p> You will see how many points you won or lost in the center of the screen. </p><p> Here is what you would see if you won 5 points: </p><p style=""color:green;font-size:50px;font-weight:bolder"">5</p>","","0","instructions","","","","","","","","","","",""
"learning-instructions","183","669298","0.0-11.0-1.0-0.6","3820","2","12","Male","approach_avoid_spark_v1","""event"",""trial"",""time""
""fullscreenenter"",""1"",""1575""
""fullscreenexit"",""53"",""262641""
","
","
","""event"",""trial"",""time""
""fullscreenenter"",""1"",""1575""
","""event"",""trial"",""time""
""fullscreenexit"",""53"",""262641""
","","","","","","1321.1000000005588","<p> And here is what you would see if you lost 3 points: </p><p style=""color:red;font-size:50px;font-weight:bolder"">-3</p>","","0","instructions","","","","","","","","","","",""
"learning-instructions","184","686876","0.0-11.0-1.0-0.7","3820","2","12","Male","approach_avoid_spark_v1","""event"",""trial"",""time""
""fullscreenenter"",""1"",""1575""
""fullscreenexit"",""53"",""262641""
","
","
","""event"",""trial"",""time""
""fullscreenenter"",""1"",""1575""
","""event"",""trial"",""time""
""fullscreenexit"",""53"",""262641""
","","","","","","3018.4000000003725","<p> Some plants will make the customer VERY pleased or annoyed. </p><p> These plants will make you win or lose LOTS of points. </p><p> The customer will have less strong feelings about other plants. </p><p> These plants will make you win or lose small amounts of points. </p>","","0","instructions","","","","","","","","","","",""
"learning-instructions","185","700154","0.0-11.0-1.0-0.8","3820","2","12","Male","approach_avoid_spark_v1","""event"",""trial"",""time""
""fullscreenenter"",""1"",""1575""
""fullscreenexit"",""53"",""262641""
","
","
","""event"",""trial"",""time""
""fullscreenenter"",""1"",""1575""
","""event"",""trial"",""time""
""fullscreenexit"",""53"",""262641""
","","","","","","927","<p> If you choose to not offer the plant to the customer, you will not win or lose any points. </p><p>  However, in the center of the screen, you will see the number of points you WOULD HAVE won or lost if you had offered the plant. </p>","","0","instructions","","","","","","","","","","",""
"learning-instructions","186","712019","0.0-11.0-1.0-0.9","3820","2","12","Male","approach_avoid_spark_v1","""event"",""trial"",""time""
""fullscreenenter"",""1"",""1575""
""fullscreenexit"",""53"",""262641""
","
","
","""event"",""trial"",""time""
""fullscreenenter"",""1"",""1575""
","""event"",""trial"",""time""
""fullscreenexit"",""53"",""262641""
","","","","","","662.4000000003725","<p> Here is what you might see if you did not offer the plant but the customer would have liked it: </p><p style=""color:grey; font-size:50px; display: inline-block; border-spacing: 15px; border-width:3px; border-style:solid; border-color:red"">  &nbsp; 6 &nbsp; </p><p> Remember, in this case, you would not win or lose ANY points because you did not offer the plant.  </p>","","0","instructions","","","","","","","","","","",""
"learning-instructions","187","720644","0.0-11.0-1.0-0.10","3820","2","12","Male","approach_avoid_spark_v1","""event"",""trial"",""time""
""fullscreenenter"",""1"",""1575""
""fullscreenexit"",""53"",""262641""
","
","
","""event"",""trial"",""time""
""fullscreenenter"",""1"",""1575""
","""event"",""trial"",""time""
""fullscreenexit"",""53"",""262641""
","","","","","","1146.7000000001863","<p> Try to make the best choice for each plant because </p><p> at the end of the game, you will earn bonus money based on how many points you earned. </p>","","0","instructions","","","","","","","","","","",""
"learning-instructions","188","731397","0.0-11.0-1.0-0.11","3820","2","12","Male","approach_avoid_spark_v1","""event"",""trial"",""time""
""fullscreenenter"",""1"",""1575""
""fullscreenexit"",""53"",""262641""
","
","
","""event"",""trial"",""time""
""fullscreenenter"",""1"",""1575""
","""event"",""trial"",""time""
""fullscreenexit"",""53"",""262641""
","","","","","","2550.5999999996275","<p> You will have 3 seconds to make each choice. Try to respond before time runs out! </p><p> You will lose 5 points each time you do not make a response. </p>","","0","instructions","","","","","","","","","","",""
"html-keyboard-response","189","732020","0.0-11.0-2.0-0.0","3820","2","12","Male","approach_avoid_spark_v1","""event"",""trial"",""time""
""fullscreenenter"",""1"",""1575""
""fullscreenexit"",""53"",""262641""
","
","
","""event"",""trial"",""time""
""fullscreenenter"",""1"",""1575""
","""event"",""trial"",""time""
""fullscreenexit"",""53"",""262641""
","","","","","","null","<div style=""font-size:60px;"">+</div>","null","","fixation","","","","","","","","","","",""
"aa-learning-trial","190","735024","0.0-11.0-2.0-1.0","3820","2","12","Male","approach_avoid_spark_v1","""event"",""trial"",""time""
""fullscreenenter"",""1"",""1575""
""fullscreenexit"",""53"",""262641""
","
","
","""event"",""trial"",""time""
""fullscreenenter"",""1"",""1575""
","""event"",""trial"",""time""
""fullscreenexit"",""53"",""262641""
","","","","","","2096.7000000001863","images/cactus5.png","","","learning","-8","0","0","0","cactus","plants","1","1","","bad","[-6]"
"html-keyboard-response","191","735528","0.0-11.0-2.0-0.1","3820","2","12","Male","approach_avoid_spark_v1","""event"",""trial"",""time""
""fullscreenenter"",""1"",""1575""
""fullscreenexit"",""53"",""262641""
","
","
","""event"",""trial"",""time""
""fullscreenenter"",""1"",""1575""
","""event"",""trial"",""time""
""fullscreenexit"",""53"",""262641""
","","","","","","null","<div style=""font-size:60px;"">+</div>","null","","fixation","","","","","","","","","","",""
"aa-learning-trial","192","738544","0.0-11.0-2.0-1.1","3820","2","12","Male","approach_avoid_spark_v1","""event"",""trial"",""time""
""fullscreenenter"",""1"",""1575""
""fullscreenexit"",""53"",""262641""
","
","
","""event"",""trial"",""time""
""fullscreenenter"",""1"",""1575""
","""event"",""trial"",""time""
""fullscreenexit"",""53"",""262641""
","","","","","","764.5999999996275","images/cactus1.png","","","learning","-4","-4","1","1","cactus","plants","1","1","","bad","[-6]"
"html-keyboard-response","193","739058","0.0-11.0-2.0-0.2","3820","2","12","Male","approach_avoid_spark_v1","""event"",""trial"",""time""
""fullscreenenter"",""1"",""1575""
""fullscreenexit"",""53"",""262641""
","
","
","""event"",""trial"",""time""
""fullscreenenter"",""1"",""1575""
","""event"",""trial"",""time""
""fullscreenexit"",""53"",""262641""
","","","","","","null","<div style=""font-size:60px;"">+</div>","null","","fixation","","","","","","","","","","",""
"aa-learning-trial","194","742072","0.0-11.0-2.0-1.2","3820","2","12","Male","approach_avoid_spark_v1","""event"",""trial"",""time""
""fullscreenenter"",""1"",""1575""
""fullscreenexit"",""53"",""262641""
","
","
","""event"",""trial"",""time""
""fullscreenenter"",""1"",""1575""
","""event"",""trial"",""time""
""fullscreenexit"",""53"",""262641""
","","","","","","242.5","images/tree1.png","","","learning","7","0","0","0","tree","plants","1","1","","good","[5]"
"html-keyboard-response","195","742590","0.0-11.0-2.0-0.3","3820","2","12","Male","approach_avoid_spark_v1","""event"",""trial"",""time""
""fullscreenenter"",""1"",""1575""
""fullscreenexit"",""53"",""262641""
","
","
","""event"",""trial"",""time""
""fullscreenenter"",""1"",""1575""
","""event"",""trial"",""time""
""fullscreenexit"",""53"",""262641""
","","","","","","null","<div style=""font-size:60px;"">+</div>","null","","fixation","","","","","","","","","","",""
"aa-learning-trial","196","745603","0.0-11.0-2.0-1.3","3820","2","12","Male","approach_avoid_spark_v1","""event"",""trial"",""time""
""fullscreenenter"",""1"",""1575""
""fullscreenexit"",""53"",""262641""
","
","
","""event"",""trial"",""time""
""fullscreenenter"",""1"",""1575""
","""event"",""trial"",""time""
""fullscreenexit"",""53"",""262641""
","","","","","","757.7999999998137","images/flower1.png","","","learning","1","1","1","1","flower","plants","1","1","","neutral","0"
"html-keyboard-response","197","746105","0.0-11.0-2.0-0.4","3820","2","12","Male","approach_avoid_spark_v1","""event"",""trial"",""time""
""fullscreenenter"",""1"",""1575""
""fullscreenexit"",""53"",""262641""
","
","
","""event"",""trial"",""time""
