"trial_type","trial_index","time_elapsed","internal_node_id","subject_id","task_condition","age","gender","task_version","interactions","blur_events","focus_events","fullscreenenter_events","fullscreenexit_events","success","timeout","failed_images","failed_audio","failed_video","rt","stimulus","response","button_pressed","task_part","approach_reward","points","key_press","option_selected","stim_cat","task_block","block_condition","block_number","correct","cat_type","mean_cat_reward"
"pavlovia","0","4","0.0-0.0","3999","2","11","Male","approach_avoid_spark_v1","""event"",""trial"",""time""
""fullscreenenter"",""1"",""1632""
","
","
","""event"",""trial"",""time""
""fullscreenenter"",""1"",""1632""
","
","","","","","","","","","","","","","","","","","","","","",""
"fullscreen","1","2626","0.0-1.0","3999","2","11","Male","approach_avoid_spark_v1","""event"",""trial"",""time""
""fullscreenenter"",""1"",""1632""
","
","
","""event"",""trial"",""time""
""fullscreenenter"",""1"",""1632""
","
","true","","","","","","","","","","","","","","","","","","","",""
"preload","2","15781","0.0-2.0","3999","2","11","Male","approach_avoid_spark_v1","""event"",""trial"",""time""
""fullscreenenter"",""1"",""1632""
","
","
","""event"",""trial"",""time""
""fullscreenenter"",""1"",""1632""
","
","true","false","[]","[]","[]","","","","","","","","","","","","","","","",""
"audio-keyboard-response","3","18624","0.0-3.0","3999","2","11","Male","approach_avoid_spark_v1","""event"",""trial"",""time""
""fullscreenenter"",""1"",""1632""
","
","
","""event"",""trial"",""time""
""fullscreenenter"",""1"",""1632""
","
","","","","","","2837.3333333333335","audio/beep_loop.wav"," ","","","","","","","","","","","","",""
"audio-button-response","4","21138","0.0-4.0","3999","2","11","Male","approach_avoid_spark_v1","""event"",""trial"",""time""
""fullscreenenter"",""1"",""1632""
","
","
","""event"",""trial"",""time""
""fullscreenenter"",""1"",""1632""
","
","","","","","","2512","audio/shark.wav","4","","","","","","","","","","","","",""
"audio-button-response","5","23585","0.0-5.0","3999","2","11","Male","approach_avoid_spark_v1","""event"",""trial"",""time""
""fullscreenenter"",""1"",""1632""
","
","
","""event"",""trial"",""time""
""fullscreenenter"",""1"",""1632""
","
","","","","","","1445","audio/turtle.wav","1","","","","","","","","","","","","",""
"preload","6","27256","0.0-6.0","3999","2","11","Male","approach_avoid_spark_v1","""event"",""trial"",""time""
""fullscreenenter"",""1"",""1632""
","
","
","""event"",""trial"",""time""
""fullscreenenter"",""1"",""1632""
","
","true","false","[]","[]","[]","","","","","","","","","","","","","","","",""
"html-keyboard-response","7","30416","0.0-7.0","3999","2","11","Male","approach_avoid_spark_v1","""event"",""trial"",""time""
""fullscreenenter"",""1"",""1632""
","
","
","""event"",""trial"",""time""
""fullscreenenter"",""1"",""1632""
","
","","","","","","3158.5","Welcome to the experiment. Press any key to begin and to advance the instructions."," ","","","","","","","","","","","","",""
"learning-instructions","8","38370","0.0-8.0-0.0-0.0","3999","2","11","Male","approach_avoid_spark_v1","""event"",""trial"",""time""
""fullscreenenter"",""1"",""1632""
","
","
","""event"",""trial"",""time""
""fullscreenenter"",""1"",""1632""
","
","","","","","","997.0999999940395","<p> Welcome! Today you are going to play 6 different rounds of a decision-making game. </p><p> Use the mouse to click next to continue. </p>","","0","instructions","","","","","","","","","","",""
"learning-instructions","9","41983","0.0-8.0-0.0-0.1","3999","2","11","Male","approach_avoid_spark_v1","""event"",""trial"",""time""
""fullscreenenter"",""1"",""1632""
","
","
","""event"",""trial"",""time""
""fullscreenenter"",""1"",""1632""
","
","","","","","","888.1000000238419","<p> You will start with a practice round to learn the rules. </p>","","0","instructions","","","","","","","","","","",""
"learning-instructions","10","46778","0.0-8.0-0.0-0.2","3999","2","11","Male","approach_avoid_spark_v1","""event"",""trial"",""time""
""fullscreenenter"",""1"",""1632""
","
","
","""event"",""trial"",""time""
""fullscreenenter"",""1"",""1632""
","
","","","","","","1346.6000000238419","<p> Your goal in this round is to give out sports equipment to kids. </p></div>","","0","instructions","","","","","","","","","","",""
"learning-instructions","11","54703","0.0-8.0-0.0-0.3","3999","2","11","Male","approach_avoid_spark_v1","""event"",""trial"",""time""
""fullscreenenter"",""1"",""1632""
","
","
","""event"",""trial"",""time""
""fullscreenenter"",""1"",""1632""
","
","","","","","","376.30000001192093","<p> The kids only like some of the equipment.  </p><p> On each turn, you will see a piece of sports equipment.   </p><p> You need to decide whether to give it to the kids or not.  </p>","","0","instructions","","","","","","","","","","",""
"learning-instructions","12","60455","0.0-8.0-0.0-0.4","3999","2","11","Male","approach_avoid_spark_v1","""event"",""trial"",""time""
""fullscreenenter"",""1"",""1632""
","
","
","""event"",""trial"",""time""
""fullscreenenter"",""1"",""1632""
","
","","","","","","1002.2999999821186","<p> You can give them the equipment by pressing 1 and choose not to give it to them by pressing 0. </p><br><div class=""choice-instructions-grid""> <div class=""choice-option""><img src=""images/approach.png"" class=""choice-option-img"" stage=""instructions"" position=""0"" ><div class=""choice-option-text""> Press ""1."" </div></div><div class=""choice-option""><img src=""images/avoid.png"" class=""choice-option-img"" stage=""instructions"" position=""1"" ><div class=""choice-option-text""> Press ""0."" </div></div>","","0","instructions","","","","","","","","","","",""
"learning-instructions","13","68508","0.0-8.0-0.0-0.5","3999","2","11","Male","approach_avoid_spark_v1","""event"",""trial"",""time""
""fullscreenenter"",""1"",""1632""
","
","
","""event"",""trial"",""time""
""fullscreenenter"",""1"",""1632""
","
","","","","","","671.9000000059605","<p> If you give them a piece of equipment they like, they will be happy! </p><p> But if you give them a piece of equipment they do not like, they will be sad. </p>","","0","instructions","","","","","","","","","","",""
"learning-instructions","14","79728","0.0-8.0-0.0-0.6","3999","2","11","Male","approach_avoid_spark_v1","""event"",""trial"",""time""
""fullscreenenter"",""1"",""1632""
","
","
","""event"",""trial"",""time""
""fullscreenenter"",""1"",""1632""
","
","","","","","","707.1999999880791","<p> You will earn points based on how you make kids feel. </p><p> If you make them happy, you will WIN anywhere from 1 - 9 points, </p><p> but if you make them sad, you will LOSE anywhere from 1 - 9 points. </p>","","0","instructions","","","","","","","","","","",""
"learning-instructions","15","89995","0.0-8.0-0.0-0.7","3999","2","11","Male","approach_avoid_spark_v1","""event"",""trial"",""time""
""fullscreenenter"",""1"",""1632""
","
","
","""event"",""trial"",""time""
""fullscreenenter"",""1"",""1632""
","
","","","","","","700.9000000059605","<p> You will see how many points you won or lost in the center of the screen. </p><p> Here is what you would see if you won 6 points: </p><p style=""color:green;font-size:50px;font-weight:bolder"">6</p><p style=""color:green"">The text is GREEN because you WON points.</p>","","0","instructions","","","","","","","","","","",""
"learning-instructions","16","96112","0.0-8.0-0.0-0.8","3999","2","11","Male","approach_avoid_spark_v1","""event"",""trial"",""time""
""fullscreenenter"",""1"",""1632""
","
","
","""event"",""trial"",""time""
""fullscreenenter"",""1"",""1632""
","
","","","","","","610.5999999940395","<p> And here is what you would see if you lost 4 points: </p><p style=""color:red;font-size:50px;font-weight:bolder"">-4</p><p style=""color:red"">The text is RED because you LOST points. </p>","","0","instructions","","","","","","","","","","",""
"learning-instructions","17","111217","0.0-8.0-0.0-0.9","3999","2","11","Male","approach_avoid_spark_v1","""event"",""trial"",""time""
""fullscreenenter"",""1"",""1632""
","
","
","""event"",""trial"",""time""
""fullscreenenter"",""1"",""1632""
","
","","","","","","391.80000001192093","<p> Some of the equipment will make the kids VERY happy or sad. </p><p> These pieces of equipment will make you win or lose LOTS of points. </p><p> Other pieces of equipment will only make the kids a little happy or sad. </p><p> These pieces of equipment will make you win or lose small amounts of points. </p>","","0","instructions","","","","","","","","","","",""
"learning-instructions","18","122405","0.0-8.0-0.0-0.10","3999","2","11","Male","approach_avoid_spark_v1","""event"",""trial"",""time""
""fullscreenenter"",""1"",""1632""
","
","
","""event"",""trial"",""time""
""fullscreenenter"",""1"",""1632""
","
","","","","","","561.5","<p> If you choose not to give them the equipment, you will not win or lose any points. </p><p>  However, in the center of the screen, you will see the number of points you WOULD HAVE won or lost if you had given them the equipment. </p>","","0","instructions","","","","","","","","","","",""
"learning-instructions","19","144477","0.0-8.0-0.0-0.11","3999","2","11","Male","approach_avoid_spark_v1","""event"",""trial"",""time""
""fullscreenenter"",""1"",""1632""
","
","
","""event"",""trial"",""time""
""fullscreenenter"",""1"",""1632""
","
","","","","","","542.2999999821186","<p> Here is what you might see if you did not give the equipment to the kids but it would have made them happy: </p><p style=""color:grey; font-size:50px; display: inline-block; border-spacing: 15px; border-width:3px; border-style:solid; border-color:red"">  &nbsp; 7 &nbsp; </p><p> Remember, in this case, you would not win or lose ANY points because you did not give them the equipment.  </p><p style=""color:grey"">The text is GREY because you earned ZERO points. </p><p style=""color:red"">However, choosing to give the kids the equipment would have made you win points. The box around the text is RED because you chose the worse option. </p>","","0","instructions","","","","","","","","","","",""
"learning-instructions","20","166660","0.0-8.0-0.0-0.12","3999","2","11","Male","approach_avoid_spark_v1","""event"",""trial"",""time""
""fullscreenenter"",""1"",""1632""
","
","
","""event"",""trial"",""time""
""fullscreenenter"",""1"",""1632""
","
","","","","","","1110.199999988079","<p> Here is what you might see if you did not give the equipment to the kids but it would have made them sad: </p><p style=""color:grey;font-size:50px; display: inline-block; border-spacing: 15px; border-width:3px; border-style:solid; border-color:green"">  &nbsp; -8 &nbsp; </p><p> Remember, in this case, you would not win or lose ANY points because you did not give them the equipment.  </p><p style=""color:grey"">The text is GREY because you earned ZERO points. </p><p  style=""color:green""> Choosing to give the kids the equipment would have made you lose points. The box around the text is GREEN because you chose the better option.</p>","","0","instructions","","","","","","","","","","",""
"learning-instructions","21","176561","0.0-8.0-0.0-0.13","3999","2","11","Male","approach_avoid_spark_v1","""event"",""trial"",""time""
""fullscreenenter"",""1"",""1632""
","
","
","""event"",""trial"",""time""
""fullscreenenter"",""1"",""1632""
","
","","","","","","1090.2000000178814","<p> You will have 3 seconds to make each choice. Try to respond before time runs out! </p><p> You will lose 5 points each time you do not make a response. </p>","","0","instructions","","","","","","","","","","",""
"learning-instructions","22","183326","0.0-8.0-0.0-0.14","3999","2","11","Male","approach_avoid_spark_v1","""event"",""trial"",""time""
""fullscreenenter"",""1"",""1632""
","
","
","""event"",""trial"",""time""
""fullscreenenter"",""1"",""1632""
","
","","","","","","1354.699999988079","<p> This is just a practice round, but in the real game, your bonus payment will depend on your total number of points.","","0","instructions","","","","","","","","","","",""
"learning-instructions","23","190134","0.0-8.0-0.0-0.15","3999","2","11","Male","approach_avoid_spark_v1","""event"",""trial"",""time""
""fullscreenenter"",""1"",""1632""
","
","
","""event"",""trial"",""time""
""fullscreenenter"",""1"",""1632""
","
","","","","","","1044.800000011921","<p> Remember, you can give them the equipment by pressing 1 and choose not to give it to them by pressing 0. </p><br><div class=""choice-instructions-grid""> <div class=""choice-option""><img src=""images/approach.png"" class=""choice-option-img"" stage=""instructions"" position=""0"" ><div class=""choice-option-text""> Press ""1."" </div></div><div class=""choice-option""><img src=""images/avoid.png"" class=""choice-option-img"" stage=""instructions"" position=""1"" ><div class=""choice-option-text""> Press ""0."" </div></div>","","0","instructions","","","","","","","","","","",""
"html-button-response","24","191781","0.0-8.0-1.0","3999","2","11","Male","approach_avoid_spark_v1","""event"",""trial"",""time""
""fullscreenenter"",""1"",""1632""
","
","
","""event"",""trial"",""time""
""fullscreenenter"",""1"",""1632""
","
","","","","","","1541.699999988079","<p> Ready to practice? </p>","0","","","","","","","","","","","","",""
"html-keyboard-response","25","192387","0.0-8.0-2.0-0.0","3999","2","11","Male","approach_avoid_spark_v1","""event"",""trial"",""time""
""fullscreenenter"",""1"",""1632""
","
","
","""event"",""trial"",""time""
""fullscreenenter"",""1"",""1632""
","
","","","","","","null","<div style=""font-size:60px;"">+</div>","null","","fixation","","","","","","","","","","",""
"aa-learning-trial","26","195395","0.0-8.0-2.0-1.0","3999","2","11","Male","approach_avoid_spark_v1","""event"",""trial"",""time""
""fullscreenenter"",""1"",""1632""
","
","
","""event"",""trial"",""time""
""fullscreenenter"",""1"",""1632""
","
","","","","","","1276.4000000059605","images/racket1.png","","","learning","9","0","0","0","practice","practice","practice","-1","","",""
"html-keyboard-response","27","195901","0.0-8.0-2.0-0.1","3999","2","11","Male","approach_avoid_spark_v1","""event"",""trial"",""time""
""fullscreenenter"",""1"",""1632""
","
","
","""event"",""trial"",""time""
""fullscreenenter"",""1"",""1632""
","
","","","","","","null","<div style=""font-size:60px;"">+</div>","null","","fixation","","","","","","","","","","",""
"aa-learning-trial","28","198910","0.0-8.0-2.0-1.1","3999","2","11","Male","approach_avoid_spark_v1","""event"",""trial"",""time""
""fullscreenenter"",""1"",""1632""
","
","
","""event"",""trial"",""time""
""fullscreenenter"",""1"",""1632""
","
","","","","","","1093.300000011921","images/ball4.png","","","learning","-7","-7","1","1","practice","practice","practice","-1","","",""
"html-keyboard-response","29","199411","0.0-8.0-2.0-0.2","3999","2","11","Male","approach_avoid_spark_v1","""event"",""trial"",""time""
""fullscreenenter"",""1"",""1632""
","
","
","""event"",""trial"",""time""
""fullscreenenter"",""1"",""1632""
","
","","","","","","null","<div style=""font-size:60px;"">+</div>","null","","fixation","","","","","","","","","","",""
"aa-learning-trial","30","202419","0.0-8.0-2.0-1.2","3999","2","11","Male","approach_avoid_spark_v1","""event"",""trial"",""time""
""fullscreenenter"",""1"",""1632""
","
","
","""event"",""trial"",""time""
""fullscreenenter"",""1"",""1632""
","
","","","","","","1193.699999988079","images/racket3.png","","","learning","-9","-9","1","1","practice","practice","practice","-1","","",""
"html-keyboard-response","31","202925","0.0-8.0-2.0-0.3","3999","2","11","Male","approach_avoid_spark_v1","""event"",""trial"",""time""
""fullscreenenter"",""1"",""1632""
","
","
","""event"",""trial"",""time""
""fullscreenenter"",""1"",""1632""
","
","","","","","","null","<div style=""font-size:60px;"">+</div>","null","","fixation","","","","","","","","","","",""
"aa-learning-trial","32","205934","0.0-8.0-2.0-1.3","3999","2","11","Male","approach_avoid_spark_v1","""event"",""trial"",""time""
""fullscreenenter"",""1"",""1632""
","
","
","""event"",""trial"",""time""
""fullscreenenter"",""1"",""1632""
","
","","","","","","1283.5999999940395","images/racket2.png","","","learning","6","0","0","0","practice","practice","practice","-1","","",""
"html-keyboard-response","33","206440","0.0-8.0-2.0-0.4","3999","2","11","Male","approach_avoid_spark_v1","""event"",""trial"",""time""
""fullscreenenter"",""1"",""1632""
","
","
","""event"",""trial"",""time""
""fullscreenenter"",""1"",""1632""
","
","","","","","","null","<div style=""font-size:60px;"">+</div>","null","","fixation","","","","","","","","","","",""
"aa-learning-trial","34","209443","0.0-8.0-2.0-1.4","3999","2","11","Male","approach_avoid_spark_v1","""event"",""trial"",""time""
""fullscreenenter"",""1"",""1632""
","
","
","""event"",""trial"",""time""
""fullscreenenter"",""1"",""1632""
","
","","","","","","978.0999999940395","images/racket4.png","","","learning","1","0","0","0","practice","practice","practice","-1","","",""
"html-keyboard-response","35","209949","0.0-8.0-2.0-0.5","3999","2","11","Male","approach_avoid_spark_v1","""event"",""trial"",""time""
""fullscreenenter"",""1"",""1632""
","
","
","""event"",""trial"",""time""
""fullscreenenter"",""1"",""1632""
","
","","","","","","null","<div style=""font-size:60px;"">+</div>","null","","fixation","","","","","","","","","","",""
"aa-learning-trial","36","212958","0.0-8.0-2.0-1.5","3999","2","11","Male","approach_avoid_spark_v1","""event"",""trial"",""time""
""fullscreenenter"",""1"",""1632""
","
","
","""event"",""trial"",""time""
""fullscreenenter"",""1"",""1632""
","
","","","","","","1116.6000000238419","images/racket3.png","","","learning","-2","0","0","0","practice","practice","practice","-1","","",""
"html-keyboard-response","37","213459","0.0-8.0-2.0-0.6","3999","2","11","Male","approach_avoid_spark_v1","""event"",""trial"",""time""
""fullscreenenter"",""1"",""1632""
","
","
","""event"",""trial"",""time""
""fullscreenenter"",""1"",""1632""
","
","","","","","","null","<div style=""font-size:60px;"">+</div>","null","","fixation","","","","","","","","","","",""
"aa-learning-trial","38","216467","0.0-8.0-2.0-1.6","3999","2","11","Male","approach_avoid_spark_v1","""event"",""trial"",""time""
""fullscreenenter"",""1"",""1632""
","
","
","""event"",""trial"",""time""
""fullscreenenter"",""1"",""1632""
","
","","","","","","1242","images/racket2.png","","","learning","-3","-3","1","1","practice","practice","practice","-1","","",""
"html-keyboard-response","39","216974","0.0-8.0-2.0-0.7","3999","2","11","Male","approach_avoid_spark_v1","""event"",""trial"",""time""
""fullscreenenter"",""1"",""1632""
","
","
","""event"",""trial"",""time""
""fullscreenenter"",""1"",""1632""
","
","","","","","","null","<div style=""font-size:60px;"">+</div>","null","","fixation","","","","","","","","","","",""
"aa-learning-trial","40","219978","0.0-8.0-2.0-1.7","3999","2","11","Male","approach_avoid_spark_v1","""event"",""trial"",""time""
""fullscreenenter"",""1"",""1632""
","
","
","""event"",""trial"",""time""
""fullscreenenter"",""1"",""1632""
","
","","","","","","1142.800000011921","images/ball4.png","","","learning","5","5","1","1","practice","practice","practice","-1","","",""
"html-keyboard-response","41","220479","0.0-8.0-2.0-0.8","3999","2","11","Male","approach_avoid_spark_v1","""event"",""trial"",""time""
""fullscreenenter"",""1"",""1632""
","
","
","""event"",""trial"",""time""
""fullscreenenter"",""1"",""1632""
","
","","","","","","null","<div style=""font-size:60px;"">+</div>","null","","fixation","","","","","","","","","","",""
"aa-learning-trial","42","223482","0.0-8.0-2.0-1.8","3999","2","11","Male","approach_avoid_spark_v1","""event"",""trial"",""time""
""fullscreenenter"",""1"",""1632""
","
","
","""event"",""trial"",""time""
""fullscreenenter"",""1"",""1632""
","
","","","","","","1118.5999999940395","images/ball3.png","","","learning","-7","-7","1","1","practice","practice","practice","-1","","",""
"html-keyboard-response","43","223989","0.0-8.0-2.0-0.9","3999","2","11","Male","approach_avoid_spark_v1","""event"",""trial"",""time""
""fullscreenenter"",""1"",""1632""
","
","
","""event"",""trial"",""time""
""fullscreenenter"",""1"",""1632""
","
","","","","","","null","<div style=""font-size:60px;"">+</div>","null","","fixation","","","","","","","","","","",""
"aa-learning-trial","44","226997","0.0-8.0-2.0-1.9","3999","2","11","Male","approach_avoid_spark_v1","""event"",""trial"",""time""
""fullscreenenter"",""1"",""1632""
","
","
","""event"",""trial"",""time""
""fullscreenenter"",""1"",""1632""
","
","","","","","","1257.2000000178814","images/ball2.png","","","learning","-7","-7","1","1","practice","practice","practice","-1","","",""
"html-keyboard-response","45","227499","0.0-8.0-2.0-0.10","3999","2","11","Male","approach_avoid_spark_v1","""event"",""trial"",""time""
""fullscreenenter"",""1"",""1632""
","
","
","""event"",""trial"",""time""
""fullscreenenter"",""1"",""1632""
","
","","","","","","null","<div style=""font-size:60px;"">+</div>","null","","fixation","","","","","","","","","","",""
"aa-learning-trial","46","230507","0.0-8.0-2.0-1.10","3999","2","11","Male","approach_avoid_spark_v1","""event"",""trial"",""time""
""fullscreenenter"",""1"",""1632""
","
","
","""event"",""trial"",""time""
""fullscreenenter"",""1"",""1632""
","
","","","","","","1011.6999999880791","images/ball3.png","","","learning","-9","0","0","0","practice","practice","practice","-1","","",""
"html-keyboard-response","47","231009","0.0-8.0-2.0-0.11","3999","2","11","Male","approach_avoid_spark_v1","""event"",""trial"",""time""
""fullscreenenter"",""1"",""1632""
","
","
","""event"",""trial"",""time""
""fullscreenenter"",""1"",""1632""
","
","","","","","","null","<div style=""font-size:60px;"">+</div>","null","","fixation","","","","","","","","","","",""
"aa-learning-trial","48","234015","0.0-8.0-2.0-1.11","3999","2","11","Male","approach_avoid_spark_v1","""event"",""trial"",""time""
""fullscreenenter"",""1"",""1632""
","
","
","""event"",""trial"",""time""
""fullscreenenter"",""1"",""1632""
","
","","","","","","1073.199999988079","images/ball1.png","","","learning","8","8","1","1","practice","practice","practice","-1","","",""
"html-button-response","49","235662","0.0-8.0-3.0","3999","2","11","Male","approach_avoid_spark_v1","""event"",""trial"",""time""
""fullscreenenter"",""1"",""1632""
","
","
","""event"",""trial"",""time""
""fullscreenenter"",""1"",""1632""
","
","","","","","","1644.300000011921","<p> You earned -20 points in the practice round! </p>","0","","break","","","","","","","","","","",""
"learning-instructions","50","243130","0.0-8.0-4.0-0.0","3999","2","11","Male","approach_avoid_spark_v1","""event"",""trial"",""time""
""fullscreenenter"",""1"",""1632""
","
","
","""event"",""trial"",""time""
""fullscreenenter"",""1"",""1632""
","
","","","","","","1467.5999999940395","<p> It's almost time to start the real game. </p><p> Before you start, we're going to ask you a few questions about how the game works. </p>","","0","instructions","","","","","","","","","","",""
"preload","51","244386","0.0-8.0-5.0","3999","2","11","Male","approach_avoid_spark_v1","""event"",""trial"",""time""
""fullscreenenter"",""1"",""1632""
","
","
","""event"",""trial"",""time""
""fullscreenenter"",""1"",""1632""
","
","true","false","[]","[]","[]","","","","","","","","","","","","","","","",""
"comp-q","52","250324","0.0-8.0-6.0-0.0","3999","2","11","Male","approach_avoid_spark_v1","""event"",""trial"",""time""
""fullscreenenter"",""1"",""1632""
","
","
","""event"",""trial"",""time""
""fullscreenenter"",""1"",""1632""
","
","","","","","","939","<p> <b> True or False? </b> </p><p> If you see a number in GREY, that means you earned that many points. </p>","","1","comp_question","","","","","","","","","true","",""
"comp-q","53","259644","0.0-8.0-6.0-1.0","3999","2","11","Male","approach_avoid_spark_v1","""event"",""trial"",""time""
""fullscreenenter"",""1"",""1632""
","
","
","""event"",""trial"",""time""
""fullscreenenter"",""1"",""1632""
","
","","","","","","962.6000000238419","<p><b> That's right! </b> If you see a grey number, it means you earned ZERO points. <br> The grey numbers show the points you WOULD HAVE earned if you had made the other choice. </p>","","0","comp_answer","","","","","","","","","","",""
"comp-q","54","264868","0.0-8.0-7.0-0.0","3999","2","11","Male","approach_avoid_spark_v1","""event"",""trial"",""time""
""fullscreenenter"",""1"",""1632""
","
","
","""event"",""trial"",""time""
""fullscreenenter"",""1"",""1632""
","
","","","","","","533.5","<p> <b> True or False? </b> </p><p> You will have as much time as you want to make each choice. </p>","","1","comp_question","","","","","","","","","true","",""
"comp-q","55","270097","0.0-8.0-7.0-1.0","3999","2","11","Male","approach_avoid_spark_v1","""event"",""trial"",""time""
""fullscreenenter"",""1"",""1632""
","
","
","""event"",""trial"",""time""
""fullscreenenter"",""1"",""1632""
","
","","","","","","1191.9000000059605","<p> <b> That's right! </b> You will only have 3 seconds to make each choice. </p>","","0","comp_answer","","","","","","","","","","",""
"comp-q","56","275232","0.0-8.0-8.0-0.0","3999","2","11","Male","approach_avoid_spark_v1","""event"",""trial"",""time""
""fullscreenenter"",""1"",""1632""
","
","
","""event"",""trial"",""time""
""fullscreenenter"",""1"",""1632""
","
","","","","","","475.69999998807907","<p> <b> True or False? </b> </p><p> You should use the '1' and '0' keys to make your choices. </p>","","0","comp_question","","","","","","","","","true","",""
"comp-q","57","281473","0.0-8.0-8.0-1.0","3999","2","11","Male","approach_avoid_spark_v1","""event"",""trial"",""time""
""fullscreenenter"",""1"",""1632""
","
","
","""event"",""trial"",""time""
""fullscreenenter"",""1"",""1632""
","
","","","","","","1634.4000000059605","<p> <b> That's right! </b> You should use the '1' and '0' keys to make each choice. </p>","","0","comp_answer","","","","","","","","","","",""
"learning-instructions","58","289227","0.0-8.0-9.0-0.0","3999","2","11","Male","approach_avoid_spark_v1","""event"",""trial"",""time""
""fullscreenenter"",""1"",""1632""
","
","
","""event"",""trial"",""time""
""fullscreenenter"",""1"",""1632""
","
","","","","","","1483.0999999940395","<p> It's now time to start the real game. </p>Do your best, because the points you earn in the next rounds will influence your bonus payment. </p>","","0","instructions","","","","","","","","","","",""
"preload","59","289352","0.0-9.0-0.0","3999","2","11","Male","approach_avoid_spark_v1","""event"",""trial"",""time""
""fullscreenenter"",""1"",""1632""
","
","
","""event"",""trial"",""time""
""fullscreenenter"",""1"",""1632""
","
","true","false","[]","[]","[]","","","","","","","","","","","","","","","",""
"learning-instructions","60","293733","0.0-9.0-1.0-0.0","3999","2","11","Male","approach_avoid_spark_v1","""event"",""trial"",""time""
""fullscreenenter"",""1"",""1632""
","
","
","""event"",""trial"",""time""
""fullscreenenter"",""1"",""1632""
","
","","","","","","1308.4000000059605","<p> Your goal in this round is to eat tasty fruit. </p></div>","","0","instructions","","","","","","","","","","",""
"learning-instructions","61","304775","0.0-9.0-1.0-0.1","3999","2","11","Male","approach_avoid_spark_v1","""event"",""trial"",""time""
""fullscreenenter"",""1"",""1632""
","
","
","""event"",""trial"",""time""
""fullscreenenter"",""1"",""1632""
","
","","","","","","1650.4000000059605","<p> Some of the fruits you will see are tasty. Others are rotten on the inside.  </p><p> On each turn, you will see a fruit.   </p><p> You need to decide whether to eat it or not.  </p>","","0","instructions","","","","","","","","","","",""
"learning-instructions","62","311240","0.0-9.0-1.0-0.2","3999","2","11","Male","approach_avoid_spark_v1","""event"",""trial"",""time""
""fullscreenenter"",""1"",""1632""
","
","
","""event"",""trial"",""time""
""fullscreenenter"",""1"",""1632""
","
","","","","","","1757.199999988079","<p> You can eat the fruit by pressing 1 and choose not to eat it by pressing 0. </p><br><div class=""choice-instructions-grid""> <div class=""choice-option""><img src=""images/approach.png"" class=""choice-option-img"" stage=""instructions"" position=""0"" ><div class=""choice-option-text""> Press ""1."" </div></div><div class=""choice-option""><img src=""images/avoid.png"" class=""choice-option-img"" stage=""instructions"" position=""1"" ><div class=""choice-option-text""> Press ""0."" </div></div>","","0","instructions","","","","","","","","","","",""
"learning-instructions","63","319166","0.0-9.0-1.0-0.3","3999","2","11","Male","approach_avoid_spark_v1","""event"",""trial"",""time""
""fullscreenenter"",""1"",""1632""
","
","
","""event"",""trial"",""time""
""fullscreenenter"",""1"",""1632""
","
","","","","","","836.5","<p> If you eat the fruit and it was tasty, you will win points! </p><p> But if you eat the fruit and it was rotten, you will lose points. </p>","","0","instructions","","","","","","","","","","",""
"learning-instructions","64","331322","0.0-9.0-1.0-0.4","3999","2","11","Male","approach_avoid_spark_v1","""event"",""trial"",""time""
""fullscreenenter"",""1"",""1632""
","
","
","""event"",""trial"",""time""
""fullscreenenter"",""1"",""1632""
","
","","","","","","1130.5999999940395","<p> You will earn points based on how tasty or rotten the fruit was. </p><p> If it was tasty, you will WIN anywhere from 1 - 9 points, </p><p> but if it was rotten, you will LOSE anywhere from 1 - 9 points. </p>","","0","instructions","","","","","","","","","","",""
"learning-instructions","65","339963","0.0-9.0-1.0-0.5","3999","2","11","Male","approach_avoid_spark_v1","""event"",""trial"",""time""
""fullscreenenter"",""1"",""1632""
","
","
","""event"",""trial"",""time""
""fullscreenenter"",""1"",""1632""
","
","","","","","","1355.5999999940395","<p> You will see how many points you won or lost in the center of the screen. </p><p> Here is what you would see if you earned 5 points: </p><p style=""color:green;font-size:50px;font-weight:bolder"">5</p>","","0","instructions","","","","","","","","","","",""
"learning-instructions","66","343916","0.0-9.0-1.0-0.6","3999","2","11","Male","approach_avoid_spark_v1","""event"",""trial"",""time""
""fullscreenenter"",""1"",""1632""
","
","
","""event"",""trial"",""time""
""fullscreenenter"",""1"",""1632""
","
","","","","","","683.8999999761581","<p> And here is what you would see if you lost 3 points: </p><p style=""color:red;font-size:50px;font-weight:bolder"">-3</p>","","0","instructions","","","","","","","","","","",""
"learning-instructions","67","359078","0.0-9.0-1.0-0.7","3999","2","11","Male","approach_avoid_spark_v1","""event"",""trial"",""time""
""fullscreenenter"",""1"",""1632""
","
","
","""event"",""trial"",""time""
""fullscreenenter"",""1"",""1632""
","
","","","","","","1782.300000011921","<p> Some fruit is very tasty or very rotten. </p><p> These fruits will make you win or lose LOTS of points. </p><p> Other fruits are only kind of tasty or kind of rotten. </p><p> These fruits will make you win or lose small amounts of points. </p>","","0","instructions","","","","","","","","","","",""
"learning-instructions","68","372918","0.0-9.0-1.0-0.8","3999","2","11","Male","approach_avoid_spark_v1","""event"",""trial"",""time""
""fullscreenenter"",""1"",""1632""
","
","
","""event"",""trial"",""time""
""fullscreenenter"",""1"",""1632""
","
","","","","","","3713.2999999821186","<p> If you choose to not eat the fruit, you will not win or lose any points. </p><p>  However, in the center of the screen, you will see the number of points you WOULD HAVE earned if you had eaten the fruit. </p>","","0","instructions","","","","","","","","","","",""
"learning-instructions","69","384091","0.0-9.0-1.0-0.9","3999","2","11","Male","approach_avoid_spark_v1","""event"",""trial"",""time""
""fullscreenenter"",""1"",""1632""
","
","
","""event"",""trial"",""time""
""fullscreenenter"",""1"",""1632""
","
","","","","","","1632.199999988079","<p> Here is what you might see if you did not eat the fruit but the fruit was tasty: </p><p style=""color:grey; font-size:50px; display: inline-block; border-spacing: 15px; border-width:3px; border-style:solid; border-color:red"">  &nbsp; 6 &nbsp; </p><p> Remember, in this case, you would not win or lose ANY points because you did not eat the fruit.  </p>","","0","instructions","","","","","","","","","","",""
"learning-instructions","70","393866","0.0-9.0-1.0-0.10","3999","2","11","Male","approach_avoid_spark_v1","""event"",""trial"",""time""
""fullscreenenter"",""1"",""1632""
","
","
","""event"",""trial"",""time""
""fullscreenenter"",""1"",""1632""
","
","","","","","","2186","<p> Try to make the best choice for each fruit because </p><p> at the end of the game, you will earn bonus money based on how many points you earned. </p>","","0","instructions","","","","","","","","","","",""
"learning-instructions","71","403551","0.0-9.0-1.0-0.11","3999","2","11","Male","approach_avoid_spark_v1","""event"",""trial"",""time""
""fullscreenenter"",""1"",""1632""
","
","
","""event"",""trial"",""time""
""fullscreenenter"",""1"",""1632""
","
","","","","","","1497.5","<p> You will have 3 seconds to make each choice. Try to respond before time runs out! </p><p> You will lose 5 points each time you do not make a response. </p>","","0","instructions","","","","","","","","","","",""
"html-keyboard-response","72","404159","0.0-9.0-2.0-0.0","3999","2","11","Male","approach_avoid_spark_v1","""event"",""trial"",""time""
""fullscreenenter"",""1"",""1632""
","
","
","""event"",""trial"",""time""
""fullscreenenter"",""1"",""1632""
","
","","","","","","null","<div style=""font-size:60px;"">+</div>","null","","fixation","","","","","","","","","","",""
"aa-learning-trial","73","407166","0.0-9.0-2.0-1.0","3999","2","11","Male","approach_avoid_spark_v1","""event"",""trial"",""time""
""fullscreenenter"",""1"",""1632""
","
","
","""event"",""trial"",""time""
""fullscreenenter"",""1"",""1632""
","
","","","","","","1446.699999988079","images/orange6.png","","","learning","8","8","1","1","orange","fruit","2","0","","bad","[-6]"
"html-keyboard-response","74","407670","0.0-9.0-2.0-0.1","3999","2","11","Male","approach_avoid_spark_v1","""event"",""trial"",""time""
""fullscreenenter"",""1"",""1632""
","
","
","""event"",""trial"",""time""
""fullscreenenter"",""1"",""1632""
","
","","","","","","null","<div style=""font-size:60px;"">+</div>","null","","fixation","","","","","","","","","","",""
"aa-learning-trial","75","410677","0.0-9.0-2.0-1.1","3999","2","11","Male","approach_avoid_spark_v1","""event"",""trial"",""time""
""fullscreenenter"",""1"",""1632""
","
","
","""event"",""trial"",""time""
""fullscreenenter"",""1"",""1632""
","
","","","","","","1092.7999999821186","images/orange7.png","","","learning","-9","0","0","0","orange","fruit","2","0","","bad","[-6]"
"html-keyboard-response","76","411183","0.0-9.0-2.0-0.2","3999","2","11","Male","approach_avoid_spark_v1","""event"",""trial"",""time""
""fullscreenenter"",""1"",""1632""
","
","
","""event"",""trial"",""time""
""fullscreenenter"",""1"",""1632""
","
","","","","","","null","<div style=""font-size:60px;"">+</div>","null","","fixation","","","","","","","","","","",""
"aa-learning-trial","77","414187","0.0-9.0-2.0-1.2","3999","2","11","Male","approach_avoid_spark_v1","""event"",""trial"",""time""
""fullscreenenter"",""1"",""1632""
","
","
","""event"",""trial"",""time""
""fullscreenenter"",""1"",""1632""
","
","","","","","","718.3000000119209","images/banana5.png","","","learning","3","0","0","0","banana","fruit","2","0","","neutral","0"
"html-keyboard-response","78","414692","0.0-9.0-2.0-0.3","3999","2","11","Male","approach_avoid_spark_v1","""event"",""trial"",""time""
""fullscreenenter"",""1"",""1632""
","
","
","""event"",""trial"",""time""
""fullscreenenter"",""1"",""1632""
","
","","","","","","null","<div style=""font-size:60px;"">+</div>","null","","fixation","","","","","","","","","","",""
"aa-learning-trial","79","417700","0.0-9.0-2.0-1.3","3999","2","11","Male","approach_avoid_spark_v1","""event"",""trial"",""time""
""fullscreenenter"",""1"",""1632""
","
","
","""event"",""trial"",""time""
""fullscreenenter"",""1"",""1632""
","
","","","","","","1494.2999999821186","images/banana6.png","","","learning","6","6","1","1","banana","fruit","2","0","","neutral","0"
"html-keyboard-response","80","418202","0.0-9.0-2.0-0.4","3999","2","11","Male","approach_avoid_spark_v1","""event"",""trial"",""time""
""fullscreenenter"",""1"",""1632""
","
","
","""event"",""trial"",""time""
""fullscreenenter"",""1"",""1632""
","
","","","","","","null","<div style=""font-size:60px;"">+</div>","null","","fixation","","","","","","","","","","",""
"aa-learning-trial","81","421210","0.0-9.0-2.0-1.4","3999","2","11","Male","approach_avoid_spark_v1","""event"",""trial"",""time""
""fullscreenenter"",""1"",""1632""
","
","
","""event"",""trial"",""time""
""fullscreenenter"",""1"",""1632""
","
","","","","","","1092.699999988079","images/straw7.png","","","learning","5","5","1","1","straw","fruit","2","0","","good","[3]"
"html-keyboard-response","82","421716","0.0-9.0-2.0-0.5","3999","2","11","Male","approach_avoid_spark_v1","""event"",""trial"",""time""
""fullscreenenter"",""1"",""1632""
","
","
","""event"",""trial"",""time""
""fullscreenenter"",""1"",""1632""
","
","","","","","","null","<div style=""font-size:60px;"">+</div>","null","","fixation","","","","","","","","","","",""
"aa-learning-trial","83","424720","0.0-9.0-2.0-1.5","3999","2","11","Male","approach_avoid_spark_v1","""event"",""trial"",""time""
""fullscreenenter"",""1"",""1632""
","
","
","""event"",""trial"",""time""
""fullscreenenter"",""1"",""1632""
","
","","","","","","1135.300000011921","images/straw8.png","","","learning","9","0","0","0","straw","fruit","2","0","","good","[3]"
"html-keyboard-response","84","425226","0.0-9.0-2.0-0.6","3999","2","11","Male","approach_avoid_spark_v1","""event"",""trial"",""time""
""fullscreenenter"",""1"",""1632""
","
","
","""event"",""trial"",""time""
""fullscreenenter"",""1"",""1632""
","
","","","","","","null","<div style=""font-size:60px;"">+</div>","null","","fixation","","","","","","","","","","",""
"aa-learning-trial","85","428234","0.0-9.0-2.0-1.6","3999","2","11","Male","approach_avoid_spark_v1","""event"",""trial"",""time""
""fullscreenenter"",""1"",""1632""
","
","
","""event"",""trial"",""time""
""fullscreenenter"",""1"",""1632""
","
","","","","","","834.0999999940395","images/orange6.png","","","learning","8","0","0","0","orange","fruit","2","0","","bad","[-6]"
"html-keyboard-response","86","428740","0.0-9.0-2.0-0.7","3999","2","11","Male","approach_avoid_spark_v1","""event"",""trial"",""time""
""fullscreenenter"",""1"",""1632""
","
","
","""event"",""trial"",""time""
""fullscreenenter"",""1"",""1632""
","
","","","","","","null","<div style=""font-size:60px;"">+</div>","null","","fixation","","","","","","","","","","",""
"aa-learning-trial","87","431749","0.0-9.0-2.0-1.7","3999","2","11","Male","approach_avoid_spark_v1","""event"",""trial"",""time""
""fullscreenenter"",""1"",""1632""
","
","
","""event"",""trial"",""time""
""fullscreenenter"",""1"",""1632""
","
","","","","","","754.8000000119209","images/banana4.png","","","learning","2","0","0","0","banana","fruit","2","0","","neutral","0"
"html-keyboard-response","88","432251","0.0-9.0-2.0-0.8","3999","2","11","Male","approach_avoid_spark_v1","""event"",""trial"",""time""
""fullscreenenter"",""1"",""1632""
","
","
","""event"",""trial"",""time""
""fullscreenenter"",""1"",""1632""
","
","","","","","","null","<div style=""font-size:60px;"">+</div>","null","","fixation","","","","","","","","","","",""
"aa-learning-trial","89","435259","0.0-9.0-2.0-1.8","3999","2","11","Male","approach_avoid_spark_v1","""event"",""trial"",""time""
""fullscreenenter"",""1"",""1632""
","
","
","""event"",""trial"",""time""
""fullscreenenter"",""1"",""1632""
","
","","","","","","852.8000000119209","images/straw8.png","","","learning","9","0","0","0","straw","fruit","2","0","","good","[3]"
"html-keyboard-response","90","435766","0.0-9.0-2.0-0.9","3999","2","11","Male","approach_avoid_spark_v1","""event"",""trial"",""time""
""fullscreenenter"",""1"",""1632""
","
","
","""event"",""trial"",""time""
""fullscreenenter"",""1"",""1632""
","
","","","","","","null","<div style=""font-size:60px;"">+</div>","null","","fixation","","","","","","","","","","",""
"aa-learning-trial","91","438774","0.0-9.0-2.0-1.9","3999","2","11","Male","approach_avoid_spark_v1","""event"",""trial"",""time""
""fullscreenenter"",""1"",""1632""
","
","
","""event"",""trial"",""time""
""fullscreenenter"",""1"",""1632""
","
","","","","","","723.7000000178814","images/orange4.png","","","learning","-2","-2","1","1","orange","fruit","2","0","","bad","[-6]"
"html-keyboard-response","92","439276","0.0-9.0-2.0-0.10","3999","2","11","Male","approach_avoid_spark_v1","""event"",""trial"",""time""
""fullscreenenter"",""1"",""1632""
","
","
","""event"",""trial"",""time""
""fullscreenenter"",""1"",""1632""
","
","","","","","","null","<div style=""font-size:60px;"">+</div>","null","","fixation","","","","","","","","","","",""
"aa-learning-trial","93","442283","0.0-9.0-2.0-1.10","3999","2","11","Male","approach_avoid_spark_v1","""event"",""trial"",""time""
""fullscreenenter"",""1"",""1632""
","
","
","""event"",""trial"",""time""
""fullscreenenter"",""1"",""1632""
","
","","","","","","999.6999999880791","images/straw4.png","","","learning","-1","-1","1","1","straw","fruit","2","0","","good","[3]"
"html-keyboard-response","94","442787","0.0-9.0-2.0-0.11","3999","2","11","Male","approach_avoid_spark_v1","""event"",""trial"",""time""
""fullscreenenter"",""1"",""1632""
","
","
","""event"",""trial"",""time""
""fullscreenenter"",""1"",""1632""
","
","","","","","","null","<div style=""font-size:60px;"">+</div>","null","","fixation","","","","","","","","","","",""
"aa-learning-trial","95","445792","0.0-9.0-2.0-1.11","3999","2","11","Male","approach_avoid_spark_v1","""event"",""trial"",""time""
""fullscreenenter"",""1"",""1632""
","
","
","""event"",""trial"",""time""
""fullscreenenter"",""1"",""1632""
","
","","","","","","693.2000000178814","images/straw7.png","","","learning","5","5","1","1","straw","fruit","2","0","","good","[3]"
"html-keyboard-response","96","446294","0.0-9.0-2.0-0.12","3999","2","11","Male","approach_avoid_spark_v1","""event"",""trial"",""time""
""fullscreenenter"",""1"",""1632""
","
","
","""event"",""trial"",""time""
""fullscreenenter"",""1"",""1632""
","
","","","","","","null","<div style=""font-size:60px;"">+</div>","null","","fixation","","","","","","","","","","",""
"aa-learning-trial","97","449302","0.0-9.0-2.0-1.12","3999","2","11","Male","approach_avoid_spark_v1","""event"",""trial"",""time""
""fullscreenenter"",""1"",""1632""
","
","
","""event"",""trial"",""time""
""fullscreenenter"",""1"",""1632""
","
","","","","","","433.40000000596046","images/orange4.png","","","learning","-2","0","0","0","orange","fruit","2","0","","bad","[-6]"
"html-keyboard-response","98","449803","0.0-9.0-2.0-0.13","3999","2","11","Male","approach_avoid_spark_v1","""event"",""trial"",""time""
""fullscreenenter"",""1"",""1632""
","
","
","""event"",""trial"",""time""
""fullscreenenter"",""1"",""1632""
","
","","","","","","null","<div style=""font-size:60px;"">+</div>","null","","fixation","","","","","","","","","","",""
"aa-learning-trial","99","452806","0.0-9.0-2.0-1.13","3999","2","11","Male","approach_avoid_spark_v1","""event"",""trial"",""time""
""fullscreenenter"",""1"",""1632""
","
","
","""event"",""trial"",""time""
""fullscreenenter"",""1"",""1632""
","
","","","","","","610.6999999880791","images/banana4.png","","","learning","2","2","1","1","banana","fruit","2","0","","neutral","0"
"html-keyboard-response","100","453307","0.0-9.0-2.0-0.14","3999","2","11","Male","approach_avoid_spark_v1","""event"",""trial"",""time""
""fullscreenenter"",""1"",""1632""
","
","
","""event"",""trial"",""time""
""fullscreenenter"",""1"",""1632""
","
","","","","","","null","<div style=""font-size:60px;"">+</div>","null","","fixation","","","","","","","","","","",""
"aa-learning-trial","101","456315","0.0-9.0-2.0-1.14","3999","2","11","Male","approach_avoid_spark_v1","""event"",""trial"",""time""
""fullscreenenter"",""1"",""1632""
","
","
","""event"",""trial"",""time""
""fullscreenenter"",""1"",""1632""
","
","","","","","","615.6999999880791","images/banana6.png","","","learning","6","0","0","0","banana","fruit","2","0","","neutral","0"
"html-keyboard-response","102","456817","0.0-9.0-2.0-0.15","3999","2","11","Male","approach_avoid_spark_v1","""event"",""trial"",""time""
""fullscreenenter"",""1"",""1632""
","
","
","""event"",""trial"",""time""
""fullscreenenter"",""1"",""1632""
","
","","","","","","null","<div style=""font-size:60px;"">+</div>","null","","fixation","","","","","","","","","","",""
"aa-learning-trial","103","459825","0.0-9.0-2.0-1.15","3999","2","11","Male","approach_avoid_spark_v1","""event"",""trial"",""time""
""fullscreenenter"",""1"",""1632""
","
","
","""event"",""trial"",""time""
""fullscreenenter"",""1"",""1632""
","
","","","","","","586.3999999761581","images/banana3.png","","","learning","-5","-5","1","1","banana","fruit","2","0","","neutral","0"
"html-keyboard-response","104","460326","0.0-9.0-2.0-0.16","3999","2","11","Male","approach_avoid_spark_v1","""event"",""trial"",""time""
""fullscreenenter"",""1"",""1632""
","
","
","""event"",""trial"",""time""
""fullscreenenter"",""1"",""1632""
","
","","","","","","null","<div style=""font-size:60px;"">+</div>","null","","fixation","","","","","","","","","","",""
"aa-learning-trial","105","463330","0.0-9.0-2.0-1.16","3999","2","11","Male","approach_avoid_spark_v1","""event"",""trial"",""time""
""fullscreenenter"",""1"",""1632""
","
","
","""event"",""trial"",""time""
""fullscreenenter"",""1"",""1632""
","
","","","","","","853.5","images/banana6.png","","","learning","6","0","0","0","banana","fruit","2","0","","neutral","0"
"html-keyboard-response","106","463835","0.0-9.0-2.0-0.17","3999","2","11","Male","approach_avoid_spark_v1","""event"",""trial"",""time""
""fullscreenenter"",""1"",""1632""
","
","
","""event"",""trial"",""time""
""fullscreenenter"",""1"",""1632""
","
","","","","","","null","<div style=""font-size:60px;"">+</div>","null","","fixation","","","","","","","","","","",""
"aa-learning-trial","107","466838","0.0-9.0-2.0-1.17","3999","2","11","Male","approach_avoid_spark_v1","""event"",""trial"",""time""
""fullscreenenter"",""1"",""1632""
","
","
","""event"",""trial"",""time""
""fullscreenenter"",""1"",""1632""
","
","","","","","","650.6000000238419","images/straw4.png","","","learning","-1","-1","1","1","straw","fruit","2","0","","good","[3]"
"html-keyboard-response","108","467340","0.0-9.0-2.0-0.18","3999","2","11","Male","approach_avoid_spark_v1","""event"",""trial"",""time""
""fullscreenenter"",""1"",""1632""
","
","
","""event"",""trial"",""time""
""fullscreenenter"",""1"",""1632""
","
","","","","","","null","<div style=""font-size:60px;"">+</div>","null","","fixation","","","","","","","","","","",""
"aa-learning-trial","109","470348","0.0-9.0-2.0-1.18","3999","2","11","Male","approach_avoid_spark_v1","""event"",""trial"",""time""
""fullscreenenter"",""1"",""1632""
","
","
","""event"",""trial"",""time""
""fullscreenenter"",""1"",""1632""
","
","","","","","","955","images/straw4.png","","","learning","-1","-1","1","1","straw","fruit","2","0","","good","[3]"
"html-keyboard-response","110","470849","0.0-9.0-2.0-0.19","3999","2","11","Male","approach_avoid_spark_v1","""event"",""trial"",""time""
""fullscreenenter"",""1"",""1632""
","
","
","""event"",""trial"",""time""
""fullscreenenter"",""1"",""1632""
","
","","","","","","null","<div style=""font-size:60px;"">+</div>","null","","fixation","","","","","","","","","","",""
"aa-learning-trial","111","473857","0.0-9.0-2.0-1.19","3999","2","11","Male","approach_avoid_spark_v1","""event"",""trial"",""time""
""fullscreenenter"",""1"",""1632""
","
","
","""event"",""trial"",""time""
""fullscreenenter"",""1"",""1632""
","
","","","","","","1163.4000000059605","images/straw8.png","","","learning","9","0","0","0","straw","fruit","2","0","","good","[3]"
"html-keyboard-response","112","474359","0.0-9.0-2.0-0.20","3999","2","11","Male","approach_avoid_spark_v1","""event"",""trial"",""time""
""fullscreenenter"",""1"",""1632""
","
","
","""event"",""trial"",""time""
""fullscreenenter"",""1"",""1632""
","
","","","","","","null","<div style=""font-size:60px;"">+</div>","null","","fixation","","","","","","","","","","",""
"aa-learning-trial","113","477367","0.0-9.0-2.0-1.20","3999","2","11","Male","approach_avoid_spark_v1","""event"",""trial"",""time""
""fullscreenenter"",""1"",""1632""
","
","
","""event"",""trial"",""time""
""fullscreenenter"",""1"",""1632""
","
","","","","","","622.5999999940395","images/straw7.png","","","learning","5","0","0","0","straw","fruit","2","0","","good","[3]"
"html-keyboard-response","114","477868","0.0-9.0-2.0-0.21","3999","2","11","Male","approach_avoid_spark_v1","""event"",""trial"",""time""
""fullscreenenter"",""1"",""1632""
","
","
","""event"",""trial"",""time""
""fullscreenenter"",""1"",""1632""
","
","","","","","","null","<div style=""font-size:60px;"">+</div>","null","","fixation","","","","","","","","","","",""
"aa-learning-trial","115","480871","0.0-9.0-2.0-1.21","3999","2","11","Male","approach_avoid_spark_v1","""event"",""trial"",""time""
""fullscreenenter"",""1"",""1632""
","
","
","""event"",""trial"",""time""
""fullscreenenter"",""1"",""1632""
","
","","","","","","699.7999999821186","images/banana7.png","","","learning","-8","-8","1","1","banana","fruit","2","0","","neutral","0"
"html-keyboard-response","116","481372","0.0-9.0-2.0-0.22","3999","2","11","Male","approach_avoid_spark_v1","""event"",""trial"",""time""
""fullscreenenter"",""1"",""1632""
","
","
","""event"",""trial"",""time""
""fullscreenenter"",""1"",""1632""
","
","","","","","","null","<div style=""font-size:60px;"">+</div>","null","","fixation","","","","","","","","","","",""
"aa-learning-trial","117","484380","0.0-9.0-2.0-1.22","3999","2","11","Male","approach_avoid_spark_v1","""event"",""trial"",""time""
""fullscreenenter"",""1"",""1632""
","
","
","""event"",""trial"",""time""
""fullscreenenter"",""1"",""1632""
","
","","","","","","399","images/banana6.png","","","learning","6","6","1","1","banana","fruit","2","0","","neutral","0"
"html-keyboard-response","118","484882","0.0-9.0-2.0-0.23","3999","2","11","Male","approach_avoid_spark_v1","""event"",""trial"",""time""
""fullscreenenter"",""1"",""1632""
","
","
","""event"",""trial"",""time""
""fullscreenenter"",""1"",""1632""
","
","","","","","","null","<div style=""font-size:60px;"">+</div>","null","","fixation","","","","","","","","","","",""
"aa-learning-trial","119","487890","0.0-9.0-2.0-1.23","3999","2","11","Male","approach_avoid_spark_v1","""event"",""trial"",""time""
""fullscreenenter"",""1"",""1632""
","
","
","""event"",""trial"",""time""
""fullscreenenter"",""1"",""1632""
","
","","","","","","754.0999999940395","images/banana4.png","","","learning","2","0","0","0","banana","fruit","2","0","","neutral","0"
"html-keyboard-response","120","488391","0.0-9.0-2.0-0.24","3999","2","11","Male","approach_avoid_spark_v1","""event"",""trial"",""time""
""fullscreenenter"",""1"",""1632""
","
","
","""event"",""trial"",""time""
""fullscreenenter"",""1"",""1632""
","
","","","","","","null","<div style=""font-size:60px;"">+</div>","null","","fixation","","","","","","","","","","",""
"aa-learning-trial","121","491399","0.0-9.0-2.0-1.24","3999","2","11","Male","approach_avoid_spark_v1","""event"",""trial"",""time""
""fullscreenenter"",""1"",""1632""
","
","
","""event"",""trial"",""time""
""fullscreenenter"",""1"",""1632""
","
","","","","","","406.09999999403954","images/straw8.png","","","learning","9","9","1","1","straw","fruit","2","0","","good","[3]"
"html-keyboard-response","122","491906","0.0-9.0-2.0-0.25","3999","2","11","Male","approach_avoid_spark_v1","""event"",""trial"",""time""
""fullscreenenter"",""1"",""1632""
","
","
","""event"",""trial"",""time""
""fullscreenenter"",""1"",""1632""
","
","","","","","","null","<div style=""font-size:60px;"">+</div>","null","","fixation","","","","","","","","","","",""
"aa-learning-trial","123","494909","0.0-9.0-2.0-1.25","3999","2","11","Male","approach_avoid_spark_v1","""event"",""trial"",""time""
""fullscreenenter"",""1"",""1632""
","
","
","""event"",""trial"",""time""
""fullscreenenter"",""1"",""1632""
","
","","","","","","960.2000000178814","images/orange4.png","","","learning","-2","0","0","0","orange","fruit","2","0","","bad","[-6]"
"html-keyboard-response","124","495410","0.0-9.0-2.0-0.26","3999","2","11","Male","approach_avoid_spark_v1","""event"",""trial"",""time""
""fullscreenenter"",""1"",""1632""
","
","
","""event"",""trial"",""time""
""fullscreenenter"",""1"",""1632""
","
","","","","","","null","<div style=""font-size:60px;"">+</div>","null","","fixation","","","","","","","","","","",""
"aa-learning-trial","125","498418","0.0-9.0-2.0-1.26","3999","2","11","Male","approach_avoid_spark_v1","""event"",""trial"",""time""
""fullscreenenter"",""1"",""1632""
","
","
","""event"",""trial"",""time""
""fullscreenenter"",""1"",""1632""
","
","","","","","","704.8000000119209","images/straw6.png","","","learning","-3","0","0","0","straw","fruit","2","0","","good","[3]"
"html-keyboard-response","126","498919","0.0-9.0-2.0-0.27","3999","2","11","Male","approach_avoid_spark_v1","""event"",""trial"",""time""
""fullscreenenter"",""1"",""1632""
","
","
","""event"",""trial"",""time""
""fullscreenenter"",""1"",""1632""
","
","","","","","","null","<div style=""font-size:60px;"">+</div>","null","","fixation","","","","","","","","","","",""
"aa-learning-trial","127","501924","0.0-9.0-2.0-1.27","3999","2","11","Male","approach_avoid_spark_v1","""event"",""trial"",""time""
""fullscreenenter"",""1"",""1632""
","
","
","""event"",""trial"",""time""
""fullscreenenter"",""1"",""1632""
","
","","","","","","1892.0999999940395","images/banana6.png","","","learning","6","6","1","1","banana","fruit","2","0","","neutral","0"
"html-keyboard-response","128","502429","0.0-9.0-2.0-0.28","3999","2","11","Male","approach_avoid_spark_v1","""event"",""trial"",""time""
""fullscreenenter"",""1"",""1632""
","
","
","""event"",""trial"",""time""
""fullscreenenter"",""1"",""1632""
","
","","","","","","null","<div style=""font-size:60px;"">+</div>","null","","fixation","","","","","","","","","","",""
"aa-learning-trial","129","505437","0.0-9.0-2.0-1.28","3999","2","11","Male","approach_avoid_spark_v1","""event"",""trial"",""time""
""fullscreenenter"",""1"",""1632""
","
","
","""event"",""trial"",""time""
""fullscreenenter"",""1"",""1632""
","
","","","","","","1847.5999999940395","images/banana4.png","","","learning","2","0","0","0","banana","fruit","2","0","","neutral","0"
"html-keyboard-response","130","505938","0.0-9.0-2.0-0.29","3999","2","11","Male","approach_avoid_spark_v1","""event"",""trial"",""time""
""fullscreenenter"",""1"",""1632""
","
","
","""event"",""trial"",""time""
""fullscreenenter"",""1"",""1632""
","
","","","","","","null","<div style=""font-size:60px;"">+</div>","null","","fixation","","","","","","","","","","",""
"aa-learning-trial","131","508941","0.0-9.0-2.0-1.29","3999","2","11","Male","approach_avoid_spark_v1","""event"",""trial"",""time""
""fullscreenenter"",""1"",""1632""
","
","
","""event"",""trial"",""time""
""fullscreenenter"",""1"",""1632""
","
","","","","","","1691.1000000238419","images/straw7.png","","","learning","5","0","0","0","straw","fruit","2","0","","good","[3]"
"html-keyboard-response","132","509442","0.0-9.0-2.0-0.30","3999","2","11","Male","approach_avoid_spark_v1","""event"",""trial"",""time""
""fullscreenenter"",""1"",""1632""
","
","
","""event"",""trial"",""time""
""fullscreenenter"",""1"",""1632""
","
","","","","","","null","<div style=""font-size:60px;"">+</div>","null","","fixation","","","","","","","","","","",""
"aa-learning-trial","133","512451","0.0-9.0-2.0-1.30","3999","2","11","Male","approach_avoid_spark_v1","""event"",""trial"",""time""
""fullscreenenter"",""1"",""1632""
","
","
","""event"",""trial"",""time""
""fullscreenenter"",""1"",""1632""
","
","","","","","","1054.800000011921","images/straw5.png","","","learning","-6","-6","1","1","straw","fruit","2","0","","good","[3]"
"html-keyboard-response","134","512952","0.0-9.0-2.0-0.31","3999","2","11","Male","approach_avoid_spark_v1","""event"",""trial"",""time""
""fullscreenenter"",""1"",""1632""
","
","
","""event"",""trial"",""time""
""fullscreenenter"",""1"",""1632""
","
","","","","","","null","<div style=""font-size:60px;"">+</div>","null","","fixation","","","","","","","","","","",""
"aa-learning-trial","135","515960","0.0-9.0-2.0-1.31","3999","2","11","Male","approach_avoid_spark_v1","""event"",""trial"",""time""
""fullscreenenter"",""1"",""1632""
","
","
","""event"",""trial"",""time""
""fullscreenenter"",""1"",""1632""
","
","","","","","","1359.3999999761581","images/orange6.png","","","learning","8","0","0","0","orange","fruit","2","0","","bad","[-6]"
"html-keyboard-response","136","516466","0.0-9.0-2.0-0.32","3999","2","11","Male","approach_avoid_spark_v1","""event"",""trial"",""time""
""fullscreenenter"",""1"",""1632""
","
","
","""event"",""trial"",""time""
""fullscreenenter"",""1"",""1632""
","
","","","","","","null","<div style=""font-size:60px;"">+</div>","null","","fixation","","","","","","","","","","",""
"aa-learning-trial","137","519470","0.0-9.0-2.0-1.32","3999","2","11","Male","approach_avoid_spark_v1","""event"",""trial"",""time""
""fullscreenenter"",""1"",""1632""
","
","
","""event"",""trial"",""time""
""fullscreenenter"",""1"",""1632""
","
","","","","","","823.6999999880791","images/banana5.png","","","learning","3","3","1","1","banana","fruit","2","0","","neutral","0"
"html-keyboard-response","138","519976","0.0-9.0-2.0-0.33","3999","2","11","Male","approach_avoid_spark_v1","""event"",""trial"",""time""
""fullscreenenter"",""1"",""1632""
","
","
","""event"",""trial"",""time""
""fullscreenenter"",""1"",""1632""
","
","","","","","","null","<div style=""font-size:60px;"">+</div>","null","","fixation","","","","","","","","","","",""
"aa-learning-trial","139","522979","0.0-9.0-2.0-1.33","3999","2","11","Male","approach_avoid_spark_v1","""event"",""trial"",""time""
""fullscreenenter"",""1"",""1632""
","
","
","""event"",""trial"",""time""
""fullscreenenter"",""1"",""1632""
","
","","","","","","681.5999999940395","images/orange4.png","","","learning","-2","-2","1","1","orange","fruit","2","0","","bad","[-6]"
"html-keyboard-response","140","523485","0.0-9.0-2.0-0.34","3999","2","11","Male","approach_avoid_spark_v1","""event"",""trial"",""time""
""fullscreenenter"",""1"",""1632""
","
","
","""event"",""trial"",""time""
""fullscreenenter"",""1"",""1632""
","
","","","","","","null","<div style=""font-size:60px;"">+</div>","null","","fixation","","","","","","","","","","",""
"aa-learning-trial","141","526488","0.0-9.0-2.0-1.34","3999","2","11","Male","approach_avoid_spark_v1","""event"",""trial"",""time""
""fullscreenenter"",""1"",""1632""
","
","
","""event"",""trial"",""time""
""fullscreenenter"",""1"",""1632""
","
","","","","","","361.5","images/orange8.png","","","learning","4","0","0","0","orange","fruit","2","0","","bad","[-6]"
"html-keyboard-response","142","526990","0.0-9.0-2.0-0.35","3999","2","11","Male","approach_avoid_spark_v1","""event"",""trial"",""time""
""fullscreenenter"",""1"",""1632""
","
","
","""event"",""trial"",""time""
""fullscreenenter"",""1"",""1632""
","
","","","","","","null","<div style=""font-size:60px;"">+</div>","null","","fixation","","","","","","","","","","",""
"aa-learning-trial","143","529998","0.0-9.0-2.0-1.35","3999","2","11","Male","approach_avoid_spark_v1","""event"",""trial"",""time""
""fullscreenenter"",""1"",""1632""
","
","
","""event"",""trial"",""time""
""fullscreenenter"",""1"",""1632""
","
","","","","","","944.8000000119209","images/orange4.png","","","learning","-2","-2","1","1","orange","fruit","2","0","","bad","[-6]"
"html-keyboard-response","144","530504","0.0-9.0-2.0-0.36","3999","2","11","Male","approach_avoid_spark_v1","""event"",""trial"",""time""
""fullscreenenter"",""1"",""1632""
","
","
","""event"",""trial"",""time""
""fullscreenenter"",""1"",""1632""
","
","","","","","","null","<div style=""font-size:60px;"">+</div>","null","","fixation","","","","","","","","","","",""
"aa-learning-trial","145","533512","0.0-9.0-2.0-1.36","3999","2","11","Male","approach_avoid_spark_v1","""event"",""trial"",""time""
""fullscreenenter"",""1"",""1632""
","
","
","""event"",""trial"",""time""
""fullscreenenter"",""1"",""1632""
","
","","","","","","1483.3999999761581","images/straw7.png","","","learning","5","0","0","0","straw","fruit","2","0","","good","[3]"
"html-keyboard-response","146","534014","0.0-9.0-2.0-0.37","3999","2","11","Male","approach_avoid_spark_v1","""event"",""trial"",""time""
""fullscreenenter"",""1"",""1632""
","
","
","""event"",""trial"",""time""
""fullscreenenter"",""1"",""1632""
","
","","","","","","null","<div style=""font-size:60px;"">+</div>","null","","fixation","","","","","","","","","","",""
"aa-learning-trial","147","537017","0.0-9.0-2.0-1.37","3999","2","11","Male","approach_avoid_spark_v1","""event"",""trial"",""time""
""fullscreenenter"",""1"",""1632""
","
","
","""event"",""trial"",""time""
""fullscreenenter"",""1"",""1632""
","
","","","","","","1217.800000011921","images/banana5.png","","","learning","3","3","1","1","banana","fruit","2","0","","neutral","0"
"html-keyboard-response","148","537523","0.0-9.0-2.0-0.38","3999","2","11","Male","approach_avoid_spark_v1","""event"",""trial"",""time""
""fullscreenenter"",""1"",""1632""
","
","
","""event"",""trial"",""time""
""fullscreenenter"",""1"",""1632""
","
","","","","","","null","<div style=""font-size:60px;"">+</div>","null","","fixation","","","","","","","","","","",""
"aa-learning-trial","149","540531","0.0-9.0-2.0-1.38","3999","2","11","Male","approach_avoid_spark_v1","""event"",""trial"",""time""
""fullscreenenter"",""1"",""1632""
","
","
","""event"",""trial"",""time""
""fullscreenenter"",""1"",""1632""
","
","","","","","","1197.2999999821186","images/orange7.png","","","learning","-9","-9","1","1","orange","fruit","2","0","","bad","[-6]"
"html-keyboard-response","150","541038","0.0-9.0-2.0-0.39","3999","2","11","Male","approach_avoid_spark_v1","""event"",""trial"",""time""
""fullscreenenter"",""1"",""1632""
","
","
","""event"",""trial"",""time""
""fullscreenenter"",""1"",""1632""
","
","","","","","","null","<div style=""font-size:60px;"">+</div>","null","","fixation","","","","","","","","","","",""
"aa-learning-trial","151","544046","0.0-9.0-2.0-1.39","3999","2","11","Male","approach_avoid_spark_v1","""event"",""trial"",""time""
""fullscreenenter"",""1"",""1632""
","
","
","""event"",""trial"",""time""
""fullscreenenter"",""1"",""1632""
","
","","","","","","1119.7000000178814","images/straw8.png","","","learning","9","0","0","0","straw","fruit","2","0","","good","[3]"
"html-keyboard-response","152","544548","0.0-9.0-2.0-0.40","3999","2","11","Male","approach_avoid_spark_v1","""event"",""trial"",""time""
""fullscreenenter"",""1"",""1632""
","
","
","""event"",""trial"",""time""
""fullscreenenter"",""1"",""1632""
","
","","","","","","null","<div style=""font-size:60px;"">+</div>","null","","fixation","","","","","","","","","","",""
"aa-learning-trial","153","547556","0.0-9.0-2.0-1.40","3999","2","11","Male","approach_avoid_spark_v1","""event"",""trial"",""time""
""fullscreenenter"",""1"",""1632""
","
","
","""event"",""trial"",""time""
""fullscreenenter"",""1"",""1632""
","
","","","","","","828.7000000178814","images/banana4.png","","","learning","2","2","1","1","banana","fruit","2","0","","neutral","0"
"html-keyboard-response","154","548062","0.0-9.0-2.0-0.41","3999","2","11","Male","approach_avoid_spark_v1","""event"",""trial"",""time""
""fullscreenenter"",""1"",""1632""
","
","
","""event"",""trial"",""time""
""fullscreenenter"",""1"",""1632""
","
","","","","","","null","<div style=""font-size:60px;"">+</div>","null","","fixation","","","","","","","","","","",""
"aa-learning-trial","155","551065","0.0-9.0-2.0-1.41","3999","2","11","Male","approach_avoid_spark_v1","""event"",""trial"",""time""
""fullscreenenter"",""1"",""1632""
","
","
","""event"",""trial"",""time""
""fullscreenenter"",""1"",""1632""
","
","","","","","","973.9000000059605","images/orange6.png","","","learning","8","8","1","1","orange","fruit","2","0","","bad","[-6]"
"html-keyboard-response","156","551571","0.0-9.0-2.0-0.42","3999","2","11","Male","approach_avoid_spark_v1","""event"",""trial"",""time""
""fullscreenenter"",""1"",""1632""
","
","
","""event"",""trial"",""time""
""fullscreenenter"",""1"",""1632""
","
","","","","","","null","<div style=""font-size:60px;"">+</div>","null","","fixation","","","","","","","","","","",""
"aa-learning-trial","157","554580","0.0-9.0-2.0-1.42","3999","2","11","Male","approach_avoid_spark_v1","""event"",""trial"",""time""
""fullscreenenter"",""1"",""1632""
","
","
","""event"",""trial"",""time""
""fullscreenenter"",""1"",""1632""
","
","","","","","","976.2999999821186","images/orange6.png","","","learning","8","0","0","0","orange","fruit","2","0","","bad","[-6]"
"html-keyboard-response","158","555082","0.0-9.0-2.0-0.43","3999","2","11","Male","approach_avoid_spark_v1","""event"",""trial"",""time""
""fullscreenenter"",""1"",""1632""
","
","
","""event"",""trial"",""time""
""fullscreenenter"",""1"",""1632""
","
","","","","","","null","<div style=""font-size:60px;"">+</div>","null","","fixation","","","","","","","","","","",""
"aa-learning-trial","159","558089","0.0-9.0-2.0-1.43","3999","2","11","Male","approach_avoid_spark_v1","""event"",""trial"",""time""
""fullscreenenter"",""1"",""1632""
","
","
","""event"",""trial"",""time""
""fullscreenenter"",""1"",""1632""
","
","","","","","","662.4000000059605","images/orange6.png","","","learning","8","8","1","1","orange","fruit","2","0","","bad","[-6]"
"html-keyboard-response","160","558596","0.0-9.0-2.0-0.44","3999","2","11","Male","approach_avoid_spark_v1","""event"",""trial"",""time""
""fullscreenenter"",""1"",""1632""
","
","
","""event"",""trial"",""time""
""fullscreenenter"",""1"",""1632""
","
","","","","","","null","<div style=""font-size:60px;"">+</div>","null","","fixation","","","","","","","","","","",""
"aa-learning-trial","161","561604","0.0-9.0-2.0-1.44","3999","2","11","Male","approach_avoid_spark_v1","""event"",""trial"",""time""
""fullscreenenter"",""1"",""1632""
","
","
","""event"",""trial"",""time""
""fullscreenenter"",""1"",""1632""
","
","","","","","","487.19999998807907","images/straw7.png","","","learning","5","0","0","0","straw","fruit","2","0","","good","[3]"
"html-keyboard-response","162","562111","0.0-9.0-2.0-0.45","3999","2","11","Male","approach_avoid_spark_v1","""event"",""trial"",""time""
""fullscreenenter"",""1"",""1632""
","
","
","""event"",""trial"",""time""
""fullscreenenter"",""1"",""1632""
","
","","","","","","null","<div style=""font-size:60px;"">+</div>","null","","fixation","","","","","","","","","","",""
"aa-learning-trial","163","565114","0.0-9.0-2.0-1.45","3999","2","11","Male","approach_avoid_spark_v1","""event"",""trial"",""time""
""fullscreenenter"",""1"",""1632""
","
","
","""event"",""trial"",""time""
""fullscreenenter"",""1"",""1632""
","
","","","","","","1523.0999999940395","images/banana4.png","","","learning","2","0","0","0","banana","fruit","2","0","","neutral","0"
"html-keyboard-response","164","565620","0.0-9.0-2.0-0.46","3999","2","11","Male","approach_avoid_spark_v1","""event"",""trial"",""time""
""fullscreenenter"",""1"",""1632""
","
","
","""event"",""trial"",""time""
""fullscreenenter"",""1"",""1632""
","
","","","","","","null","<div style=""font-size:60px;"">+</div>","null","","fixation","","","","","","","","","","",""
"aa-learning-trial","165","568628","0.0-9.0-2.0-1.46","3999","2","11","Male","approach_avoid_spark_v1","""event"",""trial"",""time""
""fullscreenenter"",""1"",""1632""
","
","
","""event"",""trial"",""time""
""fullscreenenter"",""1"",""1632""
","
","","","","","","1028.5","images/orange4.png","","","learning","-2","0","0","0","orange","fruit","2","0","","bad","[-6]"
"html-keyboard-response","166","569135","0.0-9.0-2.0-0.47","3999","2","11","Male","approach_avoid_spark_v1","""event"",""trial"",""time""
""fullscreenenter"",""1"",""1632""
","
","
","""event"",""trial"",""time""
""fullscreenenter"",""1"",""1632""
","
","","","","","","null","<div style=""font-size:60px;"">+</div>","null","","fixation","","","","","","","","","","",""
"aa-learning-trial","167","572143","0.0-9.0-2.0-1.47","3999","2","11","Male","approach_avoid_spark_v1","""event"",""trial"",""time""
""fullscreenenter"",""1"",""1632""
","
","
","""event"",""trial"",""time""
""fullscreenenter"",""1"",""1632""
","
","","","","","","1038.9000000059605","images/banana6.png","","","learning","6","6","1","1","banana","fruit","2","0","","neutral","0"
"html-keyboard-response","168","572650","0.0-9.0-2.0-0.48","3999","2","11","Male","approach_avoid_spark_v1","""event"",""trial"",""time""
""fullscreenenter"",""1"",""1632""
","
","
","""event"",""trial"",""time""
""fullscreenenter"",""1"",""1632""
","
","","","","","","null","<div style=""font-size:60px;"">+</div>","null","","fixation","","","","","","","","","","",""
"aa-learning-trial","169","575658","0.0-9.0-2.0-1.48","3999","2","11","Male","approach_avoid_spark_v1","""event"",""trial"",""time""
""fullscreenenter"",""1"",""1632""
","
","
","""event"",""trial"",""time""
""fullscreenenter"",""1"",""1632""
","
","","","","","","1422.2000000178814","images/straw8.png","","","learning","9","-5","-","","straw","fruit","2","0","","good","[3]"
"html-keyboard-response","170","576159","0.0-9.0-2.0-0.49","3999","2","11","Male","approach_avoid_spark_v1","""event"",""trial"",""time""
""fullscreenenter"",""1"",""1632""
","
","
","""event"",""trial"",""time""
""fullscreenenter"",""1"",""1632""
","
","","","","","","null","<div style=""font-size:60px;"">+</div>","null","","fixation","","","","","","","","","","",""
"aa-learning-trial","171","579167","0.0-9.0-2.0-1.49","3999","2","11","Male","approach_avoid_spark_v1","""event"",""trial"",""time""
""fullscreenenter"",""1"",""1632""
","
","
","""event"",""trial"",""time""
""fullscreenenter"",""1"",""1632""
","
","","","","","","2699.699999988079","images/orange7.png","","","learning","-9","-9","1","1","orange","fruit","2","0","","bad","[-6]"
"html-keyboard-response","172","579671","0.0-9.0-2.0-0.50","3999","2","11","Male","approach_avoid_spark_v1","""event"",""trial"",""time""
""fullscreenenter"",""1"",""1632""
","
","
","""event"",""trial"",""time""
""fullscreenenter"",""1"",""1632""
","
","","","","","","null","<div style=""font-size:60px;"">+</div>","null","","fixation","","","","","","","","","","",""
"aa-learning-trial","173","582677","0.0-9.0-2.0-1.50","3999","2","11","Male","approach_avoid_spark_v1","""event"",""trial"",""time""
""fullscreenenter"",""1"",""1632""
","
","
","""event"",""trial"",""time""
""fullscreenenter"",""1"",""1632""
","
","","","","","","1303.5999999940395","images/orange3.png","","","learning","-4","0","0","0","orange","fruit","2","0","","bad","[-6]"
"html-button-response","174","585025","0.0-9.0-3.0","3999","2","11","Male","approach_avoid_spark_v1","""event"",""trial"",""time""
""fullscreenenter"",""1"",""1632""
","
","
","""event"",""trial"",""time""
""fullscreenenter"",""1"",""1632""
","
","","","","","","2345.9000000059605","<p> You have completed the round! <p> In this round, you earned 26 points! </p>","0","","break","","","","","","","","","","",""
"html-button-response","175","586339","0.0-10.0","3999","2","11","Male","approach_avoid_spark_v1","""event"",""trial"",""time""
""fullscreenenter"",""1"",""1632""
","
","
","""event"",""trial"",""time""
""fullscreenenter"",""1"",""1632""
","
","","","","","","1312.5","<p> Now it's time to play another round. </p>","0","","transition_screen","","","","","","","","","","",""
"preload","176","586463","0.0-11.0-0.0","3999","2","11","Male","approach_avoid_spark_v1","""event"",""trial"",""time""
""fullscreenenter"",""1"",""1632""
","
","
","""event"",""trial"",""time""
""fullscreenenter"",""1"",""1632""
","
","true","false","[]","[]","[]","","","","","","","","","","","","","","","",""
"learning-instructions","177","591669","0.0-11.0-1.0-0.0","3999","2","11","Male","approach_avoid_spark_v1","""event"",""trial"",""time""
""fullscreenenter"",""1"",""1632""
","
","
","""event"",""trial"",""time""
""fullscreenenter"",""1"",""1632""
","
","","","","","","903.4000000059605","<p> Your goal in this round is to take care of lots of farm animals. </p></div>","","0","instructions","","","","","","","","","","",""
"learning-instructions","178","602372","0.0-11.0-1.0-0.1","3999","2","11","Male","approach_avoid_spark_v1","""event"",""trial"",""time""
""fullscreenenter"",""1"",""1632""
","
","
","""event"",""trial"",""time""
""fullscreenenter"",""1"",""1632""
","
","","","","","","1072.199999988079","<p> Some farm animals are hungry, while other farm animals are already full.  </p><p> On each turn, you will see a farm animal.   </p><p> You need to decide whether to feed it or not.  </p>","","0","instructions","","","","","","","","","","",""
"learning-instructions","179","609996","0.0-11.0-1.0-0.2","3999","2","11","Male","approach_avoid_spark_v1","""event"",""trial"",""time""
""fullscreenenter"",""1"",""1632""
","
","
","""event"",""trial"",""time""
""fullscreenenter"",""1"",""1632""
","
","","","","","","1991.699999988079","<p> You can feed the farm animal by pressing 1 and leave the farm animal alone by pressing 0. </p><br><div class=""choice-instructions-grid""> <div class=""choice-option""><img src=""images/approach.png"" class=""choice-option-img"" stage=""instructions"" position=""0"" ><div class=""choice-option-text""> Press ""1."" </div></div><div class=""choice-option""><img src=""images/avoid.png"" class=""choice-option-img"" stage=""instructions"" position=""1"" ><div class=""choice-option-text""> Press ""0."" </div></div>","","0","instructions","","","","","","","","","","",""
"learning-instructions","180","620345","0.0-11.0-1.0-0.3","3999","2","11","Male","approach_avoid_spark_v1","""event"",""trial"",""time""
""fullscreenenter"",""1"",""1632""
","
","
","""event"",""trial"",""time""
""fullscreenenter"",""1"",""1632""
","
","","","","","","1082.4000000059605","<p> If you feed a hungry farm animal, you will make it feel satisfied! </p><p> But if you feed the farm animal and it was already full, you will make it feel sick. </p>","","0","instructions","","","","","","","","","","",""
"learning-instructions","181","634865","0.0-11.0-1.0-0.4","3999","2","11","Male","approach_avoid_spark_v1","""event"",""trial"",""time""
""fullscreenenter"",""1"",""1632""
","
","
","""event"",""trial"",""time""
""fullscreenenter"",""1"",""1632""
","
","","","","","","2493.4000000059605","<p> You will earn points based on how you made the farm animal feel. </p><p> If you made it satisfied, you will WIN anywhere from 1 - 9 points, </p><p> but if you made it sick, you will LOSE anywhere from 1 - 9 points. </p>","","0","instructions","","","","","","","","","","",""
"learning-instructions","182","642203","0.0-11.0-1.0-0.5","3999","2","11","Male","approach_avoid_spark_v1","""event"",""trial"",""time""
""fullscreenenter"",""1"",""1632""
","
","
","""event"",""trial"",""time""
""fullscreenenter"",""1"",""1632""
","
","","","","","","689.7000000178814","<p> You will see how many points you won or lost in the center of the screen. </p><p> Here is what you would see if you won 5 points: </p><p style=""color:green;font-size:50px;font-weight:bolder"">5</p>","","0","instructions","","","","","","","","","","",""
"learning-instructions","183","645532","0.0-11.0-1.0-0.6","3999","2","11","Male","approach_avoid_spark_v1","""event"",""trial"",""time""
""fullscreenenter"",""1"",""1632""
","
","
","""event"",""trial"",""time""
""fullscreenenter"",""1"",""1632""
","
","","","","","","493.09999999403954","<p> And here is what you would see if you lost 3 points: </p><p style=""color:red;font-size:50px;font-weight:bolder"">-3</p>","","0","instructions","","","","","","","","","","",""
"learning-instructions","184","662884","0.0-11.0-1.0-0.7","3999","2","11","Male","approach_avoid_spark_v1","""event"",""trial"",""time""
""fullscreenenter"",""1"",""1632""
","
","
","""event"",""trial"",""time""
""fullscreenenter"",""1"",""1632""
","
","","","","","","2224.2999999821186","<p> Some farm animals will become very satisfied or very sick. </p><p> These farm animals will make you win or lose LOTS of points. </p><p> Other farm animals have less strong feelings. </p><p> These farm animals will make you win or lose small amounts of points. </p>","","0","instructions","","","","","","","","","","",""
"learning-instructions","185","675192","0.0-11.0-1.0-0.8","3999","2","11","Male","approach_avoid_spark_v1","""event"",""trial"",""time""
""fullscreenenter"",""1"",""1632""
","
","
","""event"",""trial"",""time""
""fullscreenenter"",""1"",""1632""
","
","","","","","","574.2000000178814","<p> If you choose to leave the farm animal alone, you will not win or lose any points. </p><p>  However, in the center of the screen, you will see the number of points you WOULD HAVE won or lost if you had fed the farm animal. </p>","","0","instructions","","","","","","","","","","",""
"learning-instructions","186","689204","0.0-11.0-1.0-0.9","3999","2","11","Male","approach_avoid_spark_v1","""event"",""trial"",""time""
""fullscreenenter"",""1"",""1632""
","
","
","""event"",""trial"",""time""
""fullscreenenter"",""1"",""1632""
","
","","","","","","2927.800000011921","<p> Here is what you might see if you did not feed the farm animal but the animal was hungry: </p><p style=""color:grey; font-size:50px; display: inline-block; border-spacing: 15px; border-width:3px; border-style:solid; border-color:red"">  &nbsp; 6 &nbsp; </p><p> Remember, in this case, you would not win or lose ANY points because you did not feed the farm animal.  </p>","","0","instructions","","","","","","","","","","",""
"learning-instructions","187","698076","0.0-11.0-1.0-0.10","3999","2","11","Male","approach_avoid_spark_v1","""event"",""trial"",""time""
""fullscreenenter"",""1"",""1632""
","
","
","""event"",""trial"",""time""
""fullscreenenter"",""1"",""1632""
","
","","","","","","1303.8999999761581","<p> Try to make the best choice for each farm animal because </p><p> at the end of the game, you will earn bonus money based on how many points you earned. </p>","","0","instructions","","","","","","","","","","",""
"learning-instructions","188","710218","0.0-11.0-1.0-0.11","3999","2","11","Male","approach_avoid_spark_v1","""event"",""trial"",""time""
""fullscreenenter"",""1"",""1632""
","
","
","""event"",""trial"",""time""
""fullscreenenter"",""1"",""1632""
","
","","","","","","3952.4000000059605","<p> You will have 3 seconds to make each choice. Try to respond before time runs out! </p><p> You will lose 5 points each time you do not make a response. </p>","","0","instructions","","","","","","","","","","",""
"html-keyboard-response","189","710822","0.0-11.0-2.0-0.0","3999","2","11","Male","approach_avoid_spark_v1","""event"",""trial"",""time""
""fullscreenenter"",""1"",""1632""
","
","
","""event"",""trial"",""time""
""fullscreenenter"",""1"",""1632""
","
","","","","","","null","<div style=""font-size:60px;"">+</div>","null","","fixation","","","","","","","","","","",""
"aa-learning-trial","190","713828","0.0-11.0-2.0-1.0","3999","2","11","Male","approach_avoid_spark_v1","""event"",""trial"",""time""
""fullscreenenter"",""1"",""1632""
","
","
","""event"",""trial"",""time""
""fullscreenenter"",""1"",""1632""
","
","","","","","","1954.800000011921","images/goat1.png","","","learning","-1","-1","1","1","goat","animals","1","1","","neutral","0"
"html-keyboard-response","191","714331","0.0-11.0-2.0-0.1","3999","2","11","Male","approach_avoid_spark_v1","""event"",""trial"",""time""
""fullscreenenter"",""1"",""1632""
","
","
","""event"",""trial"",""time""
""fullscreenenter"",""1"",""1632""
","
","","","","","","null","<div style=""font-size:60px;"">+</div>","null","","fixation","","","","","","","","","","",""
"aa-learning-trial","192","717337","0.0-11.0-2.0-1.1","3999","2","11","Male","approach_avoid_spark_v1","""event"",""trial"",""time""
""fullscreenenter"",""1"",""1632""
","
","
","""event"",""trial"",""time""
""fullscreenenter"",""1"",""1632""
","
","","","","","","983.3000000119209","images/cow6.png","","","learning","-4","-4","1","1","cow","animals","1","1","","bad","[-3]"
"html-keyboard-response","193","717840","0.0-11.0-2.0-0.2","3999","2","11","Male","approach_avoid_spark_v1","""event"",""trial"",""time""
""fullscreenenter"",""1"",""1632""
","
","
","""event"",""trial"",""time""
""fullscreenenter"",""1"",""1632""
","
","","","","","","null","<div style=""font-size:60px;"">+</div>","null","","fixation","","","","","","","","","","",""
"aa-learning-trial","194","720846","0.0-11.0-2.0-1.2","3999","2","11","Male","approach_avoid_spark_v1","""event"",""trial"",""time""
""fullscreenenter"",""1"",""1632""
","
","
","""event"",""trial"",""time""
""fullscreenenter"",""1"",""1632""
","
","","","","","","339.30000001192093","images/horse2.png","","","learning","5","5","1","1","horse","animals","1","1","","good","[6]"
"html-keyboard-response","195","721349","0.0-11.0-2.0-0.3","3999","2","11","Male","approach_avoid_spark_v1","""event"",""trial"",""time""
""fullscreenenter"",""1"",""1632""
","
","
","""event"",""trial"",""time""
""fullscreenenter"",""1"",""1632""
","
","","","","","","null","<div style=""font-size:60px;"">+</div>","null","","fixation","","","","","","","","","","",""
"aa-learning-trial","196","724356","0.0-11.0-2.0-1.3","3999","2","11","Male","approach_avoid_spark_v1","""event"",""trial"",""time""
""fullscreenenter"",""1"",""1632""
","
","
","""event"",""trial"",""time""
""fullscreenenter"",""1"",""1632""
","
","","","","","","640.6000000238419","images/horse2.png","","","learning","6","6","1","1","horse","animals","1","1","","good","[6]"
"html-keyboard-response","197","724857","0.0-11.0-2.0-0.4","3999","2","11","Male","approach_avoid_spark_v1","""event"",""trial"",""time""
""fullscreenenter"",""1"",""1632""
","
","
","""event"",""trial"",""time""
""fullscreenenter"",""1"",""1632""
","
","","","","","","null","<div style=""font-size:60px;"">+</div>","null","","fixation","","","","","","","","","","",""
"aa-learning-trial","198","727864","0.0-11.0-2.0-1.4","3999","2","11","Male","approach_avoid_spark_v1","""event"",""trial"",""time""
""fullscreenenter"",""1"",""1632""
","
","
","""event"",""trial"",""time""
""fullscreenenter"",""1"",""1632""
","
","","","","","","470.19999998807907","images/horse7.png","","","learning","8","0","0","0","horse","animals","1","1","","good","[6]"
"html-keyboard-response","199","728369","0.0-11.0-2.0-0.5","3999","2","11","Male","approach_avoid_spark_v1","""event"",""trial"",""time""
""fullscreenenter"",""1"",""1632""
","
","
","""event"",""trial"",""time""
""fullscreenenter"",""1"",""1632""
","
","","","","","","null","<div style=""font-size:60px;"">+</div>","null","","fixation","","","","","","","","","","",""
"aa-learning-trial","200","731375","0.0-11.0-2.0-1.5","3999","2","11","Male","approach_avoid_spark_v1","""event"",""trial"",""time""
""fullscreenenter"",""1"",""1632""
","
","
","""event"",""trial"",""time""
""fullscreenenter"",""1"",""1632""
","
","","","","","","532","images/horse6.png","","","learning","4","0","0","0","horse","animals","1","1","","good","[6]"
"html-keyboard-response","201","731881","0.0-11.0-2.0-0.6","3999","2","11","Male","approach_avoid_spark_v1","""event"",""trial"",""time""
""fullscreenenter"",""1"",""1632""
","
","
","""event"",""trial"",""time""
""fullscreenenter"",""1"",""1632""
","
","","","","","","null","<div style=""font-size:60px;"">+</div>","null","","fixation","","","","","","","","","","",""
"aa-learning-trial","202","734889","0.0-11.0-2.0-1.6","3999","2","11","Male","approach_avoid_spark_v1","""event"",""trial"",""time""
""fullscreenenter"",""1"",""1632""
","
","
","""event"",""trial"",""time""
""fullscreenenter"",""1"",""1632""
","
","","","","","","540.3000000119209","images/cow6.png","","","learning","-5","0","0","0","cow","animals","1","1","","bad","[-3]"
"html-keyboard-response","203","735394","0.0-11.0-2.0-0.7","3999","2","11","Male","approach_avoid_spark_v1","""event"",""trial"",""time""
""fullscreenenter"",""1"",""1632""
","
","
","""event"",""trial"",""time""
""fullscreenenter"",""1"",""1632""
","
","","","","","","null","<div style=""font-size:60px;"">+</div>","null","","fixation","","","","","","","","","","",""
"aa-learning-trial","204","738400","0.0-11.0-2.0-1.7","3999","2","11","Male","approach_avoid_spark_v1","""event"",""trial"",""time""
""fullscreenenter"",""1"",""1632""
","
","
","""event"",""trial"",""time""
""fullscreenenter"",""1"",""1632""
","
","","","","","","349.7999999821186","images/cow4.png","","","learning","-1","-1","1","1","cow","animals","1","1","","bad","[-3]"
"html-keyboard-response","205","738906","0.0-11.0-2.0-0.8","3999","2","11","Male","approach_avoid_spark_v1","""event"",""trial"",""time""
""fullscreenenter"",""1"",""1632""
","
","
","""event"",""trial"",""time""
""fullscreenenter"",""1"",""1632""
","
","","","","","","null","<div style=""font-size:60px;"">+</div>","null","","fixation","","","","","","","","","","",""
"aa-learning-trial","206","741915","0.0-11.0-2.0-1.8","3999","2","11","Male","approach_avoid_spark_v1","""event"",""trial"",""time""
""fullscreenenter"",""1"",""1632""
","
","
","""event"",""trial"",""time""
""fullscreenenter"",""1"",""1632""
","
","","","","","","298.30000001192093","images/goat7.png","","","learning","-1","-1","1","1","goat","animals","1","1","","neutral","0"
"html-keyboard-response","207","742421","0.0-11.0-2.0-0.9","3999","2","11","Male","approach_avoid_spark_v1","""event"",""trial"",""time""
""fullscreenenter"",""1"",""1632""
","
","
","""event"",""trial"",""time""
""fullscreenenter"",""1"",""1632""
","
","","","","","","null","<div style=""font-size:60px;"">+</div>","null","","fixation","","","","","","","","","","",""
"aa-learning-trial","208","745424","0.0-11.0-2.0-1.9","3999","2","11","Male","approach_avoid_spark_v1","""event"",""trial"",""time""
""fullscreenenter"",""1"",""1632""
","
","
","""event"",""trial"",""time""
""fullscreenenter"",""1"",""1632""
","
","","","","","","280.19999998807907","images/cow4.png","","","learning","-5","0","0","0","cow","animals","1","1","","bad","[-3]"
"html-keyboard-response","209","745931","0.0-11.0-2.0-0.10","3999","2","11","Male","approach_avoid_spark_v1","""event"",""trial"",""time""
""fullscreenenter"",""1"",""1632""
","
","
","""event"",""trial"",""time""
""fullscreenenter"",""1"",""1632""
","
","","","","","","null","<div style=""font-size:60px;"">+</div>","null","","fixation","","","","","","","","","","",""
"aa-learning-trial","210","748939","0.0-11.0-2.0-1.10","3999","2","11","Male","approach_avoid_spark_v1","""event"",""trial"",""time""
""fullscreenenter"",""1"",""1632""
","
","
","""event"",""trial"",""time""
""fullscreenenter"",""1"",""1632""
","
","","","","","","374.09999999403954","images/goat2.png","","","learning","2","2","1","1","goat","animals","1","1","","neutral","0"
"html-keyboard-response","211","749440","0.0-11.0-2.0-0.11","3999","2","11","Male","approach_avoid_spark_v1","""event"",""trial"",""time""
""fullscreenenter"",""1"",""1632""
","
","
","""event"",""trial"",""time""
""fullscreenenter"",""1"",""1632""
","
","","","","","","null","<div style=""font-size:60px;"">+</div>","null","","fixation","","","","","","","","","","",""
"aa-learning-trial","212","752448","0.0-11.0-2.0-1.11","3999","2","11","Male","approach_avoid_spark_v1","""event"",""trial"",""time""
""fullscreenenter"",""1"",""1632""
","
","
","""event"",""trial"",""time""
""fullscreenenter"",""1"",""1632""
","
","","","","","","364.09999999403954","images/goat1.png","","","learning","3","3","1","1","goat","animals","1","1","","neutral","0"
"html-keyboard-response","213","752950","0.0-11.0-2.0-0.12","3999","2","11","Male","approach_avoid_spark_v1","""event"",""trial"",""time""
""fullscreenenter"",""1"",""1632""
","
","
","""event"",""trial"",""time""
""fullscreenenter"",""1"",""1632""
","
","","","","","","null","<div style=""font-size:60px;"">+</div>","null","","fixation","","","","","","","","","","",""
"aa-learning-trial","214","755958","0.0-11.0-2.0-1.12","3999","2","11","Male","approach_avoid_spark_v1","""event"",""trial"",""time""
""fullscreenenter"",""1"",""1632""
","
","
","""event"",""trial"",""time""
""fullscreenenter"",""1"",""1632""
","
","","","","","","284.30000001192093","images/goat7.png","","","learning","3","3","1","1","goat","animals","1","1","","neutral","0"
"html-keyboard-response","215","756464","0.0-11.0-2.0-0.13","3999","2","11","Male","approach_avoid_spark_v1","""event"",""trial"",""time""
""fullscreenenter"",""1"",""1632""
","
","
","""event"",""trial"",""time""
""fullscreenenter"",""1"",""1632""
","
","","","","","","null","<div style=""font-size:60px;"">+</div>","null","","fixation","","","","","","","","","","",""
"aa-learning-trial","216","759467","0.0-11.0-2.0-1.13","3999","2","11","Male","approach_avoid_spark_v1","""event"",""trial"",""time""
""fullscreenenter"",""1"",""1632""
","
","
","""event"",""trial"",""time""
""fullscreenenter"",""1"",""1632""
","
","","","","","","297","images/cow2.png","","","learning","-4","-4","1","1","cow","animals","1","1","","bad","[-3]"
"html-keyboard-response","217","759974","0.0-11.0-2.0-0.14","3999","2","11","Male","approach_avoid_spark_v1","""event"",""trial"",""time""
""fullscreenenter"",""1"",""1632""
","
","
","""event"",""trial"",""time""
""fullscreenenter"",""1"",""1632""
","
","","","","","","null","<div style=""font-size:60px;"">+</div>","null","","fixation","","","","","","","","","","",""
"aa-learning-trial","218","762982","0.0-11.0-2.0-1.14","3999","2","11","Male","approach_avoid_spark_v1","""event"",""trial"",""time""
""fullscreenenter"",""1"",""1632""
","
","
","""event"",""trial"",""time""
""fullscreenenter"",""1"",""1632""
","
","","","","","","325.80000001192093","images/horse7.png","","","learning","6","0","0","0","horse","animals","1","1","","good","[6]"
"html-keyboard-response","219","763488","0.0-11.0-2.0-0.15","3999","2","11","Male","approach_avoid_spark_v1","""event"",""trial"",""time""
""fullscreenenter"",""1"",""1632""
","
","
","""event"",""trial"",""time""
""fullscreenenter"",""1"",""1632""
","
","","","","","","null","<div style=""font-size:60px;"">+</div>","null","","fixation","","","","","","","","","","",""
"aa-learning-trial","220","766497","0.0-11.0-2.0-1.15","3999","2","11","Male","approach_avoid_spark_v1","""event"",""trial"",""time""
""fullscreenenter"",""1"",""1632""
","
","
","""event"",""trial"",""time""
""fullscreenenter"",""1"",""1632""
","
","","","","","","1025.4000000059605","images/goat5.png","","","learning","[-1]","-1","1","1","goat","animals","1","1","","neutral","0"
"html-keyboard-response","221","766998","0.0-11.0-2.0-0.16","3999","2","11","Male","approach_avoid_spark_v1","""event"",""trial"",""time""
""fullscreenenter"",""1"",""1632""
","
","
","""event"",""trial"",""time""
""fullscreenenter"",""1"",""1632""
","
","","","","","","null","<div style=""font-size:60px;"">+</div>","null","","fixation","","","","","","","","","","",""
"aa-learning-trial","222","770006","0.0-11.0-2.0-1.16","3999","2","11","Male","approach_avoid_spark_v1","""event"",""trial"",""time""
""fullscreenenter"",""1"",""1632""
","
","
","""event"",""trial"",""time""
""fullscreenenter"",""1"",""1632""
","
","","","","","","374","images/goat7.png","","","learning","-1","-1","1","1","goat","animals","1","1","","neutral","0"
"html-keyboard-response","223","770512","0.0-11.0-2.0-0.17","3999","2","11","Male","approach_avoid_spark_v1","""event"",""trial"",""time""
""fullscreenenter"",""1"",""1632""
","
","
","""event"",""trial"",""time""
""fullscreenenter"",""1"",""1632""
","
","","","","","","null","<div style=""font-size:60px;"">+</div>","null","","fixation","","","","","","","","","","",""
"aa-learning-trial","224","773516","0.0-11.0-2.0-1.17","3999","2","11","Male","approach_avoid_spark_v1","""event"",""trial"",""time""
""fullscreenenter"",""1"",""1632""
","
","
","""event"",""trial"",""time""
""fullscreenenter"",""1"",""1632""
","
","","","","","","179.5","images/cow4.png","","","learning","-5","-5","1","1","cow","animals","1","1","","bad","[-3]"
"html-keyboard-response","225","774017","0.0-11.0-2.0-0.18","3999","2","11","Male","approach_avoid_spark_v1","""event"",""trial"",""time""
""fullscreenenter"",""1"",""1632""
","
","
","""event"",""trial"",""time""
""fullscreenenter"",""1"",""1632""
","
","","","","","","null","<div style=""font-size:60px;"">+</div>","null","","fixation","","","","","","","","","","",""
"aa-learning-trial","226","777021","0.0-11.0-2.0-1.18","3999","2","11","Male","approach_avoid_spark_v1","""event"",""trial"",""time""
""fullscreenenter"",""1"",""1632""
","
","
","""event"",""trial"",""time""
""fullscreenenter"",""1"",""1632""
","
","","","","","","226.60000002384186","images/horse7.png","","","learning","6","6","1","1","horse","animals","1","1","","good","[6]"
"html-keyboard-response","227","777526","0.0-11.0-2.0-0.19","3999","2","11","Male","approach_avoid_spark_v1","""event"",""trial"",""time""
""fullscreenenter"",""1"",""1632""
","
","
","""event"",""trial"",""time""
""fullscreenenter"",""1"",""1632""
","
","","","","","","null","<div style=""font-size:60px;"">+</div>","null","","fixation","","","","","","","","","","",""
"aa-learning-trial","228","780535","0.0-11.0-2.0-1.19","3999","2","11","Male","approach_avoid_spark_v1","""event"",""trial"",""time""
""fullscreenenter"",""1"",""1632""
","
","
","""event"",""trial"",""time""
""fullscreenenter"",""1"",""1632""
","
","","","","","","136","images/cow2.png","","","learning","-5","-5","1","1","cow","animals","1","1","","bad","[-3]"
"html-keyboard-response","229","781040","0.0-11.0-2.0-0.20","3999","2","11","Male","approach_avoid_spark_v1","""event"",""trial"",""time""
""fullscreenenter"",""1"",""1632""
","
","
","""event"",""trial"",""time""
""fullscreenenter"",""1"",""1632""
","
","","","","","","null","<div style=""font-size:60px;"">+</div>","null","","fixation","","","","","","","","","","",""
"aa-learning-trial","230","784044","0.0-11.0-2.0-1.20","3999","2","11","Male","approach_avoid_spark_v1","""event"",""trial"",""time""
""fullscreenenter"",""1"",""1632""
","
","
","""event"",""trial"",""time""
""fullscreenenter"",""1"",""1632""
","
","","","","","","33.80000001192093","images/horse6.png","","","learning","5","0","0","0","horse","animals","1","1","","good","[6]"
"html-keyboard-response","231","784551","0.0-11.0-2.0-0.21","3999","2","11","Male","approach_avoid_spark_v1","""event"",""trial"",""time""
""fullscreenenter"",""1"",""1632""
","
","
","""event"",""trial"",""time""
""fullscreenenter"",""1"",""1632""
","
","","","","","","null","<div style=""font-size:60px;"">+</div>","null","","fixation","","","","","","","","","","",""
"aa-learning-trial","232","787559","0.0-11.0-2.0-1.21","3999","2","11","Male","approach_avoid_spark_v1","""event"",""trial"",""time""
""fullscreenenter"",""1"",""1632""
","
","
","""event"",""trial"",""time""
""fullscreenenter"",""1"",""1632""
","
","","","","","","1.4000000059604645","images/cow6.png","","","learning","-4","-4","1","1","cow","animals","1","1","","bad","[-3]"
"html-keyboard-response","233","788065","0.0-11.0-2.0-0.22","3999","2","11","Male","approach_avoid_spark_v1","""event"",""trial"",""time""
""fullscreenenter"",""1"",""1632""
","
","
","""event"",""trial"",""time""
""fullscreenenter"",""1"",""1632""
","
","","","","","","null","<div style=""font-size:60px;"">+</div>","null","","fixation","","","","","","","","","","",""
"aa-learning-trial","234","791073","0.0-11.0-2.0-1.22","3999","2","11","Male","approach_avoid_spark_v1","""event"",""trial"",""time""
""fullscreenenter"",""1"",""1632""
","
","
","""event"",""trial"",""time""
""fullscreenenter"",""1"",""1632""
","
","","","","","","125.5","images/cow6.png","","","learning","-3","-3","1","1","cow","animals","1","1","","bad","[-3]"
"html-keyboard-response","235","791575","0.0-11.0-2.0-0.23","3999","2","11","Male","approach_avoid_spark_v1","""event"",""trial"",""time""
""fullscreenenter"",""1"",""1632""
","
","
","""event"",""trial"",""time""
""fullscreenenter"",""1"",""1632""
","
","","","","","","null","<div style=""font-size:60px;"">+</div>","null","","fixation","","","","","","","","","","",""
"aa-learning-trial","236","794583","0.0-11.0-2.0-1.23","3999","2","11","Male","approach_avoid_spark_v1","""event"",""trial"",""time""
""fullscreenenter"",""1"",""1632""
","
","
","""event"",""trial"",""time""
""fullscreenenter"",""1"",""1632""
","
","","","","","","266.19999998807907","images/horse2.png","","","learning","6","0","0","0","horse","animals","1","1","","good","[6]"
"html-keyboard-response","237","795084","0.0-11.0-2.0-0.24","3999","2","11","Male","approach_avoid_spark_v1","""event"",""trial"",""time""
""fullscreenenter"",""1"",""1632""
","
","
","""event"",""trial"",""time""
""fullscreenenter"",""1"",""1632""
","
