"trial_type","trial_index","time_elapsed","internal_node_id","subject_id","task_condition","age","gender","task_version","interactions","blur_events","focus_events","fullscreenenter_events","fullscreenexit_events","success","timeout","failed_images","failed_audio","failed_video","rt","stimulus","response","button_pressed","task_part","approach_reward","points","key_press","option_selected","stim_cat","task_block","block_condition","block_number","correct","cat_type","mean_cat_reward"
"pavlovia","0","8","0.0-0.0","5714","2","8","Male","approach_avoid_spark_v1","""event"",""trial"",""time""
""fullscreenenter"",""1"",""3131""
","
","
","""event"",""trial"",""time""
""fullscreenenter"",""1"",""3131""
","
","","","","","","","","","","","","","","","","","","","","",""
"fullscreen","1","4061","0.0-1.0","5714","2","8","Male","approach_avoid_spark_v1","""event"",""trial"",""time""
""fullscreenenter"",""1"",""3131""
","
","
","""event"",""trial"",""time""
""fullscreenenter"",""1"",""3131""
","
","true","","","","","","","","","","","","","","","","","","","",""
"preload","2","9114","0.0-2.0","5714","2","8","Male","approach_avoid_spark_v1","""event"",""trial"",""time""
""fullscreenenter"",""1"",""3131""
","
","
","""event"",""trial"",""time""
""fullscreenenter"",""1"",""3131""
","
","true","false","[]","[]","[]","","","","","","","","","","","","","","","",""
"audio-keyboard-response","3","15314","0.0-3.0","5714","2","8","Male","approach_avoid_spark_v1","""event"",""trial"",""time""
""fullscreenenter"",""1"",""3131""
","
","
","""event"",""trial"",""time""
""fullscreenenter"",""1"",""3131""
","
","","","","","","6200","audio/beep_loop.wav"," ","","","","","","","","","","","","",""
"audio-button-response","4","17549","0.0-4.0","5714","2","8","Male","approach_avoid_spark_v1","""event"",""trial"",""time""
""fullscreenenter"",""1"",""3131""
","
","
","""event"",""trial"",""time""
""fullscreenenter"",""1"",""3131""
","
","","","","","","2229","audio/shark.wav","4","","","","","","","","","","","","",""
"audio-button-response","5","20176","0.0-5.0","5714","2","8","Male","approach_avoid_spark_v1","""event"",""trial"",""time""
""fullscreenenter"",""1"",""3131""
","
","
","""event"",""trial"",""time""
""fullscreenenter"",""1"",""3131""
","
","","","","","","1619","audio/turtle.wav","1","","","","","","","","","","","","",""
"preload","6","23047","0.0-6.0","5714","2","8","Male","approach_avoid_spark_v1","""event"",""trial"",""time""
""fullscreenenter"",""1"",""3131""
","
","
","""event"",""trial"",""time""
""fullscreenenter"",""1"",""3131""
","
","true","false","[]","[]","[]","","","","","","","","","","","","","","","",""
"html-keyboard-response","7","27157","0.0-7.0","5714","2","8","Male","approach_avoid_spark_v1","""event"",""trial"",""time""
""fullscreenenter"",""1"",""3131""
","
","
","""event"",""trial"",""time""
""fullscreenenter"",""1"",""3131""
","
","","","","","","4108.0999999940395","Welcome to the experiment. Press any key to begin and to advance the instructions.","b","","","","","","","","","","","","",""
"learning-instructions","8","39203","0.0-8.0-0.0-0.0","5714","2","8","Male","approach_avoid_spark_v1","""event"",""trial"",""time""
""fullscreenenter"",""1"",""3131""
","
","
","""event"",""trial"",""time""
""fullscreenenter"",""1"",""3131""
","
","","","","","","5091.0999999940395","<p> Welcome! Today you are going to play 6 different rounds of a decision-making game. </p><p> Use the mouse to click next to continue. </p>","","0","instructions","","","","","","","","","","",""
"learning-instructions","9","43742","0.0-8.0-0.0-0.1","5714","2","8","Male","approach_avoid_spark_v1","""event"",""trial"",""time""
""fullscreenenter"",""1"",""3131""
","
","
","""event"",""trial"",""time""
""fullscreenenter"",""1"",""3131""
","
","","","","","","1801.2999999821186","<p> You will start with a practice round to learn the rules. </p>","","0","instructions","","","","","","","","","","",""
"learning-instructions","10","48633","0.0-8.0-0.0-0.2","5714","2","8","Male","approach_avoid_spark_v1","""event"",""trial"",""time""
""fullscreenenter"",""1"",""3131""
","
","
","""event"",""trial"",""time""
""fullscreenenter"",""1"",""3131""
","
","","","","","","1442.5","<p> Your goal in this round is to give out sports equipment to kids. </p></div>","","0","instructions","","","","","","","","","","",""
"learning-instructions","11","57572","0.0-8.0-0.0-0.3","5714","2","8","Male","approach_avoid_spark_v1","""event"",""trial"",""time""
""fullscreenenter"",""1"",""3131""
","
","
","""event"",""trial"",""time""
""fullscreenenter"",""1"",""3131""
","
","","","","","","1391.5999999940395","<p> The kids only like some of the equipment.  </p><p> On each turn, you will see a piece of sports equipment.   </p><p> You need to decide whether to give it to the kids or not.  </p>","","0","instructions","","","","","","","","","","",""
"learning-instructions","12","63566","0.0-8.0-0.0-0.4","5714","2","8","Male","approach_avoid_spark_v1","""event"",""trial"",""time""
""fullscreenenter"",""1"",""3131""
","
","
","""event"",""trial"",""time""
""fullscreenenter"",""1"",""3131""
","
","","","","","","1235.199999988079","<p> You can give them the equipment by pressing 1 and choose not to give it to them by pressing 0. </p><br><div class=""choice-instructions-grid""> <div class=""choice-option""><img src=""images/approach.png"" class=""choice-option-img"" stage=""instructions"" position=""0"" ><div class=""choice-option-text""> Press ""1."" </div></div><div class=""choice-option""><img src=""images/avoid.png"" class=""choice-option-img"" stage=""instructions"" position=""1"" ><div class=""choice-option-text""> Press ""0."" </div></div>","","0","instructions","","","","","","","","","","",""
"learning-instructions","13","72283","0.0-8.0-0.0-0.5","5714","2","8","Male","approach_avoid_spark_v1","""event"",""trial"",""time""
""fullscreenenter"",""1"",""3131""
","
","
","""event"",""trial"",""time""
""fullscreenenter"",""1"",""3131""
","
","","","","","","1322.5999999940395","<p> If you give them a piece of equipment they like, they will be happy! </p><p> But if you give them a piece of equipment they do not like, they will be sad. </p>","","0","instructions","","","","","","","","","","",""
"learning-instructions","14","84392","0.0-8.0-0.0-0.6","5714","2","8","Male","approach_avoid_spark_v1","""event"",""trial"",""time""
""fullscreenenter"",""1"",""3131""
","
","
","""event"",""trial"",""time""
""fullscreenenter"",""1"",""3131""
","
","","","","","","1579.9000000059605","<p> You will earn points based on how you make kids feel. </p><p> If you make them happy, you will WIN anywhere from 1 - 9 points, </p><p> but if you make them sad, you will LOSE anywhere from 1 - 9 points. </p>","","0","instructions","","","","","","","","","","",""
"learning-instructions","15","95634","0.0-8.0-0.0-0.7","5714","2","8","Male","approach_avoid_spark_v1","""event"",""trial"",""time""
""fullscreenenter"",""1"",""3131""
","
","
","""event"",""trial"",""time""
""fullscreenenter"",""1"",""3131""
","
","","","","","","1662.300000011921","<p> You will see how many points you won or lost in the center of the screen. </p><p> Here is what you would see if you won 6 points: </p><p style=""color:green;font-size:50px;font-weight:bolder"">6</p><p style=""color:green"">The text is GREEN because you WON points.</p>","","0","instructions","","","","","","","","","","",""
"learning-instructions","16","108944","0.0-8.0-0.0-0.8","5714","2","8","Male","approach_avoid_spark_v1","""event"",""trial"",""time""
""fullscreenenter"",""1"",""3131""
","
","
","""event"",""trial"",""time""
""fullscreenenter"",""1"",""3131""
","
","","","","","","7792.199999988079","<p> And here is what you would see if you lost 4 points: </p><p style=""color:red;font-size:50px;font-weight:bolder"">-4</p><p style=""color:red"">The text is RED because you LOST points. </p>","","0","instructions","","","","","","","","","","",""
"learning-instructions","17","125836","0.0-8.0-0.0-0.9","5714","2","8","Male","approach_avoid_spark_v1","""event"",""trial"",""time""
""fullscreenenter"",""1"",""3131""
","
","
","""event"",""trial"",""time""
""fullscreenenter"",""1"",""3131""
","
","","","","","","2173.800000011921","<p> Some of the equipment will make the kids VERY happy or sad. </p><p> These pieces of equipment will make you win or lose LOTS of points. </p><p> Other pieces of equipment will only make the kids a little happy or sad. </p><p> These pieces of equipment will make you win or lose small amounts of points. </p>","","0","instructions","","","","","","","","","","",""
"learning-instructions","18","138049","0.0-8.0-0.0-0.10","5714","2","8","Male","approach_avoid_spark_v1","""event"",""trial"",""time""
""fullscreenenter"",""1"",""3131""
","
","
","""event"",""trial"",""time""
""fullscreenenter"",""1"",""3131""
","
","","","","","","1578","<p> If you choose not to give them the equipment, you will not win or lose any points. </p><p>  However, in the center of the screen, you will see the number of points you WOULD HAVE won or lost if you had given them the equipment. </p>","","0","instructions","","","","","","","","","","",""
"learning-instructions","19","162499","0.0-8.0-0.0-0.11","5714","2","8","Male","approach_avoid_spark_v1","""event"",""trial"",""time""
""fullscreenenter"",""1"",""3131""
","
","
","""event"",""trial"",""time""
""fullscreenenter"",""1"",""3131""
","
","","","","","","2916.9000000059605","<p> Here is what you might see if you did not give the equipment to the kids but it would have made them happy: </p><p style=""color:grey; font-size:50px; display: inline-block; border-spacing: 15px; border-width:3px; border-style:solid; border-color:red"">  &nbsp; 7 &nbsp; </p><p> Remember, in this case, you would not win or lose ANY points because you did not give them the equipment.  </p><p style=""color:grey"">The text is GREY because you earned ZERO points. </p><p style=""color:red"">However, choosing to give the kids the equipment would have made you win points. The box around the text is RED because you chose the worse option. </p>","","0","instructions","","","","","","","","","","",""
"learning-instructions","20","187110","0.0-8.0-0.0-0.12","5714","2","8","Male","approach_avoid_spark_v1","""event"",""trial"",""time""
""fullscreenenter"",""1"",""3131""
","
","
","""event"",""trial"",""time""
""fullscreenenter"",""1"",""3131""
","
","","","","","","3527.4000000059605","<p> Here is what you might see if you did not give the equipment to the kids but it would have made them sad: </p><p style=""color:grey;font-size:50px; display: inline-block; border-spacing: 15px; border-width:3px; border-style:solid; border-color:green"">  &nbsp; -8 &nbsp; </p><p> Remember, in this case, you would not win or lose ANY points because you did not give them the equipment.  </p><p style=""color:grey"">The text is GREY because you earned ZERO points. </p><p  style=""color:green""> Choosing to give the kids the equipment would have made you lose points. The box around the text is GREEN because you chose the better option.</p>","","0","instructions","","","","","","","","","","",""
"learning-instructions","21","197290","0.0-8.0-0.0-0.13","5714","2","8","Male","approach_avoid_spark_v1","""event"",""trial"",""time""
""fullscreenenter"",""1"",""3131""
","
","
","""event"",""trial"",""time""
""fullscreenenter"",""1"",""3131""
","
","","","","","","1277.800000011921","<p> You will have 3 seconds to make each choice. Try to respond before time runs out! </p><p> You will lose 5 points each time you do not make a response. </p>","","0","instructions","","","","","","","","","","",""
"learning-instructions","22","204887","0.0-8.0-0.0-0.14","5714","2","8","Male","approach_avoid_spark_v1","""event"",""trial"",""time""
""fullscreenenter"",""1"",""3131""
","
","
","""event"",""trial"",""time""
""fullscreenenter"",""1"",""3131""
","
","","","","","","2165.4000000059605","<p> This is just a practice round, but in the real game, your bonus payment will depend on your total number of points.","","0","instructions","","","","","","","","","","",""
"learning-instructions","23","215230","0.0-8.0-0.0-0.15","5714","2","8","Male","approach_avoid_spark_v1","""event"",""trial"",""time""
""fullscreenenter"",""1"",""3131""
","
","
","""event"",""trial"",""time""
""fullscreenenter"",""1"",""3131""
","
","","","","","","4557.699999988079","<p> Remember, you can give them the equipment by pressing 1 and choose not to give it to them by pressing 0. </p><br><div class=""choice-instructions-grid""> <div class=""choice-option""><img src=""images/approach.png"" class=""choice-option-img"" stage=""instructions"" position=""0"" ><div class=""choice-option-text""> Press ""1."" </div></div><div class=""choice-option""><img src=""images/avoid.png"" class=""choice-option-img"" stage=""instructions"" position=""1"" ><div class=""choice-option-text""> Press ""0."" </div></div>","","0","instructions","","","","","","","","","","",""
"html-button-response","24","217890","0.0-8.0-1.0","5714","2","8","Male","approach_avoid_spark_v1","""event"",""trial"",""time""
""fullscreenenter"",""1"",""3131""
","
","
","""event"",""trial"",""time""
""fullscreenenter"",""1"",""3131""
","
","","","","","","2539.0999999940395","<p> Ready to practice? </p>","0","","","","","","","","","","","","",""
"html-keyboard-response","25","218513","0.0-8.0-2.0-0.0","5714","2","8","Male","approach_avoid_spark_v1","""event"",""trial"",""time""
""fullscreenenter"",""1"",""3131""
","
","
","""event"",""trial"",""time""
""fullscreenenter"",""1"",""3131""
","
","","","","","","null","<div style=""font-size:60px;"">+</div>","null","","fixation","","","","","","","","","","",""
"aa-learning-trial","26","221529","0.0-8.0-2.0-1.0","5714","2","8","Male","approach_avoid_spark_v1","""event"",""trial"",""time""
""fullscreenenter"",""1"",""3131""
","
","
","""event"",""trial"",""time""
""fullscreenenter"",""1"",""3131""
","
","","","","","","2959.9000000059605","images/ball3.png","","","learning","7","0","0","0","practice","practice","practice","-1","","",""
"html-keyboard-response","27","222048","0.0-8.0-2.0-0.1","5714","2","8","Male","approach_avoid_spark_v1","""event"",""trial"",""time""
""fullscreenenter"",""1"",""3131""
","
","
","""event"",""trial"",""time""
""fullscreenenter"",""1"",""3131""
","
","","","","","","null","<div style=""font-size:60px;"">+</div>","null","","fixation","","","","","","","","","","",""
"aa-learning-trial","28","225058","0.0-8.0-2.0-1.1","5714","2","8","Male","approach_avoid_spark_v1","""event"",""trial"",""time""
""fullscreenenter"",""1"",""3131""
","
","
","""event"",""trial"",""time""
""fullscreenenter"",""1"",""3131""
","
","","","","","","1224.5999999940395","images/ball4.png","","","learning","9","9","1","1","practice","practice","practice","-1","","",""
"html-keyboard-response","29","225568","0.0-8.0-2.0-0.2","5714","2","8","Male","approach_avoid_spark_v1","""event"",""trial"",""time""
""fullscreenenter"",""1"",""3131""
","
","
","""event"",""trial"",""time""
""fullscreenenter"",""1"",""3131""
","
","","","","","","null","<div style=""font-size:60px;"">+</div>","null","","fixation","","","","","","","","","","",""
"aa-learning-trial","30","228578","0.0-8.0-2.0-1.2","5714","2","8","Male","approach_avoid_spark_v1","""event"",""trial"",""time""
""fullscreenenter"",""1"",""3131""
","
","
","""event"",""trial"",""time""
""fullscreenenter"",""1"",""3131""
","
","","","","","","1362.7999999821186","images/ball2.png","","","learning","1","0","0","0","practice","practice","practice","-1","","",""
"html-keyboard-response","31","229088","0.0-8.0-2.0-0.3","5714","2","8","Male","approach_avoid_spark_v1","""event"",""trial"",""time""
""fullscreenenter"",""1"",""3131""
","
","
","""event"",""trial"",""time""
""fullscreenenter"",""1"",""3131""
","
","","","","","","null","<div style=""font-size:60px;"">+</div>","null","","fixation","","","","","","","","","","",""
"aa-learning-trial","32","232098","0.0-8.0-2.0-1.3","5714","2","8","Male","approach_avoid_spark_v1","""event"",""trial"",""time""
""fullscreenenter"",""1"",""3131""
","
","
","""event"",""trial"",""time""
""fullscreenenter"",""1"",""3131""
","
","","","","","","929.5","images/ball4.png","","","learning","1","1","1","1","practice","practice","practice","-1","","",""
"html-keyboard-response","33","232618","0.0-8.0-2.0-0.4","5714","2","8","Male","approach_avoid_spark_v1","""event"",""trial"",""time""
""fullscreenenter"",""1"",""3131""
","
","
","""event"",""trial"",""time""
""fullscreenenter"",""1"",""3131""
","
","","","","","","null","<div style=""font-size:60px;"">+</div>","null","","fixation","","","","","","","","","","",""
"aa-learning-trial","34","235639","0.0-8.0-2.0-1.4","5714","2","8","Male","approach_avoid_spark_v1","""event"",""trial"",""time""
""fullscreenenter"",""1"",""3131""
","
","
","""event"",""trial"",""time""
""fullscreenenter"",""1"",""3131""
","
","","","","","","561.9000000059605","images/ball4.png","","","learning","7","0","0","0","practice","practice","practice","-1","","",""
"html-keyboard-response","35","236158","0.0-8.0-2.0-0.5","5714","2","8","Male","approach_avoid_spark_v1","""event"",""trial"",""time""
""fullscreenenter"",""1"",""3131""
","
","
","""event"",""trial"",""time""
""fullscreenenter"",""1"",""3131""
","
","","","","","","null","<div style=""font-size:60px;"">+</div>","null","","fixation","","","","","","","","","","",""
"aa-learning-trial","36","239178","0.0-8.0-2.0-1.5","5714","2","8","Male","approach_avoid_spark_v1","""event"",""trial"",""time""
""fullscreenenter"",""1"",""3131""
","
","
","""event"",""trial"",""time""
""fullscreenenter"",""1"",""3131""
","
","","","","","","698.7999999821186","images/racket1.png","","","learning","-1","-1","1","1","practice","practice","practice","-1","","",""
"html-keyboard-response","37","239698","0.0-8.0-2.0-0.6","5714","2","8","Male","approach_avoid_spark_v1","""event"",""trial"",""time""
""fullscreenenter"",""1"",""3131""
","
","
","""event"",""trial"",""time""
""fullscreenenter"",""1"",""3131""
","
","","","","","","null","<div style=""font-size:60px;"">+</div>","null","","fixation","","","","","","","","","","",""
"aa-learning-trial","38","242726","0.0-8.0-2.0-1.6","5714","2","8","Male","approach_avoid_spark_v1","""event"",""trial"",""time""
""fullscreenenter"",""1"",""3131""
","
","
","""event"",""trial"",""time""
""fullscreenenter"",""1"",""3131""
","
","","","","","","1164.3999999761581","images/racket1.png","","","learning","4","0","0","0","practice","practice","practice","-1","","",""
"html-keyboard-response","39","243231","0.0-8.0-2.0-0.7","5714","2","8","Male","approach_avoid_spark_v1","""event"",""trial"",""time""
""fullscreenenter"",""1"",""3131""
","
","
","""event"",""trial"",""time""
""fullscreenenter"",""1"",""3131""
","
","","","","","","null","<div style=""font-size:60px;"">+</div>","null","","fixation","","","","","","","","","","",""
"aa-learning-trial","40","246254","0.0-8.0-2.0-1.7","5714","2","8","Male","approach_avoid_spark_v1","""event"",""trial"",""time""
""fullscreenenter"",""1"",""3131""
","
","
","""event"",""trial"",""time""
""fullscreenenter"",""1"",""3131""
","
","","","","","","735.0999999940395","images/racket3.png","","","learning","-4","-4","1","1","practice","practice","practice","-1","","",""
"html-keyboard-response","41","246765","0.0-8.0-2.0-0.8","5714","2","8","Male","approach_avoid_spark_v1","""event"",""trial"",""time""
""fullscreenenter"",""1"",""3131""
","
","
","""event"",""trial"",""time""
""fullscreenenter"",""1"",""3131""
","
","","","","","","null","<div style=""font-size:60px;"">+</div>","null","","fixation","","","","","","","","","","",""
"aa-learning-trial","42","249784","0.0-8.0-2.0-1.8","5714","2","8","Male","approach_avoid_spark_v1","""event"",""trial"",""time""
""fullscreenenter"",""1"",""3131""
","
","
","""event"",""trial"",""time""
""fullscreenenter"",""1"",""3131""
","
","","","","","","1389.2000000178814","images/racket3.png","","","learning","-1","-1","1","1","practice","practice","practice","-1","","",""
"html-keyboard-response","43","250305","0.0-8.0-2.0-0.9","5714","2","8","Male","approach_avoid_spark_v1","""event"",""trial"",""time""
""fullscreenenter"",""1"",""3131""
","
","
","""event"",""trial"",""time""
""fullscreenenter"",""1"",""3131""
","
","","","","","","null","<div style=""font-size:60px;"">+</div>","null","","fixation","","","","","","","","","","",""
"aa-learning-trial","44","253314","0.0-8.0-2.0-1.9","5714","2","8","Male","approach_avoid_spark_v1","""event"",""trial"",""time""
""fullscreenenter"",""1"",""3131""
","
","
","""event"",""trial"",""time""
""fullscreenenter"",""1"",""3131""
","
","","","","","","650.7999999821186","images/ball2.png","","","learning","3","0","0","0","practice","practice","practice","-1","","",""
"html-keyboard-response","45","253824","0.0-8.0-2.0-0.10","5714","2","8","Male","approach_avoid_spark_v1","""event"",""trial"",""time""
""fullscreenenter"",""1"",""3131""
","
","
","""event"",""trial"",""time""
""fullscreenenter"",""1"",""3131""
","
","","","","","","null","<div style=""font-size:60px;"">+</div>","null","","fixation","","","","","","","","","","",""
"aa-learning-trial","46","256832","0.0-8.0-2.0-1.10","5714","2","8","Male","approach_avoid_spark_v1","""event"",""trial"",""time""
""fullscreenenter"",""1"",""3131""
","
","
","""event"",""trial"",""time""
""fullscreenenter"",""1"",""3131""
","
","","","","","","1807.5999999940395","images/racket3.png","","","learning","1","0","0","0","practice","practice","practice","-1","","",""
"html-keyboard-response","47","257343","0.0-8.0-2.0-0.11","5714","2","8","Male","approach_avoid_spark_v1","""event"",""trial"",""time""
""fullscreenenter"",""1"",""3131""
","
","
","""event"",""trial"",""time""
""fullscreenenter"",""1"",""3131""
","
","","","","","","null","<div style=""font-size:60px;"">+</div>","null","","fixation","","","","","","","","","","",""
"aa-learning-trial","48","260358","0.0-8.0-2.0-1.11","5714","2","8","Male","approach_avoid_spark_v1","""event"",""trial"",""time""
""fullscreenenter"",""1"",""3131""
","
","
","""event"",""trial"",""time""
""fullscreenenter"",""1"",""3131""
","
","","","","","","584.5999999940395","images/racket4.png","","","learning","8","8","1","1","practice","practice","practice","-1","","",""
"html-button-response","49","265448","0.0-8.0-3.0","5714","2","8","Male","approach_avoid_spark_v1","""event"",""trial"",""time""
""fullscreenenter"",""1"",""3131""
","
","
","""event"",""trial"",""time""
""fullscreenenter"",""1"",""3131""
","
","","","","","","5086.9000000059605","<p> You earned 12 points in the practice round! </p>","0","","break","","","","","","","","","","",""
"learning-instructions","50","273175","0.0-8.0-4.0-0.0","5714","2","8","Male","approach_avoid_spark_v1","""event"",""trial"",""time""
""fullscreenenter"",""1"",""3131""
","
","
","""event"",""trial"",""time""
""fullscreenenter"",""1"",""3131""
","
","","","","","","1720.3999999761581","<p> It's almost time to start the real game. </p><p> Before you start, we're going to ask you a few questions about how the game works. </p>","","0","instructions","","","","","","","","","","",""
"preload","51","274335","0.0-8.0-5.0","5714","2","8","Male","approach_avoid_spark_v1","""event"",""trial"",""time""
""fullscreenenter"",""1"",""3131""
","
","
","""event"",""trial"",""time""
""fullscreenenter"",""1"",""3131""
","
","true","false","[]","[]","[]","","","","","","","","","","","","","","","",""
"comp-q","52","280540","0.0-8.0-6.0-0.0","5714","2","8","Male","approach_avoid_spark_v1","""event"",""trial"",""time""
""fullscreenenter"",""1"",""3131""
","
","
","""event"",""trial"",""time""
""fullscreenenter"",""1"",""3131""
","
","","","","","","1204.5","<p> <b> True or False? </b> </p><p> If you see a number in GREY, that means you earned that many points. </p>","","1","comp_question","","","","","","","","","true","",""
"comp-q","53","290562","0.0-8.0-6.0-1.0","5714","2","8","Male","approach_avoid_spark_v1","""event"",""trial"",""time""
""fullscreenenter"",""1"",""3131""
","
","
","""event"",""trial"",""time""
""fullscreenenter"",""1"",""3131""
","
","","","","","","1657.5","<p><b> That's right! </b> If you see a grey number, it means you earned ZERO points. <br> The grey numbers show the points you WOULD HAVE earned if you had made the other choice. </p>","","0","comp_answer","","","","","","","","","","",""
"comp-q","54","296277","0.0-8.0-7.0-0.0","5714","2","8","Male","approach_avoid_spark_v1","""event"",""trial"",""time""
""fullscreenenter"",""1"",""3131""
","
","
","""event"",""trial"",""time""
""fullscreenenter"",""1"",""3131""
","
","","","","","","1012.3000000119209","<p> <b> True or False? </b> </p><p> You will have as much time as you want to make each choice. </p>","","1","comp_question","","","","","","","","","true","",""
"comp-q","55","301349","0.0-8.0-7.0-1.0","5714","2","8","Male","approach_avoid_spark_v1","""event"",""trial"",""time""
""fullscreenenter"",""1"",""3131""
","
","
","""event"",""trial"",""time""
""fullscreenenter"",""1"",""3131""
","
","","","","","","1034.7999999821186","<p> <b> That's right! </b> You will only have 3 seconds to make each choice. </p>","","0","comp_answer","","","","","","","","","","",""
"comp-q","56","306537","0.0-8.0-8.0-0.0","5714","2","8","Male","approach_avoid_spark_v1","""event"",""trial"",""time""
""fullscreenenter"",""1"",""3131""
","
","
","""event"",""trial"",""time""
""fullscreenenter"",""1"",""3131""
","
","","","","","","512.0999999940395","<p> <b> True or False? </b> </p><p> You should use the '1' and '0' keys to make your choices. </p>","","0","comp_question","","","","","","","","","true","",""
"comp-q","57","312636","0.0-8.0-8.0-1.0","5714","2","8","Male","approach_avoid_spark_v1","""event"",""trial"",""time""
""fullscreenenter"",""1"",""3131""
","
","
","""event"",""trial"",""time""
""fullscreenenter"",""1"",""3131""
","
","","","","","","1480.9000000059605","<p> <b> That's right! </b> You should use the '1' and '0' keys to make each choice. </p>","","0","comp_answer","","","","","","","","","","",""
"learning-instructions","58","320453","0.0-8.0-9.0-0.0","5714","2","8","Male","approach_avoid_spark_v1","""event"",""trial"",""time""
""fullscreenenter"",""1"",""3131""
","
","
","""event"",""trial"",""time""
""fullscreenenter"",""1"",""3131""
","
","","","","","","1526.5","<p> It's now time to start the real game. </p>Do your best, because the points you earn in the next rounds will influence your bonus payment. </p>","","0","instructions","","","","","","","","","","",""
"preload","59","320596","0.0-9.0-0.0","5714","2","8","Male","approach_avoid_spark_v1","""event"",""trial"",""time""
""fullscreenenter"",""1"",""3131""
","
","
","""event"",""trial"",""time""
""fullscreenenter"",""1"",""3131""
","
","true","false","[]","[]","[]","","","","","","","","","","","","","","","",""
"learning-instructions","60","325096","0.0-9.0-1.0-0.0","5714","2","8","Male","approach_avoid_spark_v1","""event"",""trial"",""time""
""fullscreenenter"",""1"",""3131""
","
","
","""event"",""trial"",""time""
""fullscreenenter"",""1"",""3131""
","
","","","","","","1349.9000000059605","<p> Your goal in this round is to eat tasty fruit. </p></div>","","0","instructions","","","","","","","","","","",""
"learning-instructions","61","336677","0.0-9.0-1.0-0.1","5714","2","8","Male","approach_avoid_spark_v1","""event"",""trial"",""time""
""fullscreenenter"",""1"",""3131""
","
","
","""event"",""trial"",""time""
""fullscreenenter"",""1"",""3131""
","
","","","","","","2122.300000011921","<p> Some of the fruits you will see are tasty. Others are rotten on the inside.  </p><p> On each turn, you will see a fruit.   </p><p> You need to decide whether to eat it or not.  </p>","","0","instructions","","","","","","","","","","",""
"learning-instructions","62","342847","0.0-9.0-1.0-0.2","5714","2","8","Male","approach_avoid_spark_v1","""event"",""trial"",""time""
""fullscreenenter"",""1"",""3131""
","
","
","""event"",""trial"",""time""
""fullscreenenter"",""1"",""3131""
","
","","","","","","1240.9000000059605","<p> You can eat the fruit by pressing 1 and choose not to eat it by pressing 0. </p><br><div class=""choice-instructions-grid""> <div class=""choice-option""><img src=""images/approach.png"" class=""choice-option-img"" stage=""instructions"" position=""0"" ><div class=""choice-option-text""> Press ""1."" </div></div><div class=""choice-option""><img src=""images/avoid.png"" class=""choice-option-img"" stage=""instructions"" position=""1"" ><div class=""choice-option-text""> Press ""0."" </div></div>","","0","instructions","","","","","","","","","","",""
"learning-instructions","63","351204","0.0-9.0-1.0-0.3","5714","2","8","Male","approach_avoid_spark_v1","""event"",""trial"",""time""
""fullscreenenter"",""1"",""3131""
","
","
","""event"",""trial"",""time""
""fullscreenenter"",""1"",""3131""
","
","","","","","","1118.1000000238419","<p> If you eat the fruit and it was tasty, you will win points! </p><p> But if you eat the fruit and it was rotten, you will lose points. </p>","","0","instructions","","","","","","","","","","",""
"learning-instructions","64","362658","0.0-9.0-1.0-0.4","5714","2","8","Male","approach_avoid_spark_v1","""event"",""trial"",""time""
""fullscreenenter"",""1"",""3131""
","
","
","""event"",""trial"",""time""
""fullscreenenter"",""1"",""3131""
","
","","","","","","442.90000000596046","<p> You will earn points based on how tasty or rotten the fruit was. </p><p> If it was tasty, you will WIN anywhere from 1 - 9 points, </p><p> but if it was rotten, you will LOSE anywhere from 1 - 9 points. </p>","","0","instructions","","","","","","","","","","",""
"learning-instructions","65","371077","0.0-9.0-1.0-0.5","5714","2","8","Male","approach_avoid_spark_v1","""event"",""trial"",""time""
""fullscreenenter"",""1"",""3131""
","
","
","""event"",""trial"",""time""
""fullscreenenter"",""1"",""3131""
","
","","","","","","1051.9000000059605","<p> You will see how many points you won or lost in the center of the screen. </p><p> Here is what you would see if you earned 5 points: </p><p style=""color:green;font-size:50px;font-weight:bolder"">5</p>","","0","instructions","","","","","","","","","","",""
"learning-instructions","66","375625","0.0-9.0-1.0-0.6","5714","2","8","Male","approach_avoid_spark_v1","""event"",""trial"",""time""
""fullscreenenter"",""1"",""3131""
","
","
","""event"",""trial"",""time""
""fullscreenenter"",""1"",""3131""
","
","","","","","","1199.7000000178814","<p> And here is what you would see if you lost 3 points: </p><p style=""color:red;font-size:50px;font-weight:bolder"">-3</p>","","0","instructions","","","","","","","","","","",""
"learning-instructions","67","390139","0.0-9.0-1.0-0.7","5714","2","8","Male","approach_avoid_spark_v1","""event"",""trial"",""time""
""fullscreenenter"",""1"",""3131""
","
","
","""event"",""trial"",""time""
""fullscreenenter"",""1"",""3131""
","
","","","","","","1034.5","<p> Some fruit is very tasty or very rotten. </p><p> These fruits will make you win or lose LOTS of points. </p><p> Other fruits are only kind of tasty or kind of rotten. </p><p> These fruits will make you win or lose small amounts of points. </p>","","0","instructions","","","","","","","","","","",""
"learning-instructions","68","401360","0.0-9.0-1.0-0.8","5714","2","8","Male","approach_avoid_spark_v1","""event"",""trial"",""time""
""fullscreenenter"",""1"",""3131""
","
","
","""event"",""trial"",""time""
""fullscreenenter"",""1"",""3131""
","
","","","","","","1064.2999999821186","<p> If you choose to not eat the fruit, you will not win or lose any points. </p><p>  However, in the center of the screen, you will see the number of points you WOULD HAVE earned if you had eaten the fruit. </p>","","0","instructions","","","","","","","","","","",""
"learning-instructions","69","412317","0.0-9.0-1.0-0.9","5714","2","8","Male","approach_avoid_spark_v1","""event"",""trial"",""time""
""fullscreenenter"",""1"",""3131""
","
","
","""event"",""trial"",""time""
""fullscreenenter"",""1"",""3131""
","
","","","","","","1341","<p> Here is what you might see if you did not eat the fruit but the fruit was tasty: </p><p style=""color:grey; font-size:50px; display: inline-block; border-spacing: 15px; border-width:3px; border-style:solid; border-color:red"">  &nbsp; 6 &nbsp; </p><p> Remember, in this case, you would not win or lose ANY points because you did not eat the fruit.  </p>","","0","instructions","","","","","","","","","","",""
"learning-instructions","70","420616","0.0-9.0-1.0-0.10","5714","2","8","Male","approach_avoid_spark_v1","""event"",""trial"",""time""
""fullscreenenter"",""1"",""3131""
","
","
","""event"",""trial"",""time""
""fullscreenenter"",""1"",""3131""
","
","","","","","","521.1999999880791","<p> Try to make the best choice for each fruit because </p><p> at the end of the game, you will earn bonus money based on how many points you earned. </p>","","0","instructions","","","","","","","","","","",""
"learning-instructions","71","429732","0.0-9.0-1.0-0.11","5714","2","8","Male","approach_avoid_spark_v1","""event"",""trial"",""time""
""fullscreenenter"",""1"",""3131""
","
","
","""event"",""trial"",""time""
""fullscreenenter"",""1"",""3131""
","
","","","","","","918.6999999880791","<p> You will have 3 seconds to make each choice. Try to respond before time runs out! </p><p> You will lose 5 points each time you do not make a response. </p>","","0","instructions","","","","","","","","","","",""
"html-keyboard-response","72","430360","0.0-9.0-2.0-0.0","5714","2","8","Male","approach_avoid_spark_v1","""event"",""trial"",""time""
""fullscreenenter"",""1"",""3131""
","
","
","""event"",""trial"",""time""
""fullscreenenter"",""1"",""3131""
","
","","","","","","null","<div style=""font-size:60px;"">+</div>","null","","fixation","","","","","","","","","","",""
"aa-learning-trial","73","433381","0.0-9.0-2.0-1.0","5714","2","8","Male","approach_avoid_spark_v1","""event"",""trial"",""time""
""fullscreenenter"",""1"",""3131""
","
","
","""event"",""trial"",""time""
""fullscreenenter"",""1"",""3131""
","
","","","","","","1901.5","images/orange5.png","","","learning","-2","-2","1","1","orange","fruit","2","0","","bad","[-4]"
"html-keyboard-response","74","433901","0.0-9.0-2.0-0.1","5714","2","8","Male","approach_avoid_spark_v1","""event"",""trial"",""time""
""fullscreenenter"",""1"",""3131""
","
","
","""event"",""trial"",""time""
""fullscreenenter"",""1"",""3131""
","
","","","","","","null","<div style=""font-size:60px;"">+</div>","null","","fixation","","","","","","","","","","",""
"aa-learning-trial","75","436921","0.0-9.0-2.0-1.1","5714","2","8","Male","approach_avoid_spark_v1","""event"",""trial"",""time""
""fullscreenenter"",""1"",""3131""
","
","
","""event"",""trial"",""time""
""fullscreenenter"",""1"",""3131""
","
","","","","","","647.0999999940395","images/apple5.png","","","learning","8","0","0","0","apple","fruit","2","0","","neutral","0"
"html-keyboard-response","76","437441","0.0-9.0-2.0-0.2","5714","2","8","Male","approach_avoid_spark_v1","""event"",""trial"",""time""
""fullscreenenter"",""1"",""3131""
","
","
","""event"",""trial"",""time""
""fullscreenenter"",""1"",""3131""
","
","","","","","","null","<div style=""font-size:60px;"">+</div>","null","","fixation","","","","","","","","","","",""
"aa-learning-trial","77","440461","0.0-9.0-2.0-1.2","5714","2","8","Male","approach_avoid_spark_v1","""event"",""trial"",""time""
""fullscreenenter"",""1"",""3131""
","
","
","""event"",""trial"",""time""
""fullscreenenter"",""1"",""3131""
","
","","","","","","1334.300000011921","images/banana3.png","","","learning","3","3","1","1","banana","fruit","2","0","","good","[5]"
"html-keyboard-response","78","440971","0.0-9.0-2.0-0.3","5714","2","8","Male","approach_avoid_spark_v1","""event"",""trial"",""time""
""fullscreenenter"",""1"",""3131""
","
","
","""event"",""trial"",""time""
""fullscreenenter"",""1"",""3131""
","
","","","","","","null","<div style=""font-size:60px;"">+</div>","null","","fixation","","","","","","","","","","",""
"aa-learning-trial","79","443982","0.0-9.0-2.0-1.3","5714","2","8","Male","approach_avoid_spark_v1","""event"",""trial"",""time""
""fullscreenenter"",""1"",""3131""
","
","
","""event"",""trial"",""time""
""fullscreenenter"",""1"",""3131""
","
","","","","","","653.7000000178814","images/orange4.png","","","learning","-3","0","0","0","orange","fruit","2","0","","bad","[-4]"
"html-keyboard-response","80","444491","0.0-9.0-2.0-0.4","5714","2","8","Male","approach_avoid_spark_v1","""event"",""trial"",""time""
""fullscreenenter"",""1"",""3131""
","
","
","""event"",""trial"",""time""
""fullscreenenter"",""1"",""3131""
","
","","","","","","null","<div style=""font-size:60px;"">+</div>","null","","fixation","","","","","","","","","","",""
"aa-learning-trial","81","447511","0.0-9.0-2.0-1.4","5714","2","8","Male","approach_avoid_spark_v1","""event"",""trial"",""time""
""fullscreenenter"",""1"",""3131""
","
","
","""event"",""trial"",""time""
""fullscreenenter"",""1"",""3131""
","
","","","","","","694.2000000178814","images/apple5.png","","","learning","8","8","1","1","apple","fruit","2","0","","neutral","0"
"html-keyboard-response","82","448042","0.0-9.0-2.0-0.5","5714","2","8","Male","approach_avoid_spark_v1","""event"",""trial"",""time""
""fullscreenenter"",""1"",""3131""
","
","
","""event"",""trial"",""time""
""fullscreenenter"",""1"",""3131""
","
","","","","","","null","<div style=""font-size:60px;"">+</div>","null","","fixation","","","","","","","","","","",""
"aa-learning-trial","83","451062","0.0-9.0-2.0-1.5","5714","2","8","Male","approach_avoid_spark_v1","""event"",""trial"",""time""
""fullscreenenter"",""1"",""3131""
","
","
","""event"",""trial"",""time""
""fullscreenenter"",""1"",""3131""
","
","","","","","","614.8999999761581","images/banana2.png","","","learning","-6","-6","1","1","banana","fruit","2","0","","good","[5]"
"html-keyboard-response","84","451571","0.0-9.0-2.0-0.6","5714","2","8","Male","approach_avoid_spark_v1","""event"",""trial"",""time""
""fullscreenenter"",""1"",""3131""
","
","
","""event"",""trial"",""time""
""fullscreenenter"",""1"",""3131""
","
","","","","","","null","<div style=""font-size:60px;"">+</div>","null","","fixation","","","","","","","","","","",""
"aa-learning-trial","85","454582","0.0-9.0-2.0-1.6","5714","2","8","Male","approach_avoid_spark_v1","""event"",""trial"",""time""
""fullscreenenter"",""1"",""3131""
","
","
","""event"",""trial"",""time""
""fullscreenenter"",""1"",""3131""
","
","","","","","","539.5","images/apple8.png","","","learning","4","0","0","0","apple","fruit","2","0","","neutral","0"
"html-keyboard-response","86","455091","0.0-9.0-2.0-0.7","5714","2","8","Male","approach_avoid_spark_v1","""event"",""trial"",""time""
""fullscreenenter"",""1"",""3131""
","
","
","""event"",""trial"",""time""
""fullscreenenter"",""1"",""3131""
","
","","","","","","null","<div style=""font-size:60px;"">+</div>","null","","fixation","","","","","","","","","","",""
"aa-learning-trial","87","458121","0.0-9.0-2.0-1.7","5714","2","8","Male","approach_avoid_spark_v1","""event"",""trial"",""time""
""fullscreenenter"",""1"",""3131""
","
","
","""event"",""trial"",""time""
""fullscreenenter"",""1"",""3131""
","
","","","","","","456.09999999403954","images/apple7.png","","","learning","1","0","0","0","apple","fruit","2","0","","neutral","0"
"html-keyboard-response","88","458641","0.0-9.0-2.0-0.8","5714","2","8","Male","approach_avoid_spark_v1","""event"",""trial"",""time""
""fullscreenenter"",""1"",""3131""
","
","
","""event"",""trial"",""time""
""fullscreenenter"",""1"",""3131""
","
","","","","","","null","<div style=""font-size:60px;"">+</div>","null","","fixation","","","","","","","","","","",""
"aa-learning-trial","89","461668","0.0-9.0-2.0-1.8","5714","2","8","Male","approach_avoid_spark_v1","""event"",""trial"",""time""
""fullscreenenter"",""1"",""3131""
","
","
","""event"",""trial"",""time""
""fullscreenenter"",""1"",""3131""
","
","","","","","","518.1999999880791","images/banana7.png","","","learning","9","9","1","1","banana","fruit","2","0","","good","[5]"
"html-keyboard-response","90","462190","0.0-9.0-2.0-0.9","5714","2","8","Male","approach_avoid_spark_v1","""event"",""trial"",""time""
""fullscreenenter"",""1"",""3131""
","
","
","""event"",""trial"",""time""
""fullscreenenter"",""1"",""3131""
","
","","","","","","null","<div style=""font-size:60px;"">+</div>","null","","fixation","","","","","","","","","","",""
"aa-learning-trial","91","465200","0.0-9.0-2.0-1.9","5714","2","8","Male","approach_avoid_spark_v1","""event"",""trial"",""time""
""fullscreenenter"",""1"",""3131""
","
","
","""event"",""trial"",""time""
""fullscreenenter"",""1"",""3131""
","
","","","","","","1192.199999988079","images/orange1.png","","","learning","5","0","0","0","orange","fruit","2","0","","bad","[-4]"
"html-keyboard-response","92","465711","0.0-9.0-2.0-0.10","5714","2","8","Male","approach_avoid_spark_v1","""event"",""trial"",""time""
""fullscreenenter"",""1"",""3131""
","
","
","""event"",""trial"",""time""
""fullscreenenter"",""1"",""3131""
","
","","","","","","null","<div style=""font-size:60px;"">+</div>","null","","fixation","","","","","","","","","","",""
"aa-learning-trial","93","468729","0.0-9.0-2.0-1.10","5714","2","8","Male","approach_avoid_spark_v1","""event"",""trial"",""time""
""fullscreenenter"",""1"",""3131""
","
","
","""event"",""trial"",""time""
""fullscreenenter"",""1"",""3131""
","
","","","","","","1244.9000000059605","images/banana3.png","","","learning","3","3","1","1","banana","fruit","2","0","","good","[5]"
"html-keyboard-response","94","469245","0.0-9.0-2.0-0.11","5714","2","8","Male","approach_avoid_spark_v1","""event"",""trial"",""time""
""fullscreenenter"",""1"",""3131""
","
","
","""event"",""trial"",""time""
""fullscreenenter"",""1"",""3131""
","
","","","","","","null","<div style=""font-size:60px;"">+</div>","null","","fixation","","","","","","","","","","",""
"aa-learning-trial","95","472261","0.0-9.0-2.0-1.11","5714","2","8","Male","approach_avoid_spark_v1","""event"",""trial"",""time""
""fullscreenenter"",""1"",""3131""
","
","
","""event"",""trial"",""time""
""fullscreenenter"",""1"",""3131""
","
","","","","","","1390.5999999940395","images/orange5.png","","","learning","-2","0","0","0","orange","fruit","2","0","","bad","[-4]"
"html-keyboard-response","96","472771","0.0-9.0-2.0-0.12","5714","2","8","Male","approach_avoid_spark_v1","""event"",""trial"",""time""
""fullscreenenter"",""1"",""3131""
","
","
","""event"",""trial"",""time""
""fullscreenenter"",""1"",""3131""
","
","","","","","","null","<div style=""font-size:60px;"">+</div>","null","","fixation","","","","","","","","","","",""
"aa-learning-trial","97","475788","0.0-9.0-2.0-1.12","5714","2","8","Male","approach_avoid_spark_v1","""event"",""trial"",""time""
""fullscreenenter"",""1"",""3131""
","
","
","""event"",""trial"",""time""
""fullscreenenter"",""1"",""3131""
","
","","","","","","808.1999999880791","images/orange1.png","","","learning","5","5","1","1","orange","fruit","2","0","","bad","[-4]"
"html-keyboard-response","98","476300","0.0-9.0-2.0-0.13","5714","2","8","Male","approach_avoid_spark_v1","""event"",""trial"",""time""
""fullscreenenter"",""1"",""3131""
","
","
","""event"",""trial"",""time""
""fullscreenenter"",""1"",""3131""
","
","","","","","","null","<div style=""font-size:60px;"">+</div>","null","","fixation","","","","","","","","","","",""
"aa-learning-trial","99","479316","0.0-9.0-2.0-1.13","5714","2","8","Male","approach_avoid_spark_v1","""event"",""trial"",""time""
""fullscreenenter"",""1"",""3131""
","
","
","""event"",""trial"",""time""
""fullscreenenter"",""1"",""3131""
","
","","","","","","682.4000000059605","images/apple8.png","","","learning","4","4","1","1","apple","fruit","2","0","","neutral","0"
"html-keyboard-response","100","479828","0.0-9.0-2.0-0.14","5714","2","8","Male","approach_avoid_spark_v1","""event"",""trial"",""time""
""fullscreenenter"",""1"",""3131""
","
","
","""event"",""trial"",""time""
""fullscreenenter"",""1"",""3131""
","
","","","","","","null","<div style=""font-size:60px;"">+</div>","null","","fixation","","","","","","","","","","",""
"aa-learning-trial","101","482851","0.0-9.0-2.0-1.14","5714","2","8","Male","approach_avoid_spark_v1","""event"",""trial"",""time""
""fullscreenenter"",""1"",""3131""
","
","
","""event"",""trial"",""time""
""fullscreenenter"",""1"",""3131""
","
","","","","","","998.7000000178814","images/banana7.png","","","learning","9","0","0","0","banana","fruit","2","0","","good","[5]"
"html-keyboard-response","102","483360","0.0-9.0-2.0-0.15","5714","2","8","Male","approach_avoid_spark_v1","""event"",""trial"",""time""
""fullscreenenter"",""1"",""3131""
","
","
","""event"",""trial"",""time""
""fullscreenenter"",""1"",""3131""
","
","","","","","","null","<div style=""font-size:60px;"">+</div>","null","","fixation","","","","","","","","","","",""
"aa-learning-trial","103","486377","0.0-9.0-2.0-1.15","5714","2","8","Male","approach_avoid_spark_v1","""event"",""trial"",""time""
""fullscreenenter"",""1"",""3131""
","
","
","""event"",""trial"",""time""
""fullscreenenter"",""1"",""3131""
","
","","","","","","556.1999999880791","images/apple8.png","","","learning","4","4","1","1","apple","fruit","2","0","","neutral","0"
"html-keyboard-response","104","486887","0.0-9.0-2.0-0.16","5714","2","8","Male","approach_avoid_spark_v1","""event"",""trial"",""time""
""fullscreenenter"",""1"",""3131""
","
","
","""event"",""trial"",""time""
""fullscreenenter"",""1"",""3131""
","
","","","","","","null","<div style=""font-size:60px;"">+</div>","null","","fixation","","","","","","","","","","",""
"aa-learning-trial","105","489900","0.0-9.0-2.0-1.16","5714","2","8","Male","approach_avoid_spark_v1","""event"",""trial"",""time""
""fullscreenenter"",""1"",""3131""
","
","
","""event"",""trial"",""time""
""fullscreenenter"",""1"",""3131""
","
","","","","","","687.1999999880791","images/orange5.png","","","learning","-2","-2","1","1","orange","fruit","2","0","","bad","[-4]"
"html-keyboard-response","106","490411","0.0-9.0-2.0-0.17","5714","2","8","Male","approach_avoid_spark_v1","""event"",""trial"",""time""
""fullscreenenter"",""1"",""3131""
","
","
","""event"",""trial"",""time""
""fullscreenenter"",""1"",""3131""
","
","","","","","","null","<div style=""font-size:60px;"">+</div>","null","","fixation","","","","","","","","","","",""
"aa-learning-trial","107","493415","0.0-9.0-2.0-1.17","5714","2","8","Male","approach_avoid_spark_v1","""event"",""trial"",""time""
""fullscreenenter"",""1"",""3131""
","
","
","""event"",""trial"",""time""
""fullscreenenter"",""1"",""3131""
","
","","","","","","572.9000000059605","images/orange7.png","","","learning","6","0","0","0","orange","fruit","2","0","","bad","[-4]"
"html-keyboard-response","108","493926","0.0-9.0-2.0-0.18","5714","2","8","Male","approach_avoid_spark_v1","""event"",""trial"",""time""
""fullscreenenter"",""1"",""3131""
","
","
","""event"",""trial"",""time""
""fullscreenenter"",""1"",""3131""
","
","","","","","","null","<div style=""font-size:60px;"">+</div>","null","","fixation","","","","","","","","","","",""
"aa-learning-trial","109","496936","0.0-9.0-2.0-1.18","5714","2","8","Male","approach_avoid_spark_v1","""event"",""trial"",""time""
""fullscreenenter"",""1"",""3131""
","
","
","""event"",""trial"",""time""
""fullscreenenter"",""1"",""3131""
","
","","","","","","432.90000000596046","images/apple6.png","","","learning","-8","-8","1","1","apple","fruit","2","0","","neutral","0"
"html-keyboard-response","110","497448","0.0-9.0-2.0-0.19","5714","2","8","Male","approach_avoid_spark_v1","""event"",""trial"",""time""
""fullscreenenter"",""1"",""3131""
","
","
","""event"",""trial"",""time""
""fullscreenenter"",""1"",""3131""
","
","","","","","","null","<div style=""font-size:60px;"">+</div>","null","","fixation","","","","","","","","","","",""
"aa-learning-trial","111","500456","0.0-9.0-2.0-1.19","5714","2","8","Male","approach_avoid_spark_v1","""event"",""trial"",""time""
""fullscreenenter"",""1"",""3131""
","
","
","""event"",""trial"",""time""
""fullscreenenter"",""1"",""3131""
","
","","","","","","357.40000000596046","images/orange4.png","","","learning","-3","0","0","0","orange","fruit","2","0","","bad","[-4]"
"html-keyboard-response","112","500963","0.0-9.0-2.0-0.20","5714","2","8","Male","approach_avoid_spark_v1","""event"",""trial"",""time""
""fullscreenenter"",""1"",""3131""
","
","
","""event"",""trial"",""time""
""fullscreenenter"",""1"",""3131""
","
","","","","","","null","<div style=""font-size:60px;"">+</div>","null","","fixation","","","","","","","","","","",""
"aa-learning-trial","113","503974","0.0-9.0-2.0-1.20","5714","2","8","Male","approach_avoid_spark_v1","""event"",""trial"",""time""
""fullscreenenter"",""1"",""3131""
","
","
","""event"",""trial"",""time""
""fullscreenenter"",""1"",""3131""
","
","","","","","","465.90000000596046","images/orange4.png","","","learning","-3","-3","1","1","orange","fruit","2","0","","bad","[-4]"
"html-keyboard-response","114","504495","0.0-9.0-2.0-0.21","5714","2","8","Male","approach_avoid_spark_v1","""event"",""trial"",""time""
""fullscreenenter"",""1"",""3131""
","
","
","""event"",""trial"",""time""
""fullscreenenter"",""1"",""3131""
","
","","","","","","null","<div style=""font-size:60px;"">+</div>","null","","fixation","","","","","","","","","","",""
"aa-learning-trial","115","507511","0.0-9.0-2.0-1.21","5714","2","8","Male","approach_avoid_spark_v1","""event"",""trial"",""time""
""fullscreenenter"",""1"",""3131""
","
","
","""event"",""trial"",""time""
""fullscreenenter"",""1"",""3131""
","
","","","","","","600","images/orange5.png","","","learning","-2","-2","1","1","orange","fruit","2","0","","bad","[-4]"
"html-keyboard-response","116","508024","0.0-9.0-2.0-0.22","5714","2","8","Male","approach_avoid_spark_v1","""event"",""trial"",""time""
""fullscreenenter"",""1"",""3131""
","
","
","""event"",""trial"",""time""
""fullscreenenter"",""1"",""3131""
","
","","","","","","null","<div style=""font-size:60px;"">+</div>","null","","fixation","","","","","","","","","","",""
"aa-learning-trial","117","511032","0.0-9.0-2.0-1.22","5714","2","8","Male","approach_avoid_spark_v1","""event"",""trial"",""time""
""fullscreenenter"",""1"",""3131""
","
","
","""event"",""trial"",""time""
""fullscreenenter"",""1"",""3131""
","
","","","","","","1444.5999999940395","images/apple5.png","","","learning","8","8","1","1","apple","fruit","2","0","","neutral","0"
"html-keyboard-response","118","511540","0.0-9.0-2.0-0.23","5714","2","8","Male","approach_avoid_spark_v1","""event"",""trial"",""time""
""fullscreenenter"",""1"",""3131""
","
","
","""event"",""trial"",""time""
""fullscreenenter"",""1"",""3131""
","
","","","","","","null","<div style=""font-size:60px;"">+</div>","null","","fixation","","","","","","","","","","",""
"aa-learning-trial","119","514559","0.0-9.0-2.0-1.23","5714","2","8","Male","approach_avoid_spark_v1","""event"",""trial"",""time""
""fullscreenenter"",""1"",""3131""
","
","
","""event"",""trial"",""time""
""fullscreenenter"",""1"",""3131""
","
","","","","","","790","images/banana7.png","","","learning","9","9","1","1","banana","fruit","2","0","","good","[5]"
"html-keyboard-response","120","515069","0.0-9.0-2.0-0.24","5714","2","8","Male","approach_avoid_spark_v1","""event"",""trial"",""time""
""fullscreenenter"",""1"",""3131""
","
","
","""event"",""trial"",""time""
""fullscreenenter"",""1"",""3131""
","
","","","","","","null","<div style=""font-size:60px;"">+</div>","null","","fixation","","","","","","","","","","",""
"aa-learning-trial","121","518089","0.0-9.0-2.0-1.24","5714","2","8","Male","approach_avoid_spark_v1","""event"",""trial"",""time""
""fullscreenenter"",""1"",""3131""
","
","
","""event"",""trial"",""time""
""fullscreenenter"",""1"",""3131""
","
","","","","","","628.4000000059605","images/apple7.png","","","learning","1","1","1","1","apple","fruit","2","0","","neutral","0"
"html-keyboard-response","122","518605","0.0-9.0-2.0-0.25","5714","2","8","Male","approach_avoid_spark_v1","""event"",""trial"",""time""
""fullscreenenter"",""1"",""3131""
","
","
","""event"",""trial"",""time""
""fullscreenenter"",""1"",""3131""
","
","","","","","","null","<div style=""font-size:60px;"">+</div>","null","","fixation","","","","","","","","","","",""
"aa-learning-trial","123","521622","0.0-9.0-2.0-1.25","5714","2","8","Male","approach_avoid_spark_v1","""event"",""trial"",""time""
""fullscreenenter"",""1"",""3131""
","
","
","""event"",""trial"",""time""
""fullscreenenter"",""1"",""3131""
","
","","","","","","583.6999999880791","images/apple5.png","","","learning","8","8","1","1","apple","fruit","2","0","","neutral","0"
"html-keyboard-response","124","522130","0.0-9.0-2.0-0.26","5714","2","8","Male","approach_avoid_spark_v1","""event"",""trial"",""time""
""fullscreenenter"",""1"",""3131""
","
","
","""event"",""trial"",""time""
""fullscreenenter"",""1"",""3131""
","
","","","","","","null","<div style=""font-size:60px;"">+</div>","null","","fixation","","","","","","","","","","",""
"aa-learning-trial","125","525135","0.0-9.0-2.0-1.26","5714","2","8","Male","approach_avoid_spark_v1","""event"",""trial"",""time""
""fullscreenenter"",""1"",""3131""
","
","
","""event"",""trial"",""time""
""fullscreenenter"",""1"",""3131""
","
","","","","","","433.80000001192093","images/apple8.png","","","learning","4","4","1","1","apple","fruit","2","0","","neutral","0"
"html-keyboard-response","126","525655","0.0-9.0-2.0-0.27","5714","2","8","Male","approach_avoid_spark_v1","""event"",""trial"",""time""
""fullscreenenter"",""1"",""3131""
","
","
","""event"",""trial"",""time""
""fullscreenenter"",""1"",""3131""
","
","","","","","","null","<div style=""font-size:60px;"">+</div>","null","","fixation","","","","","","","","","","",""
"aa-learning-trial","127","528676","0.0-9.0-2.0-1.27","5714","2","8","Male","approach_avoid_spark_v1","""event"",""trial"",""time""
""fullscreenenter"",""1"",""3131""
","
","
","""event"",""trial"",""time""
""fullscreenenter"",""1"",""3131""
","
","","","","","","389.2000000178814","images/banana7.png","","","learning","9","9","1","1","banana","fruit","2","0","","good","[5]"
"html-keyboard-response","128","529192","0.0-9.0-2.0-0.28","5714","2","8","Male","approach_avoid_spark_v1","""event"",""trial"",""time""
""fullscreenenter"",""1"",""3131""
","
","
","""event"",""trial"",""time""
""fullscreenenter"",""1"",""3131""
","
","","","","","","null","<div style=""font-size:60px;"">+</div>","null","","fixation","","","","","","","","","","",""
"aa-learning-trial","129","532202","0.0-9.0-2.0-1.28","5714","2","8","Male","approach_avoid_spark_v1","""event"",""trial"",""time""
""fullscreenenter"",""1"",""3131""
","
","
","""event"",""trial"",""time""
""fullscreenenter"",""1"",""3131""
","
","","","","","","369.7000000178814","images/orange1.png","","","learning","5","5","1","1","orange","fruit","2","0","","bad","[-4]"
"html-keyboard-response","130","532710","0.0-9.0-2.0-0.29","5714","2","8","Male","approach_avoid_spark_v1","""event"",""trial"",""time""
""fullscreenenter"",""1"",""3131""
","
","
","""event"",""trial"",""time""
""fullscreenenter"",""1"",""3131""
","
","","","","","","null","<div style=""font-size:60px;"">+</div>","null","","fixation","","","","","","","","","","",""
"aa-learning-trial","131","535736","0.0-9.0-2.0-1.29","5714","2","8","Male","approach_avoid_spark_v1","""event"",""trial"",""time""
""fullscreenenter"",""1"",""3131""
","
","
","""event"",""trial"",""time""
""fullscreenenter"",""1"",""3131""
","
","","","","","","543.4000000059605","images/banana5.png","","","learning","-5","-5","1","1","banana","fruit","2","0","","good","[5]"
"html-keyboard-response","132","536246","0.0-9.0-2.0-0.30","5714","2","8","Male","approach_avoid_spark_v1","""event"",""trial"",""time""
""fullscreenenter"",""1"",""3131""
","
","
","""event"",""trial"",""time""
""fullscreenenter"",""1"",""3131""
","
","","","","","","null","<div style=""font-size:60px;"">+</div>","null","","fixation","","","","","","","","","","",""
"aa-learning-trial","133","539262","0.0-9.0-2.0-1.30","5714","2","8","Male","approach_avoid_spark_v1","""event"",""trial"",""time""
""fullscreenenter"",""1"",""3131""
","
","
","""event"",""trial"",""time""
""fullscreenenter"",""1"",""3131""
","
","","","","","","627.8000000119209","images/banana3.png","","","learning","3","0","0","0","banana","fruit","2","0","","good","[5]"
"html-keyboard-response","134","539776","0.0-9.0-2.0-0.31","5714","2","8","Male","approach_avoid_spark_v1","""event"",""trial"",""time""
""fullscreenenter"",""1"",""3131""
","
","
","""event"",""trial"",""time""
""fullscreenenter"",""1"",""3131""
","
","","","","","","null","<div style=""font-size:60px;"">+</div>","null","","fixation","","","","","","","","","","",""
"aa-learning-trial","135","542790","0.0-9.0-2.0-1.31","5714","2","8","Male","approach_avoid_spark_v1","""event"",""trial"",""time""
""fullscreenenter"",""1"",""3131""
","
","
","""event"",""trial"",""time""
""fullscreenenter"",""1"",""3131""
","
","","","","","","486.40000000596046","images/orange1.png","","","learning","5","0","0","0","orange","fruit","2","0","","bad","[-4]"
"html-keyboard-response","136","543300","0.0-9.0-2.0-0.32","5714","2","8","Male","approach_avoid_spark_v1","""event"",""trial"",""time""
""fullscreenenter"",""1"",""3131""
","
","
","""event"",""trial"",""time""
""fullscreenenter"",""1"",""3131""
","
","","","","","","null","<div style=""font-size:60px;"">+</div>","null","","fixation","","","","","","","","","","",""
"aa-learning-trial","137","546311","0.0-9.0-2.0-1.32","5714","2","8","Male","approach_avoid_spark_v1","""event"",""trial"",""time""
""fullscreenenter"",""1"",""3131""
","
","
","""event"",""trial"",""time""
""fullscreenenter"",""1"",""3131""
","
","","","","","","514.5","images/banana2.png","","","learning","-6","-6","1","1","banana","fruit","2","0","","good","[5]"
"html-keyboard-response","138","546822","0.0-9.0-2.0-0.33","5714","2","8","Male","approach_avoid_spark_v1","""event"",""trial"",""time""
""fullscreenenter"",""1"",""3131""
","
","
","""event"",""trial"",""time""
""fullscreenenter"",""1"",""3131""
","
","","","","","","null","<div style=""font-size:60px;"">+</div>","null","","fixation","","","","","","","","","","",""
"aa-learning-trial","139","549842","0.0-9.0-2.0-1.33","5714","2","8","Male","approach_avoid_spark_v1","""event"",""trial"",""time""
""fullscreenenter"",""1"",""3131""
","
","
","""event"",""trial"",""time""
""fullscreenenter"",""1"",""3131""
","
","","","","","","373","images/banana3.png","","","learning","3","0","0","0","banana","fruit","2","0","","good","[5]"
"html-keyboard-response","140","550353","0.0-9.0-2.0-0.34","5714","2","8","Male","approach_avoid_spark_v1","""event"",""trial"",""time""
""fullscreenenter"",""1"",""3131""
","
","
","""event"",""trial"",""time""
""fullscreenenter"",""1"",""3131""
","
","","","","","","null","<div style=""font-size:60px;"">+</div>","null","","fixation","","","","","","","","","","",""
"aa-learning-trial","141","553364","0.0-9.0-2.0-1.34","5714","2","8","Male","approach_avoid_spark_v1","""event"",""trial"",""time""
""fullscreenenter"",""1"",""3131""
","
","
","""event"",""trial"",""time""
""fullscreenenter"",""1"",""3131""
","
","","","","","","1469.199999988079","images/banana6.png","","","learning","2","2","1","1","banana","fruit","2","0","","good","[5]"
"html-keyboard-response","142","553872","0.0-9.0-2.0-0.35","5714","2","8","Male","approach_avoid_spark_v1","""event"",""trial"",""time""
""fullscreenenter"",""1"",""3131""
","
","
","""event"",""trial"",""time""
""fullscreenenter"",""1"",""3131""
","
","","","","","","null","<div style=""font-size:60px;"">+</div>","null","","fixation","","","","","","","","","","",""
"aa-learning-trial","143","556883","0.0-9.0-2.0-1.35","5714","2","8","Male","approach_avoid_spark_v1","""event"",""trial"",""time""
""fullscreenenter"",""1"",""3131""
","
","
","""event"",""trial"",""time""
""fullscreenenter"",""1"",""3131""
","
","","","","","","1294.699999988079","images/banana7.png","","","learning","9","9","1","1","banana","fruit","2","0","","good","[5]"
"html-keyboard-response","144","557400","0.0-9.0-2.0-0.36","5714","2","8","Male","approach_avoid_spark_v1","""event"",""trial"",""time""
""fullscreenenter"",""1"",""3131""
","
","
","""event"",""trial"",""time""
""fullscreenenter"",""1"",""3131""
","
","","","","","","null","<div style=""font-size:60px;"">+</div>","null","","fixation","","","","","","","","","","",""
"aa-learning-trial","145","560407","0.0-9.0-2.0-1.36","5714","2","8","Male","approach_avoid_spark_v1","""event"",""trial"",""time""
""fullscreenenter"",""1"",""3131""
","
","
","""event"",""trial"",""time""
""fullscreenenter"",""1"",""3131""
","
","","","","","","479.40000000596046","images/banana7.png","","","learning","9","9","1","1","banana","fruit","2","0","","good","[5]"
"html-keyboard-response","146","560917","0.0-9.0-2.0-0.37","5714","2","8","Male","approach_avoid_spark_v1","""event"",""trial"",""time""
""fullscreenenter"",""1"",""3131""
","
","
","""event"",""trial"",""time""
""fullscreenenter"",""1"",""3131""
","
","","","","","","null","<div style=""font-size:60px;"">+</div>","null","","fixation","","","","","","","","","","",""
"aa-learning-trial","147","563927","0.0-9.0-2.0-1.37","5714","2","8","Male","approach_avoid_spark_v1","""event"",""trial"",""time""
""fullscreenenter"",""1"",""3131""
","
","
","""event"",""trial"",""time""
""fullscreenenter"",""1"",""3131""
","
","","","","","","1103.5999999940395","images/banana3.png","","","learning","3","0","0","0","banana","fruit","2","0","","good","[5]"
"html-keyboard-response","148","564436","0.0-9.0-2.0-0.38","5714","2","8","Male","approach_avoid_spark_v1","""event"",""trial"",""time""
""fullscreenenter"",""1"",""3131""
","
","
","""event"",""trial"",""time""
""fullscreenenter"",""1"",""3131""
","
","","","","","","null","<div style=""font-size:60px;"">+</div>","null","","fixation","","","","","","","","","","",""
"aa-learning-trial","149","567451","0.0-9.0-2.0-1.38","5714","2","8","Male","approach_avoid_spark_v1","""event"",""trial"",""time""
""fullscreenenter"",""1"",""3131""
","
","
","""event"",""trial"",""time""
""fullscreenenter"",""1"",""3131""
","
","","","","","","458.2999999821186","images/apple4.png","","","learning","-4","-4","1","1","apple","fruit","2","0","","neutral","0"
"html-keyboard-response","150","567961","0.0-9.0-2.0-0.39","5714","2","8","Male","approach_avoid_spark_v1","""event"",""trial"",""time""
""fullscreenenter"",""1"",""3131""
","
","
","""event"",""trial"",""time""
""fullscreenenter"",""1"",""3131""
","
","","","","","","null","<div style=""font-size:60px;"">+</div>","null","","fixation","","","","","","","","","","",""
"aa-learning-trial","151","570969","0.0-9.0-2.0-1.39","5714","2","8","Male","approach_avoid_spark_v1","""event"",""trial"",""time""
""fullscreenenter"",""1"",""3131""
","
","
","""event"",""trial"",""time""
""fullscreenenter"",""1"",""3131""
","
","","","","","","374.2000000178814","images/orange1.png","","","learning","5","5","1","1","orange","fruit","2","0","","bad","[-4]"
"html-keyboard-response","152","571493","0.0-9.0-2.0-0.40","5714","2","8","Male","approach_avoid_spark_v1","""event"",""trial"",""time""
""fullscreenenter"",""1"",""3131""
","
","
","""event"",""trial"",""time""
""fullscreenenter"",""1"",""3131""
","
","","","","","","null","<div style=""font-size:60px;"">+</div>","null","","fixation","","","","","","","","","","",""
"aa-learning-trial","153","574513","0.0-9.0-2.0-1.40","5714","2","8","Male","approach_avoid_spark_v1","""event"",""trial"",""time""
""fullscreenenter"",""1"",""3131""
","
","
","""event"",""trial"",""time""
""fullscreenenter"",""1"",""3131""
","
","","","","","","407.89999997615814","images/orange5.png","","","learning","-2","-2","1","1","orange","fruit","2","0","","bad","[-4]"
"html-keyboard-response","154","575023","0.0-9.0-2.0-0.41","5714","2","8","Male","approach_avoid_spark_v1","""event"",""trial"",""time""
""fullscreenenter"",""1"",""3131""
","
","
","""event"",""trial"",""time""
""fullscreenenter"",""1"",""3131""
","
","","","","","","null","<div style=""font-size:60px;"">+</div>","null","","fixation","","","","","","","","","","",""
"aa-learning-trial","155","578038","0.0-9.0-2.0-1.41","5714","2","8","Male","approach_avoid_spark_v1","""event"",""trial"",""time""
""fullscreenenter"",""1"",""3131""
","
","
","""event"",""trial"",""time""
""fullscreenenter"",""1"",""3131""
","
","","","","","","1550","images/orange8.png","","","learning","-7","-7","1","1","orange","fruit","2","0","","bad","[-4]"
"html-keyboard-response","156","578558","0.0-9.0-2.0-0.42","5714","2","8","Male","approach_avoid_spark_v1","""event"",""trial"",""time""
""fullscreenenter"",""1"",""3131""
","
","
","""event"",""trial"",""time""
""fullscreenenter"",""1"",""3131""
","
","","","","","","null","<div style=""font-size:60px;"">+</div>","null","","fixation","","","","","","","","","","",""
"aa-learning-trial","157","581576","0.0-9.0-2.0-1.42","5714","2","8","Male","approach_avoid_spark_v1","""event"",""trial"",""time""
""fullscreenenter"",""1"",""3131""
","
","
","""event"",""trial"",""time""
""fullscreenenter"",""1"",""3131""
","
","","","","","","527.5999999940395","images/orange5.png","","","learning","-2","0","0","0","orange","fruit","2","0","","bad","[-4]"
"html-keyboard-response","158","582086","0.0-9.0-2.0-0.43","5714","2","8","Male","approach_avoid_spark_v1","""event"",""trial"",""time""
""fullscreenenter"",""1"",""3131""
","
","
","""event"",""trial"",""time""
""fullscreenenter"",""1"",""3131""
","
","","","","","","null","<div style=""font-size:60px;"">+</div>","null","","fixation","","","","","","","","","","",""
"aa-learning-trial","159","585095","0.0-9.0-2.0-1.43","5714","2","8","Male","approach_avoid_spark_v1","""event"",""trial"",""time""
""fullscreenenter"",""1"",""3131""
","
","
","""event"",""trial"",""time""
""fullscreenenter"",""1"",""3131""
","
","","","","","","423.2999999821186","images/banana2.png","","","learning","-6","-6","1","1","banana","fruit","2","0","","good","[5]"
"html-keyboard-response","160","585601","0.0-9.0-2.0-0.44","5714","2","8","Male","approach_avoid_spark_v1","""event"",""trial"",""time""
""fullscreenenter"",""1"",""3131""
","
","
","""event"",""trial"",""time""
""fullscreenenter"",""1"",""3131""
","
","","","","","","null","<div style=""font-size:60px;"">+</div>","null","","fixation","","","","","","","","","","",""
"aa-learning-trial","161","588612","0.0-9.0-2.0-1.44","5714","2","8","Male","approach_avoid_spark_v1","""event"",""trial"",""time""
""fullscreenenter"",""1"",""3131""
","
","
","""event"",""trial"",""time""
""fullscreenenter"",""1"",""3131""
","
","","","","","","287.09999999403954","images/apple8.png","","","learning","4","0","0","0","apple","fruit","2","0","","neutral","0"
"html-keyboard-response","162","589122","0.0-9.0-2.0-0.45","5714","2","8","Male","approach_avoid_spark_v1","""event"",""trial"",""time""
""fullscreenenter"",""1"",""3131""
","
","
","""event"",""trial"",""time""
""fullscreenenter"",""1"",""3131""
","
","","","","","","null","<div style=""font-size:60px;"">+</div>","null","","fixation","","","","","","","","","","",""
"aa-learning-trial","163","592132","0.0-9.0-2.0-1.45","5714","2","8","Male","approach_avoid_spark_v1","""event"",""trial"",""time""
""fullscreenenter"",""1"",""3131""
","
","
","""event"",""trial"",""time""
""fullscreenenter"",""1"",""3131""
","
","","","","","","439.39999997615814","images/apple5.png","","","learning","8","8","1","1","apple","fruit","2","0","","neutral","0"
"html-keyboard-response","164","592640","0.0-9.0-2.0-0.46","5714","2","8","Male","approach_avoid_spark_v1","""event"",""trial"",""time""
""fullscreenenter"",""1"",""3131""
","
","
","""event"",""trial"",""time""
""fullscreenenter"",""1"",""3131""
","
","","","","","","null","<div style=""font-size:60px;"">+</div>","null","","fixation","","","","","","","","","","",""
"aa-learning-trial","165","595650","0.0-9.0-2.0-1.46","5714","2","8","Male","approach_avoid_spark_v1","""event"",""trial"",""time""
""fullscreenenter"",""1"",""3131""
","
","
","""event"",""trial"",""time""
""fullscreenenter"",""1"",""3131""
","
","","","","","","1049.6000000238419","images/apple8.png","","","learning","4","4","1","1","apple","fruit","2","0","","neutral","0"
"html-keyboard-response","166","596161","0.0-9.0-2.0-0.47","5714","2","8","Male","approach_avoid_spark_v1","""event"",""trial"",""time""
""fullscreenenter"",""1"",""3131""
","
","
","""event"",""trial"",""time""
""fullscreenenter"",""1"",""3131""
","
","","","","","","null","<div style=""font-size:60px;"">+</div>","null","","fixation","","","","","","","","","","",""
"aa-learning-trial","167","599174","0.0-9.0-2.0-1.47","5714","2","8","Male","approach_avoid_spark_v1","""event"",""trial"",""time""
""fullscreenenter"",""1"",""3131""
","
","
","""event"",""trial"",""time""
""fullscreenenter"",""1"",""3131""
","
","","","","","","813","images/banana3.png","","","learning","3","0","0","0","banana","fruit","2","0","","good","[5]"
"html-keyboard-response","168","599684","0.0-9.0-2.0-0.48","5714","2","8","Male","approach_avoid_spark_v1","""event"",""trial"",""time""
""fullscreenenter"",""1"",""3131""
","
","
","""event"",""trial"",""time""
""fullscreenenter"",""1"",""3131""
","
","","","","","","null","<div style=""font-size:60px;"">+</div>","null","","fixation","","","","","","","","","","",""
"aa-learning-trial","169","602695","0.0-9.0-2.0-1.48","5714","2","8","Male","approach_avoid_spark_v1","""event"",""trial"",""time""
""fullscreenenter"",""1"",""3131""
","
","
","""event"",""trial"",""time""
""fullscreenenter"",""1"",""3131""
","
","","","","","","1822.5999999940395","images/orange1.png","","","learning","5","5","1","1","orange","fruit","2","0","","bad","[-4]"
"html-keyboard-response","170","603204","0.0-9.0-2.0-0.49","5714","2","8","Male","approach_avoid_spark_v1","""event"",""trial"",""time""
""fullscreenenter"",""1"",""3131""
","
","
","""event"",""trial"",""time""
""fullscreenenter"",""1"",""3131""
","
","","","","","","null","<div style=""font-size:60px;"">+</div>","null","","fixation","","","","","","","","","","",""
"aa-learning-trial","171","606229","0.0-9.0-2.0-1.49","5714","2","8","Male","approach_avoid_spark_v1","""event"",""trial"",""time""
""fullscreenenter"",""1"",""3131""
","
","
","""event"",""trial"",""time""
""fullscreenenter"",""1"",""3131""
","
","","","","","","562","images/apple5.png","","","learning","8","-5","-","","apple","fruit","2","0","","neutral","0"
"html-keyboard-response","172","606742","0.0-9.0-2.0-0.50","5714","2","8","Male","approach_avoid_spark_v1","""event"",""trial"",""time""
""fullscreenenter"",""1"",""3131""
","
","
","""event"",""trial"",""time""
""fullscreenenter"",""1"",""3131""
","
","","","","","","null","<div style=""font-size:60px;"">+</div>","null","","fixation","","","","","","","","","","",""
"aa-learning-trial","173","609763","0.0-9.0-2.0-1.50","5714","2","8","Male","approach_avoid_spark_v1","""event"",""trial"",""time""
""fullscreenenter"",""1"",""3131""
","
","
","""event"",""trial"",""time""
""fullscreenenter"",""1"",""3131""
","
","","","","","","854.7999999821186","images/apple7.png","","","learning","1","1","1","1","apple","fruit","2","0","","neutral","0"
"html-button-response","174","612026","0.0-9.0-3.0","5714","2","8","Male","approach_avoid_spark_v1","""event"",""trial"",""time""
""fullscreenenter"",""1"",""3131""
","
","
","""event"",""trial"",""time""
""fullscreenenter"",""1"",""3131""
","
","","","","","","2260.9000000059605","<p> You have completed the round! <p> In this round, you earned 65 points! </p>","0","","break","","","","","","","","","","",""
"html-button-response","175","613225","0.0-10.0","5714","2","8","Male","approach_avoid_spark_v1","""event"",""trial"",""time""
""fullscreenenter"",""1"",""3131""
","
","
","""event"",""trial"",""time""
""fullscreenenter"",""1"",""3131""
","
","","","","","","1196.5999999940395","<p> Now it's time to play another round. </p>","0","","transition_screen","","","","","","","","","","",""
"preload","176","613377","0.0-11.0-0.0","5714","2","8","Male","approach_avoid_spark_v1","""event"",""trial"",""time""
""fullscreenenter"",""1"",""3131""
","
","
","""event"",""trial"",""time""
""fullscreenenter"",""1"",""3131""
","
","true","false","[]","[]","[]","","","","","","","","","","","","","","","",""
"learning-instructions","177","619381","0.0-11.0-1.0-0.0","5714","2","8","Male","approach_avoid_spark_v1","""event"",""trial"",""time""
""fullscreenenter"",""1"",""3131""
","
","
","""event"",""trial"",""time""
""fullscreenenter"",""1"",""3131""
","
","","","","","","1210.7999999821186","<p> Your goal in this round is to decorate your friend's new house with furniture. </p></div>","","0","instructions","","","","","","","","","","",""
"learning-instructions","178","631511","0.0-11.0-1.0-0.1","5714","2","8","Male","approach_avoid_spark_v1","""event"",""trial"",""time""
""fullscreenenter"",""1"",""3131""
","
","
","""event"",""trial"",""time""
""fullscreenenter"",""1"",""3131""
","
","","","","","","710.9000000059605","<p> Your friend likes some pieces of furniture but not others.  </p><p> On each turn, you will see a piece of furniture.   </p><p> You need to decide whether to put it in your friend's house or not.  </p>","","0","instructions","","","","","","","","","","",""
"learning-instructions","179","639449","0.0-11.0-1.0-0.2","5714","2","8","Male","approach_avoid_spark_v1","""event"",""trial"",""time""
""fullscreenenter"",""1"",""3131""
","
","
","""event"",""trial"",""time""
""fullscreenenter"",""1"",""3131""
","
","","","","","","1299.300000011921","<p> You can put the furniture in her house by pressing 1 and deliver it elsewhere by pressing 0. </p><br><div class=""choice-instructions-grid""> <div class=""choice-option""><img src=""images/approach.png"" class=""choice-option-img"" stage=""instructions"" position=""0"" ><div class=""choice-option-text""> Press ""1."" </div></div><div class=""choice-option""><img src=""images/avoid.png"" class=""choice-option-img"" stage=""instructions"" position=""1"" ><div class=""choice-option-text""> Press ""0."" </div></div>","","0","instructions","","","","","","","","","","",""
"learning-instructions","180","652712","0.0-11.0-1.0-0.3","5714","2","8","Male","approach_avoid_spark_v1","""event"",""trial"",""time""
""fullscreenenter"",""1"",""3131""
","
","
","""event"",""trial"",""time""
""fullscreenenter"",""1"",""3131""
","
","","","","","","3543.0999999940395","<p> If you decorate your friend's house with furniture she likes, she will be happy! </p><p> But if you give her furniture that she does not like, she will be annoyed. </p>","","0","instructions","","","","","","","","","","",""
"learning-instructions","181","669990","0.0-11.0-1.0-0.4","5714","2","8","Male","approach_avoid_spark_v1","""event"",""trial"",""time""
""fullscreenenter"",""1"",""3131""
","
","
","""event"",""trial"",""time""
""fullscreenenter"",""1"",""3131""
","
","","","","","","4129.9000000059605","<p> You will earn points based on how you made your friend feel. </p><p> If you made her happy, you will WIN anywhere from 1 - 9 points, </p><p> but if you made her annoyed you will LOSE anywhere from 1 - 9 points. </p>","","0","instructions","","","","","","","","","","",""
"learning-instructions","182","679422","0.0-11.0-1.0-0.5","5714","2","8","Male","approach_avoid_spark_v1","""event"",""trial"",""time""
""fullscreenenter"",""1"",""3131""
","
","
","""event"",""trial"",""time""
""fullscreenenter"",""1"",""3131""
","
","","","","","","2772.4000000059605","<p> You will see how many points you won or lost in the center of the screen. </p><p> Here is what you would see if you won 5 points: </p><p style=""color:green;font-size:50px;font-weight:bolder"">5</p>","","0","instructions","","","","","","","","","","",""
"learning-instructions","183","686790","0.0-11.0-1.0-0.6","5714","2","8","Male","approach_avoid_spark_v1","""event"",""trial"",""time""
""fullscreenenter"",""1"",""3131""
","
","
","""event"",""trial"",""time""
""fullscreenenter"",""1"",""3131""
","
","","","","","","4521.199999988079","<p> And here is what you would see if you lost 3 points: </p><p style=""color:red;font-size:50px;font-weight:bolder"">-3</p>","","0","instructions","","","","","","","","","","",""
"learning-instructions","184","710438","0.0-11.0-1.0-0.7","5714","2","8","Male","approach_avoid_spark_v1","""event"",""trial"",""time""
""fullscreenenter"",""1"",""3131""
","
","
","""event"",""trial"",""time""
""fullscreenenter"",""1"",""3131""
","
","","","","","","5228.199999988079","<p> Some pieces of furniture will make her feel very happy or very annoyed. </p><p> These pieces of furniture will make you win or lose LOTS of points. </p><p> Other pieces of furniture will only make her feel a little happy or a little annoyed. </p><p> These pieces of furniture will make you win or lose small amounts of points. </p>","","0","instructions","","","","","","","","","","",""
"learning-instructions","185","726380","0.0-11.0-1.0-0.8","5714","2","8","Male","approach_avoid_spark_v1","""event"",""trial"",""time""
""fullscreenenter"",""1"",""3131""
","
","
","""event"",""trial"",""time""
""fullscreenenter"",""1"",""3131""
","
","","","","","","2911.199999988079","<p> If you choose to deliver a piece of furniture elsewhere, you will not win or lose any points. </p><p>  However, in the center of the screen, you will see the number of points you WOULD HAVE won or lost if you had given the furniture to your friend. </p>","","0","instructions","","","","","","","","","","",""
"learning-instructions","186","743331","0.0-11.0-1.0-0.9","5714","2","8","Male","approach_avoid_spark_v1","""event"",""trial"",""time""
""fullscreenenter"",""1"",""3131""
","
","
","""event"",""trial"",""time""
""fullscreenenter"",""1"",""3131""
","
","","","","","","5461.200000017881","<p> Here is what you might see if you did not give a piece of furniture to your friend that would have made her happy: </p><p style=""color:grey; font-size:50px; display: inline-block; border-spacing: 15px; border-width:3px; border-style:solid; border-color:red"">  &nbsp; 6 &nbsp; </p><p> Remember, in this case, you would not win or lose ANY points because you did not give her the furniture.  </p>","","0","instructions","","","","","","","","","","",""
"learning-instructions","187","753985","0.0-11.0-1.0-0.10","5714","2","8","Male","approach_avoid_spark_v1","""event"",""trial"",""time""
""fullscreenenter"",""1"",""3131""
","
","
","""event"",""trial"",""time""
""fullscreenenter"",""1"",""3131""
","
","","","","","","3265.4000000059605","<p> Try to make the best choice for each piece of furniture because </p><p> at the end of the game, you will earn bonus money based on how many points you earned. </p>","","0","instructions","","","","","","","","","","",""
"learning-instructions","188","763248","0.0-11.0-1.0-0.11","5714","2","8","Male","approach_avoid_spark_v1","""event"",""trial"",""time""
""fullscreenenter"",""1"",""3131""
","
","
","""event"",""trial"",""time""
""fullscreenenter"",""1"",""3131""
","
","","","","","","1058.2999999821186","<p> You will have 3 seconds to make each choice. Try to respond before time runs out! </p><p> You will lose 5 points each time you do not make a response. </p>","","0","instructions","","","","","","","","","","",""
"html-keyboard-response","189","763877","0.0-11.0-2.0-0.0","5714","2","8","Male","approach_avoid_spark_v1","""event"",""trial"",""time""
""fullscreenenter"",""1"",""3131""
","
","
","""event"",""trial"",""time""
""fullscreenenter"",""1"",""3131""
","
","","","","","","null","<div style=""font-size:60px;"">+</div>","null","","fixation","","","","","","","","","","",""
"aa-learning-trial","190","766887","0.0-11.0-2.0-1.0","5714","2","8","Male","approach_avoid_spark_v1","""event"",""trial"",""time""
""fullscreenenter"",""1"",""3131""
","
","
","""event"",""trial"",""time""
""fullscreenenter"",""1"",""3131""
","
","","","","","","1441.7000000178814","images/chair3.png","","","learning","2","0","0","0","chair","furniture","1","1","","neutral","0"
"html-keyboard-response","191","767402","0.0-11.0-2.0-0.1","5714","2","8","Male","approach_avoid_spark_v1","""event"",""trial"",""time""
""fullscreenenter"",""1"",""3131""
","
","
","""event"",""trial"",""time""
""fullscreenenter"",""1"",""3131""
","
","","","","","","null","<div style=""font-size:60px;"">+</div>","null","","fixation","","","","","","","","","","",""
"aa-learning-trial","192","770407","0.0-11.0-2.0-1.1","5714","2","8","Male","approach_avoid_spark_v1","""event"",""trial"",""time""
""fullscreenenter"",""1"",""3131""
","
","
","""event"",""trial"",""time""
""fullscreenenter"",""1"",""3131""
","
","","","","","","1082.5999999940395","images/bed8.png","","","learning","-3","-3","1","1","bed","furniture","1","1","","bad","[-3]"
"html-keyboard-response","193","770917","0.0-11.0-2.0-0.2","5714","2","8","Male","approach_avoid_spark_v1","""event"",""trial"",""time""
""fullscreenenter"",""1"",""3131""
","
","
","""event"",""trial"",""time""
""fullscreenenter"",""1"",""3131""
","
","","","","","","null","<div style=""font-size:60px;"">+</div>","null","","fixation","","","","","","","","","","",""
"aa-learning-trial","194","773932","0.0-11.0-2.0-1.2","5714","2","8","Male","approach_avoid_spark_v1","""event"",""trial"",""time""
""fullscreenenter"",""1"",""3131""
","
","
","""event"",""trial"",""time""
""fullscreenenter"",""1"",""3131""
","
","","","","","","1681.5999999940395","images/sofa4.png","","","learning","6","6","1","1","sofa","furniture","1","1","","good","[4]"
"html-keyboard-response","195","774456","0.0-11.0-2.0-0.3","5714","2","8","Male","approach_avoid_spark_v1","""event"",""trial"",""time""
""fullscreenenter"",""1"",""3131""
","
","
","""event"",""trial"",""time""
""fullscreenenter"",""1"",""3131""
","
","","","","","","null","<div style=""font-size:60px;"">+</div>","null","","fixation","","","","","","","","","","",""
"aa-learning-trial","196","777467","0.0-11.0-2.0-1.3","5714","2","8","Male","approach_avoid_spark_v1","""event"",""trial"",""time""
""fullscreenenter"",""1"",""3131""
","
","
","""event"",""trial"",""time""
""fullscreenenter"",""1"",""3131""
","
","","","","","","904.7999999821186","images/bed5.png","","","learning","-3","-3","1","1","bed","furniture","1","1","","bad","[-3]"
"html-keyboard-response","197","777977","0.0-11.0-2.0-0.4","5714","2","8","Male","approach_avoid_spark_v1","""event"",""trial"",""time""
""fullscreenenter"",""1"",""3131""
","
","
","""event"",""trial"",""time""
""fullscreenenter"",""1"",""3131""
","
","","","","","","null","<div style=""font-size:60px;"">+</div>","null","","fixation","","","","","","","","","","",""
"aa-learning-trial","198","780987","0.0-11.0-2.0-1.4","5714","2","8","Male","approach_avoid_spark_v1","""event"",""trial"",""time""
""fullscreenenter"",""1"",""3131""
","
","
","""event"",""trial"",""time""
""fullscreenenter"",""1"",""3131""
","
","","","","","","1211.3999999761581","images/sofa3.png","","","learning","6","0","0","0","sofa","furniture","1","1","","good","[4]"
"html-keyboard-response","199","781496","0.0-11.0-2.0-0.5","5714","2","8","Male","approach_avoid_spark_v1","""event"",""trial"",""time""
""fullscreenenter"",""1"",""3131""
","
","
","""event"",""trial"",""time""
""fullscreenenter"",""1"",""3131""
","
","","","","","","null","<div style=""font-size:60px;"">+</div>","null","","fixation","","","","","","","","","","",""
"aa-learning-trial","200","784517","0.0-11.0-2.0-1.5","5714","2","8","Male","approach_avoid_spark_v1","""event"",""trial"",""time""
""fullscreenenter"",""1"",""3131""
","
","
","""event"",""trial"",""time""
""fullscreenenter"",""1"",""3131""
","
","","","","","","1106.5999999940395","images/sofa8.png","","","learning","5","5","1","1","sofa","furniture","1","1","","good","[4]"
"html-keyboard-response","201","785037","0.0-11.0-2.0-0.6","5714","2","8","Male","approach_avoid_spark_v1","""event"",""trial"",""time""
""fullscreenenter"",""1"",""3131""
","
","
","""event"",""trial"",""time""
""fullscreenenter"",""1"",""3131""
","
","","","","","","null","<div style=""font-size:60px;"">+</div>","null","","fixation","","","","","","","","","","",""
"aa-learning-trial","202","788057","0.0-11.0-2.0-1.6","5714","2","8","Male","approach_avoid_spark_v1","""event"",""trial"",""time""
""fullscreenenter"",""1"",""3131""
","
","
","""event"",""trial"",""time""
""fullscreenenter"",""1"",""3131""
","
","","","","","","1335","images/chair2.png","","","learning","-1","0","0","0","chair","furniture","1","1","","neutral","0"
"html-keyboard-response","203","788566","0.0-11.0-2.0-0.7","5714","2","8","Male","approach_avoid_spark_v1","""event"",""trial"",""time""
""fullscreenenter"",""1"",""3131""
","
","
","""event"",""trial"",""time""
""fullscreenenter"",""1"",""3131""
","
","","","","","","null","<div style=""font-size:60px;"">+</div>","null","","fixation","","","","","","","","","","",""
"aa-learning-trial","204","791577","0.0-11.0-2.0-1.7","5714","2","8","Male","approach_avoid_spark_v1","""event"",""trial"",""time""
""fullscreenenter"",""1"",""3131""
","
","
","""event"",""trial"",""time""
""fullscreenenter"",""1"",""3131""
","
","","","","","","1938.2999999821186","images/chair3.png","","","learning","[-1]","-1","1","1","chair","furniture","1","1","","neutral","0"
"html-keyboard-response","205","792092","0.0-11.0-2.0-0.8","5714","2","8","Male","approach_avoid_spark_v1","""event"",""trial"",""time""
""fullscreenenter"",""1"",""3131""
","
","
","""event"",""trial"",""time""
""fullscreenenter"",""1"",""3131""
","
","","","","","","null","<div style=""font-size:60px;"">+</div>","null","","fixation","","","","","","","","","","",""
"aa-learning-trial","206","795110","0.0-11.0-2.0-1.8","5714","2","8","Male","approach_avoid_spark_v1","""event"",""trial"",""time""
""fullscreenenter"",""1"",""3131""
","
","
","""event"",""trial"",""time""
""fullscreenenter"",""1"",""3131""
","
","","","","","","1753.9000000059605","images/chair2.png","","","learning","[-1]","0","0","0","chair","furniture","1","1","","neutral","0"
"html-keyboard-response","207","795622","0.0-11.0-2.0-0.9","5714","2","8","Male","approach_avoid_spark_v1","""event"",""trial"",""time""
""fullscreenenter"",""1"",""3131""
","
","
","""event"",""trial"",""time""
""fullscreenenter"",""1"",""3131""
","
","","","","","","null","<div style=""font-size:60px;"">+</div>","null","","fixation","","","","","","","","","","",""
"aa-learning-trial","208","798647","0.0-11.0-2.0-1.9","5714","2","8","Male","approach_avoid_spark_v1","""event"",""trial"",""time""
""fullscreenenter"",""1"",""3131""
","
","
","""event"",""trial"",""time""
""fullscreenenter"",""1"",""3131""
","
","","","","","","1612.4000000059605","images/chair1.png","","","learning","1","0","0","0","chair","furniture","1","1","","neutral","0"
"html-keyboard-response","209","799157","0.0-11.0-2.0-0.10","5714","2","8","Male","approach_avoid_spark_v1","""event"",""trial"",""time""
""fullscreenenter"",""1"",""3131""
","
","
","""event"",""trial"",""time""
""fullscreenenter"",""1"",""3131""
","
","","","","","","null","<div style=""font-size:60px;"">+</div>","null","","fixation","","","","","","","","","","",""
"aa-learning-trial","210","802181","0.0-11.0-2.0-1.10","5714","2","8","Male","approach_avoid_spark_v1","""event"",""trial"",""time""
""fullscreenenter"",""1"",""3131""
","
","
","""event"",""trial"",""time""
""fullscreenenter"",""1"",""3131""
","
","","","","","","919.4000000059605","images/bed8.png","","","learning","2","2","1","1","bed","furniture","1","1","","bad","[-3]"
"html-keyboard-response","211","802703","0.0-11.0-2.0-0.11","5714","2","8","Male","approach_avoid_spark_v1","""event"",""trial"",""time""
""fullscreenenter"",""1"",""3131""
","
","
","""event"",""trial"",""time""
""fullscreenenter"",""1"",""3131""
","
","","","","","","null","<div style=""font-size:60px;"">+</div>","null","","fixation","","","","","","","","","","",""
"aa-learning-trial","212","805713","0.0-11.0-2.0-1.11","5714","2","8","Male","approach_avoid_spark_v1","""event"",""trial"",""time""
""fullscreenenter"",""1"",""3131""
","
","
","""event"",""trial"",""time""
""fullscreenenter"",""1"",""3131""
","
","","","","","","1312.199999988079","images/sofa8.png","","","learning","5","5","1","1","sofa","furniture","1","1","","good","[4]"
"html-keyboard-response","213","806223","0.0-11.0-2.0-0.12","5714","2","8","Male","approach_avoid_spark_v1","""event"",""trial"",""time""
""fullscreenenter"",""1"",""3131""
","
","
","""event"",""trial"",""time""
""fullscreenenter"",""1"",""3131""
","
","","","","","","null","<div style=""font-size:60px;"">+</div>","null","","fixation","","","","","","","","","","",""
"aa-learning-trial","214","809238","0.0-11.0-2.0-1.12","5714","2","8","Male","approach_avoid_spark_v1","""event"",""trial"",""time""
""fullscreenenter"",""1"",""3131""
","
","
","""event"",""trial"",""time""
""fullscreenenter"",""1"",""3131""
","
","","","","","","926.0999999940395","images/sofa3.png","","","learning","6","0","0","0","sofa","furniture","1","1","","good","[4]"
"html-keyboard-response","215","809751","0.0-11.0-2.0-0.13","5714","2","8","Male","approach_avoid_spark_v1","""event"",""trial"",""time""
""fullscreenenter"",""1"",""3131""
","
","
","""event"",""trial"",""time""
""fullscreenenter"",""1"",""3131""
","
","","","","","","null","<div style=""font-size:60px;"">+</div>","null","","fixation","","","","","","","","","","",""
"aa-learning-trial","216","812771","0.0-11.0-2.0-1.13","5714","2","8","Male","approach_avoid_spark_v1","""event"",""trial"",""time""
""fullscreenenter"",""1"",""3131""
","
","
","""event"",""trial"",""time""
""fullscreenenter"",""1"",""3131""
","
","","","","","","1286.699999988079","images/bed5.png","","","learning","-2","0","0","0","bed","furniture","1","1","","bad","[-3]"
"html-keyboard-response","217","813287","0.0-11.0-2.0-0.14","5714","2","8","Male","approach_avoid_spark_v1","""event"",""trial"",""time""
""fullscreenenter"",""1"",""3131""
","
","
","""event"",""trial"",""time""
""fullscreenenter"",""1"",""3131""
","
","","","","","","null","<div style=""font-size:60px;"">+</div>","null","","fixation","","","","","","","","","","",""
"aa-learning-trial","218","816296","0.0-11.0-2.0-1.14","5714","2","8","Male","approach_avoid_spark_v1","""event"",""trial"",""time""
""fullscreenenter"",""1"",""3131""
","
","
","""event"",""trial"",""time""
""fullscreenenter"",""1"",""3131""
","
","","","","","","1600.6000000238419","images/bed1.png","","","learning","-2","-2","1","1","bed","furniture","1","1","","bad","[-3]"
"html-keyboard-response","219","816801","0.0-11.0-2.0-0.15","5714","2","8","Male","approach_avoid_spark_v1","""event"",""trial"",""time""
""fullscreenenter"",""1"",""3131""
","
","
","""event"",""trial"",""time""
""fullscreenenter"",""1"",""3131""
","
","","","","","","null","<div style=""font-size:60px;"">+</div>","null","","fixation","","","","","","","","","","",""
"aa-learning-trial","220","819807","0.0-11.0-2.0-1.15","5714","2","8","Male","approach_avoid_spark_v1","""event"",""trial"",""time""
""fullscreenenter"",""1"",""3131""
","
","
","""event"",""trial"",""time""
""fullscreenenter"",""1"",""3131""
","
","","","","","","565.4000000059605","images/sofa1.png","","","learning","4","0","0","0","sofa","furniture","1","1","","good","[4]"
"html-keyboard-response","221","820310","0.0-11.0-2.0-0.16","5714","2","8","Male","approach_avoid_spark_v1","""event"",""trial"",""time""
""fullscreenenter"",""1"",""3131""
","
","
","""event"",""trial"",""time""
""fullscreenenter"",""1"",""3131""
","
","","","","","","null","<div style=""font-size:60px;"">+</div>","null","","fixation","","","","","","","","","","",""
"aa-learning-trial","222","823327","0.0-11.0-2.0-1.16","5714","2","8","Male","approach_avoid_spark_v1","""event"",""trial"",""time""
""fullscreenenter"",""1"",""3131""
","
","
","""event"",""trial"",""time""
""fullscreenenter"",""1"",""3131""
","
","","","","","","1341.800000011921","images/chair3.png","","","learning","[1]","0","0","0","chair","furniture","1","1","","neutral","0"
"html-keyboard-response","223","823832","0.0-11.0-2.0-0.17","5714","2","8","Male","approach_avoid_spark_v1","""event"",""trial"",""time""
""fullscreenenter"",""1"",""3131""
","
","
","""event"",""trial"",""time""
""fullscreenenter"",""1"",""3131""
","
","","","","","","null","<div style=""font-size:60px;"">+</div>","null","","fixation","","","","","","","","","","",""
"aa-learning-trial","224","826848","0.0-11.0-2.0-1.17","5714","2","8","Male","approach_avoid_spark_v1","""event"",""trial"",""time""
""fullscreenenter"",""1"",""3131""
","
","
","""event"",""trial"",""time""
""fullscreenenter"",""1"",""3131""
","
","","","","","","597.0999999940395","images/sofa3.png","","","learning","4","4","1","1","sofa","furniture","1","1","","good","[4]"
"html-keyboard-response","225","827369","0.0-11.0-2.0-0.18","5714","2","8","Male","approach_avoid_spark_v1","""event"",""trial"",""time""
""fullscreenenter"",""1"",""3131""
","
","
","""event"",""trial"",""time""
""fullscreenenter"",""1"",""3131""
","
","","","","","","null","<div style=""font-size:60px;"">+</div>","null","","fixation","","","","","","","","","","",""
"aa-learning-trial","226","830378","0.0-11.0-2.0-1.18","5714","2","8","Male","approach_avoid_spark_v1","""event"",""trial"",""time""
""fullscreenenter"",""1"",""3131""
","
","
","""event"",""trial"",""time""
""fullscreenenter"",""1"",""3131""
","
","","","","","","576.9000000059605","images/sofa4.png","","","learning","4","4","1","1","sofa","furniture","1","1","","good","[4]"
"html-keyboard-response","227","830889","0.0-11.0-2.0-0.19","5714","2","8","Male","approach_avoid_spark_v1","""event"",""trial"",""time""
""fullscreenenter"",""1"",""3131""
","
","
","""event"",""trial"",""time""
""fullscreenenter"",""1"",""3131""
","
","","","","","","null","<div style=""font-size:60px;"">+</div>","null","","fixation","","","","","","","","","","",""
"aa-learning-trial","228","833907","0.0-11.0-2.0-1.19","5714","2","8","Male","approach_avoid_spark_v1","""event"",""trial"",""time""
""fullscreenenter"",""1"",""3131""
","
","
","""event"",""trial"",""time""
""fullscreenenter"",""1"",""3131""
","
","","","","","","453.7000000178814","images/bed8.png","","","learning","-1","-1","1","1","bed","furniture","1","1","","bad","[-3]"
"html-keyboard-response","229","834417","0.0-11.0-2.0-0.20","5714","2","8","Male","approach_avoid_spark_v1","""event"",""trial"",""time""
""fullscreenenter"",""1"",""3131""
","
","
","""event"",""trial"",""time""
""fullscreenenter"",""1"",""3131""
","
","","","","","","null","<div style=""font-size:60px;"">+</div>","null","","fixation","","","","","","","","","","",""
"aa-learning-trial","230","837426","0.0-11.0-2.0-1.20","5714","2","8","Male","approach_avoid_spark_v1","""event"",""trial"",""time""
""fullscreenenter"",""1"",""3131""
","
","
","""event"",""trial"",""time""
""fullscreenenter"",""1"",""3131""
","
","","","","","","505.90000000596046","images/chair3.png","","","learning","2","2","1","1","chair","furniture","1","1","","neutral","0"
"html-keyboard-response","231","837940","0.0-11.0-2.0-0.21","5714","2","8","Male","approach_avoid_spark_v1","""event"",""trial"",""time""
""fullscreenenter"",""1"",""3131""
","
","
","""event"",""trial"",""time""
""fullscreenenter"",""1"",""3131""
","
","","","","","","null","<div style=""font-size:60px;"">+</div>","null","","fixation","","","","","","","","","","",""
"aa-learning-trial","232","840954","0.0-11.0-2.0-1.21","5714","2","8","Male","approach_avoid_spark_v1","""event"",""trial"",""time""
""fullscreenenter"",""1"",""3131""
","
","
","""event"",""trial"",""time""
""fullscreenenter"",""1"",""3131""
","
","","","","","","818","images/sofa8.png","","","learning","3","3","1","1","sofa","furniture","1","1","","good","[4]"
"html-keyboard-response","233","841467","0.0-11.0-2.0-0.22","5714","2","8","Male","approach_avoid_spark_v1","""event"",""trial"",""time""
""fullscreenenter"",""1"",""3131""
","
","
","""event"",""trial"",""time""
""fullscreenenter"",""1"",""3131""
","
","","","","","","null","<div style=""font-size:60px;"">+</div>","null","","fixation","","","","","","","","","","",""
"aa-learning-trial","234","844492","0.0-11.0-2.0-1.22","5714","2","8","Male","approach_avoid_spark_v1","""event"",""trial"",""time""
""fullscreenenter"",""1"",""3131""
","
","
","""event"",""trial"",""time""
""fullscreenenter"",""1"",""3131""
","
","","","","","","1219.800000011921","images/bed7.png","","","learning","-3","0","0","0","bed","furniture","1","1","","bad","[-3]"
"html-keyboard-response","235","844998","0.0-11.0-2.0-0.23","5714","2","8","Male","approach_avoid_spark_v1","""event"",""trial"",""time""
""fullscreenenter"",""1"",""3131""
","
","
","""event"",""trial"",""time""
""fullscreenenter"",""1"",""3131""
","
","","","","","","null","<div style=""font-size:60px;"">+</div>","null","","fixation","","","","","","","","","","",""
"aa-learning-trial","236","848007","0.0-11.0-2.0-1.23","5714","2","8","Male","approach_avoid_spark_v1","""event"",""trial"",""time""
""fullscreenenter"",""1"",""3131""
","
","
","""event"",""trial"",""time""
""fullscreenenter"",""1"",""3131""
","
","","","","","","568.5999999940395","images/bed8.png","","","learning","-6","-6","1","1","bed","furniture","1","1","","bad","[-3]"
"html-keyboard-response","237","848517","0.0-11.0-2.0-0.24","5714","2","8","Male","approach_avoid_spark_v1","""event"",""trial"",""time""
""fullscreenenter"",""1"",""3131""
","
","
","""event"",""trial"",""time""
""fullscreenenter"",""1"",""3131""
","
","","","","","","null","<div style=""font-size:60px;"">+</div>","null","","fixation","","","","","","","","","","",""
