"trial_type","trial_index","time_elapsed","internal_node_id","subject_id","task_condition","age","gender","task_version","interactions","blur_events","focus_events","fullscreenenter_events","fullscreenexit_events","success","timeout","failed_images","failed_audio","failed_video","rt","stimulus","response","button_pressed","task_part","approach_reward","points","key_press","option_selected","stim_cat","task_block","block_condition","block_number","correct","cat_type","mean_cat_reward"
"pavlovia","0","3","0.0-0.0","5719","2","22","Female","approach_avoid_spark_v1","""event"",""trial"",""time""
""fullscreenenter"",""1"",""3725""
","
","
","""event"",""trial"",""time""
""fullscreenenter"",""1"",""3725""
","
","","","","","","","","","","","","","","","","","","","","",""
"fullscreen","1","3776","0.0-1.0","5719","2","22","Female","approach_avoid_spark_v1","""event"",""trial"",""time""
""fullscreenenter"",""1"",""3725""
","
","
","""event"",""trial"",""time""
""fullscreenenter"",""1"",""3725""
","
","true","","","","","","","","","","","","","","","","","","","",""
"preload","2","7335","0.0-2.0","5719","2","22","Female","approach_avoid_spark_v1","""event"",""trial"",""time""
""fullscreenenter"",""1"",""3725""
","
","
","""event"",""trial"",""time""
""fullscreenenter"",""1"",""3725""
","
","true","false","[]","[]","[]","","","","","","","","","","","","","","","",""
"audio-keyboard-response","3","10078","0.0-3.0","5719","2","22","Female","approach_avoid_spark_v1","""event"",""trial"",""time""
""fullscreenenter"",""1"",""3725""
","
","
","""event"",""trial"",""time""
""fullscreenenter"",""1"",""3725""
","
","","","","","","2741.3333333333335","audio/beep_loop.wav"," ","","","","","","","","","","","","",""
"audio-button-response","4","12037","0.0-4.0","5719","2","22","Female","approach_avoid_spark_v1","""event"",""trial"",""time""
""fullscreenenter"",""1"",""3725""
","
","
","""event"",""trial"",""time""
""fullscreenenter"",""1"",""3725""
","
","","","","","","1957","audio/shark.wav","4","","","","","","","","","","","","",""
"audio-button-response","5","14354","0.0-5.0","5719","2","22","Female","approach_avoid_spark_v1","""event"",""trial"",""time""
""fullscreenenter"",""1"",""3725""
","
","
","""event"",""trial"",""time""
""fullscreenenter"",""1"",""3725""
","
","","","","","","1312","audio/turtle.wav","1","","","","","","","","","","","","",""
"preload","6","17209","0.0-6.0","5719","2","22","Female","approach_avoid_spark_v1","""event"",""trial"",""time""
""fullscreenenter"",""1"",""3725""
","
","
","""event"",""trial"",""time""
""fullscreenenter"",""1"",""3725""
","
","true","false","[]","[]","[]","","","","","","","","","","","","","","","",""
"html-keyboard-response","7","18183","0.0-7.0","5719","2","22","Female","approach_avoid_spark_v1","""event"",""trial"",""time""
""fullscreenenter"",""1"",""3725""
","
","
","""event"",""trial"",""time""
""fullscreenenter"",""1"",""3725""
","
","","","","","","972.6000000014901","Welcome to the experiment. Press any key to begin and to advance the instructions."," ","","","","","","","","","","","","",""
"learning-instructions","8","26643","0.0-8.0-0.0-0.0","5719","2","22","Female","approach_avoid_spark_v1","""event"",""trial"",""time""
""fullscreenenter"",""1"",""3725""
","
","
","""event"",""trial"",""time""
""fullscreenenter"",""1"",""3725""
","
","","","","","","1505","<p> Welcome! Today you are going to play 6 different rounds of a decision-making game. </p><p> Use the mouse to click next to continue. </p>","","0","instructions","","","","","","","","","","",""
"learning-instructions","9","30053","0.0-8.0-0.0-0.1","5719","2","22","Female","approach_avoid_spark_v1","""event"",""trial"",""time""
""fullscreenenter"",""1"",""3725""
","
","
","""event"",""trial"",""time""
""fullscreenenter"",""1"",""3725""
","
","","","","","","668.8000000044703","<p> You will start with a practice round to learn the rules. </p>","","0","instructions","","","","","","","","","","",""
"learning-instructions","10","37407","0.0-8.0-0.0-0.2","5719","2","22","Female","approach_avoid_spark_v1","""event"",""trial"",""time""
""fullscreenenter"",""1"",""3725""
","
","
","""event"",""trial"",""time""
""fullscreenenter"",""1"",""3725""
","
","","","","","","3901.5999999940395","<p> Your goal in this round is to give out sports equipment to kids. </p></div>","","0","instructions","","","","","","","","","","",""
"learning-instructions","11","49803","0.0-8.0-0.0-0.3","5719","2","22","Female","approach_avoid_spark_v1","""event"",""trial"",""time""
""fullscreenenter"",""1"",""3725""
","
","
","""event"",""trial"",""time""
""fullscreenenter"",""1"",""3725""
","
","","","","","","4846.5","<p> The kids only like some of the equipment.  </p><p> On each turn, you will see a piece of sports equipment.   </p><p> You need to decide whether to give it to the kids or not.  </p>","","0","instructions","","","","","","","","","","",""
"learning-instructions","12","55918","0.0-8.0-0.0-0.4","5719","2","22","Female","approach_avoid_spark_v1","""event"",""trial"",""time""
""fullscreenenter"",""1"",""3725""
","
","
","""event"",""trial"",""time""
""fullscreenenter"",""1"",""3725""
","
","","","","","","1361.5","<p> You can give them the equipment by pressing 1 and choose not to give it to them by pressing 0. </p><br><div class=""choice-instructions-grid""> <div class=""choice-option""><img src=""images/approach.png"" class=""choice-option-img"" stage=""instructions"" position=""0"" ><div class=""choice-option-text""> Press ""1."" </div></div><div class=""choice-option""><img src=""images/avoid.png"" class=""choice-option-img"" stage=""instructions"" position=""1"" ><div class=""choice-option-text""> Press ""0."" </div></div>","","0","instructions","","","","","","","","","","",""
"learning-instructions","13","63722","0.0-8.0-0.0-0.5","5719","2","22","Female","approach_avoid_spark_v1","""event"",""trial"",""time""
""fullscreenenter"",""1"",""3725""
","
","
","""event"",""trial"",""time""
""fullscreenenter"",""1"",""3725""
","
","","","","","","424.79999999701977","<p> If you give them a piece of equipment they like, they will be happy! </p><p> But if you give them a piece of equipment they do not like, they will be sad. </p>","","0","instructions","","","","","","","","","","",""
"learning-instructions","14","74658","0.0-8.0-0.0-0.6","5719","2","22","Female","approach_avoid_spark_v1","""event"",""trial"",""time""
""fullscreenenter"",""1"",""3725""
","
","
","""event"",""trial"",""time""
""fullscreenenter"",""1"",""3725""
","
","","","","","","427","<p> You will earn points based on how you make kids feel. </p><p> If you make them happy, you will WIN anywhere from 1 - 9 points, </p><p> but if you make them sad, you will LOSE anywhere from 1 - 9 points. </p>","","0","instructions","","","","","","","","","","",""
"learning-instructions","15","84821","0.0-8.0-0.0-0.7","5719","2","22","Female","approach_avoid_spark_v1","""event"",""trial"",""time""
""fullscreenenter"",""1"",""3725""
","
","
","""event"",""trial"",""time""
""fullscreenenter"",""1"",""3725""
","
","","","","","","606.2000000029802","<p> You will see how many points you won or lost in the center of the screen. </p><p> Here is what you would see if you won 6 points: </p><p style=""color:green;font-size:50px;font-weight:bolder"">6</p><p style=""color:green"">The text is GREEN because you WON points.</p>","","0","instructions","","","","","","","","","","",""
"learning-instructions","16","90935","0.0-8.0-0.0-0.8","5719","2","22","Female","approach_avoid_spark_v1","""event"",""trial"",""time""
""fullscreenenter"",""1"",""3725""
","
","
","""event"",""trial"",""time""
""fullscreenenter"",""1"",""3725""
","
","","","","","","601.5","<p> And here is what you would see if you lost 4 points: </p><p style=""color:red;font-size:50px;font-weight:bolder"">-4</p><p style=""color:red"">The text is RED because you LOST points. </p>","","0","instructions","","","","","","","","","","",""
"learning-instructions","17","109186","0.0-8.0-0.0-0.9","5719","2","22","Female","approach_avoid_spark_v1","""event"",""trial"",""time""
""fullscreenenter"",""1"",""3725""
","
","
","""event"",""trial"",""time""
""fullscreenenter"",""1"",""3725""
","
","","","","","","3504.60000000149","<p> Some of the equipment will make the kids VERY happy or sad. </p><p> These pieces of equipment will make you win or lose LOTS of points. </p><p> Other pieces of equipment will only make the kids a little happy or sad. </p><p> These pieces of equipment will make you win or lose small amounts of points. </p>","","0","instructions","","","","","","","","","","",""
"learning-instructions","18","129321","0.0-8.0-0.0-0.10","5719","2","22","Female","approach_avoid_spark_v1","""event"",""trial"",""time""
""fullscreenenter"",""1"",""3725""
","
","
","""event"",""trial"",""time""
""fullscreenenter"",""1"",""3725""
","
","","","","","","9495.39999999851","<p> If you choose not to give them the equipment, you will not win or lose any points. </p><p>  However, in the center of the screen, you will see the number of points you WOULD HAVE won or lost if you had given them the equipment. </p>","","0","instructions","","","","","","","","","","",""
"learning-instructions","19","151300","0.0-8.0-0.0-0.11","5719","2","22","Female","approach_avoid_spark_v1","""event"",""trial"",""time""
""fullscreenenter"",""1"",""3725""
","
","
","""event"",""trial"",""time""
""fullscreenenter"",""1"",""3725""
","
","","","","","","439.90000000596046","<p> Here is what you might see if you did not give the equipment to the kids but it would have made them happy: </p><p style=""color:grey; font-size:50px; display: inline-block; border-spacing: 15px; border-width:3px; border-style:solid; border-color:red"">  &nbsp; 7 &nbsp; </p><p> Remember, in this case, you would not win or lose ANY points because you did not give them the equipment.  </p><p style=""color:grey"">The text is GREY because you earned ZERO points. </p><p style=""color:red"">However, choosing to give the kids the equipment would have made you win points. The box around the text is RED because you chose the worse option. </p>","","0","instructions","","","","","","","","","","",""
"learning-instructions","20","172752","0.0-8.0-0.0-0.12","5719","2","22","Female","approach_avoid_spark_v1","""event"",""trial"",""time""
""fullscreenenter"",""1"",""3725""
","
","
","""event"",""trial"",""time""
""fullscreenenter"",""1"",""3725""
","
","","","","","","382.1000000014901","<p> Here is what you might see if you did not give the equipment to the kids but it would have made them sad: </p><p style=""color:grey;font-size:50px; display: inline-block; border-spacing: 15px; border-width:3px; border-style:solid; border-color:green"">  &nbsp; -8 &nbsp; </p><p> Remember, in this case, you would not win or lose ANY points because you did not give them the equipment.  </p><p style=""color:grey"">The text is GREY because you earned ZERO points. </p><p  style=""color:green""> Choosing to give the kids the equipment would have made you lose points. The box around the text is GREEN because you chose the better option.</p>","","0","instructions","","","","","","","","","","",""
"learning-instructions","21","181953","0.0-8.0-0.0-0.13","5719","2","22","Female","approach_avoid_spark_v1","""event"",""trial"",""time""
""fullscreenenter"",""1"",""3725""
","
","
","""event"",""trial"",""time""
""fullscreenenter"",""1"",""3725""
","
","","","","","","406","<p> You will have 3 seconds to make each choice. Try to respond before time runs out! </p><p> You will lose 5 points each time you do not make a response. </p>","","0","instructions","","","","","","","","","","",""
"learning-instructions","22","187771","0.0-8.0-0.0-0.14","5719","2","22","Female","approach_avoid_spark_v1","""event"",""trial"",""time""
""fullscreenenter"",""1"",""3725""
","
","
","""event"",""trial"",""time""
""fullscreenenter"",""1"",""3725""
","
","","","","","","403.8999999985099","<p> This is just a practice round, but in the real game, your bonus payment will depend on your total number of points.","","0","instructions","","","","","","","","","","",""
"learning-instructions","23","193969","0.0-8.0-0.0-0.15","5719","2","22","Female","approach_avoid_spark_v1","""event"",""trial"",""time""
""fullscreenenter"",""1"",""3725""
","
","
","""event"",""trial"",""time""
""fullscreenenter"",""1"",""3725""
","
","","","","","","436.29999999701977","<p> Remember, you can give them the equipment by pressing 1 and choose not to give it to them by pressing 0. </p><br><div class=""choice-instructions-grid""> <div class=""choice-option""><img src=""images/approach.png"" class=""choice-option-img"" stage=""instructions"" position=""0"" ><div class=""choice-option-text""> Press ""1."" </div></div><div class=""choice-option""><img src=""images/avoid.png"" class=""choice-option-img"" stage=""instructions"" position=""1"" ><div class=""choice-option-text""> Press ""0."" </div></div>","","0","instructions","","","","","","","","","","",""
"html-button-response","24","195505","0.0-8.0-1.0","5719","2","22","Female","approach_avoid_spark_v1","""event"",""trial"",""time""
""fullscreenenter"",""1"",""3725""
","
","
","""event"",""trial"",""time""
""fullscreenenter"",""1"",""3725""
","
","","","","","","1426.6999999955297","<p> Ready to practice? </p>","0","","","","","","","","","","","","",""
"html-keyboard-response","25","196119","0.0-8.0-2.0-0.0","5719","2","22","Female","approach_avoid_spark_v1","""event"",""trial"",""time""
""fullscreenenter"",""1"",""3725""
","
","
","""event"",""trial"",""time""
""fullscreenenter"",""1"",""3725""
","
","","","","","","null","<div style=""font-size:60px;"">+</div>","null","","fixation","","","","","","","","","","",""
"aa-learning-trial","26","199130","0.0-8.0-2.0-1.0","5719","2","22","Female","approach_avoid_spark_v1","""event"",""trial"",""time""
""fullscreenenter"",""1"",""3725""
","
","
","""event"",""trial"",""time""
""fullscreenenter"",""1"",""3725""
","
","","","","","","2695.6999999955297","images/racket4.png","","","learning","-5","-5","1","1","practice","practice","practice","-1","","",""
"html-keyboard-response","27","199632","0.0-8.0-2.0-0.1","5719","2","22","Female","approach_avoid_spark_v1","""event"",""trial"",""time""
""fullscreenenter"",""1"",""3725""
","
","
","""event"",""trial"",""time""
""fullscreenenter"",""1"",""3725""
","
","","","","","","null","<div style=""font-size:60px;"">+</div>","null","","fixation","","","","","","","","","","",""
"aa-learning-trial","28","202636","0.0-8.0-2.0-1.1","5719","2","22","Female","approach_avoid_spark_v1","""event"",""trial"",""time""
""fullscreenenter"",""1"",""3725""
","
","
","""event"",""trial"",""time""
""fullscreenenter"",""1"",""3725""
","
","","","","","","null","images/racket2.png","","","learning","-7","-5","","null","practice","practice","practice","-1","","",""
"html-keyboard-response","29","203145","0.0-8.0-2.0-0.2","5719","2","22","Female","approach_avoid_spark_v1","""event"",""trial"",""time""
""fullscreenenter"",""1"",""3725""
","
","
","""event"",""trial"",""time""
""fullscreenenter"",""1"",""3725""
","
","","","","","","null","<div style=""font-size:60px;"">+</div>","null","","fixation","","","","","","","","","","",""
"aa-learning-trial","30","206151","0.0-8.0-2.0-1.2","5719","2","22","Female","approach_avoid_spark_v1","""event"",""trial"",""time""
""fullscreenenter"",""1"",""3725""
","
","
","""event"",""trial"",""time""
""fullscreenenter"",""1"",""3725""
","
","","","","","","900.9000000059605","images/racket3.png","","","learning","7","7","1","1","practice","practice","practice","-1","","",""
"html-keyboard-response","31","206652","0.0-8.0-2.0-0.3","5719","2","22","Female","approach_avoid_spark_v1","""event"",""trial"",""time""
""fullscreenenter"",""1"",""3725""
","
","
","""event"",""trial"",""time""
""fullscreenenter"",""1"",""3725""
","
","","","","","","null","<div style=""font-size:60px;"">+</div>","null","","fixation","","","","","","","","","","",""
"aa-learning-trial","32","209655","0.0-8.0-2.0-1.3","5719","2","22","Female","approach_avoid_spark_v1","""event"",""trial"",""time""
""fullscreenenter"",""1"",""3725""
","
","
","""event"",""trial"",""time""
""fullscreenenter"",""1"",""3725""
","
","","","","","","584.5999999940395","images/racket2.png","","","learning","-4","-4","1","1","practice","practice","practice","-1","","",""
"html-keyboard-response","33","210156","0.0-8.0-2.0-0.4","5719","2","22","Female","approach_avoid_spark_v1","""event"",""trial"",""time""
""fullscreenenter"",""1"",""3725""
","
","
","""event"",""trial"",""time""
""fullscreenenter"",""1"",""3725""
","
","","","","","","null","<div style=""font-size:60px;"">+</div>","null","","fixation","","","","","","","","","","",""
"aa-learning-trial","34","213164","0.0-8.0-2.0-1.4","5719","2","22","Female","approach_avoid_spark_v1","""event"",""trial"",""time""
""fullscreenenter"",""1"",""3725""
","
","
","""event"",""trial"",""time""
""fullscreenenter"",""1"",""3725""
","
","","","","","","825","images/ball4.png","","","learning","3","3","1","1","practice","practice","practice","-1","","",""
"html-keyboard-response","35","213665","0.0-8.0-2.0-0.5","5719","2","22","Female","approach_avoid_spark_v1","""event"",""trial"",""time""
""fullscreenenter"",""1"",""3725""
","
","
","""event"",""trial"",""time""
""fullscreenenter"",""1"",""3725""
","
","","","","","","null","<div style=""font-size:60px;"">+</div>","null","","fixation","","","","","","","","","","",""
"aa-learning-trial","36","216668","0.0-8.0-2.0-1.5","5719","2","22","Female","approach_avoid_spark_v1","""event"",""trial"",""time""
""fullscreenenter"",""1"",""3725""
","
","
","""event"",""trial"",""time""
""fullscreenenter"",""1"",""3725""
","
","","","","","","1450.8000000044703","images/racket2.png","","","learning","-5","0","0","0","practice","practice","practice","-1","","",""
"html-keyboard-response","37","217170","0.0-8.0-2.0-0.6","5719","2","22","Female","approach_avoid_spark_v1","""event"",""trial"",""time""
""fullscreenenter"",""1"",""3725""
","
","
","""event"",""trial"",""time""
""fullscreenenter"",""1"",""3725""
","
","","","","","","null","<div style=""font-size:60px;"">+</div>","null","","fixation","","","","","","","","","","",""
"aa-learning-trial","38","220172","0.0-8.0-2.0-1.6","5719","2","22","Female","approach_avoid_spark_v1","""event"",""trial"",""time""
""fullscreenenter"",""1"",""3725""
","
","
","""event"",""trial"",""time""
""fullscreenenter"",""1"",""3725""
","
","","","","","","518.2000000029802","images/ball2.png","","","learning","-6","-6","1","1","practice","practice","practice","-1","","",""
"html-keyboard-response","39","220676","0.0-8.0-2.0-0.7","5719","2","22","Female","approach_avoid_spark_v1","""event"",""trial"",""time""
""fullscreenenter"",""1"",""3725""
","
","
","""event"",""trial"",""time""
""fullscreenenter"",""1"",""3725""
","
","","","","","","null","<div style=""font-size:60px;"">+</div>","null","","fixation","","","","","","","","","","",""
"aa-learning-trial","40","223683","0.0-8.0-2.0-1.7","5719","2","22","Female","approach_avoid_spark_v1","""event"",""trial"",""time""
""fullscreenenter"",""1"",""3725""
","
","
","""event"",""trial"",""time""
""fullscreenenter"",""1"",""3725""
","
","","","","","","951.1999999955297","images/ball1.png","","","learning","-2","-2","1","1","practice","practice","practice","-1","","",""
"html-keyboard-response","41","224184","0.0-8.0-2.0-0.8","5719","2","22","Female","approach_avoid_spark_v1","""event"",""trial"",""time""
""fullscreenenter"",""1"",""3725""
","
","
","""event"",""trial"",""time""
""fullscreenenter"",""1"",""3725""
","
","","","","","","null","<div style=""font-size:60px;"">+</div>","null","","fixation","","","","","","","","","","",""
"aa-learning-trial","42","227187","0.0-8.0-2.0-1.8","5719","2","22","Female","approach_avoid_spark_v1","""event"",""trial"",""time""
""fullscreenenter"",""1"",""3725""
","
","
","""event"",""trial"",""time""
""fullscreenenter"",""1"",""3725""
","
","","","","","","517","images/ball3.png","","","learning","5","0","0","0","practice","practice","practice","-1","","",""
"html-keyboard-response","43","227690","0.0-8.0-2.0-0.9","5719","2","22","Female","approach_avoid_spark_v1","""event"",""trial"",""time""
""fullscreenenter"",""1"",""3725""
","
","
","""event"",""trial"",""time""
""fullscreenenter"",""1"",""3725""
","
","","","","","","null","<div style=""font-size:60px;"">+</div>","null","","fixation","","","","","","","","","","",""
"aa-learning-trial","44","230696","0.0-8.0-2.0-1.9","5719","2","22","Female","approach_avoid_spark_v1","""event"",""trial"",""time""
""fullscreenenter"",""1"",""3725""
","
","
","""event"",""trial"",""time""
""fullscreenenter"",""1"",""3725""
","
","","","","","","401.19999999552965","images/racket1.png","","","learning","6","6","1","1","practice","practice","practice","-1","","",""
"html-keyboard-response","45","231200","0.0-8.0-2.0-0.10","5719","2","22","Female","approach_avoid_spark_v1","""event"",""trial"",""time""
""fullscreenenter"",""1"",""3725""
","
","
","""event"",""trial"",""time""
""fullscreenenter"",""1"",""3725""
","
","","","","","","null","<div style=""font-size:60px;"">+</div>","null","","fixation","","","","","","","","","","",""
"aa-learning-trial","46","234205","0.0-8.0-2.0-1.10","5719","2","22","Female","approach_avoid_spark_v1","""event"",""trial"",""time""
""fullscreenenter"",""1"",""3725""
","
","
","""event"",""trial"",""time""
""fullscreenenter"",""1"",""3725""
","
","","","","","","380","images/ball1.png","","","learning","4","4","1","1","practice","practice","practice","-1","","",""
"html-keyboard-response","47","234707","0.0-8.0-2.0-0.11","5719","2","22","Female","approach_avoid_spark_v1","""event"",""trial"",""time""
""fullscreenenter"",""1"",""3725""
","
","
","""event"",""trial"",""time""
""fullscreenenter"",""1"",""3725""
","
","","","","","","null","<div style=""font-size:60px;"">+</div>","null","","fixation","","","","","","","","","","",""
"aa-learning-trial","48","237713","0.0-8.0-2.0-1.11","5719","2","22","Female","approach_avoid_spark_v1","""event"",""trial"",""time""
""fullscreenenter"",""1"",""3725""
","
","
","""event"",""trial"",""time""
""fullscreenenter"",""1"",""3725""
","
","","","","","","352.1000000014901","images/ball4.png","","","learning","-8","-8","1","1","practice","practice","practice","-1","","",""
"html-button-response","49","240200","0.0-8.0-3.0","5719","2","22","Female","approach_avoid_spark_v1","""event"",""trial"",""time""
""fullscreenenter"",""1"",""3725""
","
","
","""event"",""trial"",""time""
""fullscreenenter"",""1"",""3725""
","
","","","","","","2479.1999999955297","<p> You earned -10 points in the practice round! </p>","0","","break","","","","","","","","","","",""
"learning-instructions","50","248853","0.0-8.0-4.0-0.0","5719","2","22","Female","approach_avoid_spark_v1","""event"",""trial"",""time""
""fullscreenenter"",""1"",""3725""
","
","
","""event"",""trial"",""time""
""fullscreenenter"",""1"",""3725""
","
","","","","","","2541.60000000149","<p> It's almost time to start the real game. </p><p> Before you start, we're going to ask you a few questions about how the game works. </p>","","0","instructions","","","","","","","","","","",""
"preload","51","249881","0.0-8.0-5.0","5719","2","22","Female","approach_avoid_spark_v1","""event"",""trial"",""time""
""fullscreenenter"",""1"",""3725""
","
","
","""event"",""trial"",""time""
""fullscreenenter"",""1"",""3725""
","
","true","false","[]","[]","[]","","","","","","","","","","","","","","","",""
"comp-q","52","257619","0.0-8.0-6.0-0.0","5719","2","22","Female","approach_avoid_spark_v1","""event"",""trial"",""time""
""fullscreenenter"",""1"",""3725""
","
","
","""event"",""trial"",""time""
""fullscreenenter"",""1"",""3725""
","
","","","","","","2742.60000000149","<p> <b> True or False? </b> </p><p> If you see a number in GREY, that means you earned that many points. </p>","","1","comp_question","","","","","","","","","true","",""
"comp-q","53","266602","0.0-8.0-6.0-1.0","5719","2","22","Female","approach_avoid_spark_v1","""event"",""trial"",""time""
""fullscreenenter"",""1"",""3725""
","
","
","""event"",""trial"",""time""
""fullscreenenter"",""1"",""3725""
","
","","","","","","616.0999999940395","<p><b> That's right! </b> If you see a grey number, it means you earned ZERO points. <br> The grey numbers show the points you WOULD HAVE earned if you had made the other choice. </p>","","0","comp_answer","","","","","","","","","","",""
"comp-q","54","271985","0.0-8.0-7.0-0.0","5719","2","22","Female","approach_avoid_spark_v1","""event"",""trial"",""time""
""fullscreenenter"",""1"",""3725""
","
","
","""event"",""trial"",""time""
""fullscreenenter"",""1"",""3725""
","
","","","","","","687.1000000014901","<p> <b> True or False? </b> </p><p> You will have as much time as you want to make each choice. </p>","","1","comp_question","","","","","","","","","true","",""
"comp-q","55","276943","0.0-8.0-7.0-1.0","5719","2","22","Female","approach_avoid_spark_v1","""event"",""trial"",""time""
""fullscreenenter"",""1"",""3725""
","
","
","""event"",""trial"",""time""
""fullscreenenter"",""1"",""3725""
","
","","","","","","909","<p> <b> That's right! </b> You will only have 3 seconds to make each choice. </p>","","0","comp_answer","","","","","","","","","","",""
"comp-q","56","282205","0.0-8.0-8.0-0.0","5719","2","22","Female","approach_avoid_spark_v1","""event"",""trial"",""time""
""fullscreenenter"",""1"",""3725""
","
","
","""event"",""trial"",""time""
""fullscreenenter"",""1"",""3725""
","
","","","","","","608.2999999970198","<p> <b> True or False? </b> </p><p> You should use the '1' and '0' keys to make your choices. </p>","","0","comp_question","","","","","","","","","true","",""
"comp-q","57","287601","0.0-8.0-8.0-1.0","5719","2","22","Female","approach_avoid_spark_v1","""event"",""trial"",""time""
""fullscreenenter"",""1"",""3725""
","
","
","""event"",""trial"",""time""
""fullscreenenter"",""1"",""3725""
","
","","","","","","777.3999999985099","<p> <b> That's right! </b> You should use the '1' and '0' keys to make each choice. </p>","","0","comp_answer","","","","","","","","","","",""
"learning-instructions","58","295368","0.0-8.0-9.0-0.0","5719","2","22","Female","approach_avoid_spark_v1","""event"",""trial"",""time""
""fullscreenenter"",""1"",""3725""
","
","
","""event"",""trial"",""time""
""fullscreenenter"",""1"",""3725""
","
","","","","","","1488.8999999985099","<p> It's now time to start the real game. </p>Do your best, because the points you earn in the next rounds will influence your bonus payment. </p>","","0","instructions","","","","","","","","","","",""
"preload","59","295503","0.0-9.0-0.0","5719","2","22","Female","approach_avoid_spark_v1","""event"",""trial"",""time""
""fullscreenenter"",""1"",""3725""
","
","
","""event"",""trial"",""time""
""fullscreenenter"",""1"",""3725""
","
","true","false","[]","[]","[]","","","","","","","","","","","","","","","",""
"learning-instructions","60","300101","0.0-9.0-1.0-0.0","5719","2","22","Female","approach_avoid_spark_v1","""event"",""trial"",""time""
""fullscreenenter"",""1"",""3725""
","
","
","""event"",""trial"",""time""
""fullscreenenter"",""1"",""3725""
","
","","","","","","578.7000000029802","<p> Your goal in this round is to eat tasty fruit. </p></div>","","0","instructions","","","","","","","","","","",""
"learning-instructions","61","310699","0.0-9.0-1.0-0.1","5719","2","22","Female","approach_avoid_spark_v1","""event"",""trial"",""time""
""fullscreenenter"",""1"",""3725""
","
","
","""event"",""trial"",""time""
""fullscreenenter"",""1"",""3725""
","
","","","","","","1347.8999999985099","<p> Some of the fruits you will see are tasty. Others are rotten on the inside.  </p><p> On each turn, you will see a fruit.   </p><p> You need to decide whether to eat it or not.  </p>","","0","instructions","","","","","","","","","","",""
"learning-instructions","62","315956","0.0-9.0-1.0-0.2","5719","2","22","Female","approach_avoid_spark_v1","""event"",""trial"",""time""
""fullscreenenter"",""1"",""3725""
","
","
","""event"",""trial"",""time""
""fullscreenenter"",""1"",""3725""
","
","","","","","","391.29999999701977","<p> You can eat the fruit by pressing 1 and choose not to eat it by pressing 0. </p><br><div class=""choice-instructions-grid""> <div class=""choice-option""><img src=""images/approach.png"" class=""choice-option-img"" stage=""instructions"" position=""0"" ><div class=""choice-option-text""> Press ""1."" </div></div><div class=""choice-option""><img src=""images/avoid.png"" class=""choice-option-img"" stage=""instructions"" position=""1"" ><div class=""choice-option-text""> Press ""0."" </div></div>","","0","instructions","","","","","","","","","","",""
"learning-instructions","63","323535","0.0-9.0-1.0-0.3","5719","2","22","Female","approach_avoid_spark_v1","""event"",""trial"",""time""
""fullscreenenter"",""1"",""3725""
","
","
","""event"",""trial"",""time""
""fullscreenenter"",""1"",""3725""
","
","","","","","","348.8999999985099","<p> If you eat the fruit and it was tasty, you will win points! </p><p> But if you eat the fruit and it was rotten, you will lose points. </p>","","0","instructions","","","","","","","","","","",""
"learning-instructions","64","335783","0.0-9.0-1.0-0.4","5719","2","22","Female","approach_avoid_spark_v1","""event"",""trial"",""time""
""fullscreenenter"",""1"",""3725""
","
","
","""event"",""trial"",""time""
""fullscreenenter"",""1"",""3725""
","
","","","","","","255.80000000447035","<p> You will earn points based on how tasty or rotten the fruit was. </p><p> If it was tasty, you will WIN anywhere from 1 - 9 points, </p><p> but if it was rotten, you will LOSE anywhere from 1 - 9 points. </p>","","0","instructions","","","","","","","","","","",""
"learning-instructions","65","346200","0.0-9.0-1.0-0.5","5719","2","22","Female","approach_avoid_spark_v1","""event"",""trial"",""time""
""fullscreenenter"",""1"",""3725""
","
","
","""event"",""trial"",""time""
""fullscreenenter"",""1"",""3725""
","
","","","","","","1994.9000000059605","<p> You will see how many points you won or lost in the center of the screen. </p><p> Here is what you would see if you earned 5 points: </p><p style=""color:green;font-size:50px;font-weight:bolder"">5</p>","","0","instructions","","","","","","","","","","",""
"learning-instructions","66","352301","0.0-9.0-1.0-0.6","5719","2","22","Female","approach_avoid_spark_v1","""event"",""trial"",""time""
""fullscreenenter"",""1"",""3725""
","
","
","""event"",""trial"",""time""
""fullscreenenter"",""1"",""3725""
","
","","","","","","581.3999999985099","<p> And here is what you would see if you lost 3 points: </p><p style=""color:red;font-size:50px;font-weight:bolder"">-3</p>","","0","instructions","","","","","","","","","","",""
"learning-instructions","67","366265","0.0-9.0-1.0-0.7","5719","2","22","Female","approach_avoid_spark_v1","""event"",""trial"",""time""
""fullscreenenter"",""1"",""3725""
","
","
","""event"",""trial"",""time""
""fullscreenenter"",""1"",""3725""
","
","","","","","","177.20000000298023","<p> Some fruit is very tasty or very rotten. </p><p> These fruits will make you win or lose LOTS of points. </p><p> Other fruits are only kind of tasty or kind of rotten. </p><p> These fruits will make you win or lose small amounts of points. </p>","","0","instructions","","","","","","","","","","",""
"learning-instructions","68","376652","0.0-9.0-1.0-0.8","5719","2","22","Female","approach_avoid_spark_v1","""event"",""trial"",""time""
""fullscreenenter"",""1"",""3725""
","
","
","""event"",""trial"",""time""
""fullscreenenter"",""1"",""3725""
","
","","","","","","170.39999999850988","<p> If you choose to not eat the fruit, you will not win or lose any points. </p><p>  However, in the center of the screen, you will see the number of points you WOULD HAVE earned if you had eaten the fruit. </p>","","0","instructions","","","","","","","","","","",""
"learning-instructions","69","387273","0.0-9.0-1.0-0.9","5719","2","22","Female","approach_avoid_spark_v1","""event"",""trial"",""time""
""fullscreenenter"",""1"",""3725""
","
","
","""event"",""trial"",""time""
""fullscreenenter"",""1"",""3725""
","
","","","","","","300.40000000596046","<p> Here is what you might see if you did not eat the fruit but the fruit was tasty: </p><p style=""color:grey; font-size:50px; display: inline-block; border-spacing: 15px; border-width:3px; border-style:solid; border-color:red"">  &nbsp; 6 &nbsp; </p><p> Remember, in this case, you would not win or lose ANY points because you did not eat the fruit.  </p>","","0","instructions","","","","","","","","","","",""
"learning-instructions","70","395382","0.0-9.0-1.0-0.10","5719","2","22","Female","approach_avoid_spark_v1","""event"",""trial"",""time""
""fullscreenenter"",""1"",""3725""
","
","
","""event"",""trial"",""time""
""fullscreenenter"",""1"",""3725""
","
","","","","","","452.29999999701977","<p> Try to make the best choice for each fruit because </p><p> at the end of the game, you will earn bonus money based on how many points you earned. </p>","","0","instructions","","","","","","","","","","",""
"learning-instructions","71","403766","0.0-9.0-1.0-0.11","5719","2","22","Female","approach_avoid_spark_v1","""event"",""trial"",""time""
""fullscreenenter"",""1"",""3725""
","
","
","""event"",""trial"",""time""
""fullscreenenter"",""1"",""3725""
","
","","","","","","190.39999999850988","<p> You will have 3 seconds to make each choice. Try to respond before time runs out! </p><p> You will lose 5 points each time you do not make a response. </p>","","0","instructions","","","","","","","","","","",""
"html-keyboard-response","72","404377","0.0-9.0-2.0-0.0","5719","2","22","Female","approach_avoid_spark_v1","""event"",""trial"",""time""
""fullscreenenter"",""1"",""3725""
","
","
","""event"",""trial"",""time""
""fullscreenenter"",""1"",""3725""
","
","","","","","","null","<div style=""font-size:60px;"">+</div>","null","","fixation","","","","","","","","","","",""
"aa-learning-trial","73","407383","0.0-9.0-2.0-1.0","5719","2","22","Female","approach_avoid_spark_v1","""event"",""trial"",""time""
""fullscreenenter"",""1"",""3725""
","
","
","""event"",""trial"",""time""
""fullscreenenter"",""1"",""3725""
","
","","","","","","864.7999999970198","images/banana1.png","","","learning","-5","-5","1","1","banana","fruit","2","0","","neutral","0"
"html-keyboard-response","74","407885","0.0-9.0-2.0-0.1","5719","2","22","Female","approach_avoid_spark_v1","""event"",""trial"",""time""
""fullscreenenter"",""1"",""3725""
","
","
","""event"",""trial"",""time""
""fullscreenenter"",""1"",""3725""
","
","","","","","","null","<div style=""font-size:60px;"">+</div>","null","","fixation","","","","","","","","","","",""
"aa-learning-trial","75","410887","0.0-9.0-2.0-1.1","5719","2","22","Female","approach_avoid_spark_v1","""event"",""trial"",""time""
""fullscreenenter"",""1"",""3725""
","
","
","""event"",""trial"",""time""
""fullscreenenter"",""1"",""3725""
","
","","","","","","545.1999999955297","images/straw7.png","","","learning","-1","-1","1","1","straw","fruit","2","0","","good","[5]"
"html-keyboard-response","76","411390","0.0-9.0-2.0-0.2","5719","2","22","Female","approach_avoid_spark_v1","""event"",""trial"",""time""
""fullscreenenter"",""1"",""3725""
","
","
","""event"",""trial"",""time""
""fullscreenenter"",""1"",""3725""
","
","","","","","","null","<div style=""font-size:60px;"">+</div>","null","","fixation","","","","","","","","","","",""
"aa-learning-trial","77","414393","0.0-9.0-2.0-1.2","5719","2","22","Female","approach_avoid_spark_v1","""event"",""trial"",""time""
""fullscreenenter"",""1"",""3725""
","
","
","""event"",""trial"",""time""
""fullscreenenter"",""1"",""3725""
","
","","","","","","656","images/orange5.png","","","learning","5","5","1","1","orange","fruit","2","0","","bad","[-5]"
"html-keyboard-response","78","414898","0.0-9.0-2.0-0.3","5719","2","22","Female","approach_avoid_spark_v1","""event"",""trial"",""time""
""fullscreenenter"",""1"",""3725""
","
","
","""event"",""trial"",""time""
""fullscreenenter"",""1"",""3725""
","
","","","","","","null","<div style=""font-size:60px;"">+</div>","null","","fixation","","","","","","","","","","",""
"aa-learning-trial","79","417904","0.0-9.0-2.0-1.3","5719","2","22","Female","approach_avoid_spark_v1","""event"",""trial"",""time""
""fullscreenenter"",""1"",""3725""
","
","
","""event"",""trial"",""time""
""fullscreenenter"",""1"",""3725""
","
","","","","","","582.5999999940395","images/orange3.png","","","learning","-4","-4","1","1","orange","fruit","2","0","","bad","[-5]"
"html-keyboard-response","80","418410","0.0-9.0-2.0-0.4","5719","2","22","Female","approach_avoid_spark_v1","""event"",""trial"",""time""
""fullscreenenter"",""1"",""3725""
","
","
","""event"",""trial"",""time""
""fullscreenenter"",""1"",""3725""
","
","","","","","","null","<div style=""font-size:60px;"">+</div>","null","","fixation","","","","","","","","","","",""
"aa-learning-trial","81","421415","0.0-9.0-2.0-1.4","5719","2","22","Female","approach_avoid_spark_v1","""event"",""trial"",""time""
""fullscreenenter"",""1"",""3725""
","
","
","""event"",""trial"",""time""
""fullscreenenter"",""1"",""3725""
","
","","","","","","675.6999999955297","images/banana7.png","","","learning","7","7","1","1","banana","fruit","2","0","","neutral","0"
"html-keyboard-response","82","421916","0.0-9.0-2.0-0.5","5719","2","22","Female","approach_avoid_spark_v1","""event"",""trial"",""time""
""fullscreenenter"",""1"",""3725""
","
","
","""event"",""trial"",""time""
""fullscreenenter"",""1"",""3725""
","
","","","","","","null","<div style=""font-size:60px;"">+</div>","null","","fixation","","","","","","","","","","",""
"aa-learning-trial","83","424923","0.0-9.0-2.0-1.5","5719","2","22","Female","approach_avoid_spark_v1","""event"",""trial"",""time""
""fullscreenenter"",""1"",""3725""
","
","
","""event"",""trial"",""time""
""fullscreenenter"",""1"",""3725""
","
","","","","","","613.5","images/straw6.png","","","learning","-6","-6","1","1","straw","fruit","2","0","","good","[5]"
"html-keyboard-response","84","425426","0.0-9.0-2.0-0.6","5719","2","22","Female","approach_avoid_spark_v1","""event"",""trial"",""time""
""fullscreenenter"",""1"",""3725""
","
","
","""event"",""trial"",""time""
""fullscreenenter"",""1"",""3725""
","
","","","","","","null","<div style=""font-size:60px;"">+</div>","null","","fixation","","","","","","","","","","",""
"aa-learning-trial","85","428428","0.0-9.0-2.0-1.6","5719","2","22","Female","approach_avoid_spark_v1","""event"",""trial"",""time""
""fullscreenenter"",""1"",""3725""
","
","
","""event"",""trial"",""time""
""fullscreenenter"",""1"",""3725""
","
","","","","","","1142.1999999955297","images/straw6.png","","","learning","-6","0","0","0","straw","fruit","2","0","","good","[5]"
"html-keyboard-response","86","428932","0.0-9.0-2.0-0.7","5719","2","22","Female","approach_avoid_spark_v1","""event"",""trial"",""time""
""fullscreenenter"",""1"",""3725""
","
","
","""event"",""trial"",""time""
""fullscreenenter"",""1"",""3725""
","
","","","","","","null","<div style=""font-size:60px;"">+</div>","null","","fixation","","","","","","","","","","",""
"aa-learning-trial","87","431937","0.0-9.0-2.0-1.7","5719","2","22","Female","approach_avoid_spark_v1","""event"",""trial"",""time""
""fullscreenenter"",""1"",""3725""
","
","
","""event"",""trial"",""time""
""fullscreenenter"",""1"",""3725""
","
","","","","","","1062","images/banana4.png","","","learning","-9","-9","1","1","banana","fruit","2","0","","neutral","0"
"html-keyboard-response","88","432443","0.0-9.0-2.0-0.8","5719","2","22","Female","approach_avoid_spark_v1","""event"",""trial"",""time""
""fullscreenenter"",""1"",""3725""
","
","
","""event"",""trial"",""time""
""fullscreenenter"",""1"",""3725""
","
","","","","","","null","<div style=""font-size:60px;"">+</div>","null","","fixation","","","","","","","","","","",""
"aa-learning-trial","89","435448","0.0-9.0-2.0-1.8","5719","2","22","Female","approach_avoid_spark_v1","""event"",""trial"",""time""
""fullscreenenter"",""1"",""3725""
","
","
","""event"",""trial"",""time""
""fullscreenenter"",""1"",""3725""
","
","","","","","","890","images/straw3.png","","","learning","4","4","1","1","straw","fruit","2","0","","good","[5]"
"html-keyboard-response","90","435949","0.0-9.0-2.0-0.9","5719","2","22","Female","approach_avoid_spark_v1","""event"",""trial"",""time""
""fullscreenenter"",""1"",""3725""
","
","
","""event"",""trial"",""time""
""fullscreenenter"",""1"",""3725""
","
","","","","","","null","<div style=""font-size:60px;"">+</div>","null","","fixation","","","","","","","","","","",""
"aa-learning-trial","91","438951","0.0-9.0-2.0-1.9","5719","2","22","Female","approach_avoid_spark_v1","""event"",""trial"",""time""
""fullscreenenter"",""1"",""3725""
","
","
","""event"",""trial"",""time""
""fullscreenenter"",""1"",""3725""
","
","","","","","","779.5","images/banana7.png","","","learning","7","0","0","0","banana","fruit","2","0","","neutral","0"
"html-keyboard-response","92","439453","0.0-9.0-2.0-0.10","5719","2","22","Female","approach_avoid_spark_v1","""event"",""trial"",""time""
""fullscreenenter"",""1"",""3725""
","
","
","""event"",""trial"",""time""
""fullscreenenter"",""1"",""3725""
","
","","","","","","null","<div style=""font-size:60px;"">+</div>","null","","fixation","","","","","","","","","","",""
"aa-learning-trial","93","442457","0.0-9.0-2.0-1.10","5719","2","22","Female","approach_avoid_spark_v1","""event"",""trial"",""time""
""fullscreenenter"",""1"",""3725""
","
","
","""event"",""trial"",""time""
""fullscreenenter"",""1"",""3725""
","
","","","","","","761.3999999985099","images/orange1.png","","","learning","1","1","1","1","orange","fruit","2","0","","bad","[-5]"
"html-keyboard-response","94","442962","0.0-9.0-2.0-0.11","5719","2","22","Female","approach_avoid_spark_v1","""event"",""trial"",""time""
""fullscreenenter"",""1"",""3725""
","
","
","""event"",""trial"",""time""
""fullscreenenter"",""1"",""3725""
","
","","","","","","null","<div style=""font-size:60px;"">+</div>","null","","fixation","","","","","","","","","","",""
"aa-learning-trial","95","445965","0.0-9.0-2.0-1.11","5719","2","22","Female","approach_avoid_spark_v1","""event"",""trial"",""time""
""fullscreenenter"",""1"",""3725""
","
","
","""event"",""trial"",""time""
""fullscreenenter"",""1"",""3725""
","
","","","","","","553.1000000014901","images/banana1.png","","","learning","-5","-5","1","1","banana","fruit","2","0","","neutral","0"
"html-keyboard-response","96","446466","0.0-9.0-2.0-0.12","5719","2","22","Female","approach_avoid_spark_v1","""event"",""trial"",""time""
""fullscreenenter"",""1"",""3725""
","
","
","""event"",""trial"",""time""
""fullscreenenter"",""1"",""3725""
","
","","","","","","null","<div style=""font-size:60px;"">+</div>","null","","fixation","","","","","","","","","","",""
"aa-learning-trial","97","449469","0.0-9.0-2.0-1.12","5719","2","22","Female","approach_avoid_spark_v1","""event"",""trial"",""time""
""fullscreenenter"",""1"",""3725""
","
","
","""event"",""trial"",""time""
""fullscreenenter"",""1"",""3725""
","
","","","","","","949.1000000014901","images/straw3.png","","","learning","4","0","0","0","straw","fruit","2","0","","good","[5]"
"html-keyboard-response","98","449970","0.0-9.0-2.0-0.13","5719","2","22","Female","approach_avoid_spark_v1","""event"",""trial"",""time""
""fullscreenenter"",""1"",""3725""
","
","
","""event"",""trial"",""time""
""fullscreenenter"",""1"",""3725""
","
","","","","","","null","<div style=""font-size:60px;"">+</div>","null","","fixation","","","","","","","","","","",""
"aa-learning-trial","99","452977","0.0-9.0-2.0-1.13","5719","2","22","Female","approach_avoid_spark_v1","""event"",""trial"",""time""
""fullscreenenter"",""1"",""3725""
","
","
","""event"",""trial"",""time""
""fullscreenenter"",""1"",""3725""
","
","","","","","","589.1000000014901","images/orange1.png","","","learning","1","1","1","1","orange","fruit","2","0","","bad","[-5]"
"html-keyboard-response","100","453479","0.0-9.0-2.0-0.14","5719","2","22","Female","approach_avoid_spark_v1","""event"",""trial"",""time""
""fullscreenenter"",""1"",""3725""
","
","
","""event"",""trial"",""time""
""fullscreenenter"",""1"",""3725""
","
","","","","","","null","<div style=""font-size:60px;"">+</div>","null","","fixation","","","","","","","","","","",""
"aa-learning-trial","101","456484","0.0-9.0-2.0-1.14","5719","2","22","Female","approach_avoid_spark_v1","""event"",""trial"",""time""
""fullscreenenter"",""1"",""3725""
","
","
","""event"",""trial"",""time""
""fullscreenenter"",""1"",""3725""
","
","","","","","","540","images/orange5.png","","","learning","5","5","1","1","orange","fruit","2","0","","bad","[-5]"
"html-keyboard-response","102","456989","0.0-9.0-2.0-0.15","5719","2","22","Female","approach_avoid_spark_v1","""event"",""trial"",""time""
""fullscreenenter"",""1"",""3725""
","
","
","""event"",""trial"",""time""
""fullscreenenter"",""1"",""3725""
","
","","","","","","null","<div style=""font-size:60px;"">+</div>","null","","fixation","","","","","","","","","","",""
"aa-learning-trial","103","459993","0.0-9.0-2.0-1.15","5719","2","22","Female","approach_avoid_spark_v1","""event"",""trial"",""time""
""fullscreenenter"",""1"",""3725""
","
","
","""event"",""trial"",""time""
""fullscreenenter"",""1"",""3725""
","
","","","","","","709.2000000029802","images/orange3.png","","","learning","-4","-4","1","1","orange","fruit","2","0","","bad","[-5]"
"html-keyboard-response","104","460498","0.0-9.0-2.0-0.16","5719","2","22","Female","approach_avoid_spark_v1","""event"",""trial"",""time""
""fullscreenenter"",""1"",""3725""
","
","
","""event"",""trial"",""time""
""fullscreenenter"",""1"",""3725""
","
","","","","","","null","<div style=""font-size:60px;"">+</div>","null","","fixation","","","","","","","","","","",""
"aa-learning-trial","105","463501","0.0-9.0-2.0-1.16","5719","2","22","Female","approach_avoid_spark_v1","""event"",""trial"",""time""
""fullscreenenter"",""1"",""3725""
","
","
","""event"",""trial"",""time""
""fullscreenenter"",""1"",""3725""
","
","","","","","","843.7999999970198","images/straw6.png","","","learning","-6","0","0","0","straw","fruit","2","0","","good","[5]"
"html-keyboard-response","106","464002","0.0-9.0-2.0-0.17","5719","2","22","Female","approach_avoid_spark_v1","""event"",""trial"",""time""
""fullscreenenter"",""1"",""3725""
","
","
","""event"",""trial"",""time""
""fullscreenenter"",""1"",""3725""
","
","","","","","","null","<div style=""font-size:60px;"">+</div>","null","","fixation","","","","","","","","","","",""
"aa-learning-trial","107","467004","0.0-9.0-2.0-1.17","5719","2","22","Female","approach_avoid_spark_v1","""event"",""trial"",""time""
""fullscreenenter"",""1"",""3725""
","
","
","""event"",""trial"",""time""
""fullscreenenter"",""1"",""3725""
","
","","","","","","640.3000000044703","images/orange7.png","","","learning","9","9","1","1","orange","fruit","2","0","","bad","[-5]"
"html-keyboard-response","108","467509","0.0-9.0-2.0-0.18","5719","2","22","Female","approach_avoid_spark_v1","""event"",""trial"",""time""
""fullscreenenter"",""1"",""3725""
","
","
","""event"",""trial"",""time""
""fullscreenenter"",""1"",""3725""
","
","","","","","","null","<div style=""font-size:60px;"">+</div>","null","","fixation","","","","","","","","","","",""
"aa-learning-trial","109","470514","0.0-9.0-2.0-1.18","5719","2","22","Female","approach_avoid_spark_v1","""event"",""trial"",""time""
""fullscreenenter"",""1"",""3725""
","
","
","""event"",""trial"",""time""
""fullscreenenter"",""1"",""3725""
","
","","","","","","779.6999999955297","images/banana1.png","","","learning","-5","-5","1","1","banana","fruit","2","0","","neutral","0"
"html-keyboard-response","110","471015","0.0-9.0-2.0-0.19","5719","2","22","Female","approach_avoid_spark_v1","""event"",""trial"",""time""
""fullscreenenter"",""1"",""3725""
","
","
","""event"",""trial"",""time""
""fullscreenenter"",""1"",""3725""
","
","","","","","","null","<div style=""font-size:60px;"">+</div>","null","","fixation","","","","","","","","","","",""
"aa-learning-trial","111","474017","0.0-9.0-2.0-1.19","5719","2","22","Female","approach_avoid_spark_v1","""event"",""trial"",""time""
""fullscreenenter"",""1"",""3725""
","
","
","""event"",""trial"",""time""
""fullscreenenter"",""1"",""3725""
","
","","","","","","807.3000000044703","images/orange5.png","","","learning","5","5","1","1","orange","fruit","2","0","","bad","[-5]"
"html-keyboard-response","112","474519","0.0-9.0-2.0-0.20","5719","2","22","Female","approach_avoid_spark_v1","""event"",""trial"",""time""
""fullscreenenter"",""1"",""3725""
","
","
","""event"",""trial"",""time""
""fullscreenenter"",""1"",""3725""
","
","","","","","","null","<div style=""font-size:60px;"">+</div>","null","","fixation","","","","","","","","","","",""
"aa-learning-trial","113","477521","0.0-9.0-2.0-1.20","5719","2","22","Female","approach_avoid_spark_v1","""event"",""trial"",""time""
""fullscreenenter"",""1"",""3725""
","
","
","""event"",""trial"",""time""
""fullscreenenter"",""1"",""3725""
","
","","","","","","1308.3000000044703","images/banana7.png","","","learning","7","0","0","0","banana","fruit","2","0","","neutral","0"
"html-keyboard-response","114","478026","0.0-9.0-2.0-0.21","5719","2","22","Female","approach_avoid_spark_v1","""event"",""trial"",""time""
""fullscreenenter"",""1"",""3725""
","
","
","""event"",""trial"",""time""
""fullscreenenter"",""1"",""3725""
","
","","","","","","null","<div style=""font-size:60px;"">+</div>","null","","fixation","","","","","","","","","","",""
"aa-learning-trial","115","481031","0.0-9.0-2.0-1.21","5719","2","22","Female","approach_avoid_spark_v1","""event"",""trial"",""time""
""fullscreenenter"",""1"",""3725""
","
","
","""event"",""trial"",""time""
""fullscreenenter"",""1"",""3725""
","
","","","","","","957.6999999955297","images/orange1.png","","","learning","1","1","1","1","orange","fruit","2","0","","bad","[-5]"
"html-keyboard-response","116","481533","0.0-9.0-2.0-0.22","5719","2","22","Female","approach_avoid_spark_v1","""event"",""trial"",""time""
""fullscreenenter"",""1"",""3725""
","
","
","""event"",""trial"",""time""
""fullscreenenter"",""1"",""3725""
","
","","","","","","null","<div style=""font-size:60px;"">+</div>","null","","fixation","","","","","","","","","","",""
"aa-learning-trial","117","484537","0.0-9.0-2.0-1.22","5719","2","22","Female","approach_avoid_spark_v1","""event"",""trial"",""time""
""fullscreenenter"",""1"",""3725""
","
","
","""event"",""trial"",""time""
""fullscreenenter"",""1"",""3725""
","
","","","","","","1567.8999999985099","images/straw3.png","","","learning","4","0","0","0","straw","fruit","2","0","","good","[5]"
"html-keyboard-response","118","485041","0.0-9.0-2.0-0.23","5719","2","22","Female","approach_avoid_spark_v1","""event"",""trial"",""time""
""fullscreenenter"",""1"",""3725""
","
","
","""event"",""trial"",""time""
""fullscreenenter"",""1"",""3725""
","
","","","","","","null","<div style=""font-size:60px;"">+</div>","null","","fixation","","","","","","","","","","",""
"aa-learning-trial","119","488045","0.0-9.0-2.0-1.23","5719","2","22","Female","approach_avoid_spark_v1","""event"",""trial"",""time""
""fullscreenenter"",""1"",""3725""
","
","
","""event"",""trial"",""time""
""fullscreenenter"",""1"",""3725""
","
","","","","","","1075.2999999970198","images/orange2.png","","","learning","-8","-8","1","1","orange","fruit","2","0","","bad","[-5]"
"html-keyboard-response","120","488547","0.0-9.0-2.0-0.24","5719","2","22","Female","approach_avoid_spark_v1","""event"",""trial"",""time""
""fullscreenenter"",""1"",""3725""
","
","
","""event"",""trial"",""time""
""fullscreenenter"",""1"",""3725""
","
","","","","","","null","<div style=""font-size:60px;"">+</div>","null","","fixation","","","","","","","","","","",""
"aa-learning-trial","121","491552","0.0-9.0-2.0-1.24","5719","2","22","Female","approach_avoid_spark_v1","""event"",""trial"",""time""
""fullscreenenter"",""1"",""3725""
","
","
","""event"",""trial"",""time""
""fullscreenenter"",""1"",""3725""
","
","","","","","","1178","images/orange3.png","","","learning","-4","-4","1","1","orange","fruit","2","0","","bad","[-5]"
"html-keyboard-response","122","492055","0.0-9.0-2.0-0.25","5719","2","22","Female","approach_avoid_spark_v1","""event"",""trial"",""time""
""fullscreenenter"",""1"",""3725""
","
","
","""event"",""trial"",""time""
""fullscreenenter"",""1"",""3725""
","
","","","","","","null","<div style=""font-size:60px;"">+</div>","null","","fixation","","","","","","","","","","",""
"aa-learning-trial","123","495056","0.0-9.0-2.0-1.25","5719","2","22","Female","approach_avoid_spark_v1","""event"",""trial"",""time""
""fullscreenenter"",""1"",""3725""
","
","
","""event"",""trial"",""time""
""fullscreenenter"",""1"",""3725""
","
","","","","","","1494.6000000014901","images/banana4.png","","","learning","-9","0","0","0","banana","fruit","2","0","","neutral","0"
"html-keyboard-response","124","495559","0.0-9.0-2.0-0.26","5719","2","22","Female","approach_avoid_spark_v1","""event"",""trial"",""time""
""fullscreenenter"",""1"",""3725""
","
","
","""event"",""trial"",""time""
""fullscreenenter"",""1"",""3725""
","
","","","","","","null","<div style=""font-size:60px;"">+</div>","null","","fixation","","","","","","","","","","",""
"aa-learning-trial","125","498562","0.0-9.0-2.0-1.26","5719","2","22","Female","approach_avoid_spark_v1","""event"",""trial"",""time""
""fullscreenenter"",""1"",""3725""
","
","
","""event"",""trial"",""time""
""fullscreenenter"",""1"",""3725""
","
","","","","","","1253.6000000014901","images/banana7.png","","","learning","7","0","0","0","banana","fruit","2","0","","neutral","0"
"html-keyboard-response","126","499066","0.0-9.0-2.0-0.27","5719","2","22","Female","approach_avoid_spark_v1","""event"",""trial"",""time""
""fullscreenenter"",""1"",""3725""
","
","
","""event"",""trial"",""time""
""fullscreenenter"",""1"",""3725""
","
","","","","","","null","<div style=""font-size:60px;"">+</div>","null","","fixation","","","","","","","","","","",""
"aa-learning-trial","127","502071","0.0-9.0-2.0-1.27","5719","2","22","Female","approach_avoid_spark_v1","""event"",""trial"",""time""
""fullscreenenter"",""1"",""3725""
","
","
","""event"",""trial"",""time""
""fullscreenenter"",""1"",""3725""
","
","","","","","","1138.8999999985099","images/straw3.png","","","learning","4","4","1","1","straw","fruit","2","0","","good","[5]"
"html-keyboard-response","128","502575","0.0-9.0-2.0-0.28","5719","2","22","Female","approach_avoid_spark_v1","""event"",""trial"",""time""
""fullscreenenter"",""1"",""3725""
","
","
","""event"",""trial"",""time""
""fullscreenenter"",""1"",""3725""
","
","","","","","","null","<div style=""font-size:60px;"">+</div>","null","","fixation","","","","","","","","","","",""
"aa-learning-trial","129","505581","0.0-9.0-2.0-1.28","5719","2","22","Female","approach_avoid_spark_v1","""event"",""trial"",""time""
""fullscreenenter"",""1"",""3725""
","
","
","""event"",""trial"",""time""
""fullscreenenter"",""1"",""3725""
","
","","","","","","645","images/straw2.png","","","learning","-3","-3","1","1","straw","fruit","2","0","","good","[5]"
"html-keyboard-response","130","506082","0.0-9.0-2.0-0.29","5719","2","22","Female","approach_avoid_spark_v1","""event"",""trial"",""time""
""fullscreenenter"",""1"",""3725""
","
","
","""event"",""trial"",""time""
""fullscreenenter"",""1"",""3725""
","
","","","","","","null","<div style=""font-size:60px;"">+</div>","null","","fixation","","","","","","","","","","",""
"aa-learning-trial","131","509085","0.0-9.0-2.0-1.29","5719","2","22","Female","approach_avoid_spark_v1","""event"",""trial"",""time""
""fullscreenenter"",""1"",""3725""
","
","
","""event"",""trial"",""time""
""fullscreenenter"",""1"",""3725""
","
","","","","","","554.1000000014901","images/straw6.png","","","learning","-6","-6","1","1","straw","fruit","2","0","","good","[5]"
"html-keyboard-response","132","509590","0.0-9.0-2.0-0.30","5719","2","22","Female","approach_avoid_spark_v1","""event"",""trial"",""time""
""fullscreenenter"",""1"",""3725""
","
","
","""event"",""trial"",""time""
""fullscreenenter"",""1"",""3725""
","
","","","","","","null","<div style=""font-size:60px;"">+</div>","null","","fixation","","","","","","","","","","",""
"aa-learning-trial","133","512594","0.0-9.0-2.0-1.30","5719","2","22","Female","approach_avoid_spark_v1","""event"",""trial"",""time""
""fullscreenenter"",""1"",""3725""
","
","
","""event"",""trial"",""time""
""fullscreenenter"",""1"",""3725""
","
","","","","","","553.8999999985099","images/straw7.png","","","learning","-1","0","0","0","straw","fruit","2","0","","good","[5]"
"html-keyboard-response","134","513096","0.0-9.0-2.0-0.31","5719","2","22","Female","approach_avoid_spark_v1","""event"",""trial"",""time""
""fullscreenenter"",""1"",""3725""
","
","
","""event"",""trial"",""time""
""fullscreenenter"",""1"",""3725""
","
","","","","","","null","<div style=""font-size:60px;"">+</div>","null","","fixation","","","","","","","","","","",""
"aa-learning-trial","135","516102","0.0-9.0-2.0-1.31","5719","2","22","Female","approach_avoid_spark_v1","""event"",""trial"",""time""
""fullscreenenter"",""1"",""3725""
","
","
","""event"",""trial"",""time""
""fullscreenenter"",""1"",""3725""
","
","","","","","","633.3000000044703","images/orange5.png","","","learning","5","5","1","1","orange","fruit","2","0","","bad","[-5]"
"html-keyboard-response","136","516604","0.0-9.0-2.0-0.32","5719","2","22","Female","approach_avoid_spark_v1","""event"",""trial"",""time""
""fullscreenenter"",""1"",""3725""
","
","
","""event"",""trial"",""time""
""fullscreenenter"",""1"",""3725""
","
","","","","","","null","<div style=""font-size:60px;"">+</div>","null","","fixation","","","","","","","","","","",""
"aa-learning-trial","137","519609","0.0-9.0-2.0-1.32","5719","2","22","Female","approach_avoid_spark_v1","""event"",""trial"",""time""
""fullscreenenter"",""1"",""3725""
","
","
","""event"",""trial"",""time""
""fullscreenenter"",""1"",""3725""
","
","","","","","","864.1000000014901","images/banana2.png","","","learning","3","0","0","0","banana","fruit","2","0","","neutral","0"
"html-keyboard-response","138","520114","0.0-9.0-2.0-0.33","5719","2","22","Female","approach_avoid_spark_v1","""event"",""trial"",""time""
""fullscreenenter"",""1"",""3725""
","
","
","""event"",""trial"",""time""
""fullscreenenter"",""1"",""3725""
","
","","","","","","null","<div style=""font-size:60px;"">+</div>","null","","fixation","","","","","","","","","","",""
"aa-learning-trial","139","523116","0.0-9.0-2.0-1.33","5719","2","22","Female","approach_avoid_spark_v1","""event"",""trial"",""time""
""fullscreenenter"",""1"",""3725""
","
","
","""event"",""trial"",""time""
""fullscreenenter"",""1"",""3725""
","
","","","","","","742.7000000029802","images/orange5.png","","","learning","5","5","1","1","orange","fruit","2","0","","bad","[-5]"
"html-keyboard-response","140","523617","0.0-9.0-2.0-0.34","5719","2","22","Female","approach_avoid_spark_v1","""event"",""trial"",""time""
""fullscreenenter"",""1"",""3725""
","
","
","""event"",""trial"",""time""
""fullscreenenter"",""1"",""3725""
","
","","","","","","null","<div style=""font-size:60px;"">+</div>","null","","fixation","","","","","","","","","","",""
"aa-learning-trial","141","526623","0.0-9.0-2.0-1.34","5719","2","22","Female","approach_avoid_spark_v1","""event"",""trial"",""time""
""fullscreenenter"",""1"",""3725""
","
","
","""event"",""trial"",""time""
""fullscreenenter"",""1"",""3725""
","
","","","","","","453.70000000298023","images/orange1.png","","","learning","1","1","1","1","orange","fruit","2","0","","bad","[-5]"
"html-keyboard-response","142","527127","0.0-9.0-2.0-0.35","5719","2","22","Female","approach_avoid_spark_v1","""event"",""trial"",""time""
""fullscreenenter"",""1"",""3725""
","
","
","""event"",""trial"",""time""
""fullscreenenter"",""1"",""3725""
","
","","","","","","null","<div style=""font-size:60px;"">+</div>","null","","fixation","","","","","","","","","","",""
"aa-learning-trial","143","530130","0.0-9.0-2.0-1.35","5719","2","22","Female","approach_avoid_spark_v1","""event"",""trial"",""time""
""fullscreenenter"",""1"",""3725""
","
","
","""event"",""trial"",""time""
""fullscreenenter"",""1"",""3725""
","
","","","","","","686.4000000059605","images/banana1.png","","","learning","-5","0","0","0","banana","fruit","2","0","","neutral","0"
"html-keyboard-response","144","530632","0.0-9.0-2.0-0.36","5719","2","22","Female","approach_avoid_spark_v1","""event"",""trial"",""time""
""fullscreenenter"",""1"",""3725""
","
","
","""event"",""trial"",""time""
""fullscreenenter"",""1"",""3725""
","
","","","","","","null","<div style=""font-size:60px;"">+</div>","null","","fixation","","","","","","","","","","",""
"aa-learning-trial","145","533634","0.0-9.0-2.0-1.36","5719","2","22","Female","approach_avoid_spark_v1","""event"",""trial"",""time""
""fullscreenenter"",""1"",""3725""
","
","
","""event"",""trial"",""time""
""fullscreenenter"",""1"",""3725""
","
","","","","","","602.2000000029802","images/straw3.png","","","learning","4","0","0","0","straw","fruit","2","0","","good","[5]"
"html-keyboard-response","146","534138","0.0-9.0-2.0-0.37","5719","2","22","Female","approach_avoid_spark_v1","""event"",""trial"",""time""
""fullscreenenter"",""1"",""3725""
","
","
","""event"",""trial"",""time""
""fullscreenenter"",""1"",""3725""
","
","","","","","","null","<div style=""font-size:60px;"">+</div>","null","","fixation","","","","","","","","","","",""
"aa-learning-trial","147","537144","0.0-9.0-2.0-1.37","5719","2","22","Female","approach_avoid_spark_v1","""event"",""trial"",""time""
""fullscreenenter"",""1"",""3725""
","
","
","""event"",""trial"",""time""
""fullscreenenter"",""1"",""3725""
","
","","","","","","437.90000000596046","images/orange5.png","","","learning","5","5","1","1","orange","fruit","2","0","","bad","[-5]"
"html-keyboard-response","148","537645","0.0-9.0-2.0-0.38","5719","2","22","Female","approach_avoid_spark_v1","""event"",""trial"",""time""
""fullscreenenter"",""1"",""3725""
","
","
","""event"",""trial"",""time""
""fullscreenenter"",""1"",""3725""
","
","","","","","","null","<div style=""font-size:60px;"">+</div>","null","","fixation","","","","","","","","","","",""
"aa-learning-trial","149","540651","0.0-9.0-2.0-1.38","5719","2","22","Female","approach_avoid_spark_v1","""event"",""trial"",""time""
""fullscreenenter"",""1"",""3725""
","
","
","""event"",""trial"",""time""
""fullscreenenter"",""1"",""3725""
","
","","","","","","521.7999999970198","images/banana1.png","","","learning","-5","0","0","0","banana","fruit","2","0","","neutral","0"
"html-keyboard-response","150","541154","0.0-9.0-2.0-0.39","5719","2","22","Female","approach_avoid_spark_v1","""event"",""trial"",""time""
""fullscreenenter"",""1"",""3725""
","
","
","""event"",""trial"",""time""
""fullscreenenter"",""1"",""3725""
","
","","","","","","null","<div style=""font-size:60px;"">+</div>","null","","fixation","","","","","","","","","","",""
"aa-learning-trial","151","544159","0.0-9.0-2.0-1.39","5719","2","22","Female","approach_avoid_spark_v1","""event"",""trial"",""time""
""fullscreenenter"",""1"",""3725""
","
","
","""event"",""trial"",""time""
""fullscreenenter"",""1"",""3725""
","
","","","","","","517.2000000029802","images/straw3.png","","","learning","4","4","1","1","straw","fruit","2","0","","good","[5]"
"html-keyboard-response","152","544663","0.0-9.0-2.0-0.40","5719","2","22","Female","approach_avoid_spark_v1","""event"",""trial"",""time""
""fullscreenenter"",""1"",""3725""
","
","
","""event"",""trial"",""time""
""fullscreenenter"",""1"",""3725""
","
","","","","","","null","<div style=""font-size:60px;"">+</div>","null","","fixation","","","","","","","","","","",""
"aa-learning-trial","153","547666","0.0-9.0-2.0-1.40","5719","2","22","Female","approach_avoid_spark_v1","""event"",""trial"",""time""
""fullscreenenter"",""1"",""3725""
","
","
","""event"",""trial"",""time""
""fullscreenenter"",""1"",""3725""
","
","","","","","","453.3999999985099","images/banana4.png","","","learning","-9","-9","1","1","banana","fruit","2","0","","neutral","0"
"html-keyboard-response","154","548167","0.0-9.0-2.0-0.41","5719","2","22","Female","approach_avoid_spark_v1","""event"",""trial"",""time""
""fullscreenenter"",""1"",""3725""
","
","
","""event"",""trial"",""time""
""fullscreenenter"",""1"",""3725""
","
","","","","","","null","<div style=""font-size:60px;"">+</div>","null","","fixation","","","","","","","","","","",""
"aa-learning-trial","155","551170","0.0-9.0-2.0-1.41","5719","2","22","Female","approach_avoid_spark_v1","""event"",""trial"",""time""
""fullscreenenter"",""1"",""3725""
","
","
","""event"",""trial"",""time""
""fullscreenenter"",""1"",""3725""
","
","","","","","","590.7000000029802","images/straw6.png","","","learning","-6","-6","1","1","straw","fruit","2","0","","good","[5]"
"html-keyboard-response","156","551674","0.0-9.0-2.0-0.42","5719","2","22","Female","approach_avoid_spark_v1","""event"",""trial"",""time""
""fullscreenenter"",""1"",""3725""
","
","
","""event"",""trial"",""time""
""fullscreenenter"",""1"",""3725""
","
","","","","","","null","<div style=""font-size:60px;"">+</div>","null","","fixation","","","","","","","","","","",""
"aa-learning-trial","157","554679","0.0-9.0-2.0-1.42","5719","2","22","Female","approach_avoid_spark_v1","""event"",""trial"",""time""
""fullscreenenter"",""1"",""3725""
","
","
","""event"",""trial"",""time""
""fullscreenenter"",""1"",""3725""
","
","","","","","","613","images/banana7.png","","","learning","7","0","0","0","banana","fruit","2","0","","neutral","0"
"html-keyboard-response","158","555181","0.0-9.0-2.0-0.43","5719","2","22","Female","approach_avoid_spark_v1","""event"",""trial"",""time""
""fullscreenenter"",""1"",""3725""
","
","
","""event"",""trial"",""time""
""fullscreenenter"",""1"",""3725""
","
","","","","","","null","<div style=""font-size:60px;"">+</div>","null","","fixation","","","","","","","","","","",""
"aa-learning-trial","159","558183","0.0-9.0-2.0-1.43","5719","2","22","Female","approach_avoid_spark_v1","""event"",""trial"",""time""
""fullscreenenter"",""1"",""3725""
","
","
","""event"",""trial"",""time""
""fullscreenenter"",""1"",""3725""
","
","","","","","","1054.6999999955297","images/straw8.png","","","learning","8","8","1","1","straw","fruit","2","0","","good","[5]"
"html-keyboard-response","160","558684","0.0-9.0-2.0-0.44","5719","2","22","Female","approach_avoid_spark_v1","""event"",""trial"",""time""
""fullscreenenter"",""1"",""3725""
","
","
","""event"",""trial"",""time""
""fullscreenenter"",""1"",""3725""
","
","","","","","","null","<div style=""font-size:60px;"">+</div>","null","","fixation","","","","","","","","","","",""
"aa-learning-trial","161","561687","0.0-9.0-2.0-1.44","5719","2","22","Female","approach_avoid_spark_v1","""event"",""trial"",""time""
""fullscreenenter"",""1"",""3725""
","
","
","""event"",""trial"",""time""
""fullscreenenter"",""1"",""3725""
","
","","","","","","721.6999999955297","images/banana7.png","","","learning","7","0","0","0","banana","fruit","2","0","","neutral","0"
"html-keyboard-response","162","562191","0.0-9.0-2.0-0.45","5719","2","22","Female","approach_avoid_spark_v1","""event"",""trial"",""time""
""fullscreenenter"",""1"",""3725""
","
","
","""event"",""trial"",""time""
""fullscreenenter"",""1"",""3725""
","
","","","","","","null","<div style=""font-size:60px;"">+</div>","null","","fixation","","","","","","","","","","",""
"aa-learning-trial","163","565197","0.0-9.0-2.0-1.45","5719","2","22","Female","approach_avoid_spark_v1","""event"",""trial"",""time""
""fullscreenenter"",""1"",""3725""
","
","
","""event"",""trial"",""time""
""fullscreenenter"",""1"",""3725""
","
","","","","","","522.0999999940395","images/straw7.png","","","learning","-1","-1","1","1","straw","fruit","2","0","","good","[5]"
"html-keyboard-response","164","565698","0.0-9.0-2.0-0.46","5719","2","22","Female","approach_avoid_spark_v1","""event"",""trial"",""time""
""fullscreenenter"",""1"",""3725""
","
","
","""event"",""trial"",""time""
""fullscreenenter"",""1"",""3725""
","
","","","","","","null","<div style=""font-size:60px;"">+</div>","null","","fixation","","","","","","","","","","",""
"aa-learning-trial","165","568701","0.0-9.0-2.0-1.46","5719","2","22","Female","approach_avoid_spark_v1","""event"",""trial"",""time""
""fullscreenenter"",""1"",""3725""
","
","
","""event"",""trial"",""time""
""fullscreenenter"",""1"",""3725""
","
","","","","","","475.6000000014901","images/straw6.png","","","learning","-6","-6","1","1","straw","fruit","2","0","","good","[5]"
"html-keyboard-response","166","569202","0.0-9.0-2.0-0.47","5719","2","22","Female","approach_avoid_spark_v1","""event"",""trial"",""time""
""fullscreenenter"",""1"",""3725""
","
","
","""event"",""trial"",""time""
""fullscreenenter"",""1"",""3725""
","
","","","","","","null","<div style=""font-size:60px;"">+</div>","null","","fixation","","","","","","","","","","",""
"aa-learning-trial","167","572209","0.0-9.0-2.0-1.47","5719","2","22","Female","approach_avoid_spark_v1","""event"",""trial"",""time""
""fullscreenenter"",""1"",""3725""
","
","
","""event"",""trial"",""time""
""fullscreenenter"",""1"",""3725""
","
","","","","","","875.3999999985099","images/banana5.png","","","learning","-2","0","0","0","banana","fruit","2","0","","neutral","0"
"html-keyboard-response","168","572711","0.0-9.0-2.0-0.48","5719","2","22","Female","approach_avoid_spark_v1","""event"",""trial"",""time""
""fullscreenenter"",""1"",""3725""
","
","
","""event"",""trial"",""time""
""fullscreenenter"",""1"",""3725""
","
","","","","","","null","<div style=""font-size:60px;"">+</div>","null","","fixation","","","","","","","","","","",""
"aa-learning-trial","169","575714","0.0-9.0-2.0-1.48","5719","2","22","Female","approach_avoid_spark_v1","""event"",""trial"",""time""
""fullscreenenter"",""1"",""3725""
","
","
","""event"",""trial"",""time""
""fullscreenenter"",""1"",""3725""
","
","","","","","","545.5","images/orange1.png","","","learning","1","1","1","1","orange","fruit","2","0","","bad","[-5]"
"html-keyboard-response","170","576215","0.0-9.0-2.0-0.49","5719","2","22","Female","approach_avoid_spark_v1","""event"",""trial"",""time""
""fullscreenenter"",""1"",""3725""
","
","
","""event"",""trial"",""time""
""fullscreenenter"",""1"",""3725""
","
","","","","","","null","<div style=""font-size:60px;"">+</div>","null","","fixation","","","","","","","","","","",""
"aa-learning-trial","171","579223","0.0-9.0-2.0-1.49","5719","2","22","Female","approach_avoid_spark_v1","""event"",""trial"",""time""
""fullscreenenter"",""1"",""3725""
","
","
","""event"",""trial"",""time""
""fullscreenenter"",""1"",""3725""
","
","","","","","","381.69999999552965","images/orange1.png","","","learning","1","1","1","1","orange","fruit","2","0","","bad","[-5]"
"html-keyboard-response","172","579724","0.0-9.0-2.0-0.50","5719","2","22","Female","approach_avoid_spark_v1","""event"",""trial"",""time""
""fullscreenenter"",""1"",""3725""
","
","
","""event"",""trial"",""time""
""fullscreenenter"",""1"",""3725""
","
","","","","","","null","<div style=""font-size:60px;"">+</div>","null","","fixation","","","","","","","","","","",""
"aa-learning-trial","173","582728","0.0-9.0-2.0-1.50","5719","2","22","Female","approach_avoid_spark_v1","""event"",""trial"",""time""
""fullscreenenter"",""1"",""3725""
","
","
","""event"",""trial"",""time""
""fullscreenenter"",""1"",""3725""
","
","","","","","","684.5","images/banana1.png","","","learning","-5","0","0","0","banana","fruit","2","0","","neutral","0"
"html-button-response","174","585464","0.0-9.0-3.0","5719","2","22","Female","approach_avoid_spark_v1","""event"",""trial"",""time""
""fullscreenenter"",""1"",""3725""
","
","
","""event"",""trial"",""time""
""fullscreenenter"",""1"",""3725""
","
","","","","","","2734.3000000044703","<p> You have completed the round! <p> In this round, you earned -10 points! </p>","0","","break","","","","","","","","","","",""
"html-button-response","175","587097","0.0-10.0","5719","2","22","Female","approach_avoid_spark_v1","""event"",""trial"",""time""
""fullscreenenter"",""1"",""3725""
","
","
","""event"",""trial"",""time""
""fullscreenenter"",""1"",""3725""
","
","","","","","","1631.8999999985099","<p> Now it's time to play another round. </p>","0","","transition_screen","","","","","","","","","","",""
"preload","176","587243","0.0-11.0-0.0","5719","2","22","Female","approach_avoid_spark_v1","""event"",""trial"",""time""
""fullscreenenter"",""1"",""3725""
","
","
","""event"",""trial"",""time""
""fullscreenenter"",""1"",""3725""
","
","true","false","[]","[]","[]","","","","","","","","","","","","","","","",""
"learning-instructions","177","594229","0.0-11.0-1.0-0.0","5719","2","22","Female","approach_avoid_spark_v1","""event"",""trial"",""time""
""fullscreenenter"",""1"",""3725""
","
","
","""event"",""trial"",""time""
""fullscreenenter"",""1"",""3725""
","
","","","","","","1189.4000000059605","<p> Your goal in this round is to sell different plants to a picky customer. </p></div>","","0","instructions","","","","","","","","","","",""
"learning-instructions","178","605672","0.0-11.0-1.0-0.1","5719","2","22","Female","approach_avoid_spark_v1","""event"",""trial"",""time""
""fullscreenenter"",""1"",""3725""
","
","
","""event"",""trial"",""time""
""fullscreenenter"",""1"",""3725""
","
","","","","","","371.80000000447035","<p> The customer likes some plants and dislikes others.  </p><p> On each turn, you will see a plant.   </p><p> You need to decide whether to offer it to the customer or not.  </p>","","0","instructions","","","","","","","","","","",""
"learning-instructions","179","619245","0.0-11.0-1.0-0.2","5719","2","22","Female","approach_avoid_spark_v1","""event"",""trial"",""time""
""fullscreenenter"",""1"",""3725""
","
","
","""event"",""trial"",""time""
""fullscreenenter"",""1"",""3725""
","
","","","","","","2579.10000000149","<p> You can offer the plant by pressing 1 and decide to not offer it by pressing 0. </p><br><div class=""choice-instructions-grid""> <div class=""choice-option""><img src=""images/approach.png"" class=""choice-option-img"" stage=""instructions"" position=""0"" ><div class=""choice-option-text""> Press ""1."" </div></div><div class=""choice-option""><img src=""images/avoid.png"" class=""choice-option-img"" stage=""instructions"" position=""1"" ><div class=""choice-option-text""> Press ""0."" </div></div>","","0","instructions","","","","","","","","","","",""
"learning-instructions","180","637206","0.0-11.0-1.0-0.3","5719","2","22","Female","approach_avoid_spark_v1","""event"",""trial"",""time""
""fullscreenenter"",""1"",""3725""
","
","
","""event"",""trial"",""time""
""fullscreenenter"",""1"",""3725""
","
","","","","","","851.1999999955297","<p> If you offer a plant to the customer that she likes, she will be very pleased! </p><p> But if you offer a plant that she does NOT like, she will be annoyed. </p>","","0","instructions","","","","","","","","","","",""
"learning-instructions","181","650746","0.0-11.0-1.0-0.4","5719","2","22","Female","approach_avoid_spark_v1","""event"",""trial"",""time""
""fullscreenenter"",""1"",""3725""
","
","
","""event"",""trial"",""time""
""fullscreenenter"",""1"",""3725""
","
","","","","","","474.8999999985099","<p> You will earn points based on how you made the customer feel. </p><p> If you made her pleased, you will WIN anywhere from 1 - 9 points, </p><p> but if you made her annoyed, you will LOSE anywhere from 1 - 9 points. </p>","","0","instructions","","","","","","","","","","",""
"learning-instructions","182","658379","0.0-11.0-1.0-0.5","5719","2","22","Female","approach_avoid_spark_v1","""event"",""trial"",""time""
""fullscreenenter"",""1"",""3725""
","
","
","""event"",""trial"",""time""
""fullscreenenter"",""1"",""3725""
","
","","","","","","977.2999999970198","<p> You will see how many points you won or lost in the center of the screen. </p><p> Here is what you would see if you won 5 points: </p><p style=""color:green;font-size:50px;font-weight:bolder"">5</p>","","0","instructions","","","","","","","","","","",""
"learning-instructions","183","661898","0.0-11.0-1.0-0.6","5719","2","22","Female","approach_avoid_spark_v1","""event"",""trial"",""time""
""fullscreenenter"",""1"",""3725""
","
","
","""event"",""trial"",""time""
""fullscreenenter"",""1"",""3725""
","
","","","","","","672.2000000029802","<p> And here is what you would see if you lost 3 points: </p><p style=""color:red;font-size:50px;font-weight:bolder"">-3</p>","","0","instructions","","","","","","","","","","",""
"learning-instructions","184","678444","0.0-11.0-1.0-0.7","5719","2","22","Female","approach_avoid_spark_v1","""event"",""trial"",""time""
""fullscreenenter"",""1"",""3725""
","
","
","""event"",""trial"",""time""
""fullscreenenter"",""1"",""3725""
","
","","","","","","520.2999999970198","<p> Some plants will make the customer VERY pleased or annoyed. </p><p> These plants will make you win or lose LOTS of points. </p><p> The customer will have less strong feelings about other plants. </p><p> These plants will make you win or lose small amounts of points. </p>","","0","instructions","","","","","","","","","","",""
"learning-instructions","185","694749","0.0-11.0-1.0-0.8","5719","2","22","Female","approach_avoid_spark_v1","""event"",""trial"",""time""
""fullscreenenter"",""1"",""3725""
","
","
","""event"",""trial"",""time""
""fullscreenenter"",""1"",""3725""
","
","","","","","","2226.7999999970198","<p> If you choose to not offer the plant to the customer, you will not win or lose any points. </p><p>  However, in the center of the screen, you will see the number of points you WOULD HAVE won or lost if you had offered the plant. </p>","","0","instructions","","","","","","","","","","",""
"learning-instructions","186","707530","0.0-11.0-1.0-0.9","5719","2","22","Female","approach_avoid_spark_v1","""event"",""trial"",""time""
""fullscreenenter"",""1"",""3725""
","
","
","""event"",""trial"",""time""
""fullscreenenter"",""1"",""3725""
","
","","","","","","555","<p> Here is what you might see if you did not offer the plant but the customer would have liked it: </p><p style=""color:grey; font-size:50px; display: inline-block; border-spacing: 15px; border-width:3px; border-style:solid; border-color:red"">  &nbsp; 6 &nbsp; </p><p> Remember, in this case, you would not win or lose ANY points because you did not offer the plant.  </p>","","0","instructions","","","","","","","","","","",""
"learning-instructions","187","717198","0.0-11.0-1.0-0.10","5719","2","22","Female","approach_avoid_spark_v1","""event"",""trial"",""time""
""fullscreenenter"",""1"",""3725""
","
","
","""event"",""trial"",""time""
""fullscreenenter"",""1"",""3725""
","
","","","","","","1811.4000000059605","<p> Try to make the best choice for each plant because </p><p> at the end of the game, you will earn bonus money based on how many points you earned. </p>","","0","instructions","","","","","","","","","","",""
"learning-instructions","188","725979","0.0-11.0-1.0-0.11","5719","2","22","Female","approach_avoid_spark_v1","""event"",""trial"",""time""
""fullscreenenter"",""1"",""3725""
","
","
","""event"",""trial"",""time""
""fullscreenenter"",""1"",""3725""
","
","","","","","","587.9000000059605","<p> You will have 3 seconds to make each choice. Try to respond before time runs out! </p><p> You will lose 5 points each time you do not make a response. </p>","","0","instructions","","","","","","","","","","",""
"html-keyboard-response","189","726589","0.0-11.0-2.0-0.0","5719","2","22","Female","approach_avoid_spark_v1","""event"",""trial"",""time""
""fullscreenenter"",""1"",""3725""
","
","
","""event"",""trial"",""time""
""fullscreenenter"",""1"",""3725""
","
","","","","","","null","<div style=""font-size:60px;"">+</div>","null","","fixation","","","","","","","","","","",""
"aa-learning-trial","190","729593","0.0-11.0-2.0-1.0","5719","2","22","Female","approach_avoid_spark_v1","""event"",""trial"",""time""
""fullscreenenter"",""1"",""3725""
","
","
","""event"",""trial"",""time""
""fullscreenenter"",""1"",""3725""
","
","","","","","","1349.3999999985099","images/bush1.png","","","learning","-4","-4","1","1","bush","plants","1","1","","bad","[-4]"
"html-keyboard-response","191","730097","0.0-11.0-2.0-0.1","5719","2","22","Female","approach_avoid_spark_v1","""event"",""trial"",""time""
""fullscreenenter"",""1"",""3725""
","
","
","""event"",""trial"",""time""
""fullscreenenter"",""1"",""3725""
","
","","","","","","null","<div style=""font-size:60px;"">+</div>","null","","fixation","","","","","","","","","","",""
"aa-learning-trial","192","733103","0.0-11.0-2.0-1.1","5719","2","22","Female","approach_avoid_spark_v1","""event"",""trial"",""time""
""fullscreenenter"",""1"",""3725""
","
","
","""event"",""trial"",""time""
""fullscreenenter"",""1"",""3725""
","
","","","","","","1130.7000000029802","images/tree3.png","","","learning","2","2","1","1","tree","plants","1","1","","neutral","0"
"html-keyboard-response","193","733606","0.0-11.0-2.0-0.2","5719","2","22","Female","approach_avoid_spark_v1","""event"",""trial"",""time""
""fullscreenenter"",""1"",""3725""
","
","
","""event"",""trial"",""time""
""fullscreenenter"",""1"",""3725""
","
","","","","","","null","<div style=""font-size:60px;"">+</div>","null","","fixation","","","","","","","","","","",""
"aa-learning-trial","194","736609","0.0-11.0-2.0-1.2","5719","2","22","Female","approach_avoid_spark_v1","""event"",""trial"",""time""
""fullscreenenter"",""1"",""3725""
","
","
","""event"",""trial"",""time""
""fullscreenenter"",""1"",""3725""
","
","","","","","","854.8999999985099","images/bush5.png","","","learning","-5","-5","1","1","bush","plants","1","1","","bad","[-4]"
"html-keyboard-response","195","737113","0.0-11.0-2.0-0.3","5719","2","22","Female","approach_avoid_spark_v1","""event"",""trial"",""time""
""fullscreenenter"",""1"",""3725""
","
","
","""event"",""trial"",""time""
""fullscreenenter"",""1"",""3725""
","
","","","","","","null","<div style=""font-size:60px;"">+</div>","null","","fixation","","","","","","","","","","",""
"aa-learning-trial","196","740119","0.0-11.0-2.0-1.3","5719","2","22","Female","approach_avoid_spark_v1","""event"",""trial"",""time""
""fullscreenenter"",""1"",""3725""
","
","
","""event"",""trial"",""time""
""fullscreenenter"",""1"",""3725""
","
","","","","","","609","images/tree8.png","","","learning","-3","-3","1","1","tree","plants","1","1","","neutral","0"
"html-keyboard-response","197","740621","0.0-11.0-2.0-0.4","5719","2","22","Female","approach_avoid_spark_v1","""event"",""trial"",""time""
""fullscreenenter"",""1"",""3725""
","
","
","""event"",""trial"",""time""
""fullscreenenter"",""1"",""3725""
","
","","","","","","null","<div style=""font-size:60px;"">+</div>","null","","fixation","","","","","","","","","","",""
"aa-learning-trial","198","743628","0.0-11.0-2.0-1.4","5719","2","22","Female","approach_avoid_spark_v1","""event"",""trial"",""time""
""fullscreenenter"",""1"",""3725""
","
","
","""event"",""trial"",""time""
""fullscreenenter"",""1"",""3725""
","
","","","","","","636","images/cactus5.png","","","learning","2","2","1","1","cactus","plants","1","1","","good","[4]"
"html-keyboard-response","199","744132","0.0-11.0-2.0-0.5","5719","2","22","Female","approach_avoid_spark_v1","""event"",""trial"",""time""
""fullscreenenter"",""1"",""3725""
","
","
","""event"",""trial"",""time""
""fullscreenenter"",""1"",""3725""
","
","","","","","","null","<div style=""font-size:60px;"">+</div>","null","","fixation","","","","","","","","","","",""
"aa-learning-trial","200","747138","0.0-11.0-2.0-1.5","5719","2","22","Female","approach_avoid_spark_v1","""event"",""trial"",""time""
""fullscreenenter"",""1"",""3725""
","
","
","""event"",""trial"",""time""
""fullscreenenter"",""1"",""3725""
","
","","","","","","557","images/cactus6.png","","","learning","5","5","1","1","cactus","plants","1","1","","good","[4]"
"html-keyboard-response","201","747641","0.0-11.0-2.0-0.6","5719","2","22","Female","approach_avoid_spark_v1","""event"",""trial"",""time""
""fullscreenenter"",""1"",""3725""
","
","
","""event"",""trial"",""time""
""fullscreenenter"",""1"",""3725""
","
","","","","","","null","<div style=""font-size:60px;"">+</div>","null","","fixation","","","","","","","","","","",""
"aa-learning-trial","202","750644","0.0-11.0-2.0-1.6","5719","2","22","Female","approach_avoid_spark_v1","""event"",""trial"",""time""
""fullscreenenter"",""1"",""3725""
","
","
","""event"",""trial"",""time""
""fullscreenenter"",""1"",""3725""
","
","","","","","","625","images/tree7.png","","","learning","2","2","1","1","tree","plants","1","1","","neutral","0"
"html-keyboard-response","203","751145","0.0-11.0-2.0-0.7","5719","2","22","Female","approach_avoid_spark_v1","""event"",""trial"",""time""
""fullscreenenter"",""1"",""3725""
","
","
","""event"",""trial"",""time""
""fullscreenenter"",""1"",""3725""
","
","","","","","","null","<div style=""font-size:60px;"">+</div>","null","","fixation","","","","","","","","","","",""
"aa-learning-trial","204","754152","0.0-11.0-2.0-1.7","5719","2","22","Female","approach_avoid_spark_v1","""event"",""trial"",""time""
""fullscreenenter"",""1"",""3725""
","
","
","""event"",""trial"",""time""
""fullscreenenter"",""1"",""3725""
","
","","","","","","606.5","images/bush3.png","","","learning","-5","0","0","0","bush","plants","1","1","","bad","[-4]"
"html-keyboard-response","205","754655","0.0-11.0-2.0-0.8","5719","2","22","Female","approach_avoid_spark_v1","""event"",""trial"",""time""
""fullscreenenter"",""1"",""3725""
","
","
","""event"",""trial"",""time""
""fullscreenenter"",""1"",""3725""
","
","","","","","","null","<div style=""font-size:60px;"">+</div>","null","","fixation","","","","","","","","","","",""
"aa-learning-trial","206","757658","0.0-11.0-2.0-1.8","5719","2","22","Female","approach_avoid_spark_v1","""event"",""trial"",""time""
""fullscreenenter"",""1"",""3725""
","
","
","""event"",""trial"",""time""
""fullscreenenter"",""1"",""3725""
","
","","","","","","636.6000000014901","images/tree3.png","","","learning","-1","-1","1","1","tree","plants","1","1","","neutral","0"
"html-keyboard-response","207","758164","0.0-11.0-2.0-0.9","5719","2","22","Female","approach_avoid_spark_v1","""event"",""trial"",""time""
""fullscreenenter"",""1"",""3725""
","
","
","""event"",""trial"",""time""
""fullscreenenter"",""1"",""3725""
","
","","","","","","null","<div style=""font-size:60px;"">+</div>","null","","fixation","","","","","","","","","","",""
"aa-learning-trial","208","761166","0.0-11.0-2.0-1.9","5719","2","22","Female","approach_avoid_spark_v1","""event"",""trial"",""time""
""fullscreenenter"",""1"",""3725""
","
","
","""event"",""trial"",""time""
""fullscreenenter"",""1"",""3725""
","
","","","","","","832.5999999940395","images/bush5.png","","","learning","-2","0","0","0","bush","plants","1","1","","bad","[-4]"
"html-keyboard-response","209","761672","0.0-11.0-2.0-0.10","5719","2","22","Female","approach_avoid_spark_v1","""event"",""trial"",""time""
""fullscreenenter"",""1"",""3725""
","
","
","""event"",""trial"",""time""
""fullscreenenter"",""1"",""3725""
","
","","","","","","null","<div style=""font-size:60px;"">+</div>","null","","fixation","","","","","","","","","","",""
"aa-learning-trial","210","764676","0.0-11.0-2.0-1.10","5719","2","22","Female","approach_avoid_spark_v1","""event"",""trial"",""time""
""fullscreenenter"",""1"",""3725""
","
","
","""event"",""trial"",""time""
""fullscreenenter"",""1"",""3725""
","
","","","","","","599.7999999970198","images/cactus6.png","","","learning","4","4","1","1","cactus","plants","1","1","","good","[4]"
"html-keyboard-response","211","765179","0.0-11.0-2.0-0.11","5719","2","22","Female","approach_avoid_spark_v1","""event"",""trial"",""time""
""fullscreenenter"",""1"",""3725""
","
","
","""event"",""trial"",""time""
""fullscreenenter"",""1"",""3725""
","
","","","","","","null","<div style=""font-size:60px;"">+</div>","null","","fixation","","","","","","","","","","",""
"aa-learning-trial","212","768185","0.0-11.0-2.0-1.11","5719","2","22","Female","approach_avoid_spark_v1","""event"",""trial"",""time""
""fullscreenenter"",""1"",""3725""
","
","
","""event"",""trial"",""time""
""fullscreenenter"",""1"",""3725""
","
","","","","","","428","images/cactus7.png","","","learning","1","1","1","1","cactus","plants","1","1","","good","[4]"
"html-keyboard-response","213","768689","0.0-11.0-2.0-0.12","5719","2","22","Female","approach_avoid_spark_v1","""event"",""trial"",""time""
""fullscreenenter"",""1"",""3725""
","
","
","""event"",""trial"",""time""
""fullscreenenter"",""1"",""3725""
","
","","","","","","null","<div style=""font-size:60px;"">+</div>","null","","fixation","","","","","","","","","","",""
"aa-learning-trial","214","771694","0.0-11.0-2.0-1.12","5719","2","22","Female","approach_avoid_spark_v1","""event"",""trial"",""time""
""fullscreenenter"",""1"",""3725""
","
","
","""event"",""trial"",""time""
""fullscreenenter"",""1"",""3725""
","
","","","","","","471.59999999403954","images/cactus5.png","","","learning","5","5","1","1","cactus","plants","1","1","","good","[4]"
"html-keyboard-response","215","772196","0.0-11.0-2.0-0.13","5719","2","22","Female","approach_avoid_spark_v1","""event"",""trial"",""time""
""fullscreenenter"",""1"",""3725""
","
","
","""event"",""trial"",""time""
""fullscreenenter"",""1"",""3725""
","
","","","","","","null","<div style=""font-size:60px;"">+</div>","null","","fixation","","","","","","","","","","",""
"aa-learning-trial","216","775198","0.0-11.0-2.0-1.13","5719","2","22","Female","approach_avoid_spark_v1","""event"",""trial"",""time""
""fullscreenenter"",""1"",""3725""
","
","
","""event"",""trial"",""time""
""fullscreenenter"",""1"",""3725""
","
","","","","","","951","images/tree8.png","","","learning","[1]","0","0","0","tree","plants","1","1","","neutral","0"
"html-keyboard-response","217","775699","0.0-11.0-2.0-0.14","5719","2","22","Female","approach_avoid_spark_v1","""event"",""trial"",""time""
""fullscreenenter"",""1"",""3725""
","
","
","""event"",""trial"",""time""
""fullscreenenter"",""1"",""3725""
","
","","","","","","null","<div style=""font-size:60px;"">+</div>","null","","fixation","","","","","","","","","","",""
"aa-learning-trial","218","778706","0.0-11.0-2.0-1.14","5719","2","22","Female","approach_avoid_spark_v1","""event"",""trial"",""time""
""fullscreenenter"",""1"",""3725""
","
","
","""event"",""trial"",""time""
""fullscreenenter"",""1"",""3725""
","
","","","","","","661","images/bush3.png","","","learning","-2","-2","1","1","bush","plants","1","1","","bad","[-4]"
"html-keyboard-response","219","779208","0.0-11.0-2.0-0.15","5719","2","22","Female","approach_avoid_spark_v1","""event"",""trial"",""time""
""fullscreenenter"",""1"",""3725""
","
","
","""event"",""trial"",""time""
""fullscreenenter"",""1"",""3725""
","
","","","","","","null","<div style=""font-size:60px;"">+</div>","null","","fixation","","","","","","","","","","",""
"aa-learning-trial","220","782212","0.0-11.0-2.0-1.15","5719","2","22","Female","approach_avoid_spark_v1","""event"",""trial"",""time""
""fullscreenenter"",""1"",""3725""
","
","
","""event"",""trial"",""time""
""fullscreenenter"",""1"",""3725""
","
","","","","","","582.7999999970198","images/bush3.png","","","learning","-5","0","0","0","bush","plants","1","1","","bad","[-4]"
"html-keyboard-response","221","782718","0.0-11.0-2.0-0.16","5719","2","22","Female","approach_avoid_spark_v1","""event"",""trial"",""time""
""fullscreenenter"",""1"",""3725""
","
","
","""event"",""trial"",""time""
""fullscreenenter"",""1"",""3725""
","
","","","","","","null","<div style=""font-size:60px;"">+</div>","null","","fixation","","","","","","","","","","",""
"aa-learning-trial","222","785722","0.0-11.0-2.0-1.16","5719","2","22","Female","approach_avoid_spark_v1","""event"",""trial"",""time""
""fullscreenenter"",""1"",""3725""
","
","
","""event"",""trial"",""time""
""fullscreenenter"",""1"",""3725""
","
","","","","","","747.7999999970198","images/tree7.png","","","learning","3","3","1","1","tree","plants","1","1","","neutral","0"
"html-keyboard-response","223","786227","0.0-11.0-2.0-0.17","5719","2","22","Female","approach_avoid_spark_v1","""event"",""trial"",""time""
""fullscreenenter"",""1"",""3725""
","
","
","""event"",""trial"",""time""
""fullscreenenter"",""1"",""3725""
","
","","","","","","null","<div style=""font-size:60px;"">+</div>","null","","fixation","","","","","","","","","","",""
"aa-learning-trial","224","789234","0.0-11.0-2.0-1.17","5719","2","22","Female","approach_avoid_spark_v1","""event"",""trial"",""time""
""fullscreenenter"",""1"",""3725""
","
","
","""event"",""trial"",""time""
""fullscreenenter"",""1"",""3725""
","
","","","","","","833.5","images/tree3.png","","","learning","[1]","1","1","1","tree","plants","1","1","","neutral","0"
"html-keyboard-response","225","789738","0.0-11.0-2.0-0.18","5719","2","22","Female","approach_avoid_spark_v1","""event"",""trial"",""time""
""fullscreenenter"",""1"",""3725""
","
","
","""event"",""trial"",""time""
""fullscreenenter"",""1"",""3725""
","
","","","","","","null","<div style=""font-size:60px;"">+</div>","null","","fixation","","","","","","","","","","",""
"aa-learning-trial","226","792743","0.0-11.0-2.0-1.18","5719","2","22","Female","approach_avoid_spark_v1","""event"",""trial"",""time""
""fullscreenenter"",""1"",""3725""
","
","
","""event"",""trial"",""time""
""fullscreenenter"",""1"",""3725""
","
","","","","","","439.6000000014901","images/bush5.png","","","learning","-4","0","0","0","bush","plants","1","1","","bad","[-4]"
"html-keyboard-response","227","793246","0.0-11.0-2.0-0.19","5719","2","22","Female","approach_avoid_spark_v1","""event"",""trial"",""time""
""fullscreenenter"",""1"",""3725""
","
","
","""event"",""trial"",""time""
""fullscreenenter"",""1"",""3725""
","
","","","","","","null","<div style=""font-size:60px;"">+</div>","null","","fixation","","","","","","","","","","",""
"aa-learning-trial","228","796249","0.0-11.0-2.0-1.19","5719","2","22","Female","approach_avoid_spark_v1","""event"",""trial"",""time""
""fullscreenenter"",""1"",""3725""
","
","
","""event"",""trial"",""time""
""fullscreenenter"",""1"",""3725""
","
","","","","","","671.7999999970198","images/cactus6.png","","","learning","7","7","1","1","cactus","plants","1","1","","good","[4]"
"html-keyboard-response","229","796755","0.0-11.0-2.0-0.20","5719","2","22","Female","approach_avoid_spark_v1","""event"",""trial"",""time""
""fullscreenenter"",""1"",""3725""
","
","
","""event"",""trial"",""time""
""fullscreenenter"",""1"",""3725""
","
","","","","","","null","<div style=""font-size:60px;"">+</div>","null","","fixation","","","","","","","","","","",""
"aa-learning-trial","230","799761","0.0-11.0-2.0-1.20","5719","2","22","Female","approach_avoid_spark_v1","""event"",""trial"",""time""
""fullscreenenter"",""1"",""3725""
","
","
","""event"",""trial"",""time""
""fullscreenenter"",""1"",""3725""
","
","","","","","","432.79999999701977","images/cactus5.png","","","learning","3","3","1","1","cactus","plants","1","1","","good","[4]"
"html-keyboard-response","231","800265","0.0-11.0-2.0-0.21","5719","2","22","Female","approach_avoid_spark_v1","""event"",""trial"",""time""
""fullscreenenter"",""1"",""3725""
","
","
","""event"",""trial"",""time""
""fullscreenenter"",""1"",""3725""
","
","","","","","","null","<div style=""font-size:60px;"">+</div>","null","","fixation","","","","","","","","","","",""
"aa-learning-trial","232","803271","0.0-11.0-2.0-1.21","5719","2","22","Female","approach_avoid_spark_v1","""event"",""trial"",""time""
""fullscreenenter"",""1"",""3725""
","
","
","""event"",""trial"",""time""
""fullscreenenter"",""1"",""3725""
","
","","","","","","770.2000000029802","images/cactus8.png","","","learning","2","2","1","1","cactus","plants","1","1","","good","[4]"
"html-keyboard-response","233","803774","0.0-11.0-2.0-0.22","5719","2","22","Female","approach_avoid_spark_v1","""event"",""trial"",""time""
""fullscreenenter"",""1"",""3725""
","
","
","""event"",""trial"",""time""
""fullscreenenter"",""1"",""3725""
","
","","","","","","null","<div style=""font-size:60px;"">+</div>","null","","fixation","","","","","","","","","","",""
"aa-learning-trial","234","806777","0.0-11.0-2.0-1.22","5719","2","22","Female","approach_avoid_spark_v1","""event"",""trial"",""time""
""fullscreenenter"",""1"",""3725""
","
","
","""event"",""trial"",""time""
""fullscreenenter"",""1"",""3725""
","
","","","","","","709","images/bush5.png","","","learning","-5","0","0","0","bush","plants","1","1","","bad","[-4]"
"html-keyboard-response","235","807278","0.0-11.0-2.0-0.23","5719","2","22","Female","approach_avoid_spark_v1","""event"",""trial"",""time""
""fullscreenenter"",""1"",""3725""
","
","
","""event"",""trial"",""time""
""fullscreenenter"",""1"",""3725""
","
","","","","","","null","<div style=""font-size:60px;"">+</div>","null","","fixation","","","","","","","","","","",""
"aa-learning-trial","236","810281","0.0-11.0-2.0-1.23","5719","2","22","Female","approach_avoid_spark_v1","""event"",""trial"",""time""
""fullscreenenter"",""1"",""3725""
","
","
","""event"",""trial"",""time""
""fullscreenenter"",""1"",""3725""
","
","","","","","","812.3999999985099","images/tree6.png","","","learning","-1","-1","1","1","tree","plants","1","1","","neutral","0"
