"trial_type","trial_index","time_elapsed","internal_node_id","subject_id","task_condition","age","gender","task_version","interactions","blur_events","focus_events","fullscreenenter_events","fullscreenexit_events","success","timeout","failed_images","failed_audio","failed_video","rt","stimulus","response","button_pressed","task_part","approach_reward","points","key_press","option_selected","stim_cat","task_block","block_condition","block_number","correct","cat_type","mean_cat_reward"
"pavlovia","0","5","0.0-0.0","7579","1","24","Male","approach_avoid_spark_v1","""event"",""trial"",""time""
""fullscreenenter"",""1"",""3926""
","
","
","""event"",""trial"",""time""
""fullscreenenter"",""1"",""3926""
","
","","","","","","","","","","","","","","","","","","","","",""
"fullscreen","1","4906","0.0-1.0","7579","1","24","Male","approach_avoid_spark_v1","""event"",""trial"",""time""
""fullscreenenter"",""1"",""3926""
","
","
","""event"",""trial"",""time""
""fullscreenenter"",""1"",""3926""
","
","true","","","","","","","","","","","","","","","","","","","",""
"preload","2","46959","0.0-2.0","7579","1","24","Male","approach_avoid_spark_v1","""event"",""trial"",""time""
""fullscreenenter"",""1"",""3926""
","
","
","""event"",""trial"",""time""
""fullscreenenter"",""1"",""3926""
","
","true","false","[]","[]","[]","","","","","","","","","","","","","","","",""
"audio-keyboard-response","3","52306","0.0-3.0","7579","1","24","Male","approach_avoid_spark_v1","""event"",""trial"",""time""
""fullscreenenter"",""1"",""3926""
","
","
","""event"",""trial"",""time""
""fullscreenenter"",""1"",""3926""
","
","","","","","","4981.333333333332","audio/beep_loop.wav"," ","","","","","","","","","","","","",""
"audio-button-response","4","57225","0.0-4.0","7579","1","24","Male","approach_avoid_spark_v1","""event"",""trial"",""time""
""fullscreenenter"",""1"",""3926""
","
","
","""event"",""trial"",""time""
""fullscreenenter"",""1"",""3926""
","
","","","","","","4912","audio/shark.wav","4","","","","","","","","","","","","",""
"audio-button-response","5","59789","0.0-5.0","7579","1","24","Male","approach_avoid_spark_v1","""event"",""trial"",""time""
""fullscreenenter"",""1"",""3926""
","
","
","""event"",""trial"",""time""
""fullscreenenter"",""1"",""3926""
","
","","","","","","1560","audio/turtle.wav","1","","","","","","","","","","","","",""
"preload","6","65863","0.0-6.0","7579","1","24","Male","approach_avoid_spark_v1","""event"",""trial"",""time""
""fullscreenenter"",""1"",""3926""
","
","
","""event"",""trial"",""time""
""fullscreenenter"",""1"",""3926""
","
","true","false","[]","[]","[]","","","","","","","","","","","","","","","",""
"html-keyboard-response","7","68754","0.0-7.0","7579","1","24","Male","approach_avoid_spark_v1","""event"",""trial"",""time""
""fullscreenenter"",""1"",""3926""
","
","
","""event"",""trial"",""time""
""fullscreenenter"",""1"",""3926""
","
","","","","","","2888.7000000476837","Welcome to the experiment. Press any key to begin and to advance the instructions."," ","","","","","","","","","","","","",""
"learning-instructions","8","76844","0.0-8.0-0.0-0.0","7579","1","24","Male","approach_avoid_spark_v1","""event"",""trial"",""time""
""fullscreenenter"",""1"",""3926""
","
","
","""event"",""trial"",""time""
""fullscreenenter"",""1"",""3926""
","
","","","","","","1136.8999999761581","<p> Welcome! Today you are going to play 6 different rounds of a decision-making game. </p><p> Use the mouse to click next to continue. </p>","","0","instructions","","","","","","","","","","",""
"learning-instructions","9","80883","0.0-8.0-0.0-0.1","7579","1","24","Male","approach_avoid_spark_v1","""event"",""trial"",""time""
""fullscreenenter"",""1"",""3926""
","
","
","""event"",""trial"",""time""
""fullscreenenter"",""1"",""3926""
","
","","","","","","1304.9000000953674","<p> You will start with a practice round to learn the rules. </p>","","0","instructions","","","","","","","","","","",""
"learning-instructions","10","85867","0.0-8.0-0.0-0.2","7579","1","24","Male","approach_avoid_spark_v1","""event"",""trial"",""time""
""fullscreenenter"",""1"",""3926""
","
","
","""event"",""trial"",""time""
""fullscreenenter"",""1"",""3926""
","
","","","","","","1518.7999999523163","<p> Your goal in this round is to give out sports equipment to kids. </p></div>","","0","instructions","","","","","","","","","","",""
"learning-instructions","11","94833","0.0-8.0-0.0-0.3","7579","1","24","Male","approach_avoid_spark_v1","""event"",""trial"",""time""
""fullscreenenter"",""1"",""3926""
","
","
","""event"",""trial"",""time""
""fullscreenenter"",""1"",""3926""
","
","","","","","","1405.1000000238419","<p> The kids only like some of the equipment.  </p><p> On each turn, you will see a piece of sports equipment.   </p><p> You need to decide whether to give it to the kids or not.  </p>","","0","instructions","","","","","","","","","","",""
"learning-instructions","12","100480","0.0-8.0-0.0-0.4","7579","1","24","Male","approach_avoid_spark_v1","""event"",""trial"",""time""
""fullscreenenter"",""1"",""3926""
","
","
","""event"",""trial"",""time""
""fullscreenenter"",""1"",""3926""
","
","","","","","","882.8999999761581","<p> You can give them the equipment by pressing 1 and choose not to give it to them by pressing 0. </p><br><div class=""choice-instructions-grid""> <div class=""choice-option""><img src=""images/approach.png"" class=""choice-option-img"" stage=""instructions"" position=""0"" ><div class=""choice-option-text""> Press ""1."" </div></div><div class=""choice-option""><img src=""images/avoid.png"" class=""choice-option-img"" stage=""instructions"" position=""1"" ><div class=""choice-option-text""> Press ""0."" </div></div>","","0","instructions","","","","","","","","","","",""
"learning-instructions","13","110403","0.0-8.0-0.0-0.5","7579","1","24","Male","approach_avoid_spark_v1","""event"",""trial"",""time""
""fullscreenenter"",""1"",""3926""
","
","
","""event"",""trial"",""time""
""fullscreenenter"",""1"",""3926""
","
","","","","","","2535.5","<p> If you give them a piece of equipment they like, they will be happy! </p><p> But if you give them a piece of equipment they do not like, they will be sad. </p>","","0","instructions","","","","","","","","","","",""
"learning-instructions","14","122924","0.0-8.0-0.0-0.6","7579","1","24","Male","approach_avoid_spark_v1","""event"",""trial"",""time""
""fullscreenenter"",""1"",""3926""
","
","
","""event"",""trial"",""time""
""fullscreenenter"",""1"",""3926""
","
","","","","","","2007","<p> You will earn points based on how you make kids feel. </p><p> If you make them happy, you will WIN anywhere from 1 - 9 points, </p><p> but if you make them sad, you will LOSE anywhere from 1 - 9 points. </p>","","0","instructions","","","","","","","","","","",""
"learning-instructions","15","134692","0.0-8.0-0.0-0.7","7579","1","24","Male","approach_avoid_spark_v1","""event"",""trial"",""time""
""fullscreenenter"",""1"",""3926""
","
","
","""event"",""trial"",""time""
""fullscreenenter"",""1"",""3926""
","
","","","","","","2214","<p> You will see how many points you won or lost in the center of the screen. </p><p> Here is what you would see if you won 6 points: </p><p style=""color:green;font-size:50px;font-weight:bolder"">6</p><p style=""color:green"">The text is GREEN because you WON points.</p>","","0","instructions","","","","","","","","","","",""
"learning-instructions","16","141666","0.0-8.0-0.0-0.8","7579","1","24","Male","approach_avoid_spark_v1","""event"",""trial"",""time""
""fullscreenenter"",""1"",""3926""
","
","
","""event"",""trial"",""time""
""fullscreenenter"",""1"",""3926""
","
","","","","","","1469.4000000953674","<p> And here is what you would see if you lost 4 points: </p><p style=""color:red;font-size:50px;font-weight:bolder"">-4</p><p style=""color:red"">The text is RED because you LOST points. </p>","","0","instructions","","","","","","","","","","",""
"learning-instructions","17","158598","0.0-8.0-0.0-0.9","7579","1","24","Male","approach_avoid_spark_v1","""event"",""trial"",""time""
""fullscreenenter"",""1"",""3926""
","
","
","""event"",""trial"",""time""
""fullscreenenter"",""1"",""3926""
","
","","","","","","2220.2000000476837","<p> Some of the equipment will make the kids VERY happy or sad. </p><p> These pieces of equipment will make you win or lose LOTS of points. </p><p> Other pieces of equipment will only make the kids a little happy or sad. </p><p> These pieces of equipment will make you win or lose small amounts of points. </p>","","0","instructions","","","","","","","","","","",""
"learning-instructions","18","170545","0.0-8.0-0.0-0.10","7579","1","24","Male","approach_avoid_spark_v1","""event"",""trial"",""time""
""fullscreenenter"",""1"",""3926""
","
","
","""event"",""trial"",""time""
""fullscreenenter"",""1"",""3926""
","
","","","","","","1317.8999999761581","<p> If you choose not to give them the equipment, you will not win or lose any points. </p><p>  However, in the center of the screen, you will see the number of points you WOULD HAVE won or lost if you had given them the equipment. </p>","","0","instructions","","","","","","","","","","",""
"learning-instructions","19","193405","0.0-8.0-0.0-0.11","7579","1","24","Male","approach_avoid_spark_v1","""event"",""trial"",""time""
""fullscreenenter"",""1"",""3926""
","
","
","""event"",""trial"",""time""
""fullscreenenter"",""1"",""3926""
","
","","","","","","1318","<p> Here is what you might see if you did not give the equipment to the kids but it would have made them happy: </p><p style=""color:grey; font-size:50px; display: inline-block; border-spacing: 15px; border-width:3px; border-style:solid; border-color:red"">  &nbsp; 7 &nbsp; </p><p> Remember, in this case, you would not win or lose ANY points because you did not give them the equipment.  </p><p style=""color:grey"">The text is GREY because you earned ZERO points. </p><p style=""color:red"">However, choosing to give the kids the equipment would have made you win points. The box around the text is RED because you chose the worse option. </p>","","0","instructions","","","","","","","","","","",""
"learning-instructions","20","217942","0.0-8.0-0.0-0.12","7579","1","24","Male","approach_avoid_spark_v1","""event"",""trial"",""time""
""fullscreenenter"",""1"",""3926""
","
","
","""event"",""trial"",""time""
""fullscreenenter"",""1"",""3926""
","
","","","","","","3464.2999999523163","<p> Here is what you might see if you did not give the equipment to the kids but it would have made them sad: </p><p style=""color:grey;font-size:50px; display: inline-block; border-spacing: 15px; border-width:3px; border-style:solid; border-color:green"">  &nbsp; -8 &nbsp; </p><p> Remember, in this case, you would not win or lose ANY points because you did not give them the equipment.  </p><p style=""color:grey"">The text is GREY because you earned ZERO points. </p><p  style=""color:green""> Choosing to give the kids the equipment would have made you lose points. The box around the text is GREEN because you chose the better option.</p>","","0","instructions","","","","","","","","","","",""
"learning-instructions","21","228302","0.0-8.0-0.0-0.13","7579","1","24","Male","approach_avoid_spark_v1","""event"",""trial"",""time""
""fullscreenenter"",""1"",""3926""
","
","
","""event"",""trial"",""time""
""fullscreenenter"",""1"",""3926""
","
","","","","","","965.6999999284744","<p> You will have 3 seconds to make each choice. Try to respond before time runs out! </p><p> You will lose 5 points each time you do not make a response. </p>","","0","instructions","","","","","","","","","","",""
"learning-instructions","22","234659","0.0-8.0-0.0-0.14","7579","1","24","Male","approach_avoid_spark_v1","""event"",""trial"",""time""
""fullscreenenter"",""1"",""3926""
","
","
","""event"",""trial"",""time""
""fullscreenenter"",""1"",""3926""
","
","","","","","","931.3000000715256","<p> This is just a practice round, but in the real game, your bonus payment will depend on your total number of points.","","0","instructions","","","","","","","","","","",""
"learning-instructions","23","241386","0.0-8.0-0.0-0.15","7579","1","24","Male","approach_avoid_spark_v1","""event"",""trial"",""time""
""fullscreenenter"",""1"",""3926""
","
","
","""event"",""trial"",""time""
""fullscreenenter"",""1"",""3926""
","
","","","","","","968.5","<p> Remember, you can give them the equipment by pressing 1 and choose not to give it to them by pressing 0. </p><br><div class=""choice-instructions-grid""> <div class=""choice-option""><img src=""images/approach.png"" class=""choice-option-img"" stage=""instructions"" position=""0"" ><div class=""choice-option-text""> Press ""1."" </div></div><div class=""choice-option""><img src=""images/avoid.png"" class=""choice-option-img"" stage=""instructions"" position=""1"" ><div class=""choice-option-text""> Press ""0."" </div></div>","","0","instructions","","","","","","","","","","",""
"html-button-response","24","242511","0.0-8.0-1.0","7579","1","24","Male","approach_avoid_spark_v1","""event"",""trial"",""time""
""fullscreenenter"",""1"",""3926""
","
","
","""event"",""trial"",""time""
""fullscreenenter"",""1"",""3926""
","
","","","","","","1014.7000000476837","<p> Ready to practice? </p>","0","","","","","","","","","","","","",""
"html-keyboard-response","25","243135","0.0-8.0-2.0-0.0","7579","1","24","Male","approach_avoid_spark_v1","""event"",""trial"",""time""
""fullscreenenter"",""1"",""3926""
","
","
","""event"",""trial"",""time""
""fullscreenenter"",""1"",""3926""
","
","","","","","","null","<div style=""font-size:60px;"">+</div>","null","","fixation","","","","","","","","","","",""
"aa-learning-trial","26","246146","0.0-8.0-2.0-1.0","7579","1","24","Male","approach_avoid_spark_v1","""event"",""trial"",""time""
""fullscreenenter"",""1"",""3926""
","
","
","""event"",""trial"",""time""
""fullscreenenter"",""1"",""3926""
","
","","","","","","715.3000000715256","images/ball3.png","","","learning","1","1","1","1","practice","practice","practice","-1","","",""
"html-keyboard-response","27","246657","0.0-8.0-2.0-0.1","7579","1","24","Male","approach_avoid_spark_v1","""event"",""trial"",""time""
""fullscreenenter"",""1"",""3926""
","
","
","""event"",""trial"",""time""
""fullscreenenter"",""1"",""3926""
","
","","","","","","null","<div style=""font-size:60px;"">+</div>","null","","fixation","","","","","","","","","","",""
"aa-learning-trial","28","249666","0.0-8.0-2.0-1.1","7579","1","24","Male","approach_avoid_spark_v1","""event"",""trial"",""time""
""fullscreenenter"",""1"",""3926""
","
","
","""event"",""trial"",""time""
""fullscreenenter"",""1"",""3926""
","
","","","","","","1368.5999999046326","images/racket2.png","","","learning","3","0","0","0","practice","practice","practice","-1","","",""
"html-keyboard-response","29","250176","0.0-8.0-2.0-0.2","7579","1","24","Male","approach_avoid_spark_v1","""event"",""trial"",""time""
""fullscreenenter"",""1"",""3926""
","
","
","""event"",""trial"",""time""
""fullscreenenter"",""1"",""3926""
","
","","","","","","null","<div style=""font-size:60px;"">+</div>","null","","fixation","","","","","","","","","","",""
"aa-learning-trial","30","253186","0.0-8.0-2.0-1.2","7579","1","24","Male","approach_avoid_spark_v1","""event"",""trial"",""time""
""fullscreenenter"",""1"",""3926""
","
","
","""event"",""trial"",""time""
""fullscreenenter"",""1"",""3926""
","
","","","","","","1089.1999999284744","images/ball4.png","","","learning","1","1","1","1","practice","practice","practice","-1","","",""
"html-keyboard-response","31","253706","0.0-8.0-2.0-0.3","7579","1","24","Male","approach_avoid_spark_v1","""event"",""trial"",""time""
""fullscreenenter"",""1"",""3926""
","
","
","""event"",""trial"",""time""
""fullscreenenter"",""1"",""3926""
","
","","","","","","null","<div style=""font-size:60px;"">+</div>","null","","fixation","","","","","","","","","","",""
"aa-learning-trial","32","256711","0.0-8.0-2.0-1.3","7579","1","24","Male","approach_avoid_spark_v1","""event"",""trial"",""time""
""fullscreenenter"",""1"",""3926""
","
","
","""event"",""trial"",""time""
""fullscreenenter"",""1"",""3926""
","
","","","","","","1053.2999999523163","images/ball3.png","","","learning","6","6","1","1","practice","practice","practice","-1","","",""
"html-keyboard-response","33","257221","0.0-8.0-2.0-0.4","7579","1","24","Male","approach_avoid_spark_v1","""event"",""trial"",""time""
""fullscreenenter"",""1"",""3926""
","
","
","""event"",""trial"",""time""
""fullscreenenter"",""1"",""3926""
","
","","","","","","null","<div style=""font-size:60px;"">+</div>","null","","fixation","","","","","","","","","","",""
"aa-learning-trial","34","260236","0.0-8.0-2.0-1.4","7579","1","24","Male","approach_avoid_spark_v1","""event"",""trial"",""time""
""fullscreenenter"",""1"",""3926""
","
","
","""event"",""trial"",""time""
""fullscreenenter"",""1"",""3926""
","
","","","","","","1485","images/racket3.png","","","learning","-9","0","0","0","practice","practice","practice","-1","","",""
"html-keyboard-response","35","260747","0.0-8.0-2.0-0.5","7579","1","24","Male","approach_avoid_spark_v1","""event"",""trial"",""time""
""fullscreenenter"",""1"",""3926""
","
","
","""event"",""trial"",""time""
""fullscreenenter"",""1"",""3926""
","
","","","","","","null","<div style=""font-size:60px;"">+</div>","null","","fixation","","","","","","","","","","",""
"aa-learning-trial","36","263751","0.0-8.0-2.0-1.5","7579","1","24","Male","approach_avoid_spark_v1","""event"",""trial"",""time""
""fullscreenenter"",""1"",""3926""
","
","
","""event"",""trial"",""time""
""fullscreenenter"",""1"",""3926""
","
","","","","","","2908.600000023842","images/racket4.png","","","learning","-5","0","0","0","practice","practice","practice","-1","","",""
"html-keyboard-response","37","264257","0.0-8.0-2.0-0.6","7579","1","24","Male","approach_avoid_spark_v1","""event"",""trial"",""time""
""fullscreenenter"",""1"",""3926""
","
","
","""event"",""trial"",""time""
""fullscreenenter"",""1"",""3926""
","
","","","","","","null","<div style=""font-size:60px;"">+</div>","null","","fixation","","","","","","","","","","",""
"aa-learning-trial","38","267276","0.0-8.0-2.0-1.6","7579","1","24","Male","approach_avoid_spark_v1","""event"",""trial"",""time""
""fullscreenenter"",""1"",""3926""
","
","
","""event"",""trial"",""time""
""fullscreenenter"",""1"",""3926""
","
","","","","","","null","images/racket3.png","","","learning","-1","-5","","null","practice","practice","practice","-1","","",""
"html-keyboard-response","39","267795","0.0-8.0-2.0-0.7","7579","1","24","Male","approach_avoid_spark_v1","""event"",""trial"",""time""
""fullscreenenter"",""1"",""3926""
","
","
","""event"",""trial"",""time""
""fullscreenenter"",""1"",""3926""
","
","","","","","","null","<div style=""font-size:60px;"">+</div>","null","","fixation","","","","","","","","","","",""
"aa-learning-trial","40","270798","0.0-8.0-2.0-1.7","7579","1","24","Male","approach_avoid_spark_v1","""event"",""trial"",""time""
""fullscreenenter"",""1"",""3926""
","
","
","""event"",""trial"",""time""
""fullscreenenter"",""1"",""3926""
","
","","","","","","1150.3999999761581","images/ball1.png","","","learning","6","6","1","1","practice","practice","practice","-1","","",""
"html-keyboard-response","41","271300","0.0-8.0-2.0-0.8","7579","1","24","Male","approach_avoid_spark_v1","""event"",""trial"",""time""
""fullscreenenter"",""1"",""3926""
","
","
","""event"",""trial"",""time""
""fullscreenenter"",""1"",""3926""
","
","","","","","","null","<div style=""font-size:60px;"">+</div>","null","","fixation","","","","","","","","","","",""
"aa-learning-trial","42","274303","0.0-8.0-2.0-1.8","7579","1","24","Male","approach_avoid_spark_v1","""event"",""trial"",""time""
""fullscreenenter"",""1"",""3926""
","
","
","""event"",""trial"",""time""
""fullscreenenter"",""1"",""3926""
","
","","","","","","1233.6999999284744","images/racket2.png","","","learning","-9","-9","1","1","practice","practice","practice","-1","","",""
"html-keyboard-response","43","274805","0.0-8.0-2.0-0.9","7579","1","24","Male","approach_avoid_spark_v1","""event"",""trial"",""time""
""fullscreenenter"",""1"",""3926""
","
","
","""event"",""trial"",""time""
""fullscreenenter"",""1"",""3926""
","
","","","","","","null","<div style=""font-size:60px;"">+</div>","null","","fixation","","","","","","","","","","",""
"aa-learning-trial","44","277806","0.0-8.0-2.0-1.9","7579","1","24","Male","approach_avoid_spark_v1","""event"",""trial"",""time""
""fullscreenenter"",""1"",""3926""
","
","
","""event"",""trial"",""time""
""fullscreenenter"",""1"",""3926""
","
","","","","","","1051.5999999046326","images/racket3.png","","","learning","-2","-2","1","1","practice","practice","practice","-1","","",""
"html-keyboard-response","45","278308","0.0-8.0-2.0-0.10","7579","1","24","Male","approach_avoid_spark_v1","""event"",""trial"",""time""
""fullscreenenter"",""1"",""3926""
","
","
","""event"",""trial"",""time""
""fullscreenenter"",""1"",""3926""
","
","","","","","","null","<div style=""font-size:60px;"">+</div>","null","","fixation","","","","","","","","","","",""
"aa-learning-trial","46","281310","0.0-8.0-2.0-1.10","7579","1","24","Male","approach_avoid_spark_v1","""event"",""trial"",""time""
""fullscreenenter"",""1"",""3926""
","
","
","""event"",""trial"",""time""
""fullscreenenter"",""1"",""3926""
","
","","","","","","854.4000000953674","images/ball1.png","","","learning","-4","-4","1","1","practice","practice","practice","-1","","",""
"html-keyboard-response","47","281812","0.0-8.0-2.0-0.11","7579","1","24","Male","approach_avoid_spark_v1","""event"",""trial"",""time""
""fullscreenenter"",""1"",""3926""
","
","
","""event"",""trial"",""time""
""fullscreenenter"",""1"",""3926""
","
","","","","","","null","<div style=""font-size:60px;"">+</div>","null","","fixation","","","","","","","","","","",""
"aa-learning-trial","48","284815","0.0-8.0-2.0-1.11","7579","1","24","Male","approach_avoid_spark_v1","""event"",""trial"",""time""
""fullscreenenter"",""1"",""3926""
","
","
","""event"",""trial"",""time""
""fullscreenenter"",""1"",""3926""
","
","","","","","","1404.0999999046326","images/ball3.png","","","learning","-7","-7","1","1","practice","practice","practice","-1","","",""
"html-button-response","49","287118","0.0-8.0-3.0","7579","1","24","Male","approach_avoid_spark_v1","""event"",""trial"",""time""
""fullscreenenter"",""1"",""3926""
","
","
","""event"",""trial"",""time""
""fullscreenenter"",""1"",""3926""
","
","","","","","","2301.399999976158","<p> You earned -13 points in the practice round! </p>","0","","break","","","","","","","","","","",""
"learning-instructions","50","295690","0.0-8.0-4.0-0.0","7579","1","24","Male","approach_avoid_spark_v1","""event"",""trial"",""time""
""fullscreenenter"",""1"",""3926""
","
","
","""event"",""trial"",""time""
""fullscreenenter"",""1"",""3926""
","
","","","","","","2262.3000000715256","<p> It's almost time to start the real game. </p><p> Before you start, we're going to ask you a few questions about how the game works. </p>","","0","instructions","","","","","","","","","","",""
"preload","51","297746","0.0-8.0-5.0","7579","1","24","Male","approach_avoid_spark_v1","""event"",""trial"",""time""
""fullscreenenter"",""1"",""3926""
","
","
","""event"",""trial"",""time""
""fullscreenenter"",""1"",""3926""
","
","true","false","[]","[]","[]","","","","","","","","","","","","","","","",""
"comp-q","52","304465","0.0-8.0-6.0-0.0","7579","1","24","Male","approach_avoid_spark_v1","""event"",""trial"",""time""
""fullscreenenter"",""1"",""3926""
","
","
","""event"",""trial"",""time""
""fullscreenenter"",""1"",""3926""
","
","","","","","","1717.5","<p> <b> True or False? </b> </p><p> If you see a number in GREY, that means you earned that many points. </p>","","1","comp_question","","","","","","","","","true","",""
"comp-q","53","316671","0.0-8.0-6.0-1.0","7579","1","24","Male","approach_avoid_spark_v1","""event"",""trial"",""time""
""fullscreenenter"",""1"",""3926""
","
","
","""event"",""trial"",""time""
""fullscreenenter"",""1"",""3926""
","
","","","","","","3842.399999976158","<p><b> That's right! </b> If you see a grey number, it means you earned ZERO points. <br> The grey numbers show the points you WOULD HAVE earned if you had made the other choice. </p>","","0","comp_answer","","","","","","","","","","",""
"comp-q","54","321947","0.0-8.0-7.0-0.0","7579","1","24","Male","approach_avoid_spark_v1","""event"",""trial"",""time""
""fullscreenenter"",""1"",""3926""
","
","
","""event"",""trial"",""time""
""fullscreenenter"",""1"",""3926""
","
","","","","","","579.7999999523163","<p> <b> True or False? </b> </p><p> You will have as much time as you want to make each choice. </p>","","1","comp_question","","","","","","","","","true","",""
"comp-q","55","327797","0.0-8.0-7.0-1.0","7579","1","24","Male","approach_avoid_spark_v1","""event"",""trial"",""time""
""fullscreenenter"",""1"",""3926""
","
","
","""event"",""trial"",""time""
""fullscreenenter"",""1"",""3926""
","
","","","","","","1790","<p> <b> That's right! </b> You will only have 3 seconds to make each choice. </p>","","0","comp_answer","","","","","","","","","","",""
"comp-q","56","333074","0.0-8.0-8.0-0.0","7579","1","24","Male","approach_avoid_spark_v1","""event"",""trial"",""time""
""fullscreenenter"",""1"",""3926""
","
","
","""event"",""trial"",""time""
""fullscreenenter"",""1"",""3926""
","
","","","","","","626.3000000715256","<p> <b> True or False? </b> </p><p> You should use the '1' and '0' keys to make your choices. </p>","","0","comp_question","","","","","","","","","true","",""
"comp-q","57","339880","0.0-8.0-8.0-1.0","7579","1","24","Male","approach_avoid_spark_v1","""event"",""trial"",""time""
""fullscreenenter"",""1"",""3926""
","
","
","""event"",""trial"",""time""
""fullscreenenter"",""1"",""3926""
","
","","","","","","2192.5","<p> <b> That's right! </b> You should use the '1' and '0' keys to make each choice. </p>","","0","comp_answer","","","","","","","","","","",""
"learning-instructions","58","347080","0.0-8.0-9.0-0.0","7579","1","24","Male","approach_avoid_spark_v1","""event"",""trial"",""time""
""fullscreenenter"",""1"",""3926""
","
","
","""event"",""trial"",""time""
""fullscreenenter"",""1"",""3926""
","
","","","","","","912.3999999761581","<p> It's now time to start the real game. </p>Do your best, because the points you earn in the next rounds will influence your bonus payment. </p>","","0","instructions","","","","","","","","","","",""
"preload","59","347204","0.0-9.0-0.0","7579","1","24","Male","approach_avoid_spark_v1","""event"",""trial"",""time""
""fullscreenenter"",""1"",""3926""
","
","
","""event"",""trial"",""time""
""fullscreenenter"",""1"",""3926""
","
","true","false","[]","[]","[]","","","","","","","","","","","","","","","",""
"learning-instructions","60","356035","0.0-9.0-1.0-0.0","7579","1","24","Male","approach_avoid_spark_v1","""event"",""trial"",""time""
""fullscreenenter"",""1"",""3926""
","
","
","""event"",""trial"",""time""
""fullscreenenter"",""1"",""3926""
","
","","","","","","2777.7000000476837","<p> Your goal in this round is to decorate your friend's new house with furniture. </p></div>","","0","instructions","","","","","","","","","","",""
"learning-instructions","61","367723","0.0-9.0-1.0-0.1","7579","1","24","Male","approach_avoid_spark_v1","""event"",""trial"",""time""
""fullscreenenter"",""1"",""3926""
","
","
","""event"",""trial"",""time""
""fullscreenenter"",""1"",""3926""
","
","","","","","","1075.7999999523163","<p> Your friend likes some pieces of furniture but not others.  </p><p> On each turn, you will see a piece of furniture.   </p><p> You need to decide whether to put it in your friend's house or not.  </p>","","0","instructions","","","","","","","","","","",""
"learning-instructions","62","374935","0.0-9.0-1.0-0.2","7579","1","24","Male","approach_avoid_spark_v1","""event"",""trial"",""time""
""fullscreenenter"",""1"",""3926""
","
","
","""event"",""trial"",""time""
""fullscreenenter"",""1"",""3926""
","
","","","","","","1137.2000000476837","<p> You can put the furniture in her house by pressing 1 and deliver it elsewhere by pressing 0. </p><br><div class=""choice-instructions-grid""> <div class=""choice-option""><img src=""images/approach.png"" class=""choice-option-img"" stage=""instructions"" position=""0"" ><div class=""choice-option-text""> Press ""1."" </div></div><div class=""choice-option""><img src=""images/avoid.png"" class=""choice-option-img"" stage=""instructions"" position=""1"" ><div class=""choice-option-text""> Press ""0."" </div></div>","","0","instructions","","","","","","","","","","",""
"learning-instructions","63","388896","0.0-9.0-1.0-0.3","7579","1","24","Male","approach_avoid_spark_v1","""event"",""trial"",""time""
""fullscreenenter"",""1"",""3926""
","
","
","""event"",""trial"",""time""
""fullscreenenter"",""1"",""3926""
","
","","","","","","2498.100000023842","<p> If you decorate your friend's house with furniture she likes, she will be happy! </p><p> But if you give her furniture that she does not like, she will be annoyed. </p>","","0","instructions","","","","","","","","","","",""
"learning-instructions","64","410743","0.0-9.0-1.0-0.4","7579","1","24","Male","approach_avoid_spark_v1","""event"",""trial"",""time""
""fullscreenenter"",""1"",""3926""
","
","
","""event"",""trial"",""time""
""fullscreenenter"",""1"",""3926""
","
","","","","","","2545.8000000715256","<p> You will earn points based on how you made your friend feel. </p><p> If you made her happy, you will WIN anywhere from 1 - 9 points, </p><p> but if you made her annoyed you will LOSE anywhere from 1 - 9 points. </p>","","0","instructions","","","","","","","","","","",""
"learning-instructions","65","423163","0.0-9.0-1.0-0.5","7579","1","24","Male","approach_avoid_spark_v1","""event"",""trial"",""time""
""fullscreenenter"",""1"",""3926""
","
","
","""event"",""trial"",""time""
""fullscreenenter"",""1"",""3926""
","
","","","","","","1185.8999999761581","<p> You will see how many points you won or lost in the center of the screen. </p><p> Here is what you would see if you won 5 points: </p><p style=""color:green;font-size:50px;font-weight:bolder"">5</p>","","0","instructions","","","","","","","","","","",""
"learning-instructions","66","428046","0.0-9.0-1.0-0.6","7579","1","24","Male","approach_avoid_spark_v1","""event"",""trial"",""time""
""fullscreenenter"",""1"",""3926""
","
","
","""event"",""trial"",""time""
""fullscreenenter"",""1"",""3926""
","
","","","","","","768.2000000476837","<p> And here is what you would see if you lost 3 points: </p><p style=""color:red;font-size:50px;font-weight:bolder"">-3</p>","","0","instructions","","","","","","","","","","",""
"learning-instructions","67","448746","0.0-9.0-1.0-0.7","7579","1","24","Male","approach_avoid_spark_v1","""event"",""trial"",""time""
""fullscreenenter"",""1"",""3926""
","
","
","""event"",""trial"",""time""
""fullscreenenter"",""1"",""3926""
","
","","","","","","1668.1000000238419","<p> Some pieces of furniture will make her feel very happy or very annoyed. </p><p> These pieces of furniture will make you win or lose LOTS of points. </p><p> Other pieces of furniture will only make her feel a little happy or a little annoyed. </p><p> These pieces of furniture will make you win or lose small amounts of points. </p>","","0","instructions","","","","","","","","","","",""
"learning-instructions","68","463573","0.0-9.0-1.0-0.8","7579","1","24","Male","approach_avoid_spark_v1","""event"",""trial"",""time""
""fullscreenenter"",""1"",""3926""
","
","
","""event"",""trial"",""time""
""fullscreenenter"",""1"",""3926""
","
","","","","","","1425.8999999761581","<p> If you choose to deliver a piece of furniture elsewhere, you will not win or lose any points. </p><p>  However, in the center of the screen, you will see the number of points you WOULD HAVE won or lost if you had given the furniture to your friend. </p>","","0","instructions","","","","","","","","","","",""
"learning-instructions","69","477546","0.0-9.0-1.0-0.9","7579","1","24","Male","approach_avoid_spark_v1","""event"",""trial"",""time""
""fullscreenenter"",""1"",""3926""
","
","
","""event"",""trial"",""time""
""fullscreenenter"",""1"",""3926""
","
","","","","","","1858.5","<p> Here is what you might see if you did not give a piece of furniture to your friend that would have made her happy: </p><p style=""color:grey; font-size:50px; display: inline-block; border-spacing: 15px; border-width:3px; border-style:solid; border-color:red"">  &nbsp; 6 &nbsp; </p><p> Remember, in this case, you would not win or lose ANY points because you did not give her the furniture.  </p>","","0","instructions","","","","","","","","","","",""
"learning-instructions","70","486287","0.0-9.0-1.0-0.10","7579","1","24","Male","approach_avoid_spark_v1","""event"",""trial"",""time""
""fullscreenenter"",""1"",""3926""
","
","
","""event"",""trial"",""time""
""fullscreenenter"",""1"",""3926""
","
","","","","","","779.0999999046326","<p> Try to make the best choice for each piece of furniture because </p><p> at the end of the game, you will earn bonus money based on how many points you earned. </p>","","0","instructions","","","","","","","","","","",""
"learning-instructions","71","495512","0.0-9.0-1.0-0.11","7579","1","24","Male","approach_avoid_spark_v1","""event"",""trial"",""time""
""fullscreenenter"",""1"",""3926""
","
","
","""event"",""trial"",""time""
""fullscreenenter"",""1"",""3926""
","
","","","","","","1014.6999999284744","<p> You will have 3 seconds to make each choice. Try to respond before time runs out! </p><p> You will lose 5 points each time you do not make a response. </p>","","0","instructions","","","","","","","","","","",""
"html-keyboard-response","72","496114","0.0-9.0-2.0-0.0","7579","1","24","Male","approach_avoid_spark_v1","""event"",""trial"",""time""
""fullscreenenter"",""1"",""3926""
","
","
","""event"",""trial"",""time""
""fullscreenenter"",""1"",""3926""
","
","","","","","","null","<div style=""font-size:60px;"">+</div>","null","","fixation","","","","","","","","","","",""
"aa-learning-trial","73","499131","0.0-9.0-2.0-1.0","7579","1","24","Male","approach_avoid_spark_v1","""event"",""trial"",""time""
""fullscreenenter"",""1"",""3926""
","
","
","""event"",""trial"",""time""
""fullscreenenter"",""1"",""3926""
","
","","","","","","813.7999999523163","images/bed1.png","","","learning","-6","-6","1","1","bed","furniture","1","0","","bad","[-5]"
"html-keyboard-response","74","499638","0.0-9.0-2.0-0.1","7579","1","24","Male","approach_avoid_spark_v1","""event"",""trial"",""time""
""fullscreenenter"",""1"",""3926""
","
","
","""event"",""trial"",""time""
""fullscreenenter"",""1"",""3926""
","
","","","","","","null","<div style=""font-size:60px;"">+</div>","null","","fixation","","","","","","","","","","",""
"aa-learning-trial","75","502656","0.0-9.0-2.0-1.1","7579","1","24","Male","approach_avoid_spark_v1","""event"",""trial"",""time""
""fullscreenenter"",""1"",""3926""
","
","
","""event"",""trial"",""time""
""fullscreenenter"",""1"",""3926""
","
","","","","","","null","images/bed5.png","","","learning","-5","-5","","null","bed","furniture","1","0","","bad","[-5]"
"html-keyboard-response","76","503176","0.0-9.0-2.0-0.2","7579","1","24","Male","approach_avoid_spark_v1","""event"",""trial"",""time""
""fullscreenenter"",""1"",""3926""
","
","
","""event"",""trial"",""time""
""fullscreenenter"",""1"",""3926""
","
","","","","","","null","<div style=""font-size:60px;"">+</div>","null","","fixation","","","","","","","","","","",""
"aa-learning-trial","77","506186","0.0-9.0-2.0-1.2","7579","1","24","Male","approach_avoid_spark_v1","""event"",""trial"",""time""
""fullscreenenter"",""1"",""3926""
","
","
","""event"",""trial"",""time""
""fullscreenenter"",""1"",""3926""
","
","","","","","","1130.3000000715256","images/sofa3.png","","","learning","7","7","1","1","sofa","furniture","1","0","","good","[6]"
"html-keyboard-response","78","506690","0.0-9.0-2.0-0.3","7579","1","24","Male","approach_avoid_spark_v1","""event"",""trial"",""time""
""fullscreenenter"",""1"",""3926""
","
","
","""event"",""trial"",""time""
""fullscreenenter"",""1"",""3926""
","
","","","","","","null","<div style=""font-size:60px;"">+</div>","null","","fixation","","","","","","","","","","",""
"aa-learning-trial","79","509706","0.0-9.0-2.0-1.3","7579","1","24","Male","approach_avoid_spark_v1","""event"",""trial"",""time""
""fullscreenenter"",""1"",""3926""
","
","
","""event"",""trial"",""time""
""fullscreenenter"",""1"",""3926""
","
","","","","","","1215.3999999761581","images/chair2.png","","","learning","1","1","1","1","chair","furniture","1","0","","neutral","0"
"html-keyboard-response","80","510216","0.0-9.0-2.0-0.4","7579","1","24","Male","approach_avoid_spark_v1","""event"",""trial"",""time""
""fullscreenenter"",""1"",""3926""
","
","
","""event"",""trial"",""time""
""fullscreenenter"",""1"",""3926""
","
","","","","","","null","<div style=""font-size:60px;"">+</div>","null","","fixation","","","","","","","","","","",""
"aa-learning-trial","81","513234","0.0-9.0-2.0-1.4","7579","1","24","Male","approach_avoid_spark_v1","""event"",""trial"",""time""
""fullscreenenter"",""1"",""3926""
","
","
","""event"",""trial"",""time""
""fullscreenenter"",""1"",""3926""
","
","","","","","","1719.7999999523163","images/sofa8.png","","","learning","5","0","0","0","sofa","furniture","1","0","","good","[6]"
"html-keyboard-response","82","513750","0.0-9.0-2.0-0.5","7579","1","24","Male","approach_avoid_spark_v1","""event"",""trial"",""time""
""fullscreenenter"",""1"",""3926""
","
","
","""event"",""trial"",""time""
""fullscreenenter"",""1"",""3926""
","
","","","","","","null","<div style=""font-size:60px;"">+</div>","null","","fixation","","","","","","","","","","",""
"aa-learning-trial","83","516756","0.0-9.0-2.0-1.5","7579","1","24","Male","approach_avoid_spark_v1","""event"",""trial"",""time""
""fullscreenenter"",""1"",""3926""
","
","
","""event"",""trial"",""time""
""fullscreenenter"",""1"",""3926""
","
","","","","","","1530.5999999046326","images/chair7.png","","","learning","[-1]","0","0","0","chair","furniture","1","0","","neutral","0"
"html-keyboard-response","84","517276","0.0-9.0-2.0-0.6","7579","1","24","Male","approach_avoid_spark_v1","""event"",""trial"",""time""
""fullscreenenter"",""1"",""3926""
","
","
","""event"",""trial"",""time""
""fullscreenenter"",""1"",""3926""
","
","","","","","","null","<div style=""font-size:60px;"">+</div>","null","","fixation","","","","","","","","","","",""
"aa-learning-trial","85","520296","0.0-9.0-2.0-1.6","7579","1","24","Male","approach_avoid_spark_v1","""event"",""trial"",""time""
""fullscreenenter"",""1"",""3926""
","
","
","""event"",""trial"",""time""
""fullscreenenter"",""1"",""3926""
","
","","","","","","1318.6999999284744","images/bed8.png","","","learning","-6","-6","1","1","bed","furniture","1","0","","bad","[-5]"
"html-keyboard-response","86","520816","0.0-9.0-2.0-0.7","7579","1","24","Male","approach_avoid_spark_v1","""event"",""trial"",""time""
""fullscreenenter"",""1"",""3926""
","
","
","""event"",""trial"",""time""
""fullscreenenter"",""1"",""3926""
","
","","","","","","null","<div style=""font-size:60px;"">+</div>","null","","fixation","","","","","","","","","","",""
"aa-learning-trial","87","523836","0.0-9.0-2.0-1.7","7579","1","24","Male","approach_avoid_spark_v1","""event"",""trial"",""time""
""fullscreenenter"",""1"",""3926""
","
","
","""event"",""trial"",""time""
""fullscreenenter"",""1"",""3926""
","
","","","","","","2261.1999999284744","images/bed1.png","","","learning","-5","0","0","0","bed","furniture","1","0","","bad","[-5]"
"html-keyboard-response","88","524356","0.0-9.0-2.0-0.8","7579","1","24","Male","approach_avoid_spark_v1","""event"",""trial"",""time""
""fullscreenenter"",""1"",""3926""
","
","
","""event"",""trial"",""time""
""fullscreenenter"",""1"",""3926""
","
","","","","","","null","<div style=""font-size:60px;"">+</div>","null","","fixation","","","","","","","","","","",""
"aa-learning-trial","89","527358","0.0-9.0-2.0-1.8","7579","1","24","Male","approach_avoid_spark_v1","""event"",""trial"",""time""
""fullscreenenter"",""1"",""3926""
","
","
","""event"",""trial"",""time""
""fullscreenenter"",""1"",""3926""
","
","","","","","","2135.399999976158","images/sofa3.png","","","learning","5","5","1","1","sofa","furniture","1","0","","good","[6]"
"html-keyboard-response","90","527859","0.0-9.0-2.0-0.9","7579","1","24","Male","approach_avoid_spark_v1","""event"",""trial"",""time""
""fullscreenenter"",""1"",""3926""
","
","
","""event"",""trial"",""time""
""fullscreenenter"",""1"",""3926""
","
","","","","","","null","<div style=""font-size:60px;"">+</div>","null","","fixation","","","","","","","","","","",""
"aa-learning-trial","91","530862","0.0-9.0-2.0-1.9","7579","1","24","Male","approach_avoid_spark_v1","""event"",""trial"",""time""
""fullscreenenter"",""1"",""3926""
","
","
","""event"",""trial"",""time""
""fullscreenenter"",""1"",""3926""
","
","","","","","","1179.2000000476837","images/bed8.png","","","learning","-6","0","0","0","bed","furniture","1","0","","bad","[-5]"
"html-keyboard-response","92","531364","0.0-9.0-2.0-0.10","7579","1","24","Male","approach_avoid_spark_v1","""event"",""trial"",""time""
""fullscreenenter"",""1"",""3926""
","
","
","""event"",""trial"",""time""
""fullscreenenter"",""1"",""3926""
","
","","","","","","null","<div style=""font-size:60px;"">+</div>","null","","fixation","","","","","","","","","","",""
"aa-learning-trial","93","534367","0.0-9.0-2.0-1.10","7579","1","24","Male","approach_avoid_spark_v1","""event"",""trial"",""time""
""fullscreenenter"",""1"",""3926""
","
","
","""event"",""trial"",""time""
""fullscreenenter"",""1"",""3926""
","
","","","","","","1832.8999999761581","images/chair2.png","","","learning","-2","-2","1","1","chair","furniture","1","0","","neutral","0"
"html-keyboard-response","94","534868","0.0-9.0-2.0-0.11","7579","1","24","Male","approach_avoid_spark_v1","""event"",""trial"",""time""
""fullscreenenter"",""1"",""3926""
","
","
","""event"",""trial"",""time""
""fullscreenenter"",""1"",""3926""
","
","","","","","","null","<div style=""font-size:60px;"">+</div>","null","","fixation","","","","","","","","","","",""
"aa-learning-trial","95","537872","0.0-9.0-2.0-1.11","7579","1","24","Male","approach_avoid_spark_v1","""event"",""trial"",""time""
""fullscreenenter"",""1"",""3926""
","
","
","""event"",""trial"",""time""
""fullscreenenter"",""1"",""3926""
","
","","","","","","855.8000000715256","images/chair7.png","","","learning","[-1]","-1","1","1","chair","furniture","1","0","","neutral","0"
"html-keyboard-response","96","538374","0.0-9.0-2.0-0.12","7579","1","24","Male","approach_avoid_spark_v1","""event"",""trial"",""time""
""fullscreenenter"",""1"",""3926""
","
","
","""event"",""trial"",""time""
""fullscreenenter"",""1"",""3926""
","
","","","","","","null","<div style=""font-size:60px;"">+</div>","null","","fixation","","","","","","","","","","",""
"aa-learning-trial","97","541377","0.0-9.0-2.0-1.12","7579","1","24","Male","approach_avoid_spark_v1","""event"",""trial"",""time""
""fullscreenenter"",""1"",""3926""
","
","
","""event"",""trial"",""time""
""fullscreenenter"",""1"",""3926""
","
","","","","","","1183","images/sofa8.png","","","learning","4","0","0","0","sofa","furniture","1","0","","good","[6]"
"html-keyboard-response","98","541879","0.0-9.0-2.0-0.13","7579","1","24","Male","approach_avoid_spark_v1","""event"",""trial"",""time""
""fullscreenenter"",""1"",""3926""
","
","
","""event"",""trial"",""time""
""fullscreenenter"",""1"",""3926""
","
","","","","","","null","<div style=""font-size:60px;"">+</div>","null","","fixation","","","","","","","","","","",""
"aa-learning-trial","99","544892","0.0-9.0-2.0-1.13","7579","1","24","Male","approach_avoid_spark_v1","""event"",""trial"",""time""
""fullscreenenter"",""1"",""3926""
","
","
","""event"",""trial"",""time""
""fullscreenenter"",""1"",""3926""
","
","","","","","","987.2999999523163","images/sofa1.png","","","learning","6","6","1","1","sofa","furniture","1","0","","good","[6]"
"html-keyboard-response","100","545394","0.0-9.0-2.0-0.14","7579","1","24","Male","approach_avoid_spark_v1","""event"",""trial"",""time""
""fullscreenenter"",""1"",""3926""
","
","
","""event"",""trial"",""time""
""fullscreenenter"",""1"",""3926""
","
","","","","","","null","<div style=""font-size:60px;"">+</div>","null","","fixation","","","","","","","","","","",""
"aa-learning-trial","101","548398","0.0-9.0-2.0-1.14","7579","1","24","Male","approach_avoid_spark_v1","""event"",""trial"",""time""
""fullscreenenter"",""1"",""3926""
","
","
","""event"",""trial"",""time""
""fullscreenenter"",""1"",""3926""
","
","","","","","","929.1000000238419","images/chair4.png","","","learning","3","3","1","1","chair","furniture","1","0","","neutral","0"
"html-keyboard-response","102","548899","0.0-9.0-2.0-0.15","7579","1","24","Male","approach_avoid_spark_v1","""event"",""trial"",""time""
""fullscreenenter"",""1"",""3926""
","
","
","""event"",""trial"",""time""
""fullscreenenter"",""1"",""3926""
","
","","","","","","null","<div style=""font-size:60px;"">+</div>","null","","fixation","","","","","","","","","","",""
"aa-learning-trial","103","551902","0.0-9.0-2.0-1.15","7579","1","24","Male","approach_avoid_spark_v1","""event"",""trial"",""time""
""fullscreenenter"",""1"",""3926""
","
","
","""event"",""trial"",""time""
""fullscreenenter"",""1"",""3926""
","
","","","","","","1321.6999999284744","images/chair2.png","","","learning","4","0","0","0","chair","furniture","1","0","","neutral","0"
"html-keyboard-response","104","552405","0.0-9.0-2.0-0.16","7579","1","24","Male","approach_avoid_spark_v1","""event"",""trial"",""time""
""fullscreenenter"",""1"",""3926""
","
","
","""event"",""trial"",""time""
""fullscreenenter"",""1"",""3926""
","
","","","","","","null","<div style=""font-size:60px;"">+</div>","null","","fixation","","","","","","","","","","",""
"aa-learning-trial","105","555408","0.0-9.0-2.0-1.16","7579","1","24","Male","approach_avoid_spark_v1","""event"",""trial"",""time""
""fullscreenenter"",""1"",""3926""
","
","
","""event"",""trial"",""time""
""fullscreenenter"",""1"",""3926""
","
","","","","","","986.2999999523163","images/chair2.png","","","learning","1","0","0","0","chair","furniture","1","0","","neutral","0"
"html-keyboard-response","106","555909","0.0-9.0-2.0-0.17","7579","1","24","Male","approach_avoid_spark_v1","""event"",""trial"",""time""
""fullscreenenter"",""1"",""3926""
","
","
","""event"",""trial"",""time""
""fullscreenenter"",""1"",""3926""
","
","","","","","","null","<div style=""font-size:60px;"">+</div>","null","","fixation","","","","","","","","","","",""
"aa-learning-trial","107","558913","0.0-9.0-2.0-1.17","7579","1","24","Male","approach_avoid_spark_v1","""event"",""trial"",""time""
""fullscreenenter"",""1"",""3926""
","
","
","""event"",""trial"",""time""
""fullscreenenter"",""1"",""3926""
","
","","","","","","1141.2999999523163","images/chair7.png","","","learning","-2","0","0","0","chair","furniture","1","0","","neutral","0"
"html-keyboard-response","108","559427","0.0-9.0-2.0-0.18","7579","1","24","Male","approach_avoid_spark_v1","""event"",""trial"",""time""
""fullscreenenter"",""1"",""3926""
","
","
","""event"",""trial"",""time""
""fullscreenenter"",""1"",""3926""
","
","","","","","","null","<div style=""font-size:60px;"">+</div>","null","","fixation","","","","","","","","","","",""
"aa-learning-trial","109","562429","0.0-9.0-2.0-1.18","7579","1","24","Male","approach_avoid_spark_v1","""event"",""trial"",""time""
""fullscreenenter"",""1"",""3926""
","
","
","""event"",""trial"",""time""
""fullscreenenter"",""1"",""3926""
","
","","","","","","708.8000000715256","images/sofa8.png","","","learning","6","6","1","1","sofa","furniture","1","0","","good","[6]"
"html-keyboard-response","110","562931","0.0-9.0-2.0-0.19","7579","1","24","Male","approach_avoid_spark_v1","""event"",""trial"",""time""
""fullscreenenter"",""1"",""3926""
","
","
","""event"",""trial"",""time""
""fullscreenenter"",""1"",""3926""
","
","","","","","","null","<div style=""font-size:60px;"">+</div>","null","","fixation","","","","","","","","","","",""
"aa-learning-trial","111","565934","0.0-9.0-2.0-1.19","7579","1","24","Male","approach_avoid_spark_v1","""event"",""trial"",""time""
""fullscreenenter"",""1"",""3926""
","
","
","""event"",""trial"",""time""
""fullscreenenter"",""1"",""3926""
","
","","","","","","655.3999999761581","images/sofa1.png","","","learning","7","7","1","1","sofa","furniture","1","0","","good","[6]"
"html-keyboard-response","112","566436","0.0-9.0-2.0-0.20","7579","1","24","Male","approach_avoid_spark_v1","""event"",""trial"",""time""
""fullscreenenter"",""1"",""3926""
","
","
","""event"",""trial"",""time""
""fullscreenenter"",""1"",""3926""
","
","","","","","","null","<div style=""font-size:60px;"">+</div>","null","","fixation","","","","","","","","","","",""
"aa-learning-trial","113","569439","0.0-9.0-2.0-1.20","7579","1","24","Male","approach_avoid_spark_v1","""event"",""trial"",""time""
""fullscreenenter"",""1"",""3926""
","
","
","""event"",""trial"",""time""
""fullscreenenter"",""1"",""3926""
","
","","","","","","1017.8999999761581","images/bed1.png","","","learning","-4","0","0","0","bed","furniture","1","0","","bad","[-5]"
"html-keyboard-response","114","569940","0.0-9.0-2.0-0.21","7579","1","24","Male","approach_avoid_spark_v1","""event"",""trial"",""time""
""fullscreenenter"",""1"",""3926""
","
","
","""event"",""trial"",""time""
""fullscreenenter"",""1"",""3926""
","
","","","","","","null","<div style=""font-size:60px;"">+</div>","null","","fixation","","","","","","","","","","",""
"aa-learning-trial","115","572943","0.0-9.0-2.0-1.21","7579","1","24","Male","approach_avoid_spark_v1","""event"",""trial"",""time""
""fullscreenenter"",""1"",""3926""
","
","
","""event"",""trial"",""time""
""fullscreenenter"",""1"",""3926""
","
","","","","","","641.1000000238419","images/bed5.png","","","learning","-6","-6","1","1","bed","furniture","1","0","","bad","[-5]"
"html-keyboard-response","116","573445","0.0-9.0-2.0-0.22","7579","1","24","Male","approach_avoid_spark_v1","""event"",""trial"",""time""
""fullscreenenter"",""1"",""3926""
","
","
","""event"",""trial"",""time""
""fullscreenenter"",""1"",""3926""
","
","","","","","","null","<div style=""font-size:60px;"">+</div>","null","","fixation","","","","","","","","","","",""
"aa-learning-trial","117","576449","0.0-9.0-2.0-1.22","7579","1","24","Male","approach_avoid_spark_v1","""event"",""trial"",""time""
""fullscreenenter"",""1"",""3926""
","
","
","""event"",""trial"",""time""
""fullscreenenter"",""1"",""3926""
","
","","","","","","1205.8999999761581","images/sofa8.png","","","learning","7","7","1","1","sofa","furniture","1","0","","good","[6]"
"html-keyboard-response","118","576951","0.0-9.0-2.0-0.23","7579","1","24","Male","approach_avoid_spark_v1","""event"",""trial"",""time""
""fullscreenenter"",""1"",""3926""
","
","
","""event"",""trial"",""time""
""fullscreenenter"",""1"",""3926""
","
","","","","","","null","<div style=""font-size:60px;"">+</div>","null","","fixation","","","","","","","","","","",""
"aa-learning-trial","119","579953","0.0-9.0-2.0-1.23","7579","1","24","Male","approach_avoid_spark_v1","""event"",""trial"",""time""
""fullscreenenter"",""1"",""3926""
","
","
","""event"",""trial"",""time""
""fullscreenenter"",""1"",""3926""
","
","","","","","","556.6000000238419","images/sofa8.png","","","learning","6","6","1","1","sofa","furniture","1","0","","good","[6]"
"html-keyboard-response","120","580455","0.0-9.0-2.0-0.24","7579","1","24","Male","approach_avoid_spark_v1","""event"",""trial"",""time""
""fullscreenenter"",""1"",""3926""
","
","
","""event"",""trial"",""time""
""fullscreenenter"",""1"",""3926""
","
","","","","","","null","<div style=""font-size:60px;"">+</div>","null","","fixation","","","","","","","","","","",""
"aa-learning-trial","121","583458","0.0-9.0-2.0-1.24","7579","1","24","Male","approach_avoid_spark_v1","""event"",""trial"",""time""
""fullscreenenter"",""1"",""3926""
","
","
","""event"",""trial"",""time""
""fullscreenenter"",""1"",""3926""
","
","","","","","","710.6999999284744","images/chair6.png","","","learning","-2","-2","1","1","chair","furniture","1","0","","neutral","0"
"html-keyboard-response","122","583959","0.0-9.0-2.0-0.25","7579","1","24","Male","approach_avoid_spark_v1","""event"",""trial"",""time""
""fullscreenenter"",""1"",""3926""
","
","
","""event"",""trial"",""time""
""fullscreenenter"",""1"",""3926""
","
","","","","","","null","<div style=""font-size:60px;"">+</div>","null","","fixation","","","","","","","","","","",""
"aa-learning-trial","123","586961","0.0-9.0-2.0-1.25","7579","1","24","Male","approach_avoid_spark_v1","""event"",""trial"",""time""
""fullscreenenter"",""1"",""3926""
","
","
","""event"",""trial"",""time""
""fullscreenenter"",""1"",""3926""
","
","","","","","","689.2000000476837","images/chair2.png","","","learning","[1]","1","1","1","chair","furniture","1","0","","neutral","0"
"html-keyboard-response","124","587462","0.0-9.0-2.0-0.26","7579","1","24","Male","approach_avoid_spark_v1","""event"",""trial"",""time""
""fullscreenenter"",""1"",""3926""
","
","
","""event"",""trial"",""time""
""fullscreenenter"",""1"",""3926""
","
","","","","","","null","<div style=""font-size:60px;"">+</div>","null","","fixation","","","","","","","","","","",""
"aa-learning-trial","125","590465","0.0-9.0-2.0-1.26","7579","1","24","Male","approach_avoid_spark_v1","""event"",""trial"",""time""
""fullscreenenter"",""1"",""3926""
","
","
","""event"",""trial"",""time""
""fullscreenenter"",""1"",""3926""
","
","","","","","","2058.8000000715256","images/bed8.png","","","learning","-4","-4","1","1","bed","furniture","1","0","","bad","[-5]"
"html-keyboard-response","126","590966","0.0-9.0-2.0-0.27","7579","1","24","Male","approach_avoid_spark_v1","""event"",""trial"",""time""
""fullscreenenter"",""1"",""3926""
","
","
","""event"",""trial"",""time""
""fullscreenenter"",""1"",""3926""
","
","","","","","","null","<div style=""font-size:60px;"">+</div>","null","","fixation","","","","","","","","","","",""
"aa-learning-trial","127","593968","0.0-9.0-2.0-1.27","7579","1","24","Male","approach_avoid_spark_v1","""event"",""trial"",""time""
""fullscreenenter"",""1"",""3926""
","
","
","""event"",""trial"",""time""
""fullscreenenter"",""1"",""3926""
","
","","","","","","1003","images/bed1.png","","","learning","-3","0","0","0","bed","furniture","1","0","","bad","[-5]"
"html-keyboard-response","128","594471","0.0-9.0-2.0-0.28","7579","1","24","Male","approach_avoid_spark_v1","""event"",""trial"",""time""
""fullscreenenter"",""1"",""3926""
","
","
","""event"",""trial"",""time""
""fullscreenenter"",""1"",""3926""
","
","","","","","","null","<div style=""font-size:60px;"">+</div>","null","","fixation","","","","","","","","","","",""
"aa-learning-trial","129","597473","0.0-9.0-2.0-1.28","7579","1","24","Male","approach_avoid_spark_v1","""event"",""trial"",""time""
""fullscreenenter"",""1"",""3926""
","
","
","""event"",""trial"",""time""
""fullscreenenter"",""1"",""3926""
","
","","","","","","958","images/chair7.png","","","learning","3","0","0","0","chair","furniture","1","0","","neutral","0"
"html-keyboard-response","130","597985","0.0-9.0-2.0-0.29","7579","1","24","Male","approach_avoid_spark_v1","""event"",""trial"",""time""
""fullscreenenter"",""1"",""3926""
","
","
","""event"",""trial"",""time""
""fullscreenenter"",""1"",""3926""
","
","","","","","","null","<div style=""font-size:60px;"">+</div>","null","","fixation","","","","","","","","","","",""
"aa-learning-trial","131","600988","0.0-9.0-2.0-1.29","7579","1","24","Male","approach_avoid_spark_v1","""event"",""trial"",""time""
""fullscreenenter"",""1"",""3926""
","
","
","""event"",""trial"",""time""
""fullscreenenter"",""1"",""3926""
","
","","","","","","509.09999990463257","images/sofa3.png","","","learning","5","5","1","1","sofa","furniture","1","0","","good","[6]"
"html-keyboard-response","132","601490","0.0-9.0-2.0-0.30","7579","1","24","Male","approach_avoid_spark_v1","""event"",""trial"",""time""
""fullscreenenter"",""1"",""3926""
","
","
","""event"",""trial"",""time""
""fullscreenenter"",""1"",""3926""
","
","","","","","","null","<div style=""font-size:60px;"">+</div>","null","","fixation","","","","","","","","","","",""
"aa-learning-trial","133","604492","0.0-9.0-2.0-1.30","7579","1","24","Male","approach_avoid_spark_v1","""event"",""trial"",""time""
""fullscreenenter"",""1"",""3926""
","
","
","""event"",""trial"",""time""
""fullscreenenter"",""1"",""3926""
","
","","","","","","948.6000000238419","images/chair7.png","","","learning","1","1","1","1","chair","furniture","1","0","","neutral","0"
"html-keyboard-response","134","604993","0.0-9.0-2.0-0.31","7579","1","24","Male","approach_avoid_spark_v1","""event"",""trial"",""time""
""fullscreenenter"",""1"",""3926""
","
","
","""event"",""trial"",""time""
""fullscreenenter"",""1"",""3926""
","
","","","","","","null","<div style=""font-size:60px;"">+</div>","null","","fixation","","","","","","","","","","",""
"aa-learning-trial","135","607995","0.0-9.0-2.0-1.31","7579","1","24","Male","approach_avoid_spark_v1","""event"",""trial"",""time""
""fullscreenenter"",""1"",""3926""
","
","
","""event"",""trial"",""time""
""fullscreenenter"",""1"",""3926""
","
","","","","","","797.7999999523163","images/bed1.png","","","learning","-7","-7","1","1","bed","furniture","1","0","","bad","[-5]"
"html-keyboard-response","136","608497","0.0-9.0-2.0-0.32","7579","1","24","Male","approach_avoid_spark_v1","""event"",""trial"",""time""
""fullscreenenter"",""1"",""3926""
","
","
","""event"",""trial"",""time""
""fullscreenenter"",""1"",""3926""
","
","","","","","","null","<div style=""font-size:60px;"">+</div>","null","","fixation","","","","","","","","","","",""
"aa-learning-trial","137","611498","0.0-9.0-2.0-1.32","7579","1","24","Male","approach_avoid_spark_v1","""event"",""trial"",""time""
""fullscreenenter"",""1"",""3926""
","
","
","""event"",""trial"",""time""
""fullscreenenter"",""1"",""3926""
","
","","","","","","1054.3000000715256","images/bed5.png","","","learning","-5","0","0","0","bed","furniture","1","0","","bad","[-5]"
"html-keyboard-response","138","611999","0.0-9.0-2.0-0.33","7579","1","24","Male","approach_avoid_spark_v1","""event"",""trial"",""time""
""fullscreenenter"",""1"",""3926""
","
","
","""event"",""trial"",""time""
""fullscreenenter"",""1"",""3926""
","
","","","","","","null","<div style=""font-size:60px;"">+</div>","null","","fixation","","","","","","","","","","",""
"aa-learning-trial","139","615002","0.0-9.0-2.0-1.33","7579","1","24","Male","approach_avoid_spark_v1","""event"",""trial"",""time""
""fullscreenenter"",""1"",""3926""
","
","
","""event"",""trial"",""time""
""fullscreenenter"",""1"",""3926""
","
","","","","","","793.3999999761581","images/sofa1.png","","","learning","8","8","1","1","sofa","furniture","1","0","","good","[6]"
"html-keyboard-response","140","615503","0.0-9.0-2.0-0.34","7579","1","24","Male","approach_avoid_spark_v1","""event"",""trial"",""time""
""fullscreenenter"",""1"",""3926""
","
","
","""event"",""trial"",""time""
""fullscreenenter"",""1"",""3926""
","
","","","","","","null","<div style=""font-size:60px;"">+</div>","null","","fixation","","","","","","","","","","",""
"aa-learning-trial","141","618516","0.0-9.0-2.0-1.34","7579","1","24","Male","approach_avoid_spark_v1","""event"",""trial"",""time""
""fullscreenenter"",""1"",""3926""
","
","
","""event"",""trial"",""time""
""fullscreenenter"",""1"",""3926""
","
","","","","","","617.8999999761581","images/chair4.png","","","learning","-1","-1","1","1","chair","furniture","1","0","","neutral","0"
"html-keyboard-response","142","619017","0.0-9.0-2.0-0.35","7579","1","24","Male","approach_avoid_spark_v1","""event"",""trial"",""time""
""fullscreenenter"",""1"",""3926""
","
","
","""event"",""trial"",""time""
""fullscreenenter"",""1"",""3926""
","
","","","","","","null","<div style=""font-size:60px;"">+</div>","null","","fixation","","","","","","","","","","",""
"aa-learning-trial","143","622019","0.0-9.0-2.0-1.35","7579","1","24","Male","approach_avoid_spark_v1","""event"",""trial"",""time""
""fullscreenenter"",""1"",""3926""
","
","
","""event"",""trial"",""time""
""fullscreenenter"",""1"",""3926""
","
","","","","","","763.3999999761581","images/bed8.png","","","learning","-6","0","0","0","bed","furniture","1","0","","bad","[-5]"
"html-keyboard-response","144","622532","0.0-9.0-2.0-0.36","7579","1","24","Male","approach_avoid_spark_v1","""event"",""trial"",""time""
""fullscreenenter"",""1"",""3926""
","
","
","""event"",""trial"",""time""
""fullscreenenter"",""1"",""3926""
","
","","","","","","null","<div style=""font-size:60px;"">+</div>","null","","fixation","","","","","","","","","","",""
"aa-learning-trial","145","625534","0.0-9.0-2.0-1.36","7579","1","24","Male","approach_avoid_spark_v1","""event"",""trial"",""time""
""fullscreenenter"",""1"",""3926""
","
","
","""event"",""trial"",""time""
""fullscreenenter"",""1"",""3926""
","
","","","","","","626.6999999284744","images/bed8.png","","","learning","-7","0","0","0","bed","furniture","1","0","","bad","[-5]"
"html-keyboard-response","146","626035","0.0-9.0-2.0-0.37","7579","1","24","Male","approach_avoid_spark_v1","""event"",""trial"",""time""
""fullscreenenter"",""1"",""3926""
","
","
","""event"",""trial"",""time""
""fullscreenenter"",""1"",""3926""
","
","","","","","","null","<div style=""font-size:60px;"">+</div>","null","","fixation","","","","","","","","","","",""
"aa-learning-trial","147","629037","0.0-9.0-2.0-1.37","7579","1","24","Male","approach_avoid_spark_v1","""event"",""trial"",""time""
""fullscreenenter"",""1"",""3926""
","
","
","""event"",""trial"",""time""
""fullscreenenter"",""1"",""3926""
","
","","","","","","666.8000000715256","images/chair2.png","","","learning","3","3","1","1","chair","furniture","1","0","","neutral","0"
"html-keyboard-response","148","629538","0.0-9.0-2.0-0.38","7579","1","24","Male","approach_avoid_spark_v1","""event"",""trial"",""time""
""fullscreenenter"",""1"",""3926""
","
","
","""event"",""trial"",""time""
""fullscreenenter"",""1"",""3926""
","
","","","","","","null","<div style=""font-size:60px;"">+</div>","null","","fixation","","","","","","","","","","",""
"aa-learning-trial","149","632540","0.0-9.0-2.0-1.38","7579","1","24","Male","approach_avoid_spark_v1","""event"",""trial"",""time""
""fullscreenenter"",""1"",""3926""
","
","
","""event"",""trial"",""time""
""fullscreenenter"",""1"",""3926""
","
","","","","","","779.6000000238419","images/sofa2.png","","","learning","5","5","1","1","sofa","furniture","1","0","","good","[6]"
"html-keyboard-response","150","633042","0.0-9.0-2.0-0.39","7579","1","24","Male","approach_avoid_spark_v1","""event"",""trial"",""time""
""fullscreenenter"",""1"",""3926""
","
","
","""event"",""trial"",""time""
""fullscreenenter"",""1"",""3926""
","
","","","","","","null","<div style=""font-size:60px;"">+</div>","null","","fixation","","","","","","","","","","",""
"aa-learning-trial","151","636044","0.0-9.0-2.0-1.39","7579","1","24","Male","approach_avoid_spark_v1","""event"",""trial"",""time""
""fullscreenenter"",""1"",""3926""
","
","
","""event"",""trial"",""time""
""fullscreenenter"",""1"",""3926""
","
","","","","","","429.1999999284744","images/sofa3.png","","","learning","6","6","1","1","sofa","furniture","1","0","","good","[6]"
"html-keyboard-response","152","636547","0.0-9.0-2.0-0.40","7579","1","24","Male","approach_avoid_spark_v1","""event"",""trial"",""time""
""fullscreenenter"",""1"",""3926""
","
","
","""event"",""trial"",""time""
""fullscreenenter"",""1"",""3926""
","
","","","","","","null","<div style=""font-size:60px;"">+</div>","null","","fixation","","","","","","","","","","",""
"aa-learning-trial","153","639550","0.0-9.0-2.0-1.40","7579","1","24","Male","approach_avoid_spark_v1","""event"",""trial"",""time""
""fullscreenenter"",""1"",""3926""
","
","
","""event"",""trial"",""time""
""fullscreenenter"",""1"",""3926""
","
","","","","","","599.8999999761581","images/bed8.png","","","learning","-5","0","0","0","bed","furniture","1","0","","bad","[-5]"
"html-keyboard-response","154","640052","0.0-9.0-2.0-0.41","7579","1","24","Male","approach_avoid_spark_v1","""event"",""trial"",""time""
""fullscreenenter"",""1"",""3926""
","
","
","""event"",""trial"",""time""
""fullscreenenter"",""1"",""3926""
","
","","","","","","null","<div style=""font-size:60px;"">+</div>","null","","fixation","","","","","","","","","","",""
"aa-learning-trial","155","643054","0.0-9.0-2.0-1.41","7579","1","24","Male","approach_avoid_spark_v1","""event"",""trial"",""time""
""fullscreenenter"",""1"",""3926""
","
","
","""event"",""trial"",""time""
""fullscreenenter"",""1"",""3926""
","
","","","","","","1334.3999999761581","images/bed3.png","","","learning","-4","0","0","0","bed","furniture","1","0","","bad","[-5]"
"html-keyboard-response","156","643556","0.0-9.0-2.0-0.42","7579","1","24","Male","approach_avoid_spark_v1","""event"",""trial"",""time""
""fullscreenenter"",""1"",""3926""
","
","
","""event"",""trial"",""time""
""fullscreenenter"",""1"",""3926""
","
","","","","","","null","<div style=""font-size:60px;"">+</div>","null","","fixation","","","","","","","","","","",""
"aa-learning-trial","157","646559","0.0-9.0-2.0-1.42","7579","1","24","Male","approach_avoid_spark_v1","""event"",""trial"",""time""
""fullscreenenter"",""1"",""3926""
","
","
","""event"",""trial"",""time""
""fullscreenenter"",""1"",""3926""
","
","","","","","","835.8999999761581","images/chair7.png","","","learning","[-1]","-1","1","1","chair","furniture","1","0","","neutral","0"
"html-keyboard-response","158","647061","0.0-9.0-2.0-0.43","7579","1","24","Male","approach_avoid_spark_v1","""event"",""trial"",""time""
""fullscreenenter"",""1"",""3926""
","
","
","""event"",""trial"",""time""
""fullscreenenter"",""1"",""3926""
","
","","","","","","null","<div style=""font-size:60px;"">+</div>","null","","fixation","","","","","","","","","","",""
"aa-learning-trial","159","650064","0.0-9.0-2.0-1.43","7579","1","24","Male","approach_avoid_spark_v1","""event"",""trial"",""time""
""fullscreenenter"",""1"",""3926""
","
","
","""event"",""trial"",""time""
""fullscreenenter"",""1"",""3926""
","
","","","","","","737.8999999761581","images/bed4.png","","","learning","-4","0","0","0","bed","furniture","1","0","","bad","[-5]"
"html-keyboard-response","160","650566","0.0-9.0-2.0-0.44","7579","1","24","Male","approach_avoid_spark_v1","""event"",""trial"",""time""
""fullscreenenter"",""1"",""3926""
","
","
","""event"",""trial"",""time""
""fullscreenenter"",""1"",""3926""
","
","","","","","","null","<div style=""font-size:60px;"">+</div>","null","","fixation","","","","","","","","","","",""
"aa-learning-trial","161","653569","0.0-9.0-2.0-1.44","7579","1","24","Male","approach_avoid_spark_v1","""event"",""trial"",""time""
""fullscreenenter"",""1"",""3926""
","
","
","""event"",""trial"",""time""
""fullscreenenter"",""1"",""3926""
","
","","","","","","592.0999999046326","images/sofa4.png","","","learning","6","6","1","1","sofa","furniture","1","0","","good","[6]"
"html-keyboard-response","162","654070","0.0-9.0-2.0-0.45","7579","1","24","Male","approach_avoid_spark_v1","""event"",""trial"",""time""
""fullscreenenter"",""1"",""3926""
","
","
","""event"",""trial"",""time""
""fullscreenenter"",""1"",""3926""
","
","","","","","","null","<div style=""font-size:60px;"">+</div>","null","","fixation","","","","","","","","","","",""
"aa-learning-trial","163","657071","0.0-9.0-2.0-1.45","7579","1","24","Male","approach_avoid_spark_v1","""event"",""trial"",""time""
""fullscreenenter"",""1"",""3926""
","
","
","""event"",""trial"",""time""
""fullscreenenter"",""1"",""3926""
","
","","","","","","503.8000000715256","images/sofa3.png","","","learning","4","4","1","1","sofa","furniture","1","0","","good","[6]"
"html-keyboard-response","164","657574","0.0-9.0-2.0-0.46","7579","1","24","Male","approach_avoid_spark_v1","""event"",""trial"",""time""
""fullscreenenter"",""1"",""3926""
","
","
","""event"",""trial"",""time""
""fullscreenenter"",""1"",""3926""
","
","","","","","","null","<div style=""font-size:60px;"">+</div>","null","","fixation","","","","","","","","","","",""
"aa-learning-trial","165","660577","0.0-9.0-2.0-1.46","7579","1","24","Male","approach_avoid_spark_v1","""event"",""trial"",""time""
""fullscreenenter"",""1"",""3926""
","
","
","""event"",""trial"",""time""
""fullscreenenter"",""1"",""3926""
","
","","","","","","547.2999999523163","images/chair4.png","","","learning","2","2","1","1","chair","furniture","1","0","","neutral","0"
"html-keyboard-response","166","661078","0.0-9.0-2.0-0.47","7579","1","24","Male","approach_avoid_spark_v1","""event"",""trial"",""time""
""fullscreenenter"",""1"",""3926""
","
","
","""event"",""trial"",""time""
""fullscreenenter"",""1"",""3926""
","
","","","","","","null","<div style=""font-size:60px;"">+</div>","null","","fixation","","","","","","","","","","",""
"aa-learning-trial","167","664080","0.0-9.0-2.0-1.47","7579","1","24","Male","approach_avoid_spark_v1","""event"",""trial"",""time""
""fullscreenenter"",""1"",""3926""
","
","
","""event"",""trial"",""time""
""fullscreenenter"",""1"",""3926""
","
","","","","","","467.60000002384186","images/sofa3.png","","","learning","7","7","1","1","sofa","furniture","1","0","","good","[6]"
"html-keyboard-response","168","664582","0.0-9.0-2.0-0.48","7579","1","24","Male","approach_avoid_spark_v1","""event"",""trial"",""time""
""fullscreenenter"",""1"",""3926""
","
","
","""event"",""trial"",""time""
""fullscreenenter"",""1"",""3926""
","
","","","","","","null","<div style=""font-size:60px;"">+</div>","null","","fixation","","","","","","","","","","",""
"aa-learning-trial","169","667584","0.0-9.0-2.0-1.48","7579","1","24","Male","approach_avoid_spark_v1","""event"",""trial"",""time""
""fullscreenenter"",""1"",""3926""
","
","
","""event"",""trial"",""time""
""fullscreenenter"",""1"",""3926""
","
","","","","","","402.2999999523163","images/sofa8.png","","","learning","7","7","1","1","sofa","furniture","1","0","","good","[6]"
"html-keyboard-response","170","668086","0.0-9.0-2.0-0.49","7579","1","24","Male","approach_avoid_spark_v1","""event"",""trial"",""time""
""fullscreenenter"",""1"",""3926""
","
","
","""event"",""trial"",""time""
""fullscreenenter"",""1"",""3926""
","
","","","","","","null","<div style=""font-size:60px;"">+</div>","null","","fixation","","","","","","","","","","",""
"aa-learning-trial","171","671087","0.0-9.0-2.0-1.49","7579","1","24","Male","approach_avoid_spark_v1","""event"",""trial"",""time""
""fullscreenenter"",""1"",""3926""
","
","
","""event"",""trial"",""time""
""fullscreenenter"",""1"",""3926""
","
","","","","","","704","images/chair8.png","","","learning","[1]","1","1","1","chair","furniture","1","0","","neutral","0"
"html-keyboard-response","172","671589","0.0-9.0-2.0-0.50","7579","1","24","Male","approach_avoid_spark_v1","""event"",""trial"",""time""
""fullscreenenter"",""1"",""3926""
","
","
","""event"",""trial"",""time""
""fullscreenenter"",""1"",""3926""
","
","","","","","","null","<div style=""font-size:60px;"">+</div>","null","","fixation","","","","","","","","","","",""
"aa-learning-trial","173","674592","0.0-9.0-2.0-1.50","7579","1","24","Male","approach_avoid_spark_v1","""event"",""trial"",""time""
""fullscreenenter"",""1"",""3926""
","
","
","""event"",""trial"",""time""
""fullscreenenter"",""1"",""3926""
","
","","","","","","612.7000000476837","images/bed1.png","","","learning","-5","0","0","0","bed","furniture","1","0","","bad","[-5]"
"html-button-response","174","678008","0.0-9.0-3.0","7579","1","24","Male","approach_avoid_spark_v1","""event"",""trial"",""time""
""fullscreenenter"",""1"",""3926""
","
","
","""event"",""trial"",""time""
""fullscreenenter"",""1"",""3926""
","
","","","","","","3415.399999976158","<p> You have completed the round! <p> In this round, you earned 63 points! </p>","0","","break","","","","","","","","","","",""
"html-button-response","175","679381","0.0-10.0","7579","1","24","Male","approach_avoid_spark_v1","""event"",""trial"",""time""
""fullscreenenter"",""1"",""3926""
","
","
","""event"",""trial"",""time""
""fullscreenenter"",""1"",""3926""
","
","","","","","","1371.2999999523163","<p> Now it's time to play another round. </p>","0","","transition_screen","","","","","","","","","","",""
"preload","176","679497","0.0-11.0-0.0","7579","1","24","Male","approach_avoid_spark_v1","""event"",""trial"",""time""
""fullscreenenter"",""1"",""3926""
","
","
","""event"",""trial"",""time""
""fullscreenenter"",""1"",""3926""
","
","true","false","[]","[]","[]","","","","","","","","","","","","","","","",""
"learning-instructions","177","690935","0.0-11.0-1.0-0.0","7579","1","24","Male","approach_avoid_spark_v1","""event"",""trial"",""time""
""fullscreenenter"",""1"",""3926""
","
","
","""event"",""trial"",""time""
""fullscreenenter"",""1"",""3926""
","
","","","","","","2117.2000000476837","<p> Your goal in this round is to take your friend for rides in different vehicles. </p></div>","","0","instructions","","","","","","","","","","",""
"learning-instructions","178","703264","0.0-11.0-1.0-0.1","7579","1","24","Male","approach_avoid_spark_v1","""event"",""trial"",""time""
""fullscreenenter"",""1"",""3926""
","
","
","""event"",""trial"",""time""
""fullscreenenter"",""1"",""3926""
","
","","","","","","1186.8999999761581","<p> Your friend enjoys riding in some vehicles but not in others.  </p><p> On each turn, you will see a vehicle.   </p><p> You need to decide whether to take your friend for a ride or not.  </p>","","0","instructions","","","","","","","","","","",""
"learning-instructions","179","711061","0.0-11.0-1.0-0.2","7579","1","24","Male","approach_avoid_spark_v1","""event"",""trial"",""time""
""fullscreenenter"",""1"",""3926""
","
","
","""event"",""trial"",""time""
""fullscreenenter"",""1"",""3926""
","
","","","","","","842.7999999523163","<p> You can take your friend for a ride in the vehicle by pressing 1 and skip the ride by pressing 0. </p><br><div class=""choice-instructions-grid""> <div class=""choice-option""><img src=""images/approach.png"" class=""choice-option-img"" stage=""instructions"" position=""0"" ><div class=""choice-option-text""> Press ""1."" </div></div><div class=""choice-option""><img src=""images/avoid.png"" class=""choice-option-img"" stage=""instructions"" position=""1"" ><div class=""choice-option-text""> Press ""0."" </div></div>","","0","instructions","","","","","","","","","","",""
"learning-instructions","180","731063","0.0-11.0-1.0-0.3","7579","1","24","Male","approach_avoid_spark_v1","""event"",""trial"",""time""
""fullscreenenter"",""1"",""3926""
","
","
","""event"",""trial"",""time""
""fullscreenenter"",""1"",""3926""
","
","","","","","","1605.3999999761581","<p> If you take them for a ride in a vehicle they like, they will be thrilled! </p><p> But if you take them for a ride in a vehicle they do not like, they will be upset. </p>","","0","instructions","","","","","","","","","","",""
"learning-instructions","181","746015","0.0-11.0-1.0-0.4","7579","1","24","Male","approach_avoid_spark_v1","""event"",""trial"",""time""
""fullscreenenter"",""1"",""3926""
","
","
","""event"",""trial"",""time""
""fullscreenenter"",""1"",""3926""
","
","","","","","","987","<p> You will earn points based on how you made your friend feel. </p><p> If you made him thrilled, you will WIN anywhere from 1 - 9 points, </p><p> but if you made him upset, you will LOSE anywhere from 1 - 9 points. </p>","","0","instructions","","","","","","","","","","",""
"learning-instructions","182","754036","0.0-11.0-1.0-0.5","7579","1","24","Male","approach_avoid_spark_v1","""event"",""trial"",""time""
""fullscreenenter"",""1"",""3926""
","
","
","""event"",""trial"",""time""
""fullscreenenter"",""1"",""3926""
","
","","","","","","1368","<p> You will see how many points you won or lost in the center of the screen. </p><p> Here is what you would see if you won 5 points: </p><p style=""color:green;font-size:50px;font-weight:bolder"">5</p>","","0","instructions","","","","","","","","","","",""
"learning-instructions","183","757490","0.0-11.0-1.0-0.6","7579","1","24","Male","approach_avoid_spark_v1","""event"",""trial"",""time""
""fullscreenenter"",""1"",""3926""
","
","
","""event"",""trial"",""time""
""fullscreenenter"",""1"",""3926""
","
","","","","","","602.2999999523163","<p> And here is what you would see if you lost 3 points: </p><p style=""color:red;font-size:50px;font-weight:bolder"">-3</p>","","0","instructions","","","","","","","","","","",""
"learning-instructions","184","775152","0.0-11.0-1.0-0.7","7579","1","24","Male","approach_avoid_spark_v1","""event"",""trial"",""time""
""fullscreenenter"",""1"",""3926""
","
","
","""event"",""trial"",""time""
""fullscreenenter"",""1"",""3926""
","
","","","","","","814.1000000238419","<p> Some vehicles will make your friend REALLY thrilled or upset. </p><p> These vehicles will make you win or lose LOTS of points. </p><p> Other vehicles will only make him feel a little thrilled or upset. </p><p> These vehicles will make you win or lose small amounts of points. </p>","","0","instructions","","","","","","","","","","",""
"learning-instructions","185","788539","0.0-11.0-1.0-0.8","7579","1","24","Male","approach_avoid_spark_v1","""event"",""trial"",""time""
""fullscreenenter"",""1"",""3926""
","
","
","""event"",""trial"",""time""
""fullscreenenter"",""1"",""3926""
","
","","","","","","1031.7000000476837","<p> If you choose to skip the ride, you will not win or lose any points. </p><p>  However, in the center of the screen, you will see the number of points you WOULD HAVE won or lost if you had taken your friend for a ride. </p>","","0","instructions","","","","","","","","","","",""
"learning-instructions","186","800431","0.0-11.0-1.0-0.9","7579","1","24","Male","approach_avoid_spark_v1","""event"",""trial"",""time""
""fullscreenenter"",""1"",""3926""
","
","
","""event"",""trial"",""time""
""fullscreenenter"",""1"",""3926""
","
","","","","","","823.1000000238419","<p> Here is what you might see if you did not take your friend for a ride but he would have enjoyed it: </p><p style=""color:grey; font-size:50px; display: inline-block; border-spacing: 15px; border-width:3px; border-style:solid; border-color:red"">  &nbsp; 6 &nbsp; </p><p> Remember, in this case, you would not win or lose ANY points because you skipped the ride.  </p>","","0","instructions","","","","","","","","","","",""
"learning-instructions","187","809374","0.0-11.0-1.0-0.10","7579","1","24","Male","approach_avoid_spark_v1","""event"",""trial"",""time""
""fullscreenenter"",""1"",""3926""
","
","
","""event"",""trial"",""time""
""fullscreenenter"",""1"",""3926""
","
","","","","","","1106.7000000476837","<p> Try to make the best choice for each vehicle because </p><p> at the end of the game, you will earn bonus money based on how many points you earned. </p>","","0","instructions","","","","","","","","","","",""
"learning-instructions","188","818892","0.0-11.0-1.0-0.11","7579","1","24","Male","approach_avoid_spark_v1","""event"",""trial"",""time""
""fullscreenenter"",""1"",""3926""
","
","
","""event"",""trial"",""time""
""fullscreenenter"",""1"",""3926""
","
","","","","","","1324.1999999284744","<p> You will have 3 seconds to make each choice. Try to respond before time runs out! </p><p> You will lose 5 points each time you do not make a response. </p>","","0","instructions","","","","","","","","","","",""
"html-keyboard-response","189","819516","0.0-11.0-2.0-0.0","7579","1","24","Male","approach_avoid_spark_v1","""event"",""trial"",""time""
""fullscreenenter"",""1"",""3926""
","
","
","""event"",""trial"",""time""
""fullscreenenter"",""1"",""3926""
","
","","","","","","null","<div style=""font-size:60px;"">+</div>","null","","fixation","","","","","","","","","","",""
"aa-learning-trial","190","822526","0.0-11.0-2.0-1.0","7579","1","24","Male","approach_avoid_spark_v1","""event"",""trial"",""time""
""fullscreenenter"",""1"",""3926""
","
","
","""event"",""trial"",""time""
""fullscreenenter"",""1"",""3926""
","
","","","","","","988.3000000715256","images/boat2.png","","","learning","-9","-9","1","1","boat","vehicles","2","1","","good","[3]"
"html-keyboard-response","191","823036","0.0-11.0-2.0-0.1","7579","1","24","Male","approach_avoid_spark_v1","""event"",""trial"",""time""
""fullscreenenter"",""1"",""3926""
","
","
","""event"",""trial"",""time""
""fullscreenenter"",""1"",""3926""
","
","","","","","","null","<div style=""font-size:60px;"">+</div>","null","","fixation","","","","","","","","","","",""
"aa-learning-trial","192","826042","0.0-11.0-2.0-1.1","7579","1","24","Male","approach_avoid_spark_v1","""event"",""trial"",""time""
""fullscreenenter"",""1"",""3926""
","
","
","""event"",""trial"",""time""
""fullscreenenter"",""1"",""3926""
","
","","","","","","937.5999999046326","images/truck2.png","","","learning","4","0","0","0","truck","vehicles","2","1","","neutral","0"
"html-keyboard-response","193","826546","0.0-11.0-2.0-0.2","7579","1","24","Male","approach_avoid_spark_v1","""event"",""trial"",""time""
""fullscreenenter"",""1"",""3926""
","
","
","""event"",""trial"",""time""
""fullscreenenter"",""1"",""3926""
","
","","","","","","null","<div style=""font-size:60px;"">+</div>","null","","fixation","","","","","","","","","","",""
"aa-learning-trial","194","829556","0.0-11.0-2.0-1.2","7579","1","24","Male","approach_avoid_spark_v1","""event"",""trial"",""time""
""fullscreenenter"",""1"",""3926""
","
","
","""event"",""trial"",""time""
""fullscreenenter"",""1"",""3926""
","
","","","","","","1301","images/boat6.png","","","learning","5","0","0","0","boat","vehicles","2","1","","good","[3]"
"html-keyboard-response","195","830066","0.0-11.0-2.0-0.3","7579","1","24","Male","approach_avoid_spark_v1","""event"",""trial"",""time""
""fullscreenenter"",""1"",""3926""
","
","
","""event"",""trial"",""time""
""fullscreenenter"",""1"",""3926""
","
","","","","","","null","<div style=""font-size:60px;"">+</div>","null","","fixation","","","","","","","","","","",""
"aa-learning-trial","196","833076","0.0-11.0-2.0-1.3","7579","1","24","Male","approach_avoid_spark_v1","""event"",""trial"",""time""
""fullscreenenter"",""1"",""3926""
","
","
","""event"",""trial"",""time""
""fullscreenenter"",""1"",""3926""
","
","","","","","","1357.5999999046326","images/boat7.png","","","learning","-4","0","0","0","boat","vehicles","2","1","","good","[3]"
"html-keyboard-response","197","833586","0.0-11.0-2.0-0.4","7579","1","24","Male","approach_avoid_spark_v1","""event"",""trial"",""time""
""fullscreenenter"",""1"",""3926""
","
","
","""event"",""trial"",""time""
""fullscreenenter"",""1"",""3926""
","
","","","","","","null","<div style=""font-size:60px;"">+</div>","null","","fixation","","","","","","","","","","",""
"aa-learning-trial","198","836595","0.0-11.0-2.0-1.4","7579","1","24","Male","approach_avoid_spark_v1","""event"",""trial"",""time""
""fullscreenenter"",""1"",""3926""
","
","
","""event"",""trial"",""time""
""fullscreenenter"",""1"",""3926""
","
","","","","","","1080.3999999761581","images/plane2.png","","","learning","-1","-1","1","1","plane","vehicles","2","1","","bad","[-4]"
"html-keyboard-response","199","837115","0.0-11.0-2.0-0.5","7579","1","24","Male","approach_avoid_spark_v1","""event"",""trial"",""time""
""fullscreenenter"",""1"",""3926""
","
","
","""event"",""trial"",""time""
""fullscreenenter"",""1"",""3926""
","
","","","","","","null","<div style=""font-size:60px;"">+</div>","null","","fixation","","","","","","","","","","",""
"aa-learning-trial","200","840135","0.0-11.0-2.0-1.5","7579","1","24","Male","approach_avoid_spark_v1","""event"",""trial"",""time""
""fullscreenenter"",""1"",""3926""
","
","
","""event"",""trial"",""time""
""fullscreenenter"",""1"",""3926""
","
","","","","","","720.1000000238419","images/boat6.png","","","learning","5","5","1","1","boat","vehicles","2","1","","good","[3]"
"html-keyboard-response","201","840647","0.0-11.0-2.0-0.6","7579","1","24","Male","approach_avoid_spark_v1","""event"",""trial"",""time""
""fullscreenenter"",""1"",""3926""
","
","
","""event"",""trial"",""time""
""fullscreenenter"",""1"",""3926""
","
","","","","","","null","<div style=""font-size:60px;"">+</div>","null","","fixation","","","","","","","","","","",""
"aa-learning-trial","202","843665","0.0-11.0-2.0-1.6","7579","1","24","Male","approach_avoid_spark_v1","""event"",""trial"",""time""
""fullscreenenter"",""1"",""3926""
","
","
","""event"",""trial"",""time""
""fullscreenenter"",""1"",""3926""
","
","","","","","","1003.1000000238419","images/truck7.png","","","learning","-5","-5","1","1","truck","vehicles","2","1","","neutral","0"
"html-keyboard-response","203","844185","0.0-11.0-2.0-0.7","7579","1","24","Male","approach_avoid_spark_v1","""event"",""trial"",""time""
""fullscreenenter"",""1"",""3926""
","
","
","""event"",""trial"",""time""
""fullscreenenter"",""1"",""3926""
","
","","","","","","null","<div style=""font-size:60px;"">+</div>","null","","fixation","","","","","","","","","","",""
"aa-learning-trial","204","847205","0.0-11.0-2.0-1.7","7579","1","24","Male","approach_avoid_spark_v1","""event"",""trial"",""time""
""fullscreenenter"",""1"",""3926""
","
","
","""event"",""trial"",""time""
""fullscreenenter"",""1"",""3926""
","
","","","","","","773.7000000476837","images/plane2.png","","","learning","-1","0","0","0","plane","vehicles","2","1","","bad","[-4]"
"html-keyboard-response","205","847706","0.0-11.0-2.0-0.8","7579","1","24","Male","approach_avoid_spark_v1","""event"",""trial"",""time""
""fullscreenenter"",""1"",""3926""
","
","
","""event"",""trial"",""time""
""fullscreenenter"",""1"",""3926""
","
","","","","","","null","<div style=""font-size:60px;"">+</div>","null","","fixation","","","","","","","","","","",""
"aa-learning-trial","206","850709","0.0-11.0-2.0-1.8","7579","1","24","Male","approach_avoid_spark_v1","""event"",""trial"",""time""
""fullscreenenter"",""1"",""3926""
","
","
","""event"",""trial"",""time""
""fullscreenenter"",""1"",""3926""
","
","","","","","","704.5","images/plane7.png","","","learning","3","3","1","1","plane","vehicles","2","1","","bad","[-4]"
"html-keyboard-response","207","851211","0.0-11.0-2.0-0.9","7579","1","24","Male","approach_avoid_spark_v1","""event"",""trial"",""time""
""fullscreenenter"",""1"",""3926""
","
","
","""event"",""trial"",""time""
""fullscreenenter"",""1"",""3926""
","
","","","","","","null","<div style=""font-size:60px;"">+</div>","null","","fixation","","","","","","","","","","",""
"aa-learning-trial","208","854212","0.0-11.0-2.0-1.9","7579","1","24","Male","approach_avoid_spark_v1","""event"",""trial"",""time""
""fullscreenenter"",""1"",""3926""
","
","
","""event"",""trial"",""time""
""fullscreenenter"",""1"",""3926""
","
","","","","","","1185.4000000953674","images/boat7.png","","","learning","-4","0","0","0","boat","vehicles","2","1","","good","[3]"
"html-keyboard-response","209","854720","0.0-11.0-2.0-0.10","7579","1","24","Male","approach_avoid_spark_v1","""event"",""trial"",""time""
""fullscreenenter"",""1"",""3926""
","
","
","""event"",""trial"",""time""
""fullscreenenter"",""1"",""3926""
","
","","","","","","null","<div style=""font-size:60px;"">+</div>","null","","fixation","","","","","","","","","","",""
"aa-learning-trial","210","857723","0.0-11.0-2.0-1.10","7579","1","24","Male","approach_avoid_spark_v1","""event"",""trial"",""time""
""fullscreenenter"",""1"",""3926""
","
","
","""event"",""trial"",""time""
""fullscreenenter"",""1"",""3926""
","
","","","","","","1153.1999999284744","images/truck7.png","","","learning","-5","0","0","0","truck","vehicles","2","1","","neutral","0"
"html-keyboard-response","211","858234","0.0-11.0-2.0-0.11","7579","1","24","Male","approach_avoid_spark_v1","""event"",""trial"",""time""
""fullscreenenter"",""1"",""3926""
","
","
","""event"",""trial"",""time""
""fullscreenenter"",""1"",""3926""
","
","","","","","","null","<div style=""font-size:60px;"">+</div>","null","","fixation","","","","","","","","","","",""
"aa-learning-trial","212","861236","0.0-11.0-2.0-1.11","7579","1","24","Male","approach_avoid_spark_v1","""event"",""trial"",""time""
""fullscreenenter"",""1"",""3926""
","
","
","""event"",""trial"",""time""
""fullscreenenter"",""1"",""3926""
","
","","","","","","1013.0999999046326","images/truck1.png","","","learning","9","0","0","0","truck","vehicles","2","1","","neutral","0"
"html-keyboard-response","213","861742","0.0-11.0-2.0-0.12","7579","1","24","Male","approach_avoid_spark_v1","""event"",""trial"",""time""
""fullscreenenter"",""1"",""3926""
","
","
","""event"",""trial"",""time""
""fullscreenenter"",""1"",""3926""
","
","","","","","","null","<div style=""font-size:60px;"">+</div>","null","","fixation","","","","","","","","","","",""
"aa-learning-trial","214","864744","0.0-11.0-2.0-1.12","7579","1","24","Male","approach_avoid_spark_v1","""event"",""trial"",""time""
""fullscreenenter"",""1"",""3926""
","
","
","""event"",""trial"",""time""
""fullscreenenter"",""1"",""3926""
","
","","","","","","898.3999999761581","images/plane3.png","","","learning","-3","-3","1","1","plane","vehicles","2","1","","bad","[-4]"
"html-keyboard-response","215","865245","0.0-11.0-2.0-0.13","7579","1","24","Male","approach_avoid_spark_v1","""event"",""trial"",""time""
""fullscreenenter"",""1"",""3926""
","
","
","""event"",""trial"",""time""
""fullscreenenter"",""1"",""3926""
","
","","","","","","null","<div style=""font-size:60px;"">+</div>","null","","fixation","","","","","","","","","","",""
"aa-learning-trial","216","868248","0.0-11.0-2.0-1.13","7579","1","24","Male","approach_avoid_spark_v1","""event"",""trial"",""time""
""fullscreenenter"",""1"",""3926""
","
","
","""event"",""trial"",""time""
""fullscreenenter"",""1"",""3926""
","
","","","","","","1120.1000000238419","images/plane7.png","","","learning","3","3","1","1","plane","vehicles","2","1","","bad","[-4]"
"html-keyboard-response","217","868750","0.0-11.0-2.0-0.14","7579","1","24","Male","approach_avoid_spark_v1","""event"",""trial"",""time""
""fullscreenenter"",""1"",""3926""
","
","
","""event"",""trial"",""time""
""fullscreenenter"",""1"",""3926""
","
","","","","","","null","<div style=""font-size:60px;"">+</div>","null","","fixation","","","","","","","","","","",""
"aa-learning-trial","218","871753","0.0-11.0-2.0-1.14","7579","1","24","Male","approach_avoid_spark_v1","""event"",""trial"",""time""
""fullscreenenter"",""1"",""3926""
","
","
","""event"",""trial"",""time""
""fullscreenenter"",""1"",""3926""
","
","","","","","","678.5999999046326","images/truck2.png","","","learning","4","4","1","1","truck","vehicles","2","1","","neutral","0"
"html-keyboard-response","219","872259","0.0-11.0-2.0-0.15","7579","1","24","Male","approach_avoid_spark_v1","""event"",""trial"",""time""
""fullscreenenter"",""1"",""3926""
","
","
","""event"",""trial"",""time""
""fullscreenenter"",""1"",""3926""
","
","","","","","","null","<div style=""font-size:60px;"">+</div>","null","","fixation","","","","","","","","","","",""
"aa-learning-trial","220","875261","0.0-11.0-2.0-1.15","7579","1","24","Male","approach_avoid_spark_v1","""event"",""trial"",""time""
""fullscreenenter"",""1"",""3926""
","
","
","""event"",""trial"",""time""
""fullscreenenter"",""1"",""3926""
","
","","","","","","939.2999999523163","images/plane3.png","","","learning","-3","0","0","0","plane","vehicles","2","1","","bad","[-4]"
"html-keyboard-response","221","875763","0.0-11.0-2.0-0.16","7579","1","24","Male","approach_avoid_spark_v1","""event"",""trial"",""time""
""fullscreenenter"",""1"",""3926""
","
","
","""event"",""trial"",""time""
""fullscreenenter"",""1"",""3926""
","
","","","","","","null","<div style=""font-size:60px;"">+</div>","null","","fixation","","","","","","","","","","",""
"aa-learning-trial","222","878766","0.0-11.0-2.0-1.16","7579","1","24","Male","approach_avoid_spark_v1","""event"",""trial"",""time""
""fullscreenenter"",""1"",""3926""
","
","
","""event"",""trial"",""time""
""fullscreenenter"",""1"",""3926""
","
","","","","","","818.1000000238419","images/boat6.png","","","learning","5","5","1","1","boat","vehicles","2","1","","good","[3]"
"html-keyboard-response","223","879267","0.0-11.0-2.0-0.17","7579","1","24","Male","approach_avoid_spark_v1","""event"",""trial"",""time""
""fullscreenenter"",""1"",""3926""
","
","
","""event"",""trial"",""time""
""fullscreenenter"",""1"",""3926""
","
","","","","","","null","<div style=""font-size:60px;"">+</div>","null","","fixation","","","","","","","","","","",""
"aa-learning-trial","224","882269","0.0-11.0-2.0-1.17","7579","1","24","Male","approach_avoid_spark_v1","""event"",""trial"",""time""
""fullscreenenter"",""1"",""3926""
","
","
","""event"",""trial"",""time""
""fullscreenenter"",""1"",""3926""
","
","","","","","","949.9000000953674","images/truck7.png","","","learning","-5","0","0","0","truck","vehicles","2","1","","neutral","0"
"html-keyboard-response","225","882771","0.0-11.0-2.0-0.18","7579","1","24","Male","approach_avoid_spark_v1","""event"",""trial"",""time""
""fullscreenenter"",""1"",""3926""
","
","
","""event"",""trial"",""time""
""fullscreenenter"",""1"",""3926""
","
","","","","","","null","<div style=""font-size:60px;"">+</div>","null","","fixation","","","","","","","","","","",""
"aa-learning-trial","226","885773","0.0-11.0-2.0-1.18","7579","1","24","Male","approach_avoid_spark_v1","""event"",""trial"",""time""
""fullscreenenter"",""1"",""3926""
","
","
","""event"",""trial"",""time""
""fullscreenenter"",""1"",""3926""
","
","","","","","","612.6000000238419","images/truck2.png","","","learning","4","4","1","1","truck","vehicles","2","1","","neutral","0"
"html-keyboard-response","227","886276","0.0-11.0-2.0-0.19","7579","1","24","Male","approach_avoid_spark_v1","""event"",""trial"",""time""
""fullscreenenter"",""1"",""3926""
","
","
","""event"",""trial"",""time""
""fullscreenenter"",""1"",""3926""
","
","","","","","","null","<div style=""font-size:60px;"">+</div>","null","","fixation","","","","","","","","","","",""
"aa-learning-trial","228","889278","0.0-11.0-2.0-1.19","7579","1","24","Male","approach_avoid_spark_v1","""event"",""trial"",""time""
""fullscreenenter"",""1"",""3926""
","
","
","""event"",""trial"",""time""
""fullscreenenter"",""1"",""3926""
","
","","","","","","818.2000000476837","images/truck7.png","","","learning","-5","0","0","0","truck","vehicles","2","1","","neutral","0"
"html-keyboard-response","229","889780","0.0-11.0-2.0-0.20","7579","1","24","Male","approach_avoid_spark_v1","""event"",""trial"",""time""
""fullscreenenter"",""1"",""3926""
","
","
","""event"",""trial"",""time""
""fullscreenenter"",""1"",""3926""
","
","","","","","","null","<div style=""font-size:60px;"">+</div>","null","","fixation","","","","","","","","","","",""
"aa-learning-trial","230","892783","0.0-11.0-2.0-1.20","7579","1","24","Male","approach_avoid_spark_v1","""event"",""trial"",""time""
""fullscreenenter"",""1"",""3926""
","
","
","""event"",""trial"",""time""
""fullscreenenter"",""1"",""3926""
","
","","","","","","1046.5999999046326","images/plane6.png","","","learning","8","0","0","0","plane","vehicles","2","1","","bad","[-4]"
"html-keyboard-response","231","893285","0.0-11.0-2.0-0.21","7579","1","24","Male","approach_avoid_spark_v1","""event"",""trial"",""time""
""fullscreenenter"",""1"",""3926""
","
","
","""event"",""trial"",""time""
""fullscreenenter"",""1"",""3926""
","
","","","","","","null","<div style=""font-size:60px;"">+</div>","null","","fixation","","","","","","","","","","",""
"aa-learning-trial","232","896288","0.0-11.0-2.0-1.21","7579","1","24","Male","approach_avoid_spark_v1","""event"",""trial"",""time""
""fullscreenenter"",""1"",""3926""
","
","
","""event"",""trial"",""time""
""fullscreenenter"",""1"",""3926""
","
","","","","","","955.6000000238419","images/truck4.png","","","learning","1","1","1","1","truck","vehicles","2","1","","neutral","0"
"html-keyboard-response","233","896790","0.0-11.0-2.0-0.22","7579","1","24","Male","approach_avoid_spark_v1","""event"",""trial"",""time""
""fullscreenenter"",""1"",""3926""
","
","
","""event"",""trial"",""time""
""fullscreenenter"",""1"",""3926""
","
","","","","","","null","<div style=""font-size:60px;"">+</div>","null","","fixation","","","","","","","","","","",""
"aa-learning-trial","234","899792","0.0-11.0-2.0-1.22","7579","1","24","Male","approach_avoid_spark_v1","""event"",""trial"",""time""
""fullscreenenter"",""1"",""3926""
","
","
","""event"",""trial"",""time""
""fullscreenenter"",""1"",""3926""
","
","","","","","","753.5","images/boat6.png","","","learning","5","5","1","1","boat","vehicles","2","1","","good","[3]"
"html-keyboard-response","235","900293","0.0-11.0-2.0-0.23","7579","1","24","Male","approach_avoid_spark_v1","""event"",""trial"",""time""
""fullscreenenter"",""1"",""3926""
","
","
","""event"",""trial"",""time""
""fullscreenenter"",""1"",""3926""
","
","","","","","","null","<div style=""font-size:60px;"">+</div>","null","","fixation","","","","","","","","","","",""
"aa-learning-trial","236","903296","0.0-11.0-2.0-1.23","7579","1","24","Male","approach_avoid_spark_v1","""event"",""trial"",""time""
""fullscreenenter"",""1"",""3926""
","
","
","""event"",""trial"",""time""
""fullscreenenter"",""1"",""3926""
","
