"trial_type","trial_index","time_elapsed","internal_node_id","subject_id","task_condition","age","gender","task_version","interactions","blur_events","focus_events","fullscreenenter_events","fullscreenexit_events","success","timeout","failed_images","failed_audio","failed_video","rt","stimulus","response","button_pressed","task_part","approach_reward","points","key_press","option_selected","stim_cat","task_block","block_condition","block_number","correct","cat_type","mean_cat_reward"
"pavlovia","0","1","0.0-0.0","4506","2","19","Male","approach_avoid_spark_v1","""event"",""trial"",""time""
""fullscreenenter"",""1"",""1280""
","
","
","""event"",""trial"",""time""
""fullscreenenter"",""1"",""1280""
","
","","","","","","","","","","","","","","","","","","","","",""
"fullscreen","1","2280","0.0-1.0","4506","2","19","Male","approach_avoid_spark_v1","""event"",""trial"",""time""
""fullscreenenter"",""1"",""1280""
","
","
","""event"",""trial"",""time""
""fullscreenenter"",""1"",""1280""
","
","true","","","","","","","","","","","","","","","","","","","",""
"preload","2","84230","0.0-2.0","4506","2","19","Male","approach_avoid_spark_v1","""event"",""trial"",""time""
""fullscreenenter"",""1"",""1280""
","
","
","""event"",""trial"",""time""
""fullscreenenter"",""1"",""1280""
","
","true","false","[]","[]","[]","","","","","","","","","","","","","","","",""
"audio-keyboard-response","3","86668","0.0-3.0","4506","2","19","Male","approach_avoid_spark_v1","""event"",""trial"",""time""
""fullscreenenter"",""1"",""1280""
","
","
","""event"",""trial"",""time""
""fullscreenenter"",""1"",""1280""
","
","","","","","","2397.4603174603144","audio/beep_loop.wav"," ","","","","","","","","","","","","",""
"audio-button-response","4","88419","0.0-4.0","4506","2","19","Male","approach_avoid_spark_v1","""event"",""trial"",""time""
""fullscreenenter"",""1"",""1280""
","
","
","""event"",""trial"",""time""
""fullscreenenter"",""1"",""1280""
","
","","","","","","1747","audio/shark.wav","4","","","","","","","","","","","","",""
"audio-button-response","5","90838","0.0-5.0","4506","2","19","Male","approach_avoid_spark_v1","""event"",""trial"",""time""
""fullscreenenter"",""1"",""1280""
","
","
","""event"",""trial"",""time""
""fullscreenenter"",""1"",""1280""
","
","","","","","","1411","audio/turtle.wav","1","","","","","","","","","","","","",""
"preload","6","116628","0.0-6.0","4506","2","19","Male","approach_avoid_spark_v1","""event"",""trial"",""time""
""fullscreenenter"",""1"",""1280""
","
","
","""event"",""trial"",""time""
""fullscreenenter"",""1"",""1280""
","
","true","false","[]","[]","[]","","","","","","","","","","","","","","","",""
"html-keyboard-response","7","117941","0.0-7.0","4506","2","19","Male","approach_avoid_spark_v1","""event"",""trial"",""time""
""fullscreenenter"",""1"",""1280""
","
","
","""event"",""trial"",""time""
""fullscreenenter"",""1"",""1280""
","
","","","","","","1311.699999988079","Welcome to the experiment. Press any key to begin and to advance the instructions."," ","","","","","","","","","","","","",""
"learning-instructions","8","125890","0.0-8.0-0.0-0.0","4506","2","19","Male","approach_avoid_spark_v1","""event"",""trial"",""time""
""fullscreenenter"",""1"",""1280""
","
","
","""event"",""trial"",""time""
""fullscreenenter"",""1"",""1280""
","
","","","","","","993.7999999821186","<p> Welcome! Today you are going to play 6 different rounds of a decision-making game. </p><p> Use the mouse to click next to continue. </p>","","0","instructions","","","","","","","","","","",""
"learning-instructions","9","128991","0.0-8.0-0.0-0.1","4506","2","19","Male","approach_avoid_spark_v1","""event"",""trial"",""time""
""fullscreenenter"",""1"",""1280""
","
","
","""event"",""trial"",""time""
""fullscreenenter"",""1"",""1280""
","
","","","","","","368.80000001192093","<p> You will start with a practice round to learn the rules. </p>","","0","instructions","","","","","","","","","","",""
"learning-instructions","10","132791","0.0-8.0-0.0-0.2","4506","2","19","Male","approach_avoid_spark_v1","""event"",""trial"",""time""
""fullscreenenter"",""1"",""1280""
","
","
","""event"",""trial"",""time""
""fullscreenenter"",""1"",""1280""
","
","","","","","","349.09999999403954","<p> Your goal in this round is to give out sports equipment to kids. </p></div>","","0","instructions","","","","","","","","","","",""
"learning-instructions","11","140840","0.0-8.0-0.0-0.3","4506","2","19","Male","approach_avoid_spark_v1","""event"",""trial"",""time""
""fullscreenenter"",""1"",""1280""
","
","
","""event"",""trial"",""time""
""fullscreenenter"",""1"",""1280""
","
","","","","","","497.90000000596046","<p> The kids only like some of the equipment.  </p><p> On each turn, you will see a piece of sports equipment.   </p><p> You need to decide whether to give it to the kids or not.  </p>","","0","instructions","","","","","","","","","","",""
"learning-instructions","12","146623","0.0-8.0-0.0-0.4","4506","2","19","Male","approach_avoid_spark_v1","""event"",""trial"",""time""
""fullscreenenter"",""1"",""1280""
","
","
","""event"",""trial"",""time""
""fullscreenenter"",""1"",""1280""
","
","","","","","","1026.7000000178814","<p> You can give them the equipment by pressing 1 and choose not to give it to them by pressing 0. </p><br><div class=""choice-instructions-grid""> <div class=""choice-option""><img src=""images/approach.png"" class=""choice-option-img"" stage=""instructions"" position=""0"" ><div class=""choice-option-text""> Press ""1."" </div></div><div class=""choice-option""><img src=""images/avoid.png"" class=""choice-option-img"" stage=""instructions"" position=""1"" ><div class=""choice-option-text""> Press ""0."" </div></div>","","0","instructions","","","","","","","","","","",""
"learning-instructions","13","154371","0.0-8.0-0.0-0.5","4506","2","19","Male","approach_avoid_spark_v1","""event"",""trial"",""time""
""fullscreenenter"",""1"",""1280""
","
","
","""event"",""trial"",""time""
""fullscreenenter"",""1"",""1280""
","
","","","","","","358.90000000596046","<p> If you give them a piece of equipment they like, they will be happy! </p><p> But if you give them a piece of equipment they do not like, they will be sad. </p>","","0","instructions","","","","","","","","","","",""
"learning-instructions","14","165323","0.0-8.0-0.0-0.6","4506","2","19","Male","approach_avoid_spark_v1","""event"",""trial"",""time""
""fullscreenenter"",""1"",""1280""
","
","
","""event"",""trial"",""time""
""fullscreenenter"",""1"",""1280""
","
","","","","","","449.40000000596046","<p> You will earn points based on how you make kids feel. </p><p> If you make them happy, you will WIN anywhere from 1 - 9 points, </p><p> but if you make them sad, you will LOSE anywhere from 1 - 9 points. </p>","","0","instructions","","","","","","","","","","",""
"learning-instructions","15","175259","0.0-8.0-0.0-0.7","4506","2","19","Male","approach_avoid_spark_v1","""event"",""trial"",""time""
""fullscreenenter"",""1"",""1280""
","
","
","""event"",""trial"",""time""
""fullscreenenter"",""1"",""1280""
","
","","","","","","382.19999998807907","<p> You will see how many points you won or lost in the center of the screen. </p><p> Here is what you would see if you won 6 points: </p><p style=""color:green;font-size:50px;font-weight:bolder"">6</p><p style=""color:green"">The text is GREEN because you WON points.</p>","","0","instructions","","","","","","","","","","",""
"learning-instructions","16","181159","0.0-8.0-0.0-0.8","4506","2","19","Male","approach_avoid_spark_v1","""event"",""trial"",""time""
""fullscreenenter"",""1"",""1280""
","
","
","""event"",""trial"",""time""
""fullscreenenter"",""1"",""1280""
","
","","","","","","396.19999998807907","<p> And here is what you would see if you lost 4 points: </p><p style=""color:red;font-size:50px;font-weight:bolder"">-4</p><p style=""color:red"">The text is RED because you LOST points. </p>","","0","instructions","","","","","","","","","","",""
"learning-instructions","17","196224","0.0-8.0-0.0-0.9","4506","2","19","Male","approach_avoid_spark_v1","""event"",""trial"",""time""
""fullscreenenter"",""1"",""1280""
","
","
","""event"",""trial"",""time""
""fullscreenenter"",""1"",""1280""
","
","","","","","","351.7000000178814","<p> Some of the equipment will make the kids VERY happy or sad. </p><p> These pieces of equipment will make you win or lose LOTS of points. </p><p> Other pieces of equipment will only make the kids a little happy or sad. </p><p> These pieces of equipment will make you win or lose small amounts of points. </p>","","0","instructions","","","","","","","","","","",""
"learning-instructions","18","207236","0.0-8.0-0.0-0.10","4506","2","19","Male","approach_avoid_spark_v1","""event"",""trial"",""time""
""fullscreenenter"",""1"",""1280""
","
","
","""event"",""trial"",""time""
""fullscreenenter"",""1"",""1280""
","
","","","","","","386.2999999821186","<p> If you choose not to give them the equipment, you will not win or lose any points. </p><p>  However, in the center of the screen, you will see the number of points you WOULD HAVE won or lost if you had given them the equipment. </p>","","0","instructions","","","","","","","","","","",""
"learning-instructions","19","229356","0.0-8.0-0.0-0.11","4506","2","19","Male","approach_avoid_spark_v1","""event"",""trial"",""time""
""fullscreenenter"",""1"",""1280""
","
","
","""event"",""trial"",""time""
""fullscreenenter"",""1"",""1280""
","
","","","","","","586.8000000119209","<p> Here is what you might see if you did not give the equipment to the kids but it would have made them happy: </p><p style=""color:grey; font-size:50px; display: inline-block; border-spacing: 15px; border-width:3px; border-style:solid; border-color:red"">  &nbsp; 7 &nbsp; </p><p> Remember, in this case, you would not win or lose ANY points because you did not give them the equipment.  </p><p style=""color:grey"">The text is GREY because you earned ZERO points. </p><p style=""color:red"">However, choosing to give the kids the equipment would have made you win points. The box around the text is RED because you chose the worse option. </p>","","0","instructions","","","","","","","","","","",""
"learning-instructions","20","250838","0.0-8.0-0.0-0.12","4506","2","19","Male","approach_avoid_spark_v1","""event"",""trial"",""time""
""fullscreenenter"",""1"",""1280""
","
","
","""event"",""trial"",""time""
""fullscreenenter"",""1"",""1280""
","
","","","","","","405.19999998807907","<p> Here is what you might see if you did not give the equipment to the kids but it would have made them sad: </p><p style=""color:grey;font-size:50px; display: inline-block; border-spacing: 15px; border-width:3px; border-style:solid; border-color:green"">  &nbsp; -8 &nbsp; </p><p> Remember, in this case, you would not win or lose ANY points because you did not give them the equipment.  </p><p style=""color:grey"">The text is GREY because you earned ZERO points. </p><p  style=""color:green""> Choosing to give the kids the equipment would have made you lose points. The box around the text is GREEN because you chose the better option.</p>","","0","instructions","","","","","","","","","","",""
"learning-instructions","21","260723","0.0-8.0-0.0-0.13","4506","2","19","Male","approach_avoid_spark_v1","""event"",""trial"",""time""
""fullscreenenter"",""1"",""1280""
","
","
","""event"",""trial"",""time""
""fullscreenenter"",""1"",""1280""
","
","","","","","","444.80000001192093","<p> You will have 3 seconds to make each choice. Try to respond before time runs out! </p><p> You will lose 5 points each time you do not make a response. </p>","","0","instructions","","","","","","","","","","",""
"learning-instructions","22","266558","0.0-8.0-0.0-0.14","4506","2","19","Male","approach_avoid_spark_v1","""event"",""trial"",""time""
""fullscreenenter"",""1"",""1280""
","
","
","""event"",""trial"",""time""
""fullscreenenter"",""1"",""1280""
","
","","","","","","421.80000001192093","<p> This is just a practice round, but in the real game, your bonus payment will depend on your total number of points.","","0","instructions","","","","","","","","","","",""
"learning-instructions","23","272718","0.0-8.0-0.0-0.15","4506","2","19","Male","approach_avoid_spark_v1","""event"",""trial"",""time""
""fullscreenenter"",""1"",""1280""
","
","
","""event"",""trial"",""time""
""fullscreenenter"",""1"",""1280""
","
","","","","","","399.60000002384186","<p> Remember, you can give them the equipment by pressing 1 and choose not to give it to them by pressing 0. </p><br><div class=""choice-instructions-grid""> <div class=""choice-option""><img src=""images/approach.png"" class=""choice-option-img"" stage=""instructions"" position=""0"" ><div class=""choice-option-text""> Press ""1."" </div></div><div class=""choice-option""><img src=""images/avoid.png"" class=""choice-option-img"" stage=""instructions"" position=""1"" ><div class=""choice-option-text""> Press ""0."" </div></div>","","0","instructions","","","","","","","","","","",""
"html-button-response","24","274258","0.0-8.0-1.0","4506","2","19","Male","approach_avoid_spark_v1","""event"",""trial"",""time""
""fullscreenenter"",""1"",""1280""
","
","
","""event"",""trial"",""time""
""fullscreenenter"",""1"",""1280""
","
","","","","","","1432.7999999821186","<p> Ready to practice? </p>","0","","","","","","","","","","","","",""
"html-keyboard-response","25","274863","0.0-8.0-2.0-0.0","4506","2","19","Male","approach_avoid_spark_v1","""event"",""trial"",""time""
""fullscreenenter"",""1"",""1280""
","
","
","""event"",""trial"",""time""
""fullscreenenter"",""1"",""1280""
","
","","","","","","null","<div style=""font-size:60px;"">+</div>","null","","fixation","","","","","","","","","","",""
"aa-learning-trial","26","277874","0.0-8.0-2.0-1.0","4506","2","19","Male","approach_avoid_spark_v1","""event"",""trial"",""time""
""fullscreenenter"",""1"",""1280""
","
","
","""event"",""trial"",""time""
""fullscreenenter"",""1"",""1280""
","
","","","","","","1357","images/racket1.png","","","learning","5","5","1","1","practice","practice","practice","-1","","",""
"html-keyboard-response","27","278383","0.0-8.0-2.0-0.1","4506","2","19","Male","approach_avoid_spark_v1","""event"",""trial"",""time""
""fullscreenenter"",""1"",""1280""
","
","
","""event"",""trial"",""time""
""fullscreenenter"",""1"",""1280""
","
","","","","","","null","<div style=""font-size:60px;"">+</div>","null","","fixation","","","","","","","","","","",""
"aa-learning-trial","28","281387","0.0-8.0-2.0-1.1","4506","2","19","Male","approach_avoid_spark_v1","""event"",""trial"",""time""
""fullscreenenter"",""1"",""1280""
","
","
","""event"",""trial"",""time""
""fullscreenenter"",""1"",""1280""
","
","","","","","","1456.800000011921","images/ball1.png","","","learning","-3","-3","1","1","practice","practice","practice","-1","","",""
"html-keyboard-response","29","281895","0.0-8.0-2.0-0.2","4506","2","19","Male","approach_avoid_spark_v1","""event"",""trial"",""time""
""fullscreenenter"",""1"",""1280""
","
","
","""event"",""trial"",""time""
""fullscreenenter"",""1"",""1280""
","
","","","","","","null","<div style=""font-size:60px;"">+</div>","null","","fixation","","","","","","","","","","",""
"aa-learning-trial","30","284904","0.0-8.0-2.0-1.2","4506","2","19","Male","approach_avoid_spark_v1","""event"",""trial"",""time""
""fullscreenenter"",""1"",""1280""
","
","
","""event"",""trial"",""time""
""fullscreenenter"",""1"",""1280""
","
","","","","","","2359.0999999940395","images/racket4.png","","","learning","-4","-4","1","1","practice","practice","practice","-1","","",""
"html-keyboard-response","31","285418","0.0-8.0-2.0-0.3","4506","2","19","Male","approach_avoid_spark_v1","""event"",""trial"",""time""
""fullscreenenter"",""1"",""1280""
","
","
","""event"",""trial"",""time""
""fullscreenenter"",""1"",""1280""
","
","","","","","","null","<div style=""font-size:60px;"">+</div>","null","","fixation","","","","","","","","","","",""
"aa-learning-trial","32","288423","0.0-8.0-2.0-1.3","4506","2","19","Male","approach_avoid_spark_v1","""event"",""trial"",""time""
""fullscreenenter"",""1"",""1280""
","
","
","""event"",""trial"",""time""
""fullscreenenter"",""1"",""1280""
","
","","","","","","975.9000000059605","images/racket2.png","","","learning","5","5","1","1","practice","practice","practice","-1","","",""
"html-keyboard-response","33","288927","0.0-8.0-2.0-0.4","4506","2","19","Male","approach_avoid_spark_v1","""event"",""trial"",""time""
""fullscreenenter"",""1"",""1280""
","
","
","""event"",""trial"",""time""
""fullscreenenter"",""1"",""1280""
","
","","","","","","null","<div style=""font-size:60px;"">+</div>","null","","fixation","","","","","","","","","","",""
"aa-learning-trial","34","291934","0.0-8.0-2.0-1.4","4506","2","19","Male","approach_avoid_spark_v1","""event"",""trial"",""time""
""fullscreenenter"",""1"",""1280""
","
","
","""event"",""trial"",""time""
""fullscreenenter"",""1"",""1280""
","
","","","","","","568.3000000119209","images/racket2.png","","","learning","1","1","1","1","practice","practice","practice","-1","","",""
"html-keyboard-response","35","292439","0.0-8.0-2.0-0.5","4506","2","19","Male","approach_avoid_spark_v1","""event"",""trial"",""time""
""fullscreenenter"",""1"",""1280""
","
","
","""event"",""trial"",""time""
""fullscreenenter"",""1"",""1280""
","
","","","","","","null","<div style=""font-size:60px;"">+</div>","null","","fixation","","","","","","","","","","",""
"aa-learning-trial","36","295447","0.0-8.0-2.0-1.5","4506","2","19","Male","approach_avoid_spark_v1","""event"",""trial"",""time""
""fullscreenenter"",""1"",""1280""
","
","
","""event"",""trial"",""time""
""fullscreenenter"",""1"",""1280""
","
","","","","","","539.4000000059605","images/ball3.png","","","learning","2","0","0","0","practice","practice","practice","-1","","",""
"html-keyboard-response","37","295951","0.0-8.0-2.0-0.6","4506","2","19","Male","approach_avoid_spark_v1","""event"",""trial"",""time""
""fullscreenenter"",""1"",""1280""
","
","
","""event"",""trial"",""time""
""fullscreenenter"",""1"",""1280""
","
","","","","","","null","<div style=""font-size:60px;"">+</div>","null","","fixation","","","","","","","","","","",""
"aa-learning-trial","38","298959","0.0-8.0-2.0-1.6","4506","2","19","Male","approach_avoid_spark_v1","""event"",""trial"",""time""
""fullscreenenter"",""1"",""1280""
","
","
","""event"",""trial"",""time""
""fullscreenenter"",""1"",""1280""
","
","","","","","","920.6999999880791","images/racket2.png","","","learning","-2","-2","1","1","practice","practice","practice","-1","","",""
"html-keyboard-response","39","299463","0.0-8.0-2.0-0.7","4506","2","19","Male","approach_avoid_spark_v1","""event"",""trial"",""time""
""fullscreenenter"",""1"",""1280""
","
","
","""event"",""trial"",""time""
""fullscreenenter"",""1"",""1280""
","
","","","","","","null","<div style=""font-size:60px;"">+</div>","null","","fixation","","","","","","","","","","",""
"aa-learning-trial","40","302470","0.0-8.0-2.0-1.7","4506","2","19","Male","approach_avoid_spark_v1","""event"",""trial"",""time""
""fullscreenenter"",""1"",""1280""
","
","
","""event"",""trial"",""time""
""fullscreenenter"",""1"",""1280""
","
","","","","","","955.0999999940395","images/racket4.png","","","learning","4","0","0","0","practice","practice","practice","-1","","",""
"html-keyboard-response","41","302974","0.0-8.0-2.0-0.8","4506","2","19","Male","approach_avoid_spark_v1","""event"",""trial"",""time""
""fullscreenenter"",""1"",""1280""
","
","
","""event"",""trial"",""time""
""fullscreenenter"",""1"",""1280""
","
","","","","","","null","<div style=""font-size:60px;"">+</div>","null","","fixation","","","","","","","","","","",""
"aa-learning-trial","42","305982","0.0-8.0-2.0-1.8","4506","2","19","Male","approach_avoid_spark_v1","""event"",""trial"",""time""
""fullscreenenter"",""1"",""1280""
","
","
","""event"",""trial"",""time""
""fullscreenenter"",""1"",""1280""
","
","","","","","","834.8000000119209","images/ball4.png","","","learning","7","0","0","0","practice","practice","practice","-1","","",""
"html-keyboard-response","43","306487","0.0-8.0-2.0-0.9","4506","2","19","Male","approach_avoid_spark_v1","""event"",""trial"",""time""
""fullscreenenter"",""1"",""1280""
","
","
","""event"",""trial"",""time""
""fullscreenenter"",""1"",""1280""
","
","","","","","","null","<div style=""font-size:60px;"">+</div>","null","","fixation","","","","","","","","","","",""
"aa-learning-trial","44","309494","0.0-8.0-2.0-1.9","4506","2","19","Male","approach_avoid_spark_v1","""event"",""trial"",""time""
""fullscreenenter"",""1"",""1280""
","
","
","""event"",""trial"",""time""
""fullscreenenter"",""1"",""1280""
","
","","","","","","431.40000000596046","images/ball2.png","","","learning","4","4","1","1","practice","practice","practice","-1","","",""
"html-keyboard-response","45","309998","0.0-8.0-2.0-0.10","4506","2","19","Male","approach_avoid_spark_v1","""event"",""trial"",""time""
""fullscreenenter"",""1"",""1280""
","
","
","""event"",""trial"",""time""
""fullscreenenter"",""1"",""1280""
","
","","","","","","null","<div style=""font-size:60px;"">+</div>","null","","fixation","","","","","","","","","","",""
"aa-learning-trial","46","313006","0.0-8.0-2.0-1.10","4506","2","19","Male","approach_avoid_spark_v1","""event"",""trial"",""time""
""fullscreenenter"",""1"",""1280""
","
","
","""event"",""trial"",""time""
""fullscreenenter"",""1"",""1280""
","
","","","","","","411.90000000596046","images/ball2.png","","","learning","2","2","1","1","practice","practice","practice","-1","","",""
"html-keyboard-response","47","313510","0.0-8.0-2.0-0.11","4506","2","19","Male","approach_avoid_spark_v1","""event"",""trial"",""time""
""fullscreenenter"",""1"",""1280""
","
","
","""event"",""trial"",""time""
""fullscreenenter"",""1"",""1280""
","
","","","","","","null","<div style=""font-size:60px;"">+</div>","null","","fixation","","","","","","","","","","",""
"aa-learning-trial","48","316517","0.0-8.0-2.0-1.11","4506","2","19","Male","approach_avoid_spark_v1","""event"",""trial"",""time""
""fullscreenenter"",""1"",""1280""
","
","
","""event"",""trial"",""time""
""fullscreenenter"",""1"",""1280""
","
","","","","","","1083.9000000059605","images/racket1.png","","","learning","-8","-8","1","1","practice","practice","practice","-1","","",""
"html-button-response","49","318589","0.0-8.0-3.0","4506","2","19","Male","approach_avoid_spark_v1","""event"",""trial"",""time""
""fullscreenenter"",""1"",""1280""
","
","
","""event"",""trial"",""time""
""fullscreenenter"",""1"",""1280""
","
","","","","","","2068.5999999940395","<p> You earned 0 points in the practice round! </p>","0","","break","","","","","","","","","","",""
"learning-instructions","50","325691","0.0-8.0-4.0-0.0","4506","2","19","Male","approach_avoid_spark_v1","""event"",""trial"",""time""
""fullscreenenter"",""1"",""1280""
","
","
","""event"",""trial"",""time""
""fullscreenenter"",""1"",""1280""
","
","","","","","","1116.5","<p> It's almost time to start the real game. </p><p> Before you start, we're going to ask you a few questions about how the game works. </p>","","0","instructions","","","","","","","","","","",""
"preload","51","334209","0.0-8.0-5.0","4506","2","19","Male","approach_avoid_spark_v1","""event"",""trial"",""time""
""fullscreenenter"",""1"",""1280""
","
","
","""event"",""trial"",""time""
""fullscreenenter"",""1"",""1280""
","
","true","false","[]","[]","[]","","","","","","","","","","","","","","","",""
"comp-q","52","339991","0.0-8.0-6.0-0.0","4506","2","19","Male","approach_avoid_spark_v1","""event"",""trial"",""time""
""fullscreenenter"",""1"",""1280""
","
","
","""event"",""trial"",""time""
""fullscreenenter"",""1"",""1280""
","
","","","","","","788","<p> <b> True or False? </b> </p><p> If you see a number in GREY, that means you earned that many points. </p>","","1","comp_question","","","","","","","","","true","",""
"comp-q","53","349240","0.0-8.0-6.0-1.0","4506","2","19","Male","approach_avoid_spark_v1","""event"",""trial"",""time""
""fullscreenenter"",""1"",""1280""
","
","
","""event"",""trial"",""time""
""fullscreenenter"",""1"",""1280""
","
","","","","","","894.3000000119209","<p><b> That's right! </b> If you see a grey number, it means you earned ZERO points. <br> The grey numbers show the points you WOULD HAVE earned if you had made the other choice. </p>","","0","comp_answer","","","","","","","","","","",""
"comp-q","54","354591","0.0-8.0-7.0-0.0","4506","2","19","Male","approach_avoid_spark_v1","""event"",""trial"",""time""
""fullscreenenter"",""1"",""1280""
","
","
","""event"",""trial"",""time""
""fullscreenenter"",""1"",""1280""
","
","","","","","","661.1999999880791","<p> <b> True or False? </b> </p><p> You will have as much time as you want to make each choice. </p>","","1","comp_question","","","","","","","","","true","",""
"comp-q","55","359825","0.0-8.0-7.0-1.0","4506","2","19","Male","approach_avoid_spark_v1","""event"",""trial"",""time""
""fullscreenenter"",""1"",""1280""
","
","
","""event"",""trial"",""time""
""fullscreenenter"",""1"",""1280""
","
","","","","","","1198.5999999940395","<p> <b> That's right! </b> You will only have 3 seconds to make each choice. </p>","","0","comp_answer","","","","","","","","","","",""
"comp-q","56","365140","0.0-8.0-8.0-0.0","4506","2","19","Male","approach_avoid_spark_v1","""event"",""trial"",""time""
""fullscreenenter"",""1"",""1280""
","
","
","""event"",""trial"",""time""
""fullscreenenter"",""1"",""1280""
","
","","","","","","651.4000000059605","<p> <b> True or False? </b> </p><p> You should use the '1' and '0' keys to make your choices. </p>","","0","comp_question","","","","","","","","","true","",""
"comp-q","57","371021","0.0-8.0-8.0-1.0","4506","2","19","Male","approach_avoid_spark_v1","""event"",""trial"",""time""
""fullscreenenter"",""1"",""1280""
","
","
","""event"",""trial"",""time""
""fullscreenenter"",""1"",""1280""
","
","","","","","","1272.5999999940395","<p> <b> That's right! </b> You should use the '1' and '0' keys to make each choice. </p>","","0","comp_answer","","","","","","","","","","",""
"learning-instructions","58","378557","0.0-8.0-9.0-0.0","4506","2","19","Male","approach_avoid_spark_v1","""event"",""trial"",""time""
""fullscreenenter"",""1"",""1280""
","
","
","""event"",""trial"",""time""
""fullscreenenter"",""1"",""1280""
","
","","","","","","1268","<p> It's now time to start the real game. </p>Do your best, because the points you earn in the next rounds will influence your bonus payment. </p>","","0","instructions","","","","","","","","","","",""
"preload","59","378676","0.0-9.0-0.0","4506","2","19","Male","approach_avoid_spark_v1","""event"",""trial"",""time""
""fullscreenenter"",""1"",""1280""
","
","
","""event"",""trial"",""time""
""fullscreenenter"",""1"",""1280""
","
","true","false","[]","[]","[]","","","","","","","","","","","","","","","",""
"learning-instructions","60","383622","0.0-9.0-1.0-0.0","4506","2","19","Male","approach_avoid_spark_v1","""event"",""trial"",""time""
""fullscreenenter"",""1"",""1280""
","
","
","""event"",""trial"",""time""
""fullscreenenter"",""1"",""1280""
","
","","","","","","533.7000000178814","<p> Your goal in this round is to take care of lots of animals. </p></div>","","0","instructions","","","","","","","","","","",""
"learning-instructions","61","394290","0.0-9.0-1.0-0.1","4506","2","19","Male","approach_avoid_spark_v1","""event"",""trial"",""time""
""fullscreenenter"",""1"",""1280""
","
","
","""event"",""trial"",""time""
""fullscreenenter"",""1"",""1280""
","
","","","","","","375.90000000596046","<p> Some animals want to be pet, while other animals want to be left alone.  </p><p> On each turn, you will see an animal.   </p><p> You need to decide whether to pet it or not.  </p>","","0","instructions","","","","","","","","","","",""
"learning-instructions","62","400273","0.0-9.0-1.0-0.2","4506","2","19","Male","approach_avoid_spark_v1","""event"",""trial"",""time""
""fullscreenenter"",""1"",""1280""
","
","
","""event"",""trial"",""time""
""fullscreenenter"",""1"",""1280""
","
","","","","","","366.80000001192093","<p> You can pet the animal by pressing 1 and leave the animal alone by pressing 0. </p><br><div class=""choice-instructions-grid""> <div class=""choice-option""><img src=""images/approach.png"" class=""choice-option-img"" stage=""instructions"" position=""0"" ><div class=""choice-option-text""> Press ""1."" </div></div><div class=""choice-option""><img src=""images/avoid.png"" class=""choice-option-img"" stage=""instructions"" position=""1"" ><div class=""choice-option-text""> Press ""0."" </div></div>","","0","instructions","","","","","","","","","","",""
"learning-instructions","63","409907","0.0-9.0-1.0-0.3","4506","2","19","Male","approach_avoid_spark_v1","""event"",""trial"",""time""
""fullscreenenter"",""1"",""1280""
","
","
","""event"",""trial"",""time""
""fullscreenenter"",""1"",""1280""
","
","","","","","","370.90000000596046","<p> If you pet an animal that wants to be pet, you will make it feel happy! </p><p> But if you pet an animal that wants to be left alone, you will make it feel angry. </p>","","0","instructions","","","","","","","","","","",""
"learning-instructions","64","423389","0.0-9.0-1.0-0.4","4506","2","19","Male","approach_avoid_spark_v1","""event"",""trial"",""time""
""fullscreenenter"",""1"",""1280""
","
","
","""event"",""trial"",""time""
""fullscreenenter"",""1"",""1280""
","
","","","","","","310.7000000178814","<p> You will earn points based on how you made the animal feel. </p><p> If you made it feel happy, you will WIN anywhere from 1 - 9 points, </p><p> but if you made it feel angry, you will LOSE anywhere from 1 - 9 points. </p>","","0","instructions","","","","","","","","","","",""
"learning-instructions","65","431807","0.0-9.0-1.0-0.5","4506","2","19","Male","approach_avoid_spark_v1","""event"",""trial"",""time""
""fullscreenenter"",""1"",""1280""
","
","
","""event"",""trial"",""time""
""fullscreenenter"",""1"",""1280""
","
","","","","","","352.19999998807907","<p> You will see how many points you won or lost in the center of the screen. </p><p> Here is what you would see if you won 5 points: </p><p style=""color:green;font-size:50px;font-weight:bolder"">5</p>","","0","instructions","","","","","","","","","","",""
"learning-instructions","66","435870","0.0-9.0-1.0-0.6","4506","2","19","Male","approach_avoid_spark_v1","""event"",""trial"",""time""
""fullscreenenter"",""1"",""1280""
","
","
","""event"",""trial"",""time""
""fullscreenenter"",""1"",""1280""
","
","","","","","","462","<p> And here is what you would see if you lost 3 points: </p><p style=""color:red;font-size:50px;font-weight:bolder"">-3</p>","","0","instructions","","","","","","","","","","",""
"learning-instructions","67","451041","0.0-9.0-1.0-0.7","4506","2","19","Male","approach_avoid_spark_v1","""event"",""trial"",""time""
""fullscreenenter"",""1"",""1280""
","
","
","""event"",""trial"",""time""
""fullscreenenter"",""1"",""1280""
","
","","","","","","359.19999998807907","<p> Some animals will become very happy or very angry. </p><p> These animals will make you win or lose LOTS of points. </p><p> Other animals have less strong feelings. </p><p> These animals will make you win or lose small amounts of points. </p>","","0","instructions","","","","","","","","","","",""
"learning-instructions","68","463251","0.0-9.0-1.0-0.8","4506","2","19","Male","approach_avoid_spark_v1","""event"",""trial"",""time""
""fullscreenenter"",""1"",""1280""
","
","
","""event"",""trial"",""time""
""fullscreenenter"",""1"",""1280""
","
","","","","","","379.7000000178814","<p> If you choose to leave the animal alone, you will not win or lose any points. </p><p>  However, in the center of the screen, you will see the number of points you WOULD HAVE won or lost if you had pet the animal. </p>","","0","instructions","","","","","","","","","","",""
"learning-instructions","69","477172","0.0-9.0-1.0-0.9","4506","2","19","Male","approach_avoid_spark_v1","""event"",""trial"",""time""
""fullscreenenter"",""1"",""1280""
","
","
","""event"",""trial"",""time""
""fullscreenenter"",""1"",""1280""
","
","","","","","","1419","<p> Here is what you might see if you did not pet the animal but the animal wanted to be pet: </p><p style=""color:grey; font-size:50px; display: inline-block; border-spacing: 15px; border-width:3px; border-style:solid; border-color:red"">  &nbsp; 6 &nbsp; </p><p> Remember, in this case, you would not win or lose ANY points because you did not pet the animal.  </p>","","0","instructions","","","","","","","","","","",""
"learning-instructions","70","485241","0.0-9.0-1.0-0.10","4506","2","19","Male","approach_avoid_spark_v1","""event"",""trial"",""time""
""fullscreenenter"",""1"",""1280""
","
","
","""event"",""trial"",""time""
""fullscreenenter"",""1"",""1280""
","
","","","","","","699","<p> Try to make the best choice for each animal because </p><p> at the end of the game, you will earn bonus money based on how many points you earned. </p>","","0","instructions","","","","","","","","","","",""
"learning-instructions","71","493656","0.0-9.0-1.0-0.11","4506","2","19","Male","approach_avoid_spark_v1","""event"",""trial"",""time""
""fullscreenenter"",""1"",""1280""
","
","
","""event"",""trial"",""time""
""fullscreenenter"",""1"",""1280""
","
","","","","","","226.7999999821186","<p> You will have 3 seconds to make each choice. Try to respond before time runs out! </p><p> You will lose 5 points each time you do not make a response. </p>","","0","instructions","","","","","","","","","","",""
"html-keyboard-response","72","494269","0.0-9.0-2.0-0.0","4506","2","19","Male","approach_avoid_spark_v1","""event"",""trial"",""time""
""fullscreenenter"",""1"",""1280""
","
","
","""event"",""trial"",""time""
""fullscreenenter"",""1"",""1280""
","
","","","","","","null","<div style=""font-size:60px;"">+</div>","null","","fixation","","","","","","","","","","",""
"aa-learning-trial","73","497284","0.0-9.0-2.0-1.0","4506","2","19","Male","approach_avoid_spark_v1","""event"",""trial"",""time""
""fullscreenenter"",""1"",""1280""
","
","
","""event"",""trial"",""time""
""fullscreenenter"",""1"",""1280""
","
","","","","","","1885.5","images/rodent8.png","","","learning","5","5","1","1","rodent","pets","2","0","","neutral","0"
"html-keyboard-response","74","497793","0.0-9.0-2.0-0.1","4506","2","19","Male","approach_avoid_spark_v1","""event"",""trial"",""time""
""fullscreenenter"",""1"",""1280""
","
","
","""event"",""trial"",""time""
""fullscreenenter"",""1"",""1280""
","
","","","","","","null","<div style=""font-size:60px;"">+</div>","null","","fixation","","","","","","","","","","",""
"aa-learning-trial","75","500801","0.0-9.0-2.0-1.1","4506","2","19","Male","approach_avoid_spark_v1","""event"",""trial"",""time""
""fullscreenenter"",""1"",""1280""
","
","
","""event"",""trial"",""time""
""fullscreenenter"",""1"",""1280""
","
","","","","","","868","images/rodent4.png","","","learning","-2","0","0","0","rodent","pets","2","0","","neutral","0"
"html-keyboard-response","76","501305","0.0-9.0-2.0-0.2","4506","2","19","Male","approach_avoid_spark_v1","""event"",""trial"",""time""
""fullscreenenter"",""1"",""1280""
","
","
","""event"",""trial"",""time""
""fullscreenenter"",""1"",""1280""
","
","","","","","","null","<div style=""font-size:60px;"">+</div>","null","","fixation","","","","","","","","","","",""
"aa-learning-trial","77","504314","0.0-9.0-2.0-1.2","4506","2","19","Male","approach_avoid_spark_v1","""event"",""trial"",""time""
""fullscreenenter"",""1"",""1280""
","
","
","""event"",""trial"",""time""
""fullscreenenter"",""1"",""1280""
","
","","","","","","728.2000000178814","images/dog6.png","","","learning","3","3","1","1","dog","pets","2","0","","good","[5]"
"html-keyboard-response","78","504821","0.0-9.0-2.0-0.3","4506","2","19","Male","approach_avoid_spark_v1","""event"",""trial"",""time""
""fullscreenenter"",""1"",""1280""
","
","
","""event"",""trial"",""time""
""fullscreenenter"",""1"",""1280""
","
","","","","","","null","<div style=""font-size:60px;"">+</div>","null","","fixation","","","","","","","","","","",""
"aa-learning-trial","79","507833","0.0-9.0-2.0-1.3","4506","2","19","Male","approach_avoid_spark_v1","""event"",""trial"",""time""
""fullscreenenter"",""1"",""1280""
","
","
","""event"",""trial"",""time""
""fullscreenenter"",""1"",""1280""
","
","","","","","","1733.2000000178814","images/rabbit8.png","","","learning","2","0","0","0","rabbit","pets","2","0","","bad","[-5]"
"html-keyboard-response","80","508337","0.0-9.0-2.0-0.4","4506","2","19","Male","approach_avoid_spark_v1","""event"",""trial"",""time""
""fullscreenenter"",""1"",""1280""
","
","
","""event"",""trial"",""time""
""fullscreenenter"",""1"",""1280""
","
","","","","","","null","<div style=""font-size:60px;"">+</div>","null","","fixation","","","","","","","","","","",""
"aa-learning-trial","81","511346","0.0-9.0-2.0-1.4","4506","2","19","Male","approach_avoid_spark_v1","""event"",""trial"",""time""
""fullscreenenter"",""1"",""1280""
","
","
","""event"",""trial"",""time""
""fullscreenenter"",""1"",""1280""
","
","","","","","","465.40000000596046","images/dog6.png","","","learning","3","3","1","1","dog","pets","2","0","","good","[5]"
"html-keyboard-response","82","511850","0.0-9.0-2.0-0.5","4506","2","19","Male","approach_avoid_spark_v1","""event"",""trial"",""time""
""fullscreenenter"",""1"",""1280""
","
","
","""event"",""trial"",""time""
""fullscreenenter"",""1"",""1280""
","
","","","","","","null","<div style=""font-size:60px;"">+</div>","null","","fixation","","","","","","","","","","",""
"aa-learning-trial","83","514857","0.0-9.0-2.0-1.5","4506","2","19","Male","approach_avoid_spark_v1","""event"",""trial"",""time""
""fullscreenenter"",""1"",""1280""
","
","
","""event"",""trial"",""time""
""fullscreenenter"",""1"",""1280""
","
","","","","","","1348.9000000059605","images/rodent5.png","","","learning","-8","0","0","0","rodent","pets","2","0","","neutral","0"
"html-keyboard-response","84","515362","0.0-9.0-2.0-0.6","4506","2","19","Male","approach_avoid_spark_v1","""event"",""trial"",""time""
""fullscreenenter"",""1"",""1280""
","
","
","""event"",""trial"",""time""
""fullscreenenter"",""1"",""1280""
","
","","","","","","null","<div style=""font-size:60px;"">+</div>","null","","fixation","","","","","","","","","","",""
"aa-learning-trial","85","518371","0.0-9.0-2.0-1.6","4506","2","19","Male","approach_avoid_spark_v1","""event"",""trial"",""time""
""fullscreenenter"",""1"",""1280""
","
","
","""event"",""trial"",""time""
""fullscreenenter"",""1"",""1280""
","
","","","","","","1413.800000011921","images/rabbit7.png","","","learning","8","8","1","1","rabbit","pets","2","0","","bad","[-5]"
"html-keyboard-response","86","518880","0.0-9.0-2.0-0.7","4506","2","19","Male","approach_avoid_spark_v1","""event"",""trial"",""time""
""fullscreenenter"",""1"",""1280""
","
","
","""event"",""trial"",""time""
""fullscreenenter"",""1"",""1280""
","
","","","","","","null","<div style=""font-size:60px;"">+</div>","null","","fixation","","","","","","","","","","",""
"aa-learning-trial","87","521889","0.0-9.0-2.0-1.7","4506","2","19","Male","approach_avoid_spark_v1","""event"",""trial"",""time""
""fullscreenenter"",""1"",""1280""
","
","
","""event"",""trial"",""time""
""fullscreenenter"",""1"",""1280""
","
","","","","","","893.4000000059605","images/rodent4.png","","","learning","-2","0","0","0","rodent","pets","2","0","","neutral","0"
"html-keyboard-response","88","522393","0.0-9.0-2.0-0.8","4506","2","19","Male","approach_avoid_spark_v1","""event"",""trial"",""time""
""fullscreenenter"",""1"",""1280""
","
","
","""event"",""trial"",""time""
""fullscreenenter"",""1"",""1280""
","
","","","","","","null","<div style=""font-size:60px;"">+</div>","null","","fixation","","","","","","","","","","",""
"aa-learning-trial","89","525401","0.0-9.0-2.0-1.8","4506","2","19","Male","approach_avoid_spark_v1","""event"",""trial"",""time""
""fullscreenenter"",""1"",""1280""
","
","
","""event"",""trial"",""time""
""fullscreenenter"",""1"",""1280""
","
","","","","","","900.8000000119209","images/rabbit2.png","","","learning","-9","0","0","0","rabbit","pets","2","0","","bad","[-5]"
"html-keyboard-response","90","525904","0.0-9.0-2.0-0.9","4506","2","19","Male","approach_avoid_spark_v1","""event"",""trial"",""time""
""fullscreenenter"",""1"",""1280""
","
","
","""event"",""trial"",""time""
""fullscreenenter"",""1"",""1280""
","
","","","","","","null","<div style=""font-size:60px;"">+</div>","null","","fixation","","","","","","","","","","",""
"aa-learning-trial","91","528912","0.0-9.0-2.0-1.9","4506","2","19","Male","approach_avoid_spark_v1","""event"",""trial"",""time""
""fullscreenenter"",""1"",""1280""
","
","
","""event"",""trial"",""time""
""fullscreenenter"",""1"",""1280""
","
","","","","","","816.6000000238419","images/dog3.png","","","learning","-1","-1","1","1","dog","pets","2","0","","good","[5]"
"html-keyboard-response","92","529419","0.0-9.0-2.0-0.10","4506","2","19","Male","approach_avoid_spark_v1","""event"",""trial"",""time""
""fullscreenenter"",""1"",""1280""
","
","
","""event"",""trial"",""time""
""fullscreenenter"",""1"",""1280""
","
","","","","","","null","<div style=""font-size:60px;"">+</div>","null","","fixation","","","","","","","","","","",""
"aa-learning-trial","93","532425","0.0-9.0-2.0-1.10","4506","2","19","Male","approach_avoid_spark_v1","""event"",""trial"",""time""
""fullscreenenter"",""1"",""1280""
","
","
","""event"",""trial"",""time""
""fullscreenenter"",""1"",""1280""
","
","","","","","","1046.4000000059605","images/rodent8.png","","","learning","5","0","0","0","rodent","pets","2","0","","neutral","0"
"html-keyboard-response","94","532928","0.0-9.0-2.0-0.11","4506","2","19","Male","approach_avoid_spark_v1","""event"",""trial"",""time""
""fullscreenenter"",""1"",""1280""
","
","
","""event"",""trial"",""time""
""fullscreenenter"",""1"",""1280""
","
","","","","","","null","<div style=""font-size:60px;"">+</div>","null","","fixation","","","","","","","","","","",""
"aa-learning-trial","95","535936","0.0-9.0-2.0-1.11","4506","2","19","Male","approach_avoid_spark_v1","""event"",""trial"",""time""
""fullscreenenter"",""1"",""1280""
","
","
","""event"",""trial"",""time""
""fullscreenenter"",""1"",""1280""
","
","","","","","","747.8000000119209","images/dog4.png","","","learning","-7","0","0","0","dog","pets","2","0","","good","[5]"
"html-keyboard-response","96","536440","0.0-9.0-2.0-0.12","4506","2","19","Male","approach_avoid_spark_v1","""event"",""trial"",""time""
""fullscreenenter"",""1"",""1280""
","
","
","""event"",""trial"",""time""
""fullscreenenter"",""1"",""1280""
","
","","","","","","null","<div style=""font-size:60px;"">+</div>","null","","fixation","","","","","","","","","","",""
"aa-learning-trial","97","539448","0.0-9.0-2.0-1.12","4506","2","19","Male","approach_avoid_spark_v1","""event"",""trial"",""time""
""fullscreenenter"",""1"",""1280""
","
","
","""event"",""trial"",""time""
""fullscreenenter"",""1"",""1280""
","
","","","","","","689.6000000238419","images/rabbit7.png","","","learning","8","8","1","1","rabbit","pets","2","0","","bad","[-5]"
"html-keyboard-response","98","539952","0.0-9.0-2.0-0.13","4506","2","19","Male","approach_avoid_spark_v1","""event"",""trial"",""time""
""fullscreenenter"",""1"",""1280""
","
","
","""event"",""trial"",""time""
""fullscreenenter"",""1"",""1280""
","
","","","","","","null","<div style=""font-size:60px;"">+</div>","null","","fixation","","","","","","","","","","",""
"aa-learning-trial","99","542961","0.0-9.0-2.0-1.13","4506","2","19","Male","approach_avoid_spark_v1","""event"",""trial"",""time""
""fullscreenenter"",""1"",""1280""
","
","
","""event"",""trial"",""time""
""fullscreenenter"",""1"",""1280""
","
","","","","","","1072.0999999940395","images/rabbit2.png","","","learning","-9","0","0","0","rabbit","pets","2","0","","bad","[-5]"
"html-keyboard-response","100","543464","0.0-9.0-2.0-0.14","4506","2","19","Male","approach_avoid_spark_v1","""event"",""trial"",""time""
""fullscreenenter"",""1"",""1280""
","
","
","""event"",""trial"",""time""
""fullscreenenter"",""1"",""1280""
","
","","","","","","null","<div style=""font-size:60px;"">+</div>","null","","fixation","","","","","","","","","","",""
"aa-learning-trial","101","546472","0.0-9.0-2.0-1.14","4506","2","19","Male","approach_avoid_spark_v1","""event"",""trial"",""time""
""fullscreenenter"",""1"",""1280""
","
","
","""event"",""trial"",""time""
""fullscreenenter"",""1"",""1280""
","
","","","","","","697.7000000178814","images/dog4.png","","","learning","-7","0","0","0","dog","pets","2","0","","good","[5]"
"html-keyboard-response","102","546976","0.0-9.0-2.0-0.15","4506","2","19","Male","approach_avoid_spark_v1","""event"",""trial"",""time""
""fullscreenenter"",""1"",""1280""
","
","
","""event"",""trial"",""time""
""fullscreenenter"",""1"",""1280""
","
","","","","","","null","<div style=""font-size:60px;"">+</div>","null","","fixation","","","","","","","","","","",""
"aa-learning-trial","103","549984","0.0-9.0-2.0-1.15","4506","2","19","Male","approach_avoid_spark_v1","""event"",""trial"",""time""
""fullscreenenter"",""1"",""1280""
","
","
","""event"",""trial"",""time""
""fullscreenenter"",""1"",""1280""
","
","","","","","","786.7999999821186","images/rabbit4.png","","","learning","4","0","0","0","rabbit","pets","2","0","","bad","[-5]"
"html-keyboard-response","104","550488","0.0-9.0-2.0-0.16","4506","2","19","Male","approach_avoid_spark_v1","""event"",""trial"",""time""
""fullscreenenter"",""1"",""1280""
","
","
","""event"",""trial"",""time""
""fullscreenenter"",""1"",""1280""
","
","","","","","","null","<div style=""font-size:60px;"">+</div>","null","","fixation","","","","","","","","","","",""
"aa-learning-trial","105","553496","0.0-9.0-2.0-1.16","4506","2","19","Male","approach_avoid_spark_v1","""event"",""trial"",""time""
""fullscreenenter"",""1"",""1280""
","
","
","""event"",""trial"",""time""
""fullscreenenter"",""1"",""1280""
","
","","","","","","809.5","images/rabbit7.png","","","learning","8","8","1","1","rabbit","pets","2","0","","bad","[-5]"
"html-keyboard-response","106","554000","0.0-9.0-2.0-0.17","4506","2","19","Male","approach_avoid_spark_v1","""event"",""trial"",""time""
""fullscreenenter"",""1"",""1280""
","
","
","""event"",""trial"",""time""
""fullscreenenter"",""1"",""1280""
","
","","","","","","null","<div style=""font-size:60px;"">+</div>","null","","fixation","","","","","","","","","","",""
"aa-learning-trial","107","557011","0.0-9.0-2.0-1.17","4506","2","19","Male","approach_avoid_spark_v1","""event"",""trial"",""time""
""fullscreenenter"",""1"",""1280""
","
","
","""event"",""trial"",""time""
""fullscreenenter"",""1"",""1280""
","
","","","","","","1410.300000011921","images/rodent5.png","","","learning","-8","0","0","0","rodent","pets","2","0","","neutral","0"
"html-keyboard-response","108","557520","0.0-9.0-2.0-0.18","4506","2","19","Male","approach_avoid_spark_v1","""event"",""trial"",""time""
""fullscreenenter"",""1"",""1280""
","
","
","""event"",""trial"",""time""
""fullscreenenter"",""1"",""1280""
","
","","","","","","null","<div style=""font-size:60px;"">+</div>","null","","fixation","","","","","","","","","","",""
"aa-learning-trial","109","560528","0.0-9.0-2.0-1.18","4506","2","19","Male","approach_avoid_spark_v1","""event"",""trial"",""time""
""fullscreenenter"",""1"",""1280""
","
","
","""event"",""trial"",""time""
""fullscreenenter"",""1"",""1280""
","
","","","","","","802.7000000178814","images/rodent8.png","","","learning","5","0","0","0","rodent","pets","2","0","","neutral","0"
"html-keyboard-response","110","561032","0.0-9.0-2.0-0.19","4506","2","19","Male","approach_avoid_spark_v1","""event"",""trial"",""time""
""fullscreenenter"",""1"",""1280""
","
","
","""event"",""trial"",""time""
""fullscreenenter"",""1"",""1280""
","
","","","","","","null","<div style=""font-size:60px;"">+</div>","null","","fixation","","","","","","","","","","",""
"aa-learning-trial","111","564040","0.0-9.0-2.0-1.19","4506","2","19","Male","approach_avoid_spark_v1","""event"",""trial"",""time""
""fullscreenenter"",""1"",""1280""
","
","
","""event"",""trial"",""time""
""fullscreenenter"",""1"",""1280""
","
","","","","","","793.0999999940395","images/rabbit8.png","","","learning","2","0","0","0","rabbit","pets","2","0","","bad","[-5]"
"html-keyboard-response","112","564543","0.0-9.0-2.0-0.20","4506","2","19","Male","approach_avoid_spark_v1","""event"",""trial"",""time""
""fullscreenenter"",""1"",""1280""
","
","
","""event"",""trial"",""time""
""fullscreenenter"",""1"",""1280""
","
","","","","","","null","<div style=""font-size:60px;"">+</div>","null","","fixation","","","","","","","","","","",""
"aa-learning-trial","113","567552","0.0-9.0-2.0-1.20","4506","2","19","Male","approach_avoid_spark_v1","""event"",""trial"",""time""
""fullscreenenter"",""1"",""1280""
","
","
","""event"",""trial"",""time""
""fullscreenenter"",""1"",""1280""
","
","","","","","","1433.4000000059605","images/rodent4.png","","","learning","-2","0","0","0","rodent","pets","2","0","","neutral","0"
"html-keyboard-response","114","568055","0.0-9.0-2.0-0.21","4506","2","19","Male","approach_avoid_spark_v1","""event"",""trial"",""time""
""fullscreenenter"",""1"",""1280""
","
","
","""event"",""trial"",""time""
""fullscreenenter"",""1"",""1280""
","
","","","","","","null","<div style=""font-size:60px;"">+</div>","null","","fixation","","","","","","","","","","",""
"aa-learning-trial","115","571064","0.0-9.0-2.0-1.21","4506","2","19","Male","approach_avoid_spark_v1","""event"",""trial"",""time""
""fullscreenenter"",""1"",""1280""
","
","
","""event"",""trial"",""time""
""fullscreenenter"",""1"",""1280""
","
","","","","","","786.3000000119209","images/dog6.png","","","learning","3","3","1","1","dog","pets","2","0","","good","[5]"
"html-keyboard-response","116","571567","0.0-9.0-2.0-0.22","4506","2","19","Male","approach_avoid_spark_v1","""event"",""trial"",""time""
""fullscreenenter"",""1"",""1280""
","
","
","""event"",""trial"",""time""
""fullscreenenter"",""1"",""1280""
","
","","","","","","null","<div style=""font-size:60px;"">+</div>","null","","fixation","","","","","","","","","","",""
"aa-learning-trial","117","574576","0.0-9.0-2.0-1.22","4506","2","19","Male","approach_avoid_spark_v1","""event"",""trial"",""time""
""fullscreenenter"",""1"",""1280""
","
","
","""event"",""trial"",""time""
""fullscreenenter"",""1"",""1280""
","
","","","","","","873.7999999821186","images/dog5.png","","","learning","9","0","0","0","dog","pets","2","0","","good","[5]"
"html-keyboard-response","118","575079","0.0-9.0-2.0-0.23","4506","2","19","Male","approach_avoid_spark_v1","""event"",""trial"",""time""
""fullscreenenter"",""1"",""1280""
","
","
","""event"",""trial"",""time""
""fullscreenenter"",""1"",""1280""
","
","","","","","","null","<div style=""font-size:60px;"">+</div>","null","","fixation","","","","","","","","","","",""
"aa-learning-trial","119","578087","0.0-9.0-2.0-1.23","4506","2","19","Male","approach_avoid_spark_v1","""event"",""trial"",""time""
""fullscreenenter"",""1"",""1280""
","
","
","""event"",""trial"",""time""
""fullscreenenter"",""1"",""1280""
","
","","","","","","533","images/dog6.png","","","learning","3","3","1","1","dog","pets","2","0","","good","[5]"
"html-keyboard-response","120","578591","0.0-9.0-2.0-0.24","4506","2","19","Male","approach_avoid_spark_v1","""event"",""trial"",""time""
""fullscreenenter"",""1"",""1280""
","
","
","""event"",""trial"",""time""
""fullscreenenter"",""1"",""1280""
","
","","","","","","null","<div style=""font-size:60px;"">+</div>","null","","fixation","","","","","","","","","","",""
"aa-learning-trial","121","581599","0.0-9.0-2.0-1.24","4506","2","19","Male","approach_avoid_spark_v1","""event"",""trial"",""time""
""fullscreenenter"",""1"",""1280""
","
","
","""event"",""trial"",""time""
""fullscreenenter"",""1"",""1280""
","
","","","","","","698.3999999761581","images/rabbit6.png","","","learning","-5","0","0","0","rabbit","pets","2","0","","bad","[-5]"
"html-keyboard-response","122","582103","0.0-9.0-2.0-0.25","4506","2","19","Male","approach_avoid_spark_v1","""event"",""trial"",""time""
""fullscreenenter"",""1"",""1280""
","
","
","""event"",""trial"",""time""
""fullscreenenter"",""1"",""1280""
","
","","","","","","null","<div style=""font-size:60px;"">+</div>","null","","fixation","","","","","","","","","","",""
"aa-learning-trial","123","585111","0.0-9.0-2.0-1.25","4506","2","19","Male","approach_avoid_spark_v1","""event"",""trial"",""time""
""fullscreenenter"",""1"",""1280""
","
","
","""event"",""trial"",""time""
""fullscreenenter"",""1"",""1280""
","
","","","","","","920.4000000059605","images/rodent8.png","","","learning","5","5","1","1","rodent","pets","2","0","","neutral","0"
"html-keyboard-response","124","585615","0.0-9.0-2.0-0.26","4506","2","19","Male","approach_avoid_spark_v1","""event"",""trial"",""time""
""fullscreenenter"",""1"",""1280""
","
","
","""event"",""trial"",""time""
""fullscreenenter"",""1"",""1280""
","
","","","","","","null","<div style=""font-size:60px;"">+</div>","null","","fixation","","","","","","","","","","",""
"aa-learning-trial","125","588623","0.0-9.0-2.0-1.26","4506","2","19","Male","approach_avoid_spark_v1","""event"",""trial"",""time""
""fullscreenenter"",""1"",""1280""
","
","
","""event"",""trial"",""time""
""fullscreenenter"",""1"",""1280""
","
","","","","","","988.3000000119209","images/dog3.png","","","learning","-1","0","0","0","dog","pets","2","0","","good","[5]"
"html-keyboard-response","126","589127","0.0-9.0-2.0-0.27","4506","2","19","Male","approach_avoid_spark_v1","""event"",""trial"",""time""
""fullscreenenter"",""1"",""1280""
","
","
","""event"",""trial"",""time""
""fullscreenenter"",""1"",""1280""
","
","","","","","","null","<div style=""font-size:60px;"">+</div>","null","","fixation","","","","","","","","","","",""
"aa-learning-trial","127","592135","0.0-9.0-2.0-1.27","4506","2","19","Male","approach_avoid_spark_v1","""event"",""trial"",""time""
""fullscreenenter"",""1"",""1280""
","
","
","""event"",""trial"",""time""
""fullscreenenter"",""1"",""1280""
","
","","","","","","913.7000000178814","images/rabbit2.png","","","learning","-9","0","0","0","rabbit","pets","2","0","","bad","[-5]"
"html-keyboard-response","128","592639","0.0-9.0-2.0-0.28","4506","2","19","Male","approach_avoid_spark_v1","""event"",""trial"",""time""
""fullscreenenter"",""1"",""1280""
","
","
","""event"",""trial"",""time""
""fullscreenenter"",""1"",""1280""
","
","","","","","","null","<div style=""font-size:60px;"">+</div>","null","","fixation","","","","","","","","","","",""
"aa-learning-trial","129","595646","0.0-9.0-2.0-1.28","4506","2","19","Male","approach_avoid_spark_v1","""event"",""trial"",""time""
""fullscreenenter"",""1"",""1280""
","
","
","""event"",""trial"",""time""
""fullscreenenter"",""1"",""1280""
","
","","","","","","698.0999999940395","images/dog4.png","","","learning","-7","0","0","0","dog","pets","2","0","","good","[5]"
"html-keyboard-response","130","596151","0.0-9.0-2.0-0.29","4506","2","19","Male","approach_avoid_spark_v1","""event"",""trial"",""time""
""fullscreenenter"",""1"",""1280""
","
","
","""event"",""trial"",""time""
""fullscreenenter"",""1"",""1280""
","
","","","","","","null","<div style=""font-size:60px;"">+</div>","null","","fixation","","","","","","","","","","",""
"aa-learning-trial","131","599160","0.0-9.0-2.0-1.29","4506","2","19","Male","approach_avoid_spark_v1","""event"",""trial"",""time""
""fullscreenenter"",""1"",""1280""
","
","
","""event"",""trial"",""time""
""fullscreenenter"",""1"",""1280""
","
","","","","","","672.4000000059605","images/dog4.png","","","learning","-7","0","0","0","dog","pets","2","0","","good","[5]"
"html-keyboard-response","132","599663","0.0-9.0-2.0-0.30","4506","2","19","Male","approach_avoid_spark_v1","""event"",""trial"",""time""
""fullscreenenter"",""1"",""1280""
","
","
","""event"",""trial"",""time""
""fullscreenenter"",""1"",""1280""
","
","","","","","","null","<div style=""font-size:60px;"">+</div>","null","","fixation","","","","","","","","","","",""
"aa-learning-trial","133","602671","0.0-9.0-2.0-1.30","4506","2","19","Male","approach_avoid_spark_v1","""event"",""trial"",""time""
""fullscreenenter"",""1"",""1280""
","
","
","""event"",""trial"",""time""
""fullscreenenter"",""1"",""1280""
","
","","","","","","562.9000000059605","images/dog6.png","","","learning","3","3","1","1","dog","pets","2","0","","good","[5]"
"html-keyboard-response","134","603175","0.0-9.0-2.0-0.31","4506","2","19","Male","approach_avoid_spark_v1","""event"",""trial"",""time""
""fullscreenenter"",""1"",""1280""
","
","
","""event"",""trial"",""time""
""fullscreenenter"",""1"",""1280""
","
","","","","","","null","<div style=""font-size:60px;"">+</div>","null","","fixation","","","","","","","","","","",""
"aa-learning-trial","135","606186","0.0-9.0-2.0-1.31","4506","2","19","Male","approach_avoid_spark_v1","""event"",""trial"",""time""
""fullscreenenter"",""1"",""1280""
","
","
","""event"",""trial"",""time""
""fullscreenenter"",""1"",""1280""
","
","","","","","","668.6999999880791","images/dog1.png","","","learning","-3","0","0","0","dog","pets","2","0","","good","[5]"
"html-keyboard-response","136","606694","0.0-9.0-2.0-0.32","4506","2","19","Male","approach_avoid_spark_v1","""event"",""trial"",""time""
""fullscreenenter"",""1"",""1280""
","
","
","""event"",""trial"",""time""
""fullscreenenter"",""1"",""1280""
","
","","","","","","null","<div style=""font-size:60px;"">+</div>","null","","fixation","","","","","","","","","","",""
"aa-learning-trial","137","609703","0.0-9.0-2.0-1.32","4506","2","19","Male","approach_avoid_spark_v1","""event"",""trial"",""time""
""fullscreenenter"",""1"",""1280""
","
","
","""event"",""trial"",""time""
""fullscreenenter"",""1"",""1280""
","
","","","","","","762.0999999940395","images/rabbit2.png","","","learning","-9","0","0","0","rabbit","pets","2","0","","bad","[-5]"
"html-keyboard-response","138","610209","0.0-9.0-2.0-0.33","4506","2","19","Male","approach_avoid_spark_v1","""event"",""trial"",""time""
""fullscreenenter"",""1"",""1280""
","
","
","""event"",""trial"",""time""
""fullscreenenter"",""1"",""1280""
","
","","","","","","null","<div style=""font-size:60px;"">+</div>","null","","fixation","","","","","","","","","","",""
"aa-learning-trial","139","613215","0.0-9.0-2.0-1.33","4506","2","19","Male","approach_avoid_spark_v1","""event"",""trial"",""time""
""fullscreenenter"",""1"",""1280""
","
","
","""event"",""trial"",""time""
""fullscreenenter"",""1"",""1280""
","
","","","","","","606.5","images/dog4.png","","","learning","-7","0","0","0","dog","pets","2","0","","good","[5]"
"html-keyboard-response","140","613718","0.0-9.0-2.0-0.34","4506","2","19","Male","approach_avoid_spark_v1","""event"",""trial"",""time""
""fullscreenenter"",""1"",""1280""
","
","
","""event"",""trial"",""time""
""fullscreenenter"",""1"",""1280""
","
","","","","","","null","<div style=""font-size:60px;"">+</div>","null","","fixation","","","","","","","","","","",""
"aa-learning-trial","141","616726","0.0-9.0-2.0-1.34","4506","2","19","Male","approach_avoid_spark_v1","""event"",""trial"",""time""
""fullscreenenter"",""1"",""1280""
","
","
","""event"",""trial"",""time""
""fullscreenenter"",""1"",""1280""
","
","","","","","","500.30000001192093","images/dog4.png","","","learning","-7","0","0","0","dog","pets","2","0","","good","[5]"
"html-keyboard-response","142","617230","0.0-9.0-2.0-0.35","4506","2","19","Male","approach_avoid_spark_v1","""event"",""trial"",""time""
""fullscreenenter"",""1"",""1280""
","
","
","""event"",""trial"",""time""
""fullscreenenter"",""1"",""1280""
","
","","","","","","null","<div style=""font-size:60px;"">+</div>","null","","fixation","","","","","","","","","","",""
"aa-learning-trial","143","620238","0.0-9.0-2.0-1.35","4506","2","19","Male","approach_avoid_spark_v1","""event"",""trial"",""time""
""fullscreenenter"",""1"",""1280""
","
","
","""event"",""trial"",""time""
""fullscreenenter"",""1"",""1280""
","
","","","","","","1633.5","images/rabbit7.png","","","learning","8","8","1","1","rabbit","pets","2","0","","bad","[-5]"
"html-keyboard-response","144","620742","0.0-9.0-2.0-0.36","4506","2","19","Male","approach_avoid_spark_v1","""event"",""trial"",""time""
""fullscreenenter"",""1"",""1280""
","
","
","""event"",""trial"",""time""
""fullscreenenter"",""1"",""1280""
","
","","","","","","null","<div style=""font-size:60px;"">+</div>","null","","fixation","","","","","","","","","","",""
"aa-learning-trial","145","623750","0.0-9.0-2.0-1.36","4506","2","19","Male","approach_avoid_spark_v1","""event"",""trial"",""time""
""fullscreenenter"",""1"",""1280""
","
","
","""event"",""trial"",""time""
""fullscreenenter"",""1"",""1280""
","
","","","","","","1490.5","images/dog3.png","","","learning","-1","0","0","0","dog","pets","2","0","","good","[5]"
"html-keyboard-response","146","624254","0.0-9.0-2.0-0.37","4506","2","19","Male","approach_avoid_spark_v1","""event"",""trial"",""time""
""fullscreenenter"",""1"",""1280""
","
","
","""event"",""trial"",""time""
""fullscreenenter"",""1"",""1280""
","
","","","","","","null","<div style=""font-size:60px;"">+</div>","null","","fixation","","","","","","","","","","",""
"aa-learning-trial","147","627262","0.0-9.0-2.0-1.37","4506","2","19","Male","approach_avoid_spark_v1","""event"",""trial"",""time""
""fullscreenenter"",""1"",""1280""
","
","
","""event"",""trial"",""time""
""fullscreenenter"",""1"",""1280""
","
","","","","","","596.5","images/rabbit7.png","","","learning","8","8","1","1","rabbit","pets","2","0","","bad","[-5]"
"html-keyboard-response","148","627766","0.0-9.0-2.0-0.38","4506","2","19","Male","approach_avoid_spark_v1","""event"",""trial"",""time""
""fullscreenenter"",""1"",""1280""
","
","
","""event"",""trial"",""time""
""fullscreenenter"",""1"",""1280""
","
","","","","","","null","<div style=""font-size:60px;"">+</div>","null","","fixation","","","","","","","","","","",""
"aa-learning-trial","149","630774","0.0-9.0-2.0-1.38","4506","2","19","Male","approach_avoid_spark_v1","""event"",""trial"",""time""
""fullscreenenter"",""1"",""1280""
","
","
","""event"",""trial"",""time""
""fullscreenenter"",""1"",""1280""
","
","","","","","","411.2999999821186","images/rabbit7.png","","","learning","8","8","1","1","rabbit","pets","2","0","","bad","[-5]"
"html-keyboard-response","150","631279","0.0-9.0-2.0-0.39","4506","2","19","Male","approach_avoid_spark_v1","""event"",""trial"",""time""
""fullscreenenter"",""1"",""1280""
","
","
","""event"",""trial"",""time""
""fullscreenenter"",""1"",""1280""
","
","","","","","","null","<div style=""font-size:60px;"">+</div>","null","","fixation","","","","","","","","","","",""
"aa-learning-trial","151","634286","0.0-9.0-2.0-1.39","4506","2","19","Male","approach_avoid_spark_v1","""event"",""trial"",""time""
""fullscreenenter"",""1"",""1280""
","
","
","""event"",""trial"",""time""
""fullscreenenter"",""1"",""1280""
","
","","","","","","843.1999999880791","images/rodent3.png","","","learning","6","0","0","0","rodent","pets","2","0","","neutral","0"
"html-keyboard-response","152","634790","0.0-9.0-2.0-0.40","4506","2","19","Male","approach_avoid_spark_v1","""event"",""trial"",""time""
""fullscreenenter"",""1"",""1280""
","
","
","""event"",""trial"",""time""
""fullscreenenter"",""1"",""1280""
","
","","","","","","null","<div style=""font-size:60px;"">+</div>","null","","fixation","","","","","","","","","","",""
"aa-learning-trial","153","637798","0.0-9.0-2.0-1.40","4506","2","19","Male","approach_avoid_spark_v1","""event"",""trial"",""time""
""fullscreenenter"",""1"",""1280""
","
","
","""event"",""trial"",""time""
""fullscreenenter"",""1"",""1280""
","
","","","","","","675.1999999880791","images/dog6.png","","","learning","3","3","1","1","dog","pets","2","0","","good","[5]"
"html-keyboard-response","154","638301","0.0-9.0-2.0-0.41","4506","2","19","Male","approach_avoid_spark_v1","""event"",""trial"",""time""
""fullscreenenter"",""1"",""1280""
","
","
","""event"",""trial"",""time""
""fullscreenenter"",""1"",""1280""
","
","","","","","","null","<div style=""font-size:60px;"">+</div>","null","","fixation","","","","","","","","","","",""
"aa-learning-trial","155","641309","0.0-9.0-2.0-1.41","4506","2","19","Male","approach_avoid_spark_v1","""event"",""trial"",""time""
""fullscreenenter"",""1"",""1280""
","
","
","""event"",""trial"",""time""
""fullscreenenter"",""1"",""1280""
","
","","","","","","1091.300000011921","images/rodent4.png","","","learning","-2","0","0","0","rodent","pets","2","0","","neutral","0"
"html-keyboard-response","156","641814","0.0-9.0-2.0-0.42","4506","2","19","Male","approach_avoid_spark_v1","""event"",""trial"",""time""
""fullscreenenter"",""1"",""1280""
","
","
","""event"",""trial"",""time""
""fullscreenenter"",""1"",""1280""
","
","","","","","","null","<div style=""font-size:60px;"">+</div>","null","","fixation","","","","","","","","","","",""
"aa-learning-trial","157","644822","0.0-9.0-2.0-1.42","4506","2","19","Male","approach_avoid_spark_v1","""event"",""trial"",""time""
""fullscreenenter"",""1"",""1280""
","
","
","""event"",""trial"",""time""
""fullscreenenter"",""1"",""1280""
","
","","","","","","1548.199999988079","images/rabbit2.png","","","learning","-9","0","0","0","rabbit","pets","2","0","","bad","[-5]"
"html-keyboard-response","158","645326","0.0-9.0-2.0-0.43","4506","2","19","Male","approach_avoid_spark_v1","""event"",""trial"",""time""
""fullscreenenter"",""1"",""1280""
","
","
","""event"",""trial"",""time""
""fullscreenenter"",""1"",""1280""
","
","","","","","","null","<div style=""font-size:60px;"">+</div>","null","","fixation","","","","","","","","","","",""
"aa-learning-trial","159","648334","0.0-9.0-2.0-1.43","4506","2","19","Male","approach_avoid_spark_v1","""event"",""trial"",""time""
""fullscreenenter"",""1"",""1280""
","
","
","""event"",""trial"",""time""
""fullscreenenter"",""1"",""1280""
","
","","","","","","644.5","images/rabbit2.png","","","learning","-9","0","0","0","rabbit","pets","2","0","","bad","[-5]"
"html-keyboard-response","160","648837","0.0-9.0-2.0-0.44","4506","2","19","Male","approach_avoid_spark_v1","""event"",""trial"",""time""
""fullscreenenter"",""1"",""1280""
","
","
","""event"",""trial"",""time""
""fullscreenenter"",""1"",""1280""
","
","","","","","","null","<div style=""font-size:60px;"">+</div>","null","","fixation","","","","","","","","","","",""
"aa-learning-trial","161","651846","0.0-9.0-2.0-1.44","4506","2","19","Male","approach_avoid_spark_v1","""event"",""trial"",""time""
""fullscreenenter"",""1"",""1280""
","
","
","""event"",""trial"",""time""
""fullscreenenter"",""1"",""1280""
","
","","","","","","1155.5999999940395","images/rabbit8.png","","","learning","2","2","1","1","rabbit","pets","2","0","","bad","[-5]"
"html-keyboard-response","162","652349","0.0-9.0-2.0-0.45","4506","2","19","Male","approach_avoid_spark_v1","""event"",""trial"",""time""
""fullscreenenter"",""1"",""1280""
","
","
","""event"",""trial"",""time""
""fullscreenenter"",""1"",""1280""
","
","","","","","","null","<div style=""font-size:60px;"">+</div>","null","","fixation","","","","","","","","","","",""
"aa-learning-trial","163","655358","0.0-9.0-2.0-1.45","4506","2","19","Male","approach_avoid_spark_v1","""event"",""trial"",""time""
""fullscreenenter"",""1"",""1280""
","
","
","""event"",""trial"",""time""
""fullscreenenter"",""1"",""1280""
","
","","","","","","941.0999999940395","images/rodent8.png","","","learning","5","5","1","1","rodent","pets","2","0","","neutral","0"
"html-keyboard-response","164","655861","0.0-9.0-2.0-0.46","4506","2","19","Male","approach_avoid_spark_v1","""event"",""trial"",""time""
""fullscreenenter"",""1"",""1280""
","
","
","""event"",""trial"",""time""
""fullscreenenter"",""1"",""1280""
","
","","","","","","null","<div style=""font-size:60px;"">+</div>","null","","fixation","","","","","","","","","","",""
"aa-learning-trial","165","658869","0.0-9.0-2.0-1.46","4506","2","19","Male","approach_avoid_spark_v1","""event"",""trial"",""time""
""fullscreenenter"",""1"",""1280""
","
","
","""event"",""trial"",""time""
""fullscreenenter"",""1"",""1280""
","
","","","","","","859.5","images/rodent4.png","","","learning","-2","0","0","0","rodent","pets","2","0","","neutral","0"
"html-keyboard-response","166","659373","0.0-9.0-2.0-0.47","4506","2","19","Male","approach_avoid_spark_v1","""event"",""trial"",""time""
""fullscreenenter"",""1"",""1280""
","
","
","""event"",""trial"",""time""
""fullscreenenter"",""1"",""1280""
","
","","","","","","null","<div style=""font-size:60px;"">+</div>","null","","fixation","","","","","","","","","","",""
"aa-learning-trial","167","662381","0.0-9.0-2.0-1.47","4506","2","19","Male","approach_avoid_spark_v1","""event"",""trial"",""time""
""fullscreenenter"",""1"",""1280""
","
","
","""event"",""trial"",""time""
""fullscreenenter"",""1"",""1280""
","
","","","","","","643.4000000059605","images/rodent8.png","","","learning","5","5","1","1","rodent","pets","2","0","","neutral","0"
"html-keyboard-response","168","662885","0.0-9.0-2.0-0.48","4506","2","19","Male","approach_avoid_spark_v1","""event"",""trial"",""time""
""fullscreenenter"",""1"",""1280""
","
","
","""event"",""trial"",""time""
""fullscreenenter"",""1"",""1280""
","
","","","","","","null","<div style=""font-size:60px;"">+</div>","null","","fixation","","","","","","","","","","",""
"aa-learning-trial","169","665897","0.0-9.0-2.0-1.48","4506","2","19","Male","approach_avoid_spark_v1","""event"",""trial"",""time""
""fullscreenenter"",""1"",""1280""
","
","
","""event"",""trial"",""time""
""fullscreenenter"",""1"",""1280""
","
","","","","","","1903.5","images/rodent5.png","","","learning","-8","-8","1","1","rodent","pets","2","0","","neutral","0"
"html-keyboard-response","170","666408","0.0-9.0-2.0-0.49","4506","2","19","Male","approach_avoid_spark_v1","""event"",""trial"",""time""
""fullscreenenter"",""1"",""1280""
","
","
","""event"",""trial"",""time""
""fullscreenenter"",""1"",""1280""
","
","","","","","","null","<div style=""font-size:60px;"">+</div>","null","","fixation","","","","","","","","","","",""
"aa-learning-trial","171","669413","0.0-9.0-2.0-1.49","4506","2","19","Male","approach_avoid_spark_v1","""event"",""trial"",""time""
""fullscreenenter"",""1"",""1280""
","
","
","""event"",""trial"",""time""
""fullscreenenter"",""1"",""1280""
","
","","","","","","1229.9000000059605","images/rodent2.png","","","learning","-4","-4","1","1","rodent","pets","2","0","","neutral","0"
"html-keyboard-response","172","669917","0.0-9.0-2.0-0.50","4506","2","19","Male","approach_avoid_spark_v1","""event"",""trial"",""time""
""fullscreenenter"",""1"",""1280""
","
","
","""event"",""trial"",""time""
""fullscreenenter"",""1"",""1280""
","
","","","","","","null","<div style=""font-size:60px;"">+</div>","null","","fixation","","","","","","","","","","",""
"aa-learning-trial","173","672925","0.0-9.0-2.0-1.50","4506","2","19","Male","approach_avoid_spark_v1","""event"",""trial"",""time""
""fullscreenenter"",""1"",""1280""
","
","
","""event"",""trial"",""time""
""fullscreenenter"",""1"",""1280""
","
","","","","","","846.5","images/rodent4.png","","","learning","-2","0","0","0","rodent","pets","2","0","","neutral","0"
"html-button-response","174","675005","0.0-9.0-3.0","4506","2","19","Male","approach_avoid_spark_v1","""event"",""trial"",""time""
""fullscreenenter"",""1"",""1280""
","
","
","""event"",""trial"",""time""
""fullscreenenter"",""1"",""1280""
","
","","","","","","2077.5","<p> You have completed the round! <p> In this round, you earned 75 points! </p>","0","","break","","","","","","","","","","",""
"html-button-response","175","676289","0.0-10.0","4506","2","19","Male","approach_avoid_spark_v1","""event"",""trial"",""time""
""fullscreenenter"",""1"",""1280""
","
","
","""event"",""trial"",""time""
""fullscreenenter"",""1"",""1280""
","
","","","","","","1282.5","<p> Now it's time to play another round. </p>","0","","transition_screen","","","","","","","","","","",""
"preload","176","676416","0.0-11.0-0.0","4506","2","19","Male","approach_avoid_spark_v1","""event"",""trial"",""time""
""fullscreenenter"",""1"",""1280""
","
","
","""event"",""trial"",""time""
""fullscreenenter"",""1"",""1280""
","
","true","false","[]","[]","[]","","","","","","","","","","","","","","","",""
"learning-instructions","177","682923","0.0-11.0-1.0-0.0","4506","2","19","Male","approach_avoid_spark_v1","""event"",""trial"",""time""
""fullscreenenter"",""1"",""1280""
","
","
","""event"",""trial"",""time""
""fullscreenenter"",""1"",""1280""
","
","","","","","","1187.800000011921","<p> Your goal in this round is to sell different plants to a picky customer. </p></div>","","0","instructions","","","","","","","","","","",""
"learning-instructions","178","692523","0.0-11.0-1.0-0.1","4506","2","19","Male","approach_avoid_spark_v1","""event"",""trial"",""time""
""fullscreenenter"",""1"",""1280""
","
","
","""event"",""trial"",""time""
""fullscreenenter"",""1"",""1280""
","
","","","","","","89.59999999403954","<p> The customer likes some plants and dislikes others.  </p><p> On each turn, you will see a plant.   </p><p> You need to decide whether to offer it to the customer or not.  </p>","","0","instructions","","","","","","","","","","",""
"learning-instructions","179","701002","0.0-11.0-1.0-0.2","4506","2","19","Male","approach_avoid_spark_v1","""event"",""trial"",""time""
""fullscreenenter"",""1"",""1280""
","
","
","""event"",""trial"",""time""
""fullscreenenter"",""1"",""1280""
","
","","","","","","1405.0999999940395","<p> You can offer the plant by pressing 1 and decide to not offer it by pressing 0. </p><br><div class=""choice-instructions-grid""> <div class=""choice-option""><img src=""images/approach.png"" class=""choice-option-img"" stage=""instructions"" position=""0"" ><div class=""choice-option-text""> Press ""1."" </div></div><div class=""choice-option""><img src=""images/avoid.png"" class=""choice-option-img"" stage=""instructions"" position=""1"" ><div class=""choice-option-text""> Press ""0."" </div></div>","","0","instructions","","","","","","","","","","",""
"learning-instructions","180","711870","0.0-11.0-1.0-0.3","4506","2","19","Male","approach_avoid_spark_v1","""event"",""trial"",""time""
""fullscreenenter"",""1"",""1280""
","
","
","""event"",""trial"",""time""
""fullscreenenter"",""1"",""1280""
","
","","","","","","1551.5","<p> If you offer a plant to the customer that she likes, she will be very pleased! </p><p> But if you offer a plant that she does NOT like, she will be annoyed. </p>","","0","instructions","","","","","","","","","","",""
"learning-instructions","181","725587","0.0-11.0-1.0-0.4","4506","2","19","Male","approach_avoid_spark_v1","""event"",""trial"",""time""
""fullscreenenter"",""1"",""1280""
","
","
","""event"",""trial"",""time""
""fullscreenenter"",""1"",""1280""
","
","","","","","","372.7000000178814","<p> You will earn points based on how you made the customer feel. </p><p> If you made her pleased, you will WIN anywhere from 1 - 9 points, </p><p> but if you made her annoyed, you will LOSE anywhere from 1 - 9 points. </p>","","0","instructions","","","","","","","","","","",""
"learning-instructions","182","732703","0.0-11.0-1.0-0.5","4506","2","19","Male","approach_avoid_spark_v1","""event"",""trial"",""time""
""fullscreenenter"",""1"",""1280""
","
","
","""event"",""trial"",""time""
""fullscreenenter"",""1"",""1280""
","
","","","","","","465.40000000596046","<p> You will see how many points you won or lost in the center of the screen. </p><p> Here is what you would see if you won 5 points: </p><p style=""color:green;font-size:50px;font-weight:bolder"">5</p>","","0","instructions","","","","","","","","","","",""
"learning-instructions","183","736204","0.0-11.0-1.0-0.6","4506","2","19","Male","approach_avoid_spark_v1","""event"",""trial"",""time""
""fullscreenenter"",""1"",""1280""
","
","
","""event"",""trial"",""time""
""fullscreenenter"",""1"",""1280""
","
","","","","","","662.5","<p> And here is what you would see if you lost 3 points: </p><p style=""color:red;font-size:50px;font-weight:bolder"">-3</p>","","0","instructions","","","","","","","","","","",""
"learning-instructions","184","752605","0.0-11.0-1.0-0.7","4506","2","19","Male","approach_avoid_spark_v1","""event"",""trial"",""time""
""fullscreenenter"",""1"",""1280""
","
","
","""event"",""trial"",""time""
""fullscreenenter"",""1"",""1280""
","
","","","","","","478.7999999821186","<p> Some plants will make the customer VERY pleased or annoyed. </p><p> These plants will make you win or lose LOTS of points. </p><p> The customer will have less strong feelings about other plants. </p><p> These plants will make you win or lose small amounts of points. </p>","","0","instructions","","","","","","","","","","",""
"learning-instructions","185","767220","0.0-11.0-1.0-0.8","4506","2","19","Male","approach_avoid_spark_v1","""event"",""trial"",""time""
""fullscreenenter"",""1"",""1280""
","
","
","""event"",""trial"",""time""
""fullscreenenter"",""1"",""1280""
","
","","","","","","383.7000000178814","<p> If you choose to not offer the plant to the customer, you will not win or lose any points. </p><p>  However, in the center of the screen, you will see the number of points you WOULD HAVE won or lost if you had offered the plant. </p>","","0","instructions","","","","","","","","","","",""
"learning-instructions","186","780137","0.0-11.0-1.0-0.9","4506","2","19","Male","approach_avoid_spark_v1","""event"",""trial"",""time""
""fullscreenenter"",""1"",""1280""
","
","
","""event"",""trial"",""time""
""fullscreenenter"",""1"",""1280""
","
","","","","","","680.7999999821186","<p> Here is what you might see if you did not offer the plant but the customer would have liked it: </p><p style=""color:grey; font-size:50px; display: inline-block; border-spacing: 15px; border-width:3px; border-style:solid; border-color:red"">  &nbsp; 6 &nbsp; </p><p> Remember, in this case, you would not win or lose ANY points because you did not offer the plant.  </p>","","0","instructions","","","","","","","","","","",""
"learning-instructions","187","788919","0.0-11.0-1.0-0.10","4506","2","19","Male","approach_avoid_spark_v1","""event"",""trial"",""time""
""fullscreenenter"",""1"",""1280""
","
","
","""event"",""trial"",""time""
""fullscreenenter"",""1"",""1280""
","
","","","","","","408.09999999403954","<p> Try to make the best choice for each plant because </p><p> at the end of the game, you will earn bonus money based on how many points you earned. </p>","","0","instructions","","","","","","","","","","",""
"learning-instructions","188","798071","0.0-11.0-1.0-0.11","4506","2","19","Male","approach_avoid_spark_v1","""event"",""trial"",""time""
""fullscreenenter"",""1"",""1280""
","
","
","""event"",""trial"",""time""
""fullscreenenter"",""1"",""1280""
","
","","","","","","962.6999999880791","<p> You will have 3 seconds to make each choice. Try to respond before time runs out! </p><p> You will lose 5 points each time you do not make a response. </p>","","0","instructions","","","","","","","","","","",""
"html-keyboard-response","189","798682","0.0-11.0-2.0-0.0","4506","2","19","Male","approach_avoid_spark_v1","""event"",""trial"",""time""
""fullscreenenter"",""1"",""1280""
","
","
","""event"",""trial"",""time""
""fullscreenenter"",""1"",""1280""
","
","","","","","","null","<div style=""font-size:60px;"">+</div>","null","","fixation","","","","","","","","","","",""
"aa-learning-trial","190","801690","0.0-11.0-2.0-1.0","4506","2","19","Male","approach_avoid_spark_v1","""event"",""trial"",""time""
""fullscreenenter"",""1"",""1280""
","
","
","""event"",""trial"",""time""
""fullscreenenter"",""1"",""1280""
","
","","","","","","1461.4000000059605","images/bush4.png","","","learning","2","0","0","0","bush","plants","1","1","","neutral","0"
"html-keyboard-response","191","802193","0.0-11.0-2.0-0.1","4506","2","19","Male","approach_avoid_spark_v1","""event"",""trial"",""time""
""fullscreenenter"",""1"",""1280""
","
","
","""event"",""trial"",""time""
""fullscreenenter"",""1"",""1280""
","
","","","","","","null","<div style=""font-size:60px;"">+</div>","null","","fixation","","","","","","","","","","",""
"aa-learning-trial","192","805205","0.0-11.0-2.0-1.1","4506","2","19","Male","approach_avoid_spark_v1","""event"",""trial"",""time""
""fullscreenenter"",""1"",""1280""
","
","
","""event"",""trial"",""time""
""fullscreenenter"",""1"",""1280""
","
","","","","","","808.4000000059605","images/bush5.png","","","learning","1","0","0","0","bush","plants","1","1","","neutral","0"
"html-keyboard-response","193","805713","0.0-11.0-2.0-0.2","4506","2","19","Male","approach_avoid_spark_v1","""event"",""trial"",""time""
""fullscreenenter"",""1"",""1280""
","
","
","""event"",""trial"",""time""
""fullscreenenter"",""1"",""1280""
","
","","","","","","null","<div style=""font-size:60px;"">+</div>","null","","fixation","","","","","","","","","","",""
"aa-learning-trial","194","808722","0.0-11.0-2.0-1.2","4506","2","19","Male","approach_avoid_spark_v1","""event"",""trial"",""time""
""fullscreenenter"",""1"",""1280""
","
","
","""event"",""trial"",""time""
""fullscreenenter"",""1"",""1280""
","
","","","","","","683.3000000119209","images/tree1.png","","","learning","-5","0","0","0","tree","plants","1","1","","bad","[-6]"
"html-keyboard-response","195","809225","0.0-11.0-2.0-0.3","4506","2","19","Male","approach_avoid_spark_v1","""event"",""trial"",""time""
""fullscreenenter"",""1"",""1280""
","
","
","""event"",""trial"",""time""
""fullscreenenter"",""1"",""1280""
","
","","","","","","null","<div style=""font-size:60px;"">+</div>","null","","fixation","","","","","","","","","","",""
"aa-learning-trial","196","812233","0.0-11.0-2.0-1.3","4506","2","19","Male","approach_avoid_spark_v1","""event"",""trial"",""time""
""fullscreenenter"",""1"",""1280""
","
","
","""event"",""trial"",""time""
""fullscreenenter"",""1"",""1280""
","
","","","","","","720.8000000119209","images/tree6.png","","","learning","-7","0","0","0","tree","plants","1","1","","bad","[-6]"
"html-keyboard-response","197","812741","0.0-11.0-2.0-0.4","4506","2","19","Male","approach_avoid_spark_v1","""event"",""trial"",""time""
""fullscreenenter"",""1"",""1280""
","
","
","""event"",""trial"",""time""
""fullscreenenter"",""1"",""1280""
","
","","","","","","null","<div style=""font-size:60px;"">+</div>","null","","fixation","","","","","","","","","","",""
"aa-learning-trial","198","815753","0.0-11.0-2.0-1.4","4506","2","19","Male","approach_avoid_spark_v1","""event"",""trial"",""time""
""fullscreenenter"",""1"",""1280""
","
","
","""event"",""trial"",""time""
""fullscreenenter"",""1"",""1280""
","
","","","","","","968.4000000059605","images/flower3.png","","","learning","5","5","1","1","flower","plants","1","1","","good","[3]"
"html-keyboard-response","199","816261","0.0-11.0-2.0-0.5","4506","2","19","Male","approach_avoid_spark_v1","""event"",""trial"",""time""
""fullscreenenter"",""1"",""1280""
","
","
","""event"",""trial"",""time""
""fullscreenenter"",""1"",""1280""
","
","","","","","","null","<div style=""font-size:60px;"">+</div>","null","","fixation","","","","","","","","","","",""
"aa-learning-trial","200","819266","0.0-11.0-2.0-1.5","4506","2","19","Male","approach_avoid_spark_v1","""event"",""trial"",""time""
""fullscreenenter"",""1"",""1280""
","
","
","""event"",""trial"",""time""
""fullscreenenter"",""1"",""1280""
","
","","","","","","602.6000000238419","images/bush4.png","","","learning","[-1]","-1","1","1","bush","plants","1","1","","neutral","0"
"html-keyboard-response","201","819773","0.0-11.0-2.0-0.6","4506","2","19","Male","approach_avoid_spark_v1","""event"",""trial"",""time""
""fullscreenenter"",""1"",""1280""
","
","
","""event"",""trial"",""time""
""fullscreenenter"",""1"",""1280""
","
","","","","","","null","<div style=""font-size:60px;"">+</div>","null","","fixation","","","","","","","","","","",""
"aa-learning-trial","202","822778","0.0-11.0-2.0-1.6","4506","2","19","Male","approach_avoid_spark_v1","""event"",""trial"",""time""
""fullscreenenter"",""1"",""1280""
","
","
","""event"",""trial"",""time""
""fullscreenenter"",""1"",""1280""
","
","","","","","","1045.2999999821186","images/tree1.png","","","learning","-5","0","0","0","tree","plants","1","1","","bad","[-6]"
"html-keyboard-response","203","823281","0.0-11.0-2.0-0.7","4506","2","19","Male","approach_avoid_spark_v1","""event"",""trial"",""time""
""fullscreenenter"",""1"",""1280""
","
","
","""event"",""trial"",""time""
""fullscreenenter"",""1"",""1280""
","
","","","","","","null","<div style=""font-size:60px;"">+</div>","null","","fixation","","","","","","","","","","",""
"aa-learning-trial","204","826289","0.0-11.0-2.0-1.7","4506","2","19","Male","approach_avoid_spark_v1","""event"",""trial"",""time""
""fullscreenenter"",""1"",""1280""
","
","
","""event"",""trial"",""time""
""fullscreenenter"",""1"",""1280""
","
","","","","","","872.9000000059605","images/tree6.png","","","learning","-7","0","0","0","tree","plants","1","1","","bad","[-6]"
"html-keyboard-response","205","826793","0.0-11.0-2.0-0.8","4506","2","19","Male","approach_avoid_spark_v1","""event"",""trial"",""time""
""fullscreenenter"",""1"",""1280""
","
","
","""event"",""trial"",""time""
""fullscreenenter"",""1"",""1280""
","
","","","","","","null","<div style=""font-size:60px;"">+</div>","null","","fixation","","","","","","","","","","",""
"aa-learning-trial","206","829804","0.0-11.0-2.0-1.8","4506","2","19","Male","approach_avoid_spark_v1","""event"",""trial"",""time""
""fullscreenenter"",""1"",""1280""
","
","
","""event"",""trial"",""time""
""fullscreenenter"",""1"",""1280""
","
","","","","","","759.5","images/bush7.png","","","learning","-3","0","0","0","bush","plants","1","1","","neutral","0"
"html-keyboard-response","207","830313","0.0-11.0-2.0-0.9","4506","2","19","Male","approach_avoid_spark_v1","""event"",""trial"",""time""
""fullscreenenter"",""1"",""1280""
","
","
","""event"",""trial"",""time""
""fullscreenenter"",""1"",""1280""
","
","","","","","","null","<div style=""font-size:60px;"">+</div>","null","","fixation","","","","","","","","","","",""
"aa-learning-trial","208","833321","0.0-11.0-2.0-1.9","4506","2","19","Male","approach_avoid_spark_v1","""event"",""trial"",""time""
""fullscreenenter"",""1"",""1280""
","
","
","""event"",""trial"",""time""
""fullscreenenter"",""1"",""1280""
","
","","","","","","557.3000000119209","images/flower3.png","","","learning","1","1","1","1","flower","plants","1","1","","good","[3]"
"html-keyboard-response","209","833825","0.0-11.0-2.0-0.10","4506","2","19","Male","approach_avoid_spark_v1","""event"",""trial"",""time""
""fullscreenenter"",""1"",""1280""
","
","
","""event"",""trial"",""time""
""fullscreenenter"",""1"",""1280""
","
","","","","","","null","<div style=""font-size:60px;"">+</div>","null","","fixation","","","","","","","","","","",""
"aa-learning-trial","210","836833","0.0-11.0-2.0-1.10","4506","2","19","Male","approach_avoid_spark_v1","""event"",""trial"",""time""
""fullscreenenter"",""1"",""1280""
","
","
","""event"",""trial"",""time""
""fullscreenenter"",""1"",""1280""
","
","","","","","","836.9000000059605","images/tree3.png","","","learning","-6","0","0","0","tree","plants","1","1","","bad","[-6]"
"html-keyboard-response","211","837337","0.0-11.0-2.0-0.11","4506","2","19","Male","approach_avoid_spark_v1","""event"",""trial"",""time""
""fullscreenenter"",""1"",""1280""
","
","
","""event"",""trial"",""time""
""fullscreenenter"",""1"",""1280""
","
","","","","","","null","<div style=""font-size:60px;"">+</div>","null","","fixation","","","","","","","","","","",""
"aa-learning-trial","212","840347","0.0-11.0-2.0-1.11","4506","2","19","Male","approach_avoid_spark_v1","""event"",""trial"",""time""
""fullscreenenter"",""1"",""1280""
","
","
","""event"",""trial"",""time""
""fullscreenenter"",""1"",""1280""
","
","","","","","","911.2000000178814","images/flower7.png","","","learning","1","0","0","0","flower","plants","1","1","","good","[3]"
"html-keyboard-response","213","840857","0.0-11.0-2.0-0.12","4506","2","19","Male","approach_avoid_spark_v1","""event"",""trial"",""time""
""fullscreenenter"",""1"",""1280""
","
","
","""event"",""trial"",""time""
""fullscreenenter"",""1"",""1280""
","
","","","","","","null","<div style=""font-size:60px;"">+</div>","null","","fixation","","","","","","","","","","",""
"aa-learning-trial","214","843868","0.0-11.0-2.0-1.12","4506","2","19","Male","approach_avoid_spark_v1","""event"",""trial"",""time""
""fullscreenenter"",""1"",""1280""
","
","
","""event"",""trial"",""time""
""fullscreenenter"",""1"",""1280""
","
","","","","","","768.4000000059605","images/flower4.png","","","learning","3","0","0","0","flower","plants","1","1","","good","[3]"
"html-keyboard-response","215","844376","0.0-11.0-2.0-0.13","4506","2","19","Male","approach_avoid_spark_v1","""event"",""trial"",""time""
""fullscreenenter"",""1"",""1280""
","
","
","""event"",""trial"",""time""
""fullscreenenter"",""1"",""1280""
","
","","","","","","null","<div style=""font-size:60px;"">+</div>","null","","fixation","","","","","","","","","","",""
"aa-learning-trial","216","847385","0.0-11.0-2.0-1.13","4506","2","19","Male","approach_avoid_spark_v1","""event"",""trial"",""time""
""fullscreenenter"",""1"",""1280""
","
","
","""event"",""trial"",""time""
""fullscreenenter"",""1"",""1280""
","
","","","","","","686.5999999940395","images/bush7.png","","","learning","-2","0","0","0","bush","plants","1","1","","neutral","0"
"html-keyboard-response","217","847888","0.0-11.0-2.0-0.14","4506","2","19","Male","approach_avoid_spark_v1","""event"",""trial"",""time""
""fullscreenenter"",""1"",""1280""
","
","
","""event"",""trial"",""time""
""fullscreenenter"",""1"",""1280""
","
","","","","","","null","<div style=""font-size:60px;"">+</div>","null","","fixation","","","","","","","","","","",""
"aa-learning-trial","218","850897","0.0-11.0-2.0-1.14","4506","2","19","Male","approach_avoid_spark_v1","""event"",""trial"",""time""
""fullscreenenter"",""1"",""1280""
","
","
","""event"",""trial"",""time""
""fullscreenenter"",""1"",""1280""
","
","","","","","","762.9000000059605","images/flower7.png","","","learning","5","5","1","1","flower","plants","1","1","","good","[3]"
"html-keyboard-response","219","851403","0.0-11.0-2.0-0.15","4506","2","19","Male","approach_avoid_spark_v1","""event"",""trial"",""time""
""fullscreenenter"",""1"",""1280""
","
","
","""event"",""trial"",""time""
""fullscreenenter"",""1"",""1280""
","
","","","","","","null","<div style=""font-size:60px;"">+</div>","null","","fixation","","","","","","","","","","",""
"aa-learning-trial","220","854409","0.0-11.0-2.0-1.15","4506","2","19","Male","approach_avoid_spark_v1","""event"",""trial"",""time""
""fullscreenenter"",""1"",""1280""
","
","
","""event"",""trial"",""time""
""fullscreenenter"",""1"",""1280""
","
","","","","","","560.8999999761581","images/flower4.png","","","learning","3","3","1","1","flower","plants","1","1","","good","[3]"
"html-keyboard-response","221","854912","0.0-11.0-2.0-0.16","4506","2","19","Male","approach_avoid_spark_v1","""event"",""trial"",""time""
""fullscreenenter"",""1"",""1280""
","
","
","""event"",""trial"",""time""
""fullscreenenter"",""1"",""1280""
","
","","","","","","null","<div style=""font-size:60px;"">+</div>","null","","fixation","","","","","","","","","","",""
"aa-learning-trial","222","857920","0.0-11.0-2.0-1.16","4506","2","19","Male","approach_avoid_spark_v1","""event"",""trial"",""time""
""fullscreenenter"",""1"",""1280""
","
","
","""event"",""trial"",""time""
""fullscreenenter"",""1"",""1280""
","
","","","","","","601.3000000119209","images/tree1.png","","","learning","-5","0","0","0","tree","plants","1","1","","bad","[-6]"
"html-keyboard-response","223","858424","0.0-11.0-2.0-0.17","4506","2","19","Male","approach_avoid_spark_v1","""event"",""trial"",""time""
""fullscreenenter"",""1"",""1280""
","
","
","""event"",""trial"",""time""
""fullscreenenter"",""1"",""1280""
","
","","","","","","null","<div style=""font-size:60px;"">+</div>","null","","fixation","","","","","","","","","","",""
"aa-learning-trial","224","861432","0.0-11.0-2.0-1.17","4506","2","19","Male","approach_avoid_spark_v1","""event"",""trial"",""time""
""fullscreenenter"",""1"",""1280""
","
","
","""event"",""trial"",""time""
""fullscreenenter"",""1"",""1280""
","
","","","","","","705.8000000119209","images/tree6.png","","","learning","-5","0","0","0","tree","plants","1","1","","bad","[-6]"
"html-keyboard-response","225","861936","0.0-11.0-2.0-0.18","4506","2","19","Male","approach_avoid_spark_v1","""event"",""trial"",""time""
""fullscreenenter"",""1"",""1280""
","
","
","""event"",""trial"",""time""
""fullscreenenter"",""1"",""1280""
","
","","","","","","null","<div style=""font-size:60px;"">+</div>","null","","fixation","","","","","","","","","","",""
"aa-learning-trial","226","864944","0.0-11.0-2.0-1.18","4506","2","19","Male","approach_avoid_spark_v1","""event"",""trial"",""time""
""fullscreenenter"",""1"",""1280""
","
","
","""event"",""trial"",""time""
""fullscreenenter"",""1"",""1280""
","
","","","","","","669.0999999940395","images/tree6.png","","","learning","-8","0","0","0","tree","plants","1","1","","bad","[-6]"
"html-keyboard-response","227","865447","0.0-11.0-2.0-0.19","4506","2","19","Male","approach_avoid_spark_v1","""event"",""trial"",""time""
""fullscreenenter"",""1"",""1280""
","
","
","""event"",""trial"",""time""
""fullscreenenter"",""1"",""1280""
","
","","","","","","null","<div style=""font-size:60px;"">+</div>","null","","fixation","","","","","","","","","","",""
"aa-learning-trial","228","868456","0.0-11.0-2.0-1.19","4506","2","19","Male","approach_avoid_spark_v1","""event"",""trial"",""time""
""fullscreenenter"",""1"",""1280""
","
","
","""event"",""trial"",""time""
""fullscreenenter"",""1"",""1280""
","
","","","","","","992.6999999880791","images/tree4.png","","","learning","-8","-8","1","1","tree","plants","1","1","","bad","[-6]"
"html-keyboard-response","229","868960","0.0-11.0-2.0-0.20","4506","2","19","Male","approach_avoid_spark_v1","""event"",""trial"",""time""
""fullscreenenter"",""1"",""1280""
","
","
","""event"",""trial"",""time""
""fullscreenenter"",""1"",""1280""
","
","","","","","","null","<div style=""font-size:60px;"">+</div>","null","","fixation","","","","","","","","","","",""
"aa-learning-trial","230","871967","0.0-11.0-2.0-1.20","4506","2","19","Male","approach_avoid_spark_v1","""event"",""trial"",""time""
""fullscreenenter"",""1"",""1280""
","
","
","""event"",""trial"",""time""
""fullscreenenter"",""1"",""1280""
","
","","","","","","636.2000000178814","images/bush5.png","","","learning","2","2","1","1","bush","plants","1","1","","neutral","0"
"html-keyboard-response","231","872472","0.0-11.0-2.0-0.21","4506","2","19","Male","approach_avoid_spark_v1","""event"",""trial"",""time""
""fullscreenenter"",""1"",""1280""
","
","
","""event"",""trial"",""time""
""fullscreenenter"",""1"",""1280""
","
","","","","","","null","<div style=""font-size:60px;"">+</div>","null","","fixation","","","","","","","","","","",""
"aa-learning-trial","232","875480","0.0-11.0-2.0-1.21","4506","2","19","Male","approach_avoid_spark_v1","""event"",""trial"",""time""
""fullscreenenter"",""1"",""1280""
","
","
","""event"",""trial"",""time""
""fullscreenenter"",""1"",""1280""
","
","","","","","","1403.4000000059605","images/tree3.png","","","learning","-6","0","0","0","tree","plants","1","1","","bad","[-6]"
"html-keyboard-response","233","875984","0.0-11.0-2.0-0.22","4506","2","19","Male","approach_avoid_spark_v1","""event"",""trial"",""time""
""fullscreenenter"",""1"",""1280""
","
","
","""event"",""trial"",""time""
""fullscreenenter"",""1"",""1280""
","
","","","","","","null","<div style=""font-size:60px;"">+</div>","null","","fixation","","","","","","","","","","",""
"aa-learning-trial","234","878991","0.0-11.0-2.0-1.22","4506","2","19","Male","approach_avoid_spark_v1","""event"",""trial"",""time""
""fullscreenenter"",""1"",""1280""
","
","
","""event"",""trial"",""time""
""fullscreenenter"",""1"",""1280""
","
","","","","","","598","images/tree1.png","","","learning","-7","0","0","0","tree","plants","1","1","","bad","[-6]"
"html-keyboard-response","235","879496","0.0-11.0-2.0-0.23","4506","2","19","Male","approach_avoid_spark_v1","""event"",""trial"",""time""
""fullscreenenter"",""1"",""1280""
","
","
","""event"",""trial"",""time""
""fullscreenenter"",""1"",""1280""
","
","","","","","","null","<div style=""font-size:60px;"">+</div>","null","","fixation","","","","","","","","","","",""
"aa-learning-trial","236","882503","0.0-11.0-2.0-1.23","4506","2","19","Male","approach_avoid_spark_v1","""event"",""trial"",""time""
""fullscreenenter"",""1"",""1280""
","
","
","""event"",""trial"",""time""
""fullscreenenter"",""1"",""1280""
","
","","","","","","575.5","images/flower3.png","","","learning","4","4","1","1","flower","plants","1","1","","good","[3]"
"html-keyboard-response","237","883008","0.0-11.0-2.0-0.24","4506","2","19","Male","approach_avoid_spark_v1","""event"",""trial"",""time""
""fullscreenenter"",""1"",""1280""
","
","
","""event"",""trial"",""time""
""fullscreenenter"",""1"",""1280""
","
","","","","","","null","<div style=""font-size:60px;"">+</div>","null","","fixation","","","","","","","","","","",""
