"trial_type","trial_index","time_elapsed","internal_node_id","subject_id","task_condition","age","gender","task_version","interactions","blur_events","focus_events","fullscreenenter_events","fullscreenexit_events","success","timeout","failed_images","failed_audio","failed_video","rt","stimulus","response","button_pressed","task_part","approach_reward","points","key_press","option_selected","stim_cat","task_block","block_condition","block_number","correct","cat_type","mean_cat_reward"
"pavlovia","0","4","0.0-0.0","3857","2","16","Male","approach_avoid_spark_v1","""event"",""trial"",""time""
""fullscreenenter"",""1"",""2460""
","
","
","""event"",""trial"",""time""
""fullscreenenter"",""1"",""2460""
","
","","","","","","","","","","","","","","","","","","","","",""
"fullscreen","1","3444","0.0-1.0","3857","2","16","Male","approach_avoid_spark_v1","""event"",""trial"",""time""
""fullscreenenter"",""1"",""2460""
","
","
","""event"",""trial"",""time""
""fullscreenenter"",""1"",""2460""
","
","true","","","","","","","","","","","","","","","","","","","",""
"preload","2","20530","0.0-2.0","3857","2","16","Male","approach_avoid_spark_v1","""event"",""trial"",""time""
""fullscreenenter"",""1"",""2460""
","
","
","""event"",""trial"",""time""
""fullscreenenter"",""1"",""2460""
","
","true","false","[]","[]","[]","","","","","","","","","","","","","","","",""
"audio-keyboard-response","3","23225","0.0-3.0","3857","2","16","Male","approach_avoid_spark_v1","""event"",""trial"",""time""
""fullscreenenter"",""1"",""2460""
","
","
","""event"",""trial"",""time""
""fullscreenenter"",""1"",""2460""
","
","","","","","","2693.5147392290232","audio/beep_loop.wav"," ","","","","","","","","","","","","",""
"audio-button-response","4","25241","0.0-4.0","3857","2","16","Male","approach_avoid_spark_v1","""event"",""trial"",""time""
""fullscreenenter"",""1"",""2460""
","
","
","""event"",""trial"",""time""
""fullscreenenter"",""1"",""2460""
","
","","","","","","2014","audio/shark.wav","4","","","","","","","","","","","","",""
"audio-button-response","5","27784","0.0-5.0","3857","2","16","Male","approach_avoid_spark_v1","""event"",""trial"",""time""
""fullscreenenter"",""1"",""2460""
","
","
","""event"",""trial"",""time""
""fullscreenenter"",""1"",""2460""
","
","","","","","","1538","audio/turtle.wav","1","","","","","","","","","","","","",""
"preload","6","41085","0.0-6.0","3857","2","16","Male","approach_avoid_spark_v1","""event"",""trial"",""time""
""fullscreenenter"",""1"",""2460""
","
","
","""event"",""trial"",""time""
""fullscreenenter"",""1"",""2460""
","
","true","false","[]","[]","[]","","","","","","","","","","","","","","","",""
"html-keyboard-response","7","43190","0.0-7.0","3857","2","16","Male","approach_avoid_spark_v1","""event"",""trial"",""time""
""fullscreenenter"",""1"",""2460""
","
","
","""event"",""trial"",""time""
""fullscreenenter"",""1"",""2460""
","
","","","","","","2103.0999999940395","Welcome to the experiment. Press any key to begin and to advance the instructions."," ","","","","","","","","","","","","",""
"learning-instructions","8","51567","0.0-8.0-0.0-0.0","3857","2","16","Male","approach_avoid_spark_v1","""event"",""trial"",""time""
""fullscreenenter"",""1"",""2460""
","
","
","""event"",""trial"",""time""
""fullscreenenter"",""1"",""2460""
","
","","","","","","1423.5999999940395","<p> Welcome! Today you are going to play 6 different rounds of a decision-making game. </p><p> Use the mouse to click next to continue. </p>","","0","instructions","","","","","","","","","","",""
"learning-instructions","9","54839","0.0-8.0-0.0-0.1","3857","2","16","Male","approach_avoid_spark_v1","""event"",""trial"",""time""
""fullscreenenter"",""1"",""2460""
","
","
","""event"",""trial"",""time""
""fullscreenenter"",""1"",""2460""
","
","","","","","","550.3000000119209","<p> You will start with a practice round to learn the rules. </p>","","0","instructions","","","","","","","","","","",""
"learning-instructions","10","58805","0.0-8.0-0.0-0.2","3857","2","16","Male","approach_avoid_spark_v1","""event"",""trial"",""time""
""fullscreenenter"",""1"",""2460""
","
","
","""event"",""trial"",""time""
""fullscreenenter"",""1"",""2460""
","
","","","","","","523.1999999880791","<p> Your goal in this round is to give out sports equipment to kids. </p></div>","","0","instructions","","","","","","","","","","",""
"learning-instructions","11","66892","0.0-8.0-0.0-0.3","3857","2","16","Male","approach_avoid_spark_v1","""event"",""trial"",""time""
""fullscreenenter"",""1"",""2460""
","
","
","""event"",""trial"",""time""
""fullscreenenter"",""1"",""2460""
","
","","","","","","546.5","<p> The kids only like some of the equipment.  </p><p> On each turn, you will see a piece of sports equipment.   </p><p> You need to decide whether to give it to the kids or not.  </p>","","0","instructions","","","","","","","","","","",""
"learning-instructions","12","72136","0.0-8.0-0.0-0.4","3857","2","16","Male","approach_avoid_spark_v1","""event"",""trial"",""time""
""fullscreenenter"",""1"",""2460""
","
","
","""event"",""trial"",""time""
""fullscreenenter"",""1"",""2460""
","
","","","","","","501.40000000596046","<p> You can give them the equipment by pressing 1 and choose not to give it to them by pressing 0. </p><br><div class=""choice-instructions-grid""> <div class=""choice-option""><img src=""images/approach.png"" class=""choice-option-img"" stage=""instructions"" position=""0"" ><div class=""choice-option-text""> Press ""1."" </div></div><div class=""choice-option""><img src=""images/avoid.png"" class=""choice-option-img"" stage=""instructions"" position=""1"" ><div class=""choice-option-text""> Press ""0."" </div></div>","","0","instructions","","","","","","","","","","",""
"learning-instructions","13","79970","0.0-8.0-0.0-0.5","3857","2","16","Male","approach_avoid_spark_v1","""event"",""trial"",""time""
""fullscreenenter"",""1"",""2460""
","
","
","""event"",""trial"",""time""
""fullscreenenter"",""1"",""2460""
","
","","","","","","452","<p> If you give them a piece of equipment they like, they will be happy! </p><p> But if you give them a piece of equipment they do not like, they will be sad. </p>","","0","instructions","","","","","","","","","","",""
"learning-instructions","14","91001","0.0-8.0-0.0-0.6","3857","2","16","Male","approach_avoid_spark_v1","""event"",""trial"",""time""
""fullscreenenter"",""1"",""2460""
","
","
","""event"",""trial"",""time""
""fullscreenenter"",""1"",""2460""
","
","","","","","","528.9000000059605","<p> You will earn points based on how you make kids feel. </p><p> If you make them happy, you will WIN anywhere from 1 - 9 points, </p><p> but if you make them sad, you will LOSE anywhere from 1 - 9 points. </p>","","0","instructions","","","","","","","","","","",""
"learning-instructions","15","101303","0.0-8.0-0.0-0.7","3857","2","16","Male","approach_avoid_spark_v1","""event"",""trial"",""time""
""fullscreenenter"",""1"",""2460""
","
","
","""event"",""trial"",""time""
""fullscreenenter"",""1"",""2460""
","
","","","","","","753.1999999880791","<p> You will see how many points you won or lost in the center of the screen. </p><p> Here is what you would see if you won 6 points: </p><p style=""color:green;font-size:50px;font-weight:bolder"">6</p><p style=""color:green"">The text is GREEN because you WON points.</p>","","0","instructions","","","","","","","","","","",""
"learning-instructions","16","107665","0.0-8.0-0.0-0.8","3857","2","16","Male","approach_avoid_spark_v1","""event"",""trial"",""time""
""fullscreenenter"",""1"",""2460""
","
","
","""event"",""trial"",""time""
""fullscreenenter"",""1"",""2460""
","
","","","","","","863.7000000178814","<p> And here is what you would see if you lost 4 points: </p><p style=""color:red;font-size:50px;font-weight:bolder"">-4</p><p style=""color:red"">The text is RED because you LOST points. </p>","","0","instructions","","","","","","","","","","",""
"learning-instructions","17","122851","0.0-8.0-0.0-0.9","3857","2","16","Male","approach_avoid_spark_v1","""event"",""trial"",""time""
""fullscreenenter"",""1"",""2460""
","
","
","""event"",""trial"",""time""
""fullscreenenter"",""1"",""2460""
","
","","","","","","479.7000000178814","<p> Some of the equipment will make the kids VERY happy or sad. </p><p> These pieces of equipment will make you win or lose LOTS of points. </p><p> Other pieces of equipment will only make the kids a little happy or sad. </p><p> These pieces of equipment will make you win or lose small amounts of points. </p>","","0","instructions","","","","","","","","","","",""
"learning-instructions","18","134173","0.0-8.0-0.0-0.10","3857","2","16","Male","approach_avoid_spark_v1","""event"",""trial"",""time""
""fullscreenenter"",""1"",""2460""
","
","
","""event"",""trial"",""time""
""fullscreenenter"",""1"",""2460""
","
","","","","","","702.4000000059605","<p> If you choose not to give them the equipment, you will not win or lose any points. </p><p>  However, in the center of the screen, you will see the number of points you WOULD HAVE won or lost if you had given them the equipment. </p>","","0","instructions","","","","","","","","","","",""
"learning-instructions","19","156444","0.0-8.0-0.0-0.11","3857","2","16","Male","approach_avoid_spark_v1","""event"",""trial"",""time""
""fullscreenenter"",""1"",""2460""
","
","
","""event"",""trial"",""time""
""fullscreenenter"",""1"",""2460""
","
","","","","","","751.5","<p> Here is what you might see if you did not give the equipment to the kids but it would have made them happy: </p><p style=""color:grey; font-size:50px; display: inline-block; border-spacing: 15px; border-width:3px; border-style:solid; border-color:red"">  &nbsp; 7 &nbsp; </p><p> Remember, in this case, you would not win or lose ANY points because you did not give them the equipment.  </p><p style=""color:grey"">The text is GREY because you earned ZERO points. </p><p style=""color:red"">However, choosing to give the kids the equipment would have made you win points. The box around the text is RED because you chose the worse option. </p>","","0","instructions","","","","","","","","","","",""
"learning-instructions","20","178199","0.0-8.0-0.0-0.12","3857","2","16","Male","approach_avoid_spark_v1","""event"",""trial"",""time""
""fullscreenenter"",""1"",""2460""
","
","
","""event"",""trial"",""time""
""fullscreenenter"",""1"",""2460""
","
","","","","","","684.2000000178814","<p> Here is what you might see if you did not give the equipment to the kids but it would have made them sad: </p><p style=""color:grey;font-size:50px; display: inline-block; border-spacing: 15px; border-width:3px; border-style:solid; border-color:green"">  &nbsp; -8 &nbsp; </p><p> Remember, in this case, you would not win or lose ANY points because you did not give them the equipment.  </p><p style=""color:grey"">The text is GREY because you earned ZERO points. </p><p  style=""color:green""> Choosing to give the kids the equipment would have made you lose points. The box around the text is GREEN because you chose the better option.</p>","","0","instructions","","","","","","","","","","",""
"learning-instructions","21","188216","0.0-8.0-0.0-0.13","3857","2","16","Male","approach_avoid_spark_v1","""event"",""trial"",""time""
""fullscreenenter"",""1"",""2460""
","
","
","""event"",""trial"",""time""
""fullscreenenter"",""1"",""2460""
","
","","","","","","525.7000000178814","<p> You will have 3 seconds to make each choice. Try to respond before time runs out! </p><p> You will lose 5 points each time you do not make a response. </p>","","0","instructions","","","","","","","","","","",""
"learning-instructions","22","194183","0.0-8.0-0.0-0.14","3857","2","16","Male","approach_avoid_spark_v1","""event"",""trial"",""time""
""fullscreenenter"",""1"",""2460""
","
","
","""event"",""trial"",""time""
""fullscreenenter"",""1"",""2460""
","
","","","","","","559","<p> This is just a practice round, but in the real game, your bonus payment will depend on your total number of points.","","0","instructions","","","","","","","","","","",""
"learning-instructions","23","200464","0.0-8.0-0.0-0.15","3857","2","16","Male","approach_avoid_spark_v1","""event"",""trial"",""time""
""fullscreenenter"",""1"",""2460""
","
","
","""event"",""trial"",""time""
""fullscreenenter"",""1"",""2460""
","
","","","","","","524.4000000059605","<p> Remember, you can give them the equipment by pressing 1 and choose not to give it to them by pressing 0. </p><br><div class=""choice-instructions-grid""> <div class=""choice-option""><img src=""images/approach.png"" class=""choice-option-img"" stage=""instructions"" position=""0"" ><div class=""choice-option-text""> Press ""1."" </div></div><div class=""choice-option""><img src=""images/avoid.png"" class=""choice-option-img"" stage=""instructions"" position=""1"" ><div class=""choice-option-text""> Press ""0."" </div></div>","","0","instructions","","","","","","","","","","",""
"html-button-response","24","202418","0.0-8.0-1.0","3857","2","16","Male","approach_avoid_spark_v1","""event"",""trial"",""time""
""fullscreenenter"",""1"",""2460""
","
","
","""event"",""trial"",""time""
""fullscreenenter"",""1"",""2460""
","
","","","","","","1851.2000000178814","<p> Ready to practice? </p>","0","","","","","","","","","","","","",""
"html-keyboard-response","25","203025","0.0-8.0-2.0-0.0","3857","2","16","Male","approach_avoid_spark_v1","""event"",""trial"",""time""
""fullscreenenter"",""1"",""2460""
","
","
","""event"",""trial"",""time""
""fullscreenenter"",""1"",""2460""
","
","","","","","","null","<div style=""font-size:60px;"">+</div>","null","","fixation","","","","","","","","","","",""
"aa-learning-trial","26","206033","0.0-8.0-2.0-1.0","3857","2","16","Male","approach_avoid_spark_v1","""event"",""trial"",""time""
""fullscreenenter"",""1"",""2460""
","
","
","""event"",""trial"",""time""
""fullscreenenter"",""1"",""2460""
","
","","","","","","1091","images/ball4.png","","","learning","-3","-3","1","1","practice","practice","practice","-1","","",""
"html-keyboard-response","27","206537","0.0-8.0-2.0-0.1","3857","2","16","Male","approach_avoid_spark_v1","""event"",""trial"",""time""
""fullscreenenter"",""1"",""2460""
","
","
","""event"",""trial"",""time""
""fullscreenenter"",""1"",""2460""
","
","","","","","","null","<div style=""font-size:60px;"">+</div>","null","","fixation","","","","","","","","","","",""
"aa-learning-trial","28","209543","0.0-8.0-2.0-1.1","3857","2","16","Male","approach_avoid_spark_v1","""event"",""trial"",""time""
""fullscreenenter"",""1"",""2460""
","
","
","""event"",""trial"",""time""
""fullscreenenter"",""1"",""2460""
","
","","","","","","652.7000000178814","images/ball3.png","","","learning","-5","-5","1","1","practice","practice","practice","-1","","",""
"html-keyboard-response","29","210046","0.0-8.0-2.0-0.2","3857","2","16","Male","approach_avoid_spark_v1","""event"",""trial"",""time""
""fullscreenenter"",""1"",""2460""
","
","
","""event"",""trial"",""time""
""fullscreenenter"",""1"",""2460""
","
","","","","","","null","<div style=""font-size:60px;"">+</div>","null","","fixation","","","","","","","","","","",""
"aa-learning-trial","30","213050","0.0-8.0-2.0-1.2","3857","2","16","Male","approach_avoid_spark_v1","""event"",""trial"",""time""
""fullscreenenter"",""1"",""2460""
","
","
","""event"",""trial"",""time""
""fullscreenenter"",""1"",""2460""
","
","","","","","","697","images/racket2.png","","","learning","3","3","1","1","practice","practice","practice","-1","","",""
"html-keyboard-response","31","213556","0.0-8.0-2.0-0.3","3857","2","16","Male","approach_avoid_spark_v1","""event"",""trial"",""time""
""fullscreenenter"",""1"",""2460""
","
","
","""event"",""trial"",""time""
""fullscreenenter"",""1"",""2460""
","
","","","","","","null","<div style=""font-size:60px;"">+</div>","null","","fixation","","","","","","","","","","",""
"aa-learning-trial","32","216563","0.0-8.0-2.0-1.3","3857","2","16","Male","approach_avoid_spark_v1","""event"",""trial"",""time""
""fullscreenenter"",""1"",""2460""
","
","
","""event"",""trial"",""time""
""fullscreenenter"",""1"",""2460""
","
","","","","","","565.5","images/racket4.png","","","learning","1","1","1","1","practice","practice","practice","-1","","",""
"html-keyboard-response","33","217068","0.0-8.0-2.0-0.4","3857","2","16","Male","approach_avoid_spark_v1","""event"",""trial"",""time""
""fullscreenenter"",""1"",""2460""
","
","
","""event"",""trial"",""time""
""fullscreenenter"",""1"",""2460""
","
","","","","","","null","<div style=""font-size:60px;"">+</div>","null","","fixation","","","","","","","","","","",""
"aa-learning-trial","34","220075","0.0-8.0-2.0-1.4","3857","2","16","Male","approach_avoid_spark_v1","""event"",""trial"",""time""
""fullscreenenter"",""1"",""2460""
","
","
","""event"",""trial"",""time""
""fullscreenenter"",""1"",""2460""
","
","","","","","","827.7999999821186","images/ball4.png","","","learning","-1","0","0","0","practice","practice","practice","-1","","",""
"html-keyboard-response","35","220580","0.0-8.0-2.0-0.5","3857","2","16","Male","approach_avoid_spark_v1","""event"",""trial"",""time""
""fullscreenenter"",""1"",""2460""
","
","
","""event"",""trial"",""time""
""fullscreenenter"",""1"",""2460""
","
","","","","","","null","<div style=""font-size:60px;"">+</div>","null","","fixation","","","","","","","","","","",""
"aa-learning-trial","36","223584","0.0-8.0-2.0-1.5","3857","2","16","Male","approach_avoid_spark_v1","""event"",""trial"",""time""
""fullscreenenter"",""1"",""2460""
","
","
","""event"",""trial"",""time""
""fullscreenenter"",""1"",""2460""
","
","","","","","","649.7999999821186","images/ball4.png","","","learning","-5","0","0","0","practice","practice","practice","-1","","",""
"html-keyboard-response","37","224087","0.0-8.0-2.0-0.6","3857","2","16","Male","approach_avoid_spark_v1","""event"",""trial"",""time""
""fullscreenenter"",""1"",""2460""
","
","
","""event"",""trial"",""time""
""fullscreenenter"",""1"",""2460""
","
","","","","","","null","<div style=""font-size:60px;"">+</div>","null","","fixation","","","","","","","","","","",""
"aa-learning-trial","38","227094","0.0-8.0-2.0-1.6","3857","2","16","Male","approach_avoid_spark_v1","""event"",""trial"",""time""
""fullscreenenter"",""1"",""2460""
","
","
","""event"",""trial"",""time""
""fullscreenenter"",""1"",""2460""
","
","","","","","","507.90000000596046","images/ball2.png","","","learning","-9","0","0","0","practice","practice","practice","-1","","",""
"html-keyboard-response","39","227599","0.0-8.0-2.0-0.7","3857","2","16","Male","approach_avoid_spark_v1","""event"",""trial"",""time""
""fullscreenenter"",""1"",""2460""
","
","
","""event"",""trial"",""time""
""fullscreenenter"",""1"",""2460""
","
","","","","","","null","<div style=""font-size:60px;"">+</div>","null","","fixation","","","","","","","","","","",""
"aa-learning-trial","40","230605","0.0-8.0-2.0-1.7","3857","2","16","Male","approach_avoid_spark_v1","""event"",""trial"",""time""
""fullscreenenter"",""1"",""2460""
","
","
","""event"",""trial"",""time""
""fullscreenenter"",""1"",""2460""
","
","","","","","","708.7999999821186","images/racket1.png","","","learning","3","3","1","1","practice","practice","practice","-1","","",""
"html-keyboard-response","41","231111","0.0-8.0-2.0-0.8","3857","2","16","Male","approach_avoid_spark_v1","""event"",""trial"",""time""
""fullscreenenter"",""1"",""2460""
","
","
","""event"",""trial"",""time""
""fullscreenenter"",""1"",""2460""
","
","","","","","","null","<div style=""font-size:60px;"">+</div>","null","","fixation","","","","","","","","","","",""
"aa-learning-trial","42","234118","0.0-8.0-2.0-1.8","3857","2","16","Male","approach_avoid_spark_v1","""event"",""trial"",""time""
""fullscreenenter"",""1"",""2460""
","
","
","""event"",""trial"",""time""
""fullscreenenter"",""1"",""2460""
","
","","","","","","459","images/racket1.png","","","learning","4","4","1","1","practice","practice","practice","-1","","",""
"html-keyboard-response","43","234623","0.0-8.0-2.0-0.9","3857","2","16","Male","approach_avoid_spark_v1","""event"",""trial"",""time""
""fullscreenenter"",""1"",""2460""
","
","
","""event"",""trial"",""time""
""fullscreenenter"",""1"",""2460""
","
","","","","","","null","<div style=""font-size:60px;"">+</div>","null","","fixation","","","","","","","","","","",""
"aa-learning-trial","44","237628","0.0-8.0-2.0-1.9","3857","2","16","Male","approach_avoid_spark_v1","""event"",""trial"",""time""
""fullscreenenter"",""1"",""2460""
","
","
","""event"",""trial"",""time""
""fullscreenenter"",""1"",""2460""
","
","","","","","","761.3000000119209","images/racket2.png","","","learning","-2","-2","1","1","practice","practice","practice","-1","","",""
"html-keyboard-response","45","238132","0.0-8.0-2.0-0.10","3857","2","16","Male","approach_avoid_spark_v1","""event"",""trial"",""time""
""fullscreenenter"",""1"",""2460""
","
","
","""event"",""trial"",""time""
""fullscreenenter"",""1"",""2460""
","
","","","","","","null","<div style=""font-size:60px;"">+</div>","null","","fixation","","","","","","","","","","",""
"aa-learning-trial","46","241140","0.0-8.0-2.0-1.10","3857","2","16","Male","approach_avoid_spark_v1","""event"",""trial"",""time""
""fullscreenenter"",""1"",""2460""
","
","
","""event"",""trial"",""time""
""fullscreenenter"",""1"",""2460""
","
","","","","","","750.1999999880791","images/ball3.png","","","learning","3","0","0","0","practice","practice","practice","-1","","",""
"html-keyboard-response","47","241645","0.0-8.0-2.0-0.11","3857","2","16","Male","approach_avoid_spark_v1","""event"",""trial"",""time""
""fullscreenenter"",""1"",""2460""
","
","
","""event"",""trial"",""time""
""fullscreenenter"",""1"",""2460""
","
","","","","","","null","<div style=""font-size:60px;"">+</div>","null","","fixation","","","","","","","","","","",""
"aa-learning-trial","48","244652","0.0-8.0-2.0-1.11","3857","2","16","Male","approach_avoid_spark_v1","""event"",""trial"",""time""
""fullscreenenter"",""1"",""2460""
","
","
","""event"",""trial"",""time""
""fullscreenenter"",""1"",""2460""
","
","","","","","","765","images/racket2.png","","","learning","3","3","1","1","practice","practice","practice","-1","","",""
"html-button-response","49","247210","0.0-8.0-3.0","3857","2","16","Male","approach_avoid_spark_v1","""event"",""trial"",""time""
""fullscreenenter"",""1"",""2460""
","
","
","""event"",""trial"",""time""
""fullscreenenter"",""1"",""2460""
","
","","","","","","2555.9000000059605","<p> You earned 4 points in the practice round! </p>","0","","break","","","","","","","","","","",""
"learning-instructions","50","257843","0.0-8.0-4.0-0.0","3857","2","16","Male","approach_avoid_spark_v1","""event"",""trial"",""time""
""fullscreenenter"",""1"",""2460""
","
","
","""event"",""trial"",""time""
""fullscreenenter"",""1"",""2460""
","
","","","","","","4669.0999999940395","<p> It's almost time to start the real game. </p><p> Before you start, we're going to ask you a few questions about how the game works. </p>","","0","instructions","","","","","","","","","","",""
"preload","51","263826","0.0-8.0-5.0","3857","2","16","Male","approach_avoid_spark_v1","""event"",""trial"",""time""
""fullscreenenter"",""1"",""2460""
","
","
","""event"",""trial"",""time""
""fullscreenenter"",""1"",""2460""
","
","true","false","[]","[]","[]","","","","","","","","","","","","","","","",""
"comp-q","52","270535","0.0-8.0-6.0-0.0","3857","2","16","Male","approach_avoid_spark_v1","""event"",""trial"",""time""
""fullscreenenter"",""1"",""2460""
","
","
","""event"",""trial"",""time""
""fullscreenenter"",""1"",""2460""
","
","","","","","","1715.7000000178814","<p> <b> True or False? </b> </p><p> If you see a number in GREY, that means you earned that many points. </p>","","1","comp_question","","","","","","","","","true","",""
"comp-q","53","281637","0.0-8.0-6.0-1.0","3857","2","16","Male","approach_avoid_spark_v1","""event"",""trial"",""time""
""fullscreenenter"",""1"",""2460""
","
","
","""event"",""trial"",""time""
""fullscreenenter"",""1"",""2460""
","
","","","","","","2746","<p><b> That's right! </b> If you see a grey number, it means you earned ZERO points. <br> The grey numbers show the points you WOULD HAVE earned if you had made the other choice. </p>","","0","comp_answer","","","","","","","","","","",""
"comp-q","54","286875","0.0-8.0-7.0-0.0","3857","2","16","Male","approach_avoid_spark_v1","""event"",""trial"",""time""
""fullscreenenter"",""1"",""2460""
","
","
","""event"",""trial"",""time""
""fullscreenenter"",""1"",""2460""
","
","","","","","","554.3000000119209","<p> <b> True or False? </b> </p><p> You will have as much time as you want to make each choice. </p>","","1","comp_question","","","","","","","","","true","",""
"comp-q","55","293817","0.0-8.0-7.0-1.0","3857","2","16","Male","approach_avoid_spark_v1","""event"",""trial"",""time""
""fullscreenenter"",""1"",""2460""
","
","
","""event"",""trial"",""time""
""fullscreenenter"",""1"",""2460""
","
","","","","","","2903.699999988079","<p> <b> That's right! </b> You will only have 3 seconds to make each choice. </p>","","0","comp_answer","","","","","","","","","","",""
"comp-q","56","299067","0.0-8.0-8.0-0.0","3857","2","16","Male","approach_avoid_spark_v1","""event"",""trial"",""time""
""fullscreenenter"",""1"",""2460""
","
","
","""event"",""trial"",""time""
""fullscreenenter"",""1"",""2460""
","
","","","","","","600.0999999940395","<p> <b> True or False? </b> </p><p> You should use the '1' and '0' keys to make your choices. </p>","","0","comp_question","","","","","","","","","true","",""
"comp-q","57","305665","0.0-8.0-8.0-1.0","3857","2","16","Male","approach_avoid_spark_v1","""event"",""trial"",""time""
""fullscreenenter"",""1"",""2460""
","
","
","""event"",""trial"",""time""
""fullscreenenter"",""1"",""2460""
","
","","","","","","1992.2000000178814","<p> <b> That's right! </b> You should use the '1' and '0' keys to make each choice. </p>","","0","comp_answer","","","","","","","","","","",""
"learning-instructions","58","313178","0.0-8.0-9.0-0.0","3857","2","16","Male","approach_avoid_spark_v1","""event"",""trial"",""time""
""fullscreenenter"",""1"",""2460""
","
","
","""event"",""trial"",""time""
""fullscreenenter"",""1"",""2460""
","
","","","","","","1250.5","<p> It's now time to start the real game. </p>Do your best, because the points you earn in the next rounds will influence your bonus payment. </p>","","0","instructions","","","","","","","","","","",""
"preload","59","313303","0.0-9.0-0.0","3857","2","16","Male","approach_avoid_spark_v1","""event"",""trial"",""time""
""fullscreenenter"",""1"",""2460""
","
","
","""event"",""trial"",""time""
""fullscreenenter"",""1"",""2460""
","
","true","false","[]","[]","[]","","","","","","","","","","","","","","","",""
"learning-instructions","60","318985","0.0-9.0-1.0-0.0","3857","2","16","Male","approach_avoid_spark_v1","""event"",""trial"",""time""
""fullscreenenter"",""1"",""2460""
","
","
","""event"",""trial"",""time""
""fullscreenenter"",""1"",""2460""
","
","","","","","","1009","<p> Your goal in this round is to decorate your friend's new house with furniture. </p></div>","","0","instructions","","","","","","","","","","",""
"learning-instructions","61","329749","0.0-9.0-1.0-0.1","3857","2","16","Male","approach_avoid_spark_v1","""event"",""trial"",""time""
""fullscreenenter"",""1"",""2460""
","
","
","""event"",""trial"",""time""
""fullscreenenter"",""1"",""2460""
","
","","","","","","475.19999998807907","<p> Your friend likes some pieces of furniture but not others.  </p><p> On each turn, you will see a piece of furniture.   </p><p> You need to decide whether to put it in your friend's house or not.  </p>","","0","instructions","","","","","","","","","","",""
"learning-instructions","62","336166","0.0-9.0-1.0-0.2","3857","2","16","Male","approach_avoid_spark_v1","""event"",""trial"",""time""
""fullscreenenter"",""1"",""2460""
","
","
","""event"",""trial"",""time""
""fullscreenenter"",""1"",""2460""
","
","","","","","","546.8000000119209","<p> You can put the furniture in her house by pressing 1 and deliver it elsewhere by pressing 0. </p><br><div class=""choice-instructions-grid""> <div class=""choice-option""><img src=""images/approach.png"" class=""choice-option-img"" stage=""instructions"" position=""0"" ><div class=""choice-option-text""> Press ""1."" </div></div><div class=""choice-option""><img src=""images/avoid.png"" class=""choice-option-img"" stage=""instructions"" position=""1"" ><div class=""choice-option-text""> Press ""0."" </div></div>","","0","instructions","","","","","","","","","","",""
"learning-instructions","63","345822","0.0-9.0-1.0-0.3","3857","2","16","Male","approach_avoid_spark_v1","""event"",""trial"",""time""
""fullscreenenter"",""1"",""2460""
","
","
","""event"",""trial"",""time""
""fullscreenenter"",""1"",""2460""
","
","","","","","","515.0999999940395","<p> If you decorate your friend's house with furniture she likes, she will be happy! </p><p> But if you give her furniture that she does not like, she will be annoyed. </p>","","0","instructions","","","","","","","","","","",""
"learning-instructions","64","359811","0.0-9.0-1.0-0.4","3857","2","16","Male","approach_avoid_spark_v1","""event"",""trial"",""time""
""fullscreenenter"",""1"",""2460""
","
","
","""event"",""trial"",""time""
""fullscreenenter"",""1"",""2460""
","
","","","","","","1064.800000011921","<p> You will earn points based on how you made your friend feel. </p><p> If you made her happy, you will WIN anywhere from 1 - 9 points, </p><p> but if you made her annoyed you will LOSE anywhere from 1 - 9 points. </p>","","0","instructions","","","","","","","","","","",""
"learning-instructions","65","368828","0.0-9.0-1.0-0.5","3857","2","16","Male","approach_avoid_spark_v1","""event"",""trial"",""time""
""fullscreenenter"",""1"",""2460""
","
","
","""event"",""trial"",""time""
""fullscreenenter"",""1"",""2460""
","
","","","","","","1112.5999999940395","<p> You will see how many points you won or lost in the center of the screen. </p><p> Here is what you would see if you won 5 points: </p><p style=""color:green;font-size:50px;font-weight:bolder"">5</p>","","0","instructions","","","","","","","","","","",""
"learning-instructions","66","373226","0.0-9.0-1.0-0.6","3857","2","16","Male","approach_avoid_spark_v1","""event"",""trial"",""time""
""fullscreenenter"",""1"",""2460""
","
","
","""event"",""trial"",""time""
""fullscreenenter"",""1"",""2460""
","
","","","","","","761.8000000119209","<p> And here is what you would see if you lost 3 points: </p><p style=""color:red;font-size:50px;font-weight:bolder"">-3</p>","","0","instructions","","","","","","","","","","",""
"learning-instructions","67","392332","0.0-9.0-1.0-0.7","3857","2","16","Male","approach_avoid_spark_v1","""event"",""trial"",""time""
""fullscreenenter"",""1"",""2460""
","
","
","""event"",""trial"",""time""
""fullscreenenter"",""1"",""2460""
","
","","","","","","705.5","<p> Some pieces of furniture will make her feel very happy or very annoyed. </p><p> These pieces of furniture will make you win or lose LOTS of points. </p><p> Other pieces of furniture will only make her feel a little happy or a little annoyed. </p><p> These pieces of furniture will make you win or lose small amounts of points. </p>","","0","instructions","","","","","","","","","","",""
"learning-instructions","68","406301","0.0-9.0-1.0-0.8","3857","2","16","Male","approach_avoid_spark_v1","""event"",""trial"",""time""
""fullscreenenter"",""1"",""2460""
","
","
","""event"",""trial"",""time""
""fullscreenenter"",""1"",""2460""
","
","","","","","","544.8000000119209","<p> If you choose to deliver a piece of furniture elsewhere, you will not win or lose any points. </p><p>  However, in the center of the screen, you will see the number of points you WOULD HAVE won or lost if you had given the furniture to your friend. </p>","","0","instructions","","","","","","","","","","",""
"learning-instructions","69","418866","0.0-9.0-1.0-0.9","3857","2","16","Male","approach_avoid_spark_v1","""event"",""trial"",""time""
""fullscreenenter"",""1"",""2460""
","
","
","""event"",""trial"",""time""
""fullscreenenter"",""1"",""2460""
","
","","","","","","547.7000000178814","<p> Here is what you might see if you did not give a piece of furniture to your friend that would have made her happy: </p><p style=""color:grey; font-size:50px; display: inline-block; border-spacing: 15px; border-width:3px; border-style:solid; border-color:red"">  &nbsp; 6 &nbsp; </p><p> Remember, in this case, you would not win or lose ANY points because you did not give her the furniture.  </p>","","0","instructions","","","","","","","","","","",""
"learning-instructions","70","427329","0.0-9.0-1.0-0.10","3857","2","16","Male","approach_avoid_spark_v1","""event"",""trial"",""time""
""fullscreenenter"",""1"",""2460""
","
","
","""event"",""trial"",""time""
""fullscreenenter"",""1"",""2460""
","
","","","","","","610","<p> Try to make the best choice for each piece of furniture because </p><p> at the end of the game, you will earn bonus money based on how many points you earned. </p>","","0","instructions","","","","","","","","","","",""
"learning-instructions","71","436360","0.0-9.0-1.0-0.11","3857","2","16","Male","approach_avoid_spark_v1","""event"",""trial"",""time""
""fullscreenenter"",""1"",""2460""
","
","
","""event"",""trial"",""time""
""fullscreenenter"",""1"",""2460""
","
","","","","","","852.7000000178814","<p> You will have 3 seconds to make each choice. Try to respond before time runs out! </p><p> You will lose 5 points each time you do not make a response. </p>","","0","instructions","","","","","","","","","","",""
"html-keyboard-response","72","436968","0.0-9.0-2.0-0.0","3857","2","16","Male","approach_avoid_spark_v1","""event"",""trial"",""time""
""fullscreenenter"",""1"",""2460""
","
","
","""event"",""trial"",""time""
""fullscreenenter"",""1"",""2460""
","
","","","","","","null","<div style=""font-size:60px;"">+</div>","null","","fixation","","","","","","","","","","",""
"aa-learning-trial","73","439975","0.0-9.0-2.0-1.0","3857","2","16","Male","approach_avoid_spark_v1","""event"",""trial"",""time""
""fullscreenenter"",""1"",""2460""
","
","
","""event"",""trial"",""time""
""fullscreenenter"",""1"",""2460""
","
","","","","","","635.4000000059605","images/chair7.png","","","learning","-3","-3","1","1","chair","furniture","2","0","","good","[3]"
"html-keyboard-response","74","440480","0.0-9.0-2.0-0.1","3857","2","16","Male","approach_avoid_spark_v1","""event"",""trial"",""time""
""fullscreenenter"",""1"",""2460""
","
","
","""event"",""trial"",""time""
""fullscreenenter"",""1"",""2460""
","
","","","","","","null","<div style=""font-size:60px;"">+</div>","null","","fixation","","","","","","","","","","",""
"aa-learning-trial","75","443484","0.0-9.0-2.0-1.1","3857","2","16","Male","approach_avoid_spark_v1","""event"",""trial"",""time""
""fullscreenenter"",""1"",""2460""
","
","
","""event"",""trial"",""time""
""fullscreenenter"",""1"",""2460""
","
","","","","","","729.3000000119209","images/bed7.png","","","learning","8","0","0","0","bed","furniture","2","0","","bad","[-4]"
"html-keyboard-response","76","443988","0.0-9.0-2.0-0.2","3857","2","16","Male","approach_avoid_spark_v1","""event"",""trial"",""time""
""fullscreenenter"",""1"",""2460""
","
","
","""event"",""trial"",""time""
""fullscreenenter"",""1"",""2460""
","
","","","","","","null","<div style=""font-size:60px;"">+</div>","null","","fixation","","","","","","","","","","",""
"aa-learning-trial","77","446993","0.0-9.0-2.0-1.2","3857","2","16","Male","approach_avoid_spark_v1","""event"",""trial"",""time""
""fullscreenenter"",""1"",""2460""
","
","
","""event"",""trial"",""time""
""fullscreenenter"",""1"",""2460""
","
","","","","","","979.4000000059605","images/sofa1.png","","","learning","-5","-5","1","1","sofa","furniture","2","0","","neutral","0"
"html-keyboard-response","78","447497","0.0-9.0-2.0-0.3","3857","2","16","Male","approach_avoid_spark_v1","""event"",""trial"",""time""
""fullscreenenter"",""1"",""2460""
","
","
","""event"",""trial"",""time""
""fullscreenenter"",""1"",""2460""
","
","","","","","","null","<div style=""font-size:60px;"">+</div>","null","","fixation","","","","","","","","","","",""
"aa-learning-trial","79","450502","0.0-9.0-2.0-1.3","3857","2","16","Male","approach_avoid_spark_v1","""event"",""trial"",""time""
""fullscreenenter"",""1"",""2460""
","
","
","""event"",""trial"",""time""
""fullscreenenter"",""1"",""2460""
","
","","","","","","1061.2000000178814","images/chair3.png","","","learning","7","0","0","0","chair","furniture","2","0","","good","[3]"
"html-keyboard-response","80","451004","0.0-9.0-2.0-0.4","3857","2","16","Male","approach_avoid_spark_v1","""event"",""trial"",""time""
""fullscreenenter"",""1"",""2460""
","
","
","""event"",""trial"",""time""
""fullscreenenter"",""1"",""2460""
","
","","","","","","null","<div style=""font-size:60px;"">+</div>","null","","fixation","","","","","","","","","","",""
"aa-learning-trial","81","454012","0.0-9.0-2.0-1.4","3857","2","16","Male","approach_avoid_spark_v1","""event"",""trial"",""time""
""fullscreenenter"",""1"",""2460""
","
","
","""event"",""trial"",""time""
""fullscreenenter"",""1"",""2460""
","
","","","","","","1165.5999999940395","images/sofa8.png","","","learning","1","0","0","0","sofa","furniture","2","0","","neutral","0"
"html-keyboard-response","82","454517","0.0-9.0-2.0-0.5","3857","2","16","Male","approach_avoid_spark_v1","""event"",""trial"",""time""
""fullscreenenter"",""1"",""2460""
","
","
","""event"",""trial"",""time""
""fullscreenenter"",""1"",""2460""
","
","","","","","","null","<div style=""font-size:60px;"">+</div>","null","","fixation","","","","","","","","","","",""
"aa-learning-trial","83","457521","0.0-9.0-2.0-1.5","3857","2","16","Male","approach_avoid_spark_v1","""event"",""trial"",""time""
""fullscreenenter"",""1"",""2460""
","
","
","""event"",""trial"",""time""
""fullscreenenter"",""1"",""2460""
","
","","","","","","804.4000000059605","images/chair1.png","","","learning","3","3","1","1","chair","furniture","2","0","","good","[3]"
"html-keyboard-response","84","458023","0.0-9.0-2.0-0.6","3857","2","16","Male","approach_avoid_spark_v1","""event"",""trial"",""time""
""fullscreenenter"",""1"",""2460""
","
","
","""event"",""trial"",""time""
""fullscreenenter"",""1"",""2460""
","
","","","","","","null","<div style=""font-size:60px;"">+</div>","null","","fixation","","","","","","","","","","",""
"aa-learning-trial","85","461030","0.0-9.0-2.0-1.6","3857","2","16","Male","approach_avoid_spark_v1","""event"",""trial"",""time""
""fullscreenenter"",""1"",""2460""
","
","
","""event"",""trial"",""time""
""fullscreenenter"",""1"",""2460""
","
","","","","","","898.7000000178814","images/bed4.png","","","learning","-1","-1","1","1","bed","furniture","2","0","","bad","[-4]"
"html-keyboard-response","86","461535","0.0-9.0-2.0-0.7","3857","2","16","Male","approach_avoid_spark_v1","""event"",""trial"",""time""
""fullscreenenter"",""1"",""2460""
","
","
","""event"",""trial"",""time""
""fullscreenenter"",""1"",""2460""
","
","","","","","","null","<div style=""font-size:60px;"">+</div>","null","","fixation","","","","","","","","","","",""
"aa-learning-trial","87","464542","0.0-9.0-2.0-1.7","3857","2","16","Male","approach_avoid_spark_v1","""event"",""trial"",""time""
""fullscreenenter"",""1"",""2460""
","
","
","""event"",""trial"",""time""
""fullscreenenter"",""1"",""2460""
","
","","","","","","1036","images/sofa8.png","","","learning","1","0","0","0","sofa","furniture","2","0","","neutral","0"
"html-keyboard-response","88","465047","0.0-9.0-2.0-0.8","3857","2","16","Male","approach_avoid_spark_v1","""event"",""trial"",""time""
""fullscreenenter"",""1"",""2460""
","
","
","""event"",""trial"",""time""
""fullscreenenter"",""1"",""2460""
","
","","","","","","null","<div style=""font-size:60px;"">+</div>","null","","fixation","","","","","","","","","","",""
"aa-learning-trial","89","468054","0.0-9.0-2.0-1.8","3857","2","16","Male","approach_avoid_spark_v1","""event"",""trial"",""time""
""fullscreenenter"",""1"",""2460""
","
","
","""event"",""trial"",""time""
""fullscreenenter"",""1"",""2460""
","
","","","","","","1354","images/bed7.png","","","learning","8","0","0","0","bed","furniture","2","0","","bad","[-4]"
"html-keyboard-response","90","468559","0.0-9.0-2.0-0.9","3857","2","16","Male","approach_avoid_spark_v1","""event"",""trial"",""time""
""fullscreenenter"",""1"",""2460""
","
","
","""event"",""trial"",""time""
""fullscreenenter"",""1"",""2460""
","
","","","","","","null","<div style=""font-size:60px;"">+</div>","null","","fixation","","","","","","","","","","",""
"aa-learning-trial","91","471564","0.0-9.0-2.0-1.9","3857","2","16","Male","approach_avoid_spark_v1","""event"",""trial"",""time""
""fullscreenenter"",""1"",""2460""
","
","
","""event"",""trial"",""time""
""fullscreenenter"",""1"",""2460""
","
","","","","","","1018.5","images/bed8.png","","","learning","-4","-4","1","1","bed","furniture","2","0","","bad","[-4]"
"html-keyboard-response","92","472069","0.0-9.0-2.0-0.10","3857","2","16","Male","approach_avoid_spark_v1","""event"",""trial"",""time""
""fullscreenenter"",""1"",""2460""
","
","
","""event"",""trial"",""time""
""fullscreenenter"",""1"",""2460""
","
","","","","","","null","<div style=""font-size:60px;"">+</div>","null","","fixation","","","","","","","","","","",""
"aa-learning-trial","93","475076","0.0-9.0-2.0-1.10","3857","2","16","Male","approach_avoid_spark_v1","""event"",""trial"",""time""
""fullscreenenter"",""1"",""2460""
","
","
","""event"",""trial"",""time""
""fullscreenenter"",""1"",""2460""
","
","","","","","","1145.4000000059605","images/sofa2.png","","","learning","6","6","1","1","sofa","furniture","2","0","","neutral","0"
"html-keyboard-response","94","475581","0.0-9.0-2.0-0.11","3857","2","16","Male","approach_avoid_spark_v1","""event"",""trial"",""time""
""fullscreenenter"",""1"",""2460""
","
","
","""event"",""trial"",""time""
""fullscreenenter"",""1"",""2460""
","
","","","","","","null","<div style=""font-size:60px;"">+</div>","null","","fixation","","","","","","","","","","",""
"aa-learning-trial","95","478589","0.0-9.0-2.0-1.11","3857","2","16","Male","approach_avoid_spark_v1","""event"",""trial"",""time""
""fullscreenenter"",""1"",""2460""
","
","
","""event"",""trial"",""time""
""fullscreenenter"",""1"",""2460""
","
","","","","","","663.5","images/sofa2.png","","","learning","6","6","1","1","sofa","furniture","2","0","","neutral","0"
"html-keyboard-response","96","479093","0.0-9.0-2.0-0.12","3857","2","16","Male","approach_avoid_spark_v1","""event"",""trial"",""time""
""fullscreenenter"",""1"",""2460""
","
","
","""event"",""trial"",""time""
""fullscreenenter"",""1"",""2460""
","
","","","","","","null","<div style=""font-size:60px;"">+</div>","null","","fixation","","","","","","","","","","",""
"aa-learning-trial","97","482101","0.0-9.0-2.0-1.12","3857","2","16","Male","approach_avoid_spark_v1","""event"",""trial"",""time""
""fullscreenenter"",""1"",""2460""
","
","
","""event"",""trial"",""time""
""fullscreenenter"",""1"",""2460""
","
","","","","","","855.3000000119209","images/bed8.png","","","learning","-4","0","0","0","bed","furniture","2","0","","bad","[-4]"
"html-keyboard-response","98","482606","0.0-9.0-2.0-0.13","3857","2","16","Male","approach_avoid_spark_v1","""event"",""trial"",""time""
""fullscreenenter"",""1"",""2460""
","
","
","""event"",""trial"",""time""
""fullscreenenter"",""1"",""2460""
","
","","","","","","null","<div style=""font-size:60px;"">+</div>","null","","fixation","","","","","","","","","","",""
"aa-learning-trial","99","485609","0.0-9.0-2.0-1.13","3857","2","16","Male","approach_avoid_spark_v1","""event"",""trial"",""time""
""fullscreenenter"",""1"",""2460""
","
","
","""event"",""trial"",""time""
""fullscreenenter"",""1"",""2460""
","
","","","","","","1392","images/chair1.png","","","learning","3","3","1","1","chair","furniture","2","0","","good","[3]"
"html-keyboard-response","100","486114","0.0-9.0-2.0-0.14","3857","2","16","Male","approach_avoid_spark_v1","""event"",""trial"",""time""
""fullscreenenter"",""1"",""2460""
","
","
","""event"",""trial"",""time""
""fullscreenenter"",""1"",""2460""
","
","","","","","","null","<div style=""font-size:60px;"">+</div>","null","","fixation","","","","","","","","","","",""
"aa-learning-trial","101","489121","0.0-9.0-2.0-1.14","3857","2","16","Male","approach_avoid_spark_v1","""event"",""trial"",""time""
""fullscreenenter"",""1"",""2460""
","
","
","""event"",""trial"",""time""
""fullscreenenter"",""1"",""2460""
","
","","","","","","836.3000000119209","images/chair3.png","","","learning","7","0","0","0","chair","furniture","2","0","","good","[3]"
"html-keyboard-response","102","489626","0.0-9.0-2.0-0.15","3857","2","16","Male","approach_avoid_spark_v1","""event"",""trial"",""time""
""fullscreenenter"",""1"",""2460""
","
","
","""event"",""trial"",""time""
""fullscreenenter"",""1"",""2460""
","
","","","","","","null","<div style=""font-size:60px;"">+</div>","null","","fixation","","","","","","","","","","",""
"aa-learning-trial","103","492633","0.0-9.0-2.0-1.15","3857","2","16","Male","approach_avoid_spark_v1","""event"",""trial"",""time""
""fullscreenenter"",""1"",""2460""
","
","
","""event"",""trial"",""time""
""fullscreenenter"",""1"",""2460""
","
","","","","","","1016.9000000059605","images/sofa2.png","","","learning","6","6","1","1","sofa","furniture","2","0","","neutral","0"
"html-keyboard-response","104","493138","0.0-9.0-2.0-0.16","3857","2","16","Male","approach_avoid_spark_v1","""event"",""trial"",""time""
""fullscreenenter"",""1"",""2460""
","
","
","""event"",""trial"",""time""
""fullscreenenter"",""1"",""2460""
","
","","","","","","null","<div style=""font-size:60px;"">+</div>","null","","fixation","","","","","","","","","","",""
"aa-learning-trial","105","496146","0.0-9.0-2.0-1.16","3857","2","16","Male","approach_avoid_spark_v1","""event"",""trial"",""time""
""fullscreenenter"",""1"",""2460""
","
","
","""event"",""trial"",""time""
""fullscreenenter"",""1"",""2460""
","
","","","","","","1128.5","images/sofa3.png","","","learning","-9","0","0","0","sofa","furniture","2","0","","neutral","0"
"html-keyboard-response","106","496650","0.0-9.0-2.0-0.17","3857","2","16","Male","approach_avoid_spark_v1","""event"",""trial"",""time""
""fullscreenenter"",""1"",""2460""
","
","
","""event"",""trial"",""time""
""fullscreenenter"",""1"",""2460""
","
","","","","","","null","<div style=""font-size:60px;"">+</div>","null","","fixation","","","","","","","","","","",""
"aa-learning-trial","107","499655","0.0-9.0-2.0-1.17","3857","2","16","Male","approach_avoid_spark_v1","""event"",""trial"",""time""
""fullscreenenter"",""1"",""2460""
","
","
","""event"",""trial"",""time""
""fullscreenenter"",""1"",""2460""
","
","","","","","","1052.5999999940395","images/chair1.png","","","learning","3","0","0","0","chair","furniture","2","0","","good","[3]"
"html-keyboard-response","108","500160","0.0-9.0-2.0-0.18","3857","2","16","Male","approach_avoid_spark_v1","""event"",""trial"",""time""
""fullscreenenter"",""1"",""2460""
","
","
","""event"",""trial"",""time""
""fullscreenenter"",""1"",""2460""
","
","","","","","","null","<div style=""font-size:60px;"">+</div>","null","","fixation","","","","","","","","","","",""
"aa-learning-trial","109","503168","0.0-9.0-2.0-1.18","3857","2","16","Male","approach_avoid_spark_v1","""event"",""trial"",""time""
""fullscreenenter"",""1"",""2460""
","
","
","""event"",""trial"",""time""
""fullscreenenter"",""1"",""2460""
","
","","","","","","1069.199999988079","images/chair7.png","","","learning","-3","0","0","0","chair","furniture","2","0","","good","[3]"
"html-keyboard-response","110","503672","0.0-9.0-2.0-0.19","3857","2","16","Male","approach_avoid_spark_v1","""event"",""trial"",""time""
""fullscreenenter"",""1"",""2460""
","
","
","""event"",""trial"",""time""
""fullscreenenter"",""1"",""2460""
","
","","","","","","null","<div style=""font-size:60px;"">+</div>","null","","fixation","","","","","","","","","","",""
"aa-learning-trial","111","506679","0.0-9.0-2.0-1.19","3857","2","16","Male","approach_avoid_spark_v1","""event"",""trial"",""time""
""fullscreenenter"",""1"",""2460""
","
","
","""event"",""trial"",""time""
""fullscreenenter"",""1"",""2460""
","
","","","","","","1503.300000011921","images/sofa1.png","","","learning","-5","-5","1","1","sofa","furniture","2","0","","neutral","0"
"html-keyboard-response","112","507185","0.0-9.0-2.0-0.20","3857","2","16","Male","approach_avoid_spark_v1","""event"",""trial"",""time""
""fullscreenenter"",""1"",""2460""
","
","
","""event"",""trial"",""time""
""fullscreenenter"",""1"",""2460""
","
","","","","","","null","<div style=""font-size:60px;"">+</div>","null","","fixation","","","","","","","","","","",""
"aa-learning-trial","113","510192","0.0-9.0-2.0-1.20","3857","2","16","Male","approach_avoid_spark_v1","""event"",""trial"",""time""
""fullscreenenter"",""1"",""2460""
","
","
","""event"",""trial"",""time""
""fullscreenenter"",""1"",""2460""
","
","","","","","","682.9000000059605","images/sofa2.png","","","learning","6","6","1","1","sofa","furniture","2","0","","neutral","0"
"html-keyboard-response","114","510696","0.0-9.0-2.0-0.21","3857","2","16","Male","approach_avoid_spark_v1","""event"",""trial"",""time""
""fullscreenenter"",""1"",""2460""
","
","
","""event"",""trial"",""time""
""fullscreenenter"",""1"",""2460""
","
","","","","","","null","<div style=""font-size:60px;"">+</div>","null","","fixation","","","","","","","","","","",""
"aa-learning-trial","115","513700","0.0-9.0-2.0-1.21","3857","2","16","Male","approach_avoid_spark_v1","""event"",""trial"",""time""
""fullscreenenter"",""1"",""2460""
","
","
","""event"",""trial"",""time""
""fullscreenenter"",""1"",""2460""
","
","","","","","","1049.3999999761581","images/bed4.png","","","learning","-1","0","0","0","bed","furniture","2","0","","bad","[-4]"
"html-keyboard-response","116","514205","0.0-9.0-2.0-0.22","3857","2","16","Male","approach_avoid_spark_v1","""event"",""trial"",""time""
""fullscreenenter"",""1"",""2460""
","
","
","""event"",""trial"",""time""
""fullscreenenter"",""1"",""2460""
","
","","","","","","null","<div style=""font-size:60px;"">+</div>","null","","fixation","","","","","","","","","","",""
"aa-learning-trial","117","517213","0.0-9.0-2.0-1.22","3857","2","16","Male","approach_avoid_spark_v1","""event"",""trial"",""time""
""fullscreenenter"",""1"",""2460""
","
","
","""event"",""trial"",""time""
""fullscreenenter"",""1"",""2460""
","
","","","","","","1295.4000000059605","images/bed8.png","","","learning","-4","-4","1","1","bed","furniture","2","0","","bad","[-4]"
"html-keyboard-response","118","517717","0.0-9.0-2.0-0.23","3857","2","16","Male","approach_avoid_spark_v1","""event"",""trial"",""time""
""fullscreenenter"",""1"",""2460""
","
","
","""event"",""trial"",""time""
""fullscreenenter"",""1"",""2460""
","
","","","","","","null","<div style=""font-size:60px;"">+</div>","null","","fixation","","","","","","","","","","",""
"aa-learning-trial","119","520722","0.0-9.0-2.0-1.23","3857","2","16","Male","approach_avoid_spark_v1","""event"",""trial"",""time""
""fullscreenenter"",""1"",""2460""
","
","
","""event"",""trial"",""time""
""fullscreenenter"",""1"",""2460""
","
","","","","","","993","images/bed6.png","","","learning","-8","-8","1","1","bed","furniture","2","0","","bad","[-4]"
"html-keyboard-response","120","521227","0.0-9.0-2.0-0.24","3857","2","16","Male","approach_avoid_spark_v1","""event"",""trial"",""time""
""fullscreenenter"",""1"",""2460""
","
","
","""event"",""trial"",""time""
""fullscreenenter"",""1"",""2460""
","
","","","","","","null","<div style=""font-size:60px;"">+</div>","null","","fixation","","","","","","","","","","",""
"aa-learning-trial","121","524231","0.0-9.0-2.0-1.24","3857","2","16","Male","approach_avoid_spark_v1","""event"",""trial"",""time""
""fullscreenenter"",""1"",""2460""
","
","
","""event"",""trial"",""time""
""fullscreenenter"",""1"",""2460""
","
","","","","","","864.0999999940395","images/chair1.png","","","learning","3","0","0","0","chair","furniture","2","0","","good","[3]"
"html-keyboard-response","122","524736","0.0-9.0-2.0-0.25","3857","2","16","Male","approach_avoid_spark_v1","""event"",""trial"",""time""
""fullscreenenter"",""1"",""2460""
","
","
","""event"",""trial"",""time""
""fullscreenenter"",""1"",""2460""
","
","","","","","","null","<div style=""font-size:60px;"">+</div>","null","","fixation","","","","","","","","","","",""
"aa-learning-trial","123","527741","0.0-9.0-2.0-1.25","3857","2","16","Male","approach_avoid_spark_v1","""event"",""trial"",""time""
""fullscreenenter"",""1"",""2460""
","
","
","""event"",""trial"",""time""
""fullscreenenter"",""1"",""2460""
","
","","","","","","2018.4000000059605","images/sofa8.png","","","learning","1","1","1","1","sofa","furniture","2","0","","neutral","0"
"html-keyboard-response","124","528241","0.0-9.0-2.0-0.26","3857","2","16","Male","approach_avoid_spark_v1","""event"",""trial"",""time""
""fullscreenenter"",""1"",""2460""
","
","
","""event"",""trial"",""time""
""fullscreenenter"",""1"",""2460""
","
","","","","","","null","<div style=""font-size:60px;"">+</div>","null","","fixation","","","","","","","","","","",""
"aa-learning-trial","125","531247","0.0-9.0-2.0-1.26","3857","2","16","Male","approach_avoid_spark_v1","""event"",""trial"",""time""
""fullscreenenter"",""1"",""2460""
","
","
","""event"",""trial"",""time""
""fullscreenenter"",""1"",""2460""
","
","","","","","","1814.5","images/bed8.png","","","learning","-4","-4","1","1","bed","furniture","2","0","","bad","[-4]"
"html-keyboard-response","126","531752","0.0-9.0-2.0-0.27","3857","2","16","Male","approach_avoid_spark_v1","""event"",""trial"",""time""
""fullscreenenter"",""1"",""2460""
","
","
","""event"",""trial"",""time""
""fullscreenenter"",""1"",""2460""
","
","","","","","","null","<div style=""font-size:60px;"">+</div>","null","","fixation","","","","","","","","","","",""
"aa-learning-trial","127","534756","0.0-9.0-2.0-1.27","3857","2","16","Male","approach_avoid_spark_v1","""event"",""trial"",""time""
""fullscreenenter"",""1"",""2460""
","
","
","""event"",""trial"",""time""
""fullscreenenter"",""1"",""2460""
","
","","","","","","812.2999999821186","images/bed8.png","","","learning","-4","0","0","0","bed","furniture","2","0","","bad","[-4]"
"html-keyboard-response","128","535261","0.0-9.0-2.0-0.28","3857","2","16","Male","approach_avoid_spark_v1","""event"",""trial"",""time""
""fullscreenenter"",""1"",""2460""
","
","
","""event"",""trial"",""time""
""fullscreenenter"",""1"",""2460""
","
","","","","","","null","<div style=""font-size:60px;"">+</div>","null","","fixation","","","","","","","","","","",""
"aa-learning-trial","129","538268","0.0-9.0-2.0-1.28","3857","2","16","Male","approach_avoid_spark_v1","""event"",""trial"",""time""
""fullscreenenter"",""1"",""2460""
","
","
","""event"",""trial"",""time""
""fullscreenenter"",""1"",""2460""
","
","","","","","","1365.9000000059605","images/sofa2.png","","","learning","6","6","1","1","sofa","furniture","2","0","","neutral","0"
"html-keyboard-response","130","538772","0.0-9.0-2.0-0.29","3857","2","16","Male","approach_avoid_spark_v1","""event"",""trial"",""time""
""fullscreenenter"",""1"",""2460""
","
","
","""event"",""trial"",""time""
""fullscreenenter"",""1"",""2460""
","
","","","","","","null","<div style=""font-size:60px;"">+</div>","null","","fixation","","","","","","","","","","",""
"aa-learning-trial","131","541778","0.0-9.0-2.0-1.29","3857","2","16","Male","approach_avoid_spark_v1","""event"",""trial"",""time""
""fullscreenenter"",""1"",""2460""
","
","
","""event"",""trial"",""time""
""fullscreenenter"",""1"",""2460""
","
","","","","","","1007.1000000238419","images/sofa6.png","","","learning","5","0","0","0","sofa","furniture","2","0","","neutral","0"
"html-keyboard-response","132","542283","0.0-9.0-2.0-0.30","3857","2","16","Male","approach_avoid_spark_v1","""event"",""trial"",""time""
""fullscreenenter"",""1"",""2460""
","
","
","""event"",""trial"",""time""
""fullscreenenter"",""1"",""2460""
","
","","","","","","null","<div style=""font-size:60px;"">+</div>","null","","fixation","","","","","","","","","","",""
"aa-learning-trial","133","545290","0.0-9.0-2.0-1.30","3857","2","16","Male","approach_avoid_spark_v1","""event"",""trial"",""time""
""fullscreenenter"",""1"",""2460""
","
","
","""event"",""trial"",""time""
""fullscreenenter"",""1"",""2460""
","
","","","","","","1544.0999999940395","images/bed7.png","","","learning","8","0","0","0","bed","furniture","2","0","","bad","[-4]"
"html-keyboard-response","134","545795","0.0-9.0-2.0-0.31","3857","2","16","Male","approach_avoid_spark_v1","""event"",""trial"",""time""
""fullscreenenter"",""1"",""2460""
","
","
","""event"",""trial"",""time""
""fullscreenenter"",""1"",""2460""
","
","","","","","","null","<div style=""font-size:60px;"">+</div>","null","","fixation","","","","","","","","","","",""
"aa-learning-trial","135","548802","0.0-9.0-2.0-1.31","3857","2","16","Male","approach_avoid_spark_v1","""event"",""trial"",""time""
""fullscreenenter"",""1"",""2460""
","
","
","""event"",""trial"",""time""
""fullscreenenter"",""1"",""2460""
","
","","","","","","869.4000000059605","images/chair3.png","","","learning","7","0","0","0","chair","furniture","2","0","","good","[3]"
"html-keyboard-response","136","549307","0.0-9.0-2.0-0.32","3857","2","16","Male","approach_avoid_spark_v1","""event"",""trial"",""time""
""fullscreenenter"",""1"",""2460""
","
","
","""event"",""trial"",""time""
""fullscreenenter"",""1"",""2460""
","
","","","","","","null","<div style=""font-size:60px;"">+</div>","null","","fixation","","","","","","","","","","",""
"aa-learning-trial","137","552314","0.0-9.0-2.0-1.32","3857","2","16","Male","approach_avoid_spark_v1","""event"",""trial"",""time""
""fullscreenenter"",""1"",""2460""
","
","
","""event"",""trial"",""time""
""fullscreenenter"",""1"",""2460""
","
","","","","","","1027.300000011921","images/chair6.png","","","learning","-6","0","0","0","chair","furniture","2","0","","good","[3]"
"html-keyboard-response","138","552819","0.0-9.0-2.0-0.33","3857","2","16","Male","approach_avoid_spark_v1","""event"",""trial"",""time""
""fullscreenenter"",""1"",""2460""
","
","
","""event"",""trial"",""time""
""fullscreenenter"",""1"",""2460""
","
","","","","","","null","<div style=""font-size:60px;"">+</div>","null","","fixation","","","","","","","","","","",""
"aa-learning-trial","139","555822","0.0-9.0-2.0-1.33","3857","2","16","Male","approach_avoid_spark_v1","""event"",""trial"",""time""
""fullscreenenter"",""1"",""2460""
","
","
","""event"",""trial"",""time""
""fullscreenenter"",""1"",""2460""
","
","","","","","","1570.800000011921","images/bed7.png","","","learning","8","8","1","1","bed","furniture","2","0","","bad","[-4]"
"html-keyboard-response","140","556328","0.0-9.0-2.0-0.34","3857","2","16","Male","approach_avoid_spark_v1","""event"",""trial"",""time""
""fullscreenenter"",""1"",""2460""
","
","
","""event"",""trial"",""time""
""fullscreenenter"",""1"",""2460""
","
","","","","","","null","<div style=""font-size:60px;"">+</div>","null","","fixation","","","","","","","","","","",""
"aa-learning-trial","141","559335","0.0-9.0-2.0-1.34","3857","2","16","Male","approach_avoid_spark_v1","""event"",""trial"",""time""
""fullscreenenter"",""1"",""2460""
","
","
","""event"",""trial"",""time""
""fullscreenenter"",""1"",""2460""
","
","","","","","","1743.5999999940395","images/chair8.png","","","learning","2","0","0","0","chair","furniture","2","0","","good","[3]"
"html-keyboard-response","142","559840","0.0-9.0-2.0-0.35","3857","2","16","Male","approach_avoid_spark_v1","""event"",""trial"",""time""
""fullscreenenter"",""1"",""2460""
","
","
","""event"",""trial"",""time""
""fullscreenenter"",""1"",""2460""
","
","","","","","","null","<div style=""font-size:60px;"">+</div>","null","","fixation","","","","","","","","","","",""
"aa-learning-trial","143","562847","0.0-9.0-2.0-1.35","3857","2","16","Male","approach_avoid_spark_v1","""event"",""trial"",""time""
""fullscreenenter"",""1"",""2460""
","
","
","""event"",""trial"",""time""
""fullscreenenter"",""1"",""2460""
","
","","","","","","744.8000000119209","images/chair3.png","","","learning","7","0","0","0","chair","furniture","2","0","","good","[3]"
"html-keyboard-response","144","563352","0.0-9.0-2.0-0.36","3857","2","16","Male","approach_avoid_spark_v1","""event"",""trial"",""time""
""fullscreenenter"",""1"",""2460""
","
","
","""event"",""trial"",""time""
""fullscreenenter"",""1"",""2460""
","
","","","","","","null","<div style=""font-size:60px;"">+</div>","null","","fixation","","","","","","","","","","",""
"aa-learning-trial","145","566359","0.0-9.0-2.0-1.36","3857","2","16","Male","approach_avoid_spark_v1","""event"",""trial"",""time""
""fullscreenenter"",""1"",""2460""
","
","
","""event"",""trial"",""time""
""fullscreenenter"",""1"",""2460""
","
","","","","","","856.4000000059605","images/sofa8.png","","","learning","1","1","1","1","sofa","furniture","2","0","","neutral","0"
"html-keyboard-response","146","566864","0.0-9.0-2.0-0.37","3857","2","16","Male","approach_avoid_spark_v1","""event"",""trial"",""time""
""fullscreenenter"",""1"",""2460""
","
","
","""event"",""trial"",""time""
""fullscreenenter"",""1"",""2460""
","
","","","","","","null","<div style=""font-size:60px;"">+</div>","null","","fixation","","","","","","","","","","",""
"aa-learning-trial","147","569869","0.0-9.0-2.0-1.37","3857","2","16","Male","approach_avoid_spark_v1","""event"",""trial"",""time""
""fullscreenenter"",""1"",""2460""
","
","
","""event"",""trial"",""time""
""fullscreenenter"",""1"",""2460""
","
","","","","","","645.3999999761581","images/sofa8.png","","","learning","1","1","1","1","sofa","furniture","2","0","","neutral","0"
"html-keyboard-response","148","570374","0.0-9.0-2.0-0.38","3857","2","16","Male","approach_avoid_spark_v1","""event"",""trial"",""time""
""fullscreenenter"",""1"",""2460""
","
","
","""event"",""trial"",""time""
""fullscreenenter"",""1"",""2460""
","
","","","","","","null","<div style=""font-size:60px;"">+</div>","null","","fixation","","","","","","","","","","",""
"aa-learning-trial","149","573381","0.0-9.0-2.0-1.38","3857","2","16","Male","approach_avoid_spark_v1","""event"",""trial"",""time""
""fullscreenenter"",""1"",""2460""
","
","
","""event"",""trial"",""time""
""fullscreenenter"",""1"",""2460""
","
","","","","","","783.0999999940395","images/chair1.png","","","learning","3","0","0","0","chair","furniture","2","0","","good","[3]"
"html-keyboard-response","150","573886","0.0-9.0-2.0-0.39","3857","2","16","Male","approach_avoid_spark_v1","""event"",""trial"",""time""
""fullscreenenter"",""1"",""2460""
","
","
","""event"",""trial"",""time""
""fullscreenenter"",""1"",""2460""
","
","","","","","","null","<div style=""font-size:60px;"">+</div>","null","","fixation","","","","","","","","","","",""
"aa-learning-trial","151","576893","0.0-9.0-2.0-1.39","3857","2","16","Male","approach_avoid_spark_v1","""event"",""trial"",""time""
""fullscreenenter"",""1"",""2460""
","
","
","""event"",""trial"",""time""
""fullscreenenter"",""1"",""2460""
","
","","","","","","995.1999999880791","images/chair7.png","","","learning","-3","-3","1","1","chair","furniture","2","0","","good","[3]"
"html-keyboard-response","152","577398","0.0-9.0-2.0-0.40","3857","2","16","Male","approach_avoid_spark_v1","""event"",""trial"",""time""
""fullscreenenter"",""1"",""2460""
","
","
","""event"",""trial"",""time""
""fullscreenenter"",""1"",""2460""
","
","","","","","","null","<div style=""font-size:60px;"">+</div>","null","","fixation","","","","","","","","","","",""
"aa-learning-trial","153","580400","0.0-9.0-2.0-1.40","3857","2","16","Male","approach_avoid_spark_v1","""event"",""trial"",""time""
""fullscreenenter"",""1"",""2460""
","
","
","""event"",""trial"",""time""
""fullscreenenter"",""1"",""2460""
","
","","","","","","1667.5999999940395","images/bed7.png","","","learning","8","8","1","1","bed","furniture","2","0","","bad","[-4]"
"html-keyboard-response","154","580904","0.0-9.0-2.0-0.41","3857","2","16","Male","approach_avoid_spark_v1","""event"",""trial"",""time""
""fullscreenenter"",""1"",""2460""
","
","
","""event"",""trial"",""time""
""fullscreenenter"",""1"",""2460""
","
","","","","","","null","<div style=""font-size:60px;"">+</div>","null","","fixation","","","","","","","","","","",""
"aa-learning-trial","155","583908","0.0-9.0-2.0-1.41","3857","2","16","Male","approach_avoid_spark_v1","""event"",""trial"",""time""
""fullscreenenter"",""1"",""2460""
","
","
","""event"",""trial"",""time""
""fullscreenenter"",""1"",""2460""
","
","","","","","","802.1999999880791","images/chair3.png","","","learning","7","0","0","0","chair","furniture","2","0","","good","[3]"
"html-keyboard-response","156","584413","0.0-9.0-2.0-0.42","3857","2","16","Male","approach_avoid_spark_v1","""event"",""trial"",""time""
""fullscreenenter"",""1"",""2460""
","
","
","""event"",""trial"",""time""
""fullscreenenter"",""1"",""2460""
","
","","","","","","null","<div style=""font-size:60px;"">+</div>","null","","fixation","","","","","","","","","","",""
"aa-learning-trial","157","587417","0.0-9.0-2.0-1.42","3857","2","16","Male","approach_avoid_spark_v1","""event"",""trial"",""time""
""fullscreenenter"",""1"",""2460""
","
","
","""event"",""trial"",""time""
""fullscreenenter"",""1"",""2460""
","
","","","","","","762.0999999940395","images/sofa2.png","","","learning","6","6","1","1","sofa","furniture","2","0","","neutral","0"
"html-keyboard-response","158","587923","0.0-9.0-2.0-0.43","3857","2","16","Male","approach_avoid_spark_v1","""event"",""trial"",""time""
""fullscreenenter"",""1"",""2460""
","
","
","""event"",""trial"",""time""
""fullscreenenter"",""1"",""2460""
","
","","","","","","null","<div style=""font-size:60px;"">+</div>","null","","fixation","","","","","","","","","","",""
"aa-learning-trial","159","590926","0.0-9.0-2.0-1.43","3857","2","16","Male","approach_avoid_spark_v1","""event"",""trial"",""time""
""fullscreenenter"",""1"",""2460""
","
","
","""event"",""trial"",""time""
""fullscreenenter"",""1"",""2460""
","
","","","","","","727.2999999821186","images/sofa8.png","","","learning","1","1","1","1","sofa","furniture","2","0","","neutral","0"
"html-keyboard-response","160","591431","0.0-9.0-2.0-0.44","3857","2","16","Male","approach_avoid_spark_v1","""event"",""trial"",""time""
""fullscreenenter"",""1"",""2460""
","
","
","""event"",""trial"",""time""
""fullscreenenter"",""1"",""2460""
","
","","","","","","null","<div style=""font-size:60px;"">+</div>","null","","fixation","","","","","","","","","","",""
"aa-learning-trial","161","594436","0.0-9.0-2.0-1.44","3857","2","16","Male","approach_avoid_spark_v1","""event"",""trial"",""time""
""fullscreenenter"",""1"",""2460""
","
","
","""event"",""trial"",""time""
""fullscreenenter"",""1"",""2460""
","
","","","","","","1622.5999999940395","images/bed7.png","","","learning","8","8","1","1","bed","furniture","2","0","","bad","[-4]"
"html-keyboard-response","162","594940","0.0-9.0-2.0-0.45","3857","2","16","Male","approach_avoid_spark_v1","""event"",""trial"",""time""
""fullscreenenter"",""1"",""2460""
","
","
","""event"",""trial"",""time""
""fullscreenenter"",""1"",""2460""
","
","","","","","","null","<div style=""font-size:60px;"">+</div>","null","","fixation","","","","","","","","","","",""
"aa-learning-trial","163","597945","0.0-9.0-2.0-1.45","3857","2","16","Male","approach_avoid_spark_v1","""event"",""trial"",""time""
""fullscreenenter"",""1"",""2460""
","
","
","""event"",""trial"",""time""
""fullscreenenter"",""1"",""2460""
","
","","","","","","822.2000000178814","images/bed4.png","","","learning","-1","0","0","0","bed","furniture","2","0","","bad","[-4]"
"html-keyboard-response","164","598450","0.0-9.0-2.0-0.46","3857","2","16","Male","approach_avoid_spark_v1","""event"",""trial"",""time""
""fullscreenenter"",""1"",""2460""
","
","
","""event"",""trial"",""time""
""fullscreenenter"",""1"",""2460""
","
","","","","","","null","<div style=""font-size:60px;"">+</div>","null","","fixation","","","","","","","","","","",""
"aa-learning-trial","165","601457","0.0-9.0-2.0-1.46","3857","2","16","Male","approach_avoid_spark_v1","""event"",""trial"",""time""
""fullscreenenter"",""1"",""2460""
","
","
","""event"",""trial"",""time""
""fullscreenenter"",""1"",""2460""
","
","","","","","","782.5999999940395","images/bed8.png","","","learning","-4","0","0","0","bed","furniture","2","0","","bad","[-4]"
"html-keyboard-response","166","601962","0.0-9.0-2.0-0.47","3857","2","16","Male","approach_avoid_spark_v1","""event"",""trial"",""time""
""fullscreenenter"",""1"",""2460""
","
","
","""event"",""trial"",""time""
""fullscreenenter"",""1"",""2460""
","
","","","","","","null","<div style=""font-size:60px;"">+</div>","null","","fixation","","","","","","","","","","",""
"aa-learning-trial","167","604969","0.0-9.0-2.0-1.47","3857","2","16","Male","approach_avoid_spark_v1","""event"",""trial"",""time""
""fullscreenenter"",""1"",""2460""
","
","
","""event"",""trial"",""time""
""fullscreenenter"",""1"",""2460""
","
","","","","","","793.4000000059605","images/chair3.png","","","learning","7","0","0","0","chair","furniture","2","0","","good","[3]"
"html-keyboard-response","168","605474","0.0-9.0-2.0-0.48","3857","2","16","Male","approach_avoid_spark_v1","""event"",""trial"",""time""
""fullscreenenter"",""1"",""2460""
","
","
","""event"",""trial"",""time""
""fullscreenenter"",""1"",""2460""
","
","","","","","","null","<div style=""font-size:60px;"">+</div>","null","","fixation","","","","","","","","","","",""
"aa-learning-trial","169","608481","0.0-9.0-2.0-1.48","3857","2","16","Male","approach_avoid_spark_v1","""event"",""trial"",""time""
""fullscreenenter"",""1"",""2460""
","
","
","""event"",""trial"",""time""
""fullscreenenter"",""1"",""2460""
","
","","","","","","734.8999999761581","images/chair1.png","","","learning","3","0","0","0","chair","furniture","2","0","","good","[3]"
"html-keyboard-response","170","608985","0.0-9.0-2.0-0.49","3857","2","16","Male","approach_avoid_spark_v1","""event"",""trial"",""time""
""fullscreenenter"",""1"",""2460""
","
","
","""event"",""trial"",""time""
""fullscreenenter"",""1"",""2460""
","
","","","","","","null","<div style=""font-size:60px;"">+</div>","null","","fixation","","","","","","","","","","",""
"aa-learning-trial","171","611991","0.0-9.0-2.0-1.49","3857","2","16","Male","approach_avoid_spark_v1","""event"",""trial"",""time""
""fullscreenenter"",""1"",""2460""
","
","
","""event"",""trial"",""time""
""fullscreenenter"",""1"",""2460""
","
","","","","","","922.5","images/bed5.png","","","learning","4","0","0","0","bed","furniture","2","0","","bad","[-4]"
"html-keyboard-response","172","612496","0.0-9.0-2.0-0.50","3857","2","16","Male","approach_avoid_spark_v1","""event"",""trial"",""time""
""fullscreenenter"",""1"",""2460""
","
","
","""event"",""trial"",""time""
""fullscreenenter"",""1"",""2460""
","
","","","","","","null","<div style=""font-size:60px;"">+</div>","null","","fixation","","","","","","","","","","",""
"aa-learning-trial","173","615503","0.0-9.0-2.0-1.50","3857","2","16","Male","approach_avoid_spark_v1","""event"",""trial"",""time""
""fullscreenenter"",""1"",""2460""
","
","
","""event"",""trial"",""time""
""fullscreenenter"",""1"",""2460""
","
","","","","","","961.7999999821186","images/sofa1.png","","","learning","-5","0","0","0","sofa","furniture","2","0","","neutral","0"
"html-button-response","174","619859","0.0-9.0-3.0","3857","2","16","Male","approach_avoid_spark_v1","""event"",""trial"",""time""
""fullscreenenter"",""1"",""2460""
","
","
","""event"",""trial"",""time""
""fullscreenenter"",""1"",""2460""
","
","","","","","","4354.800000011921","<p> You have completed the round! <p> In this round, you earned 33 points! </p>","0","","break","","","","","","","","","","",""
"html-button-response","175","621950","0.0-10.0","3857","2","16","Male","approach_avoid_spark_v1","""event"",""trial"",""time""
""fullscreenenter"",""1"",""2460""
","
","
","""event"",""trial"",""time""
""fullscreenenter"",""1"",""2460""
","
","","","","","","2089.5","<p> Now it's time to play another round. </p>","0","","transition_screen","","","","","","","","","","",""
"preload","176","622069","0.0-11.0-0.0","3857","2","16","Male","approach_avoid_spark_v1","""event"",""trial"",""time""
""fullscreenenter"",""1"",""2460""
","
","
","""event"",""trial"",""time""
""fullscreenenter"",""1"",""2460""
","
","true","false","[]","[]","[]","","","","","","","","","","","","","","","",""
"learning-instructions","177","629832","0.0-11.0-1.0-0.0","3857","2","16","Male","approach_avoid_spark_v1","""event"",""trial"",""time""
""fullscreenenter"",""1"",""2460""
","
","
","""event"",""trial"",""time""
""fullscreenenter"",""1"",""2460""
","
","","","","","","1970.199999988079","<p> Your goal in this round is to sell different plants to a picky customer. </p></div>","","0","instructions","","","","","","","","","","",""
"learning-instructions","178","639814","0.0-11.0-1.0-0.1","3857","2","16","Male","approach_avoid_spark_v1","""event"",""trial"",""time""
""fullscreenenter"",""1"",""2460""
","
","
","""event"",""trial"",""time""
""fullscreenenter"",""1"",""2460""
","
","","","","","","557.5999999940395","<p> The customer likes some plants and dislikes others.  </p><p> On each turn, you will see a plant.   </p><p> You need to decide whether to offer it to the customer or not.  </p>","","0","instructions","","","","","","","","","","",""
"learning-instructions","179","646572","0.0-11.0-1.0-0.2","3857","2","16","Male","approach_avoid_spark_v1","""event"",""trial"",""time""
""fullscreenenter"",""1"",""2460""
","
","
","""event"",""trial"",""time""
""fullscreenenter"",""1"",""2460""
","
","","","","","","1057.3999999761581","<p> You can offer the plant by pressing 1 and decide to not offer it by pressing 0. </p><br><div class=""choice-instructions-grid""> <div class=""choice-option""><img src=""images/approach.png"" class=""choice-option-img"" stage=""instructions"" position=""0"" ><div class=""choice-option-text""> Press ""1."" </div></div><div class=""choice-option""><img src=""images/avoid.png"" class=""choice-option-img"" stage=""instructions"" position=""1"" ><div class=""choice-option-text""> Press ""0."" </div></div>","","0","instructions","","","","","","","","","","",""
"learning-instructions","180","656240","0.0-11.0-1.0-0.3","3857","2","16","Male","approach_avoid_spark_v1","""event"",""trial"",""time""
""fullscreenenter"",""1"",""2460""
","
","
","""event"",""trial"",""time""
""fullscreenenter"",""1"",""2460""
","
","","","","","","479.5","<p> If you offer a plant to the customer that she likes, she will be very pleased! </p><p> But if you offer a plant that she does NOT like, she will be annoyed. </p>","","0","instructions","","","","","","","","","","",""
"learning-instructions","181","669525","0.0-11.0-1.0-0.4","3857","2","16","Male","approach_avoid_spark_v1","""event"",""trial"",""time""
""fullscreenenter"",""1"",""2460""
","
","
","""event"",""trial"",""time""
""fullscreenenter"",""1"",""2460""
","
","","","","","","452.7000000178814","<p> You will earn points based on how you made the customer feel. </p><p> If you made her pleased, you will WIN anywhere from 1 - 9 points, </p><p> but if you made her annoyed, you will LOSE anywhere from 1 - 9 points. </p>","","0","instructions","","","","","","","","","","",""
"learning-instructions","182","676679","0.0-11.0-1.0-0.5","3857","2","16","Male","approach_avoid_spark_v1","""event"",""trial"",""time""
""fullscreenenter"",""1"",""2460""
","
","
","""event"",""trial"",""time""
""fullscreenenter"",""1"",""2460""
","
","","","","","","506.7000000178814","<p> You will see how many points you won or lost in the center of the screen. </p><p> Here is what you would see if you won 5 points: </p><p style=""color:green;font-size:50px;font-weight:bolder"">5</p>","","0","instructions","","","","","","","","","","",""
"learning-instructions","183","680140","0.0-11.0-1.0-0.6","3857","2","16","Male","approach_avoid_spark_v1","""event"",""trial"",""time""
""fullscreenenter"",""1"",""2460""
","
","
","""event"",""trial"",""time""
""fullscreenenter"",""1"",""2460""
","
","","","","","","635.6000000238419","<p> And here is what you would see if you lost 3 points: </p><p style=""color:red;font-size:50px;font-weight:bolder"">-3</p>","","0","instructions","","","","","","","","","","",""
"learning-instructions","184","695814","0.0-11.0-1.0-0.7","3857","2","16","Male","approach_avoid_spark_v1","""event"",""trial"",""time""
""fullscreenenter"",""1"",""2460""
","
","
","""event"",""trial"",""time""
""fullscreenenter"",""1"",""2460""
","
","","","","","","560.6999999880791","<p> Some plants will make the customer VERY pleased or annoyed. </p><p> These plants will make you win or lose LOTS of points. </p><p> The customer will have less strong feelings about other plants. </p><p> These plants will make you win or lose small amounts of points. </p>","","0","instructions","","","","","","","","","","",""
"learning-instructions","185","709297","0.0-11.0-1.0-0.8","3857","2","16","Male","approach_avoid_spark_v1","""event"",""trial"",""time""
""fullscreenenter"",""1"",""2460""
","
","
","""event"",""trial"",""time""
""fullscreenenter"",""1"",""2460""
","
","","","","","","546.4000000059605","<p> If you choose to not offer the plant to the customer, you will not win or lose any points. </p><p>  However, in the center of the screen, you will see the number of points you WOULD HAVE won or lost if you had offered the plant. </p>","","0","instructions","","","","","","","","","","",""
"learning-instructions","186","721910","0.0-11.0-1.0-0.9","3857","2","16","Male","approach_avoid_spark_v1","""event"",""trial"",""time""
""fullscreenenter"",""1"",""2460""
","
","
","""event"",""trial"",""time""
""fullscreenenter"",""1"",""2460""
","
","","","","","","754.6000000238419","<p> Here is what you might see if you did not offer the plant but the customer would have liked it: </p><p style=""color:grey; font-size:50px; display: inline-block; border-spacing: 15px; border-width:3px; border-style:solid; border-color:red"">  &nbsp; 6 &nbsp; </p><p> Remember, in this case, you would not win or lose ANY points because you did not offer the plant.  </p>","","0","instructions","","","","","","","","","","",""
"learning-instructions","187","730124","0.0-11.0-1.0-0.10","3857","2","16","Male","approach_avoid_spark_v1","""event"",""trial"",""time""
""fullscreenenter"",""1"",""2460""
","
","
","""event"",""trial"",""time""
""fullscreenenter"",""1"",""2460""
","
","","","","","","479.5","<p> Try to make the best choice for each plant because </p><p> at the end of the game, you will earn bonus money based on how many points you earned. </p>","","0","instructions","","","","","","","","","","",""
"learning-instructions","188","739089","0.0-11.0-1.0-0.11","3857","2","16","Male","approach_avoid_spark_v1","""event"",""trial"",""time""
""fullscreenenter"",""1"",""2460""
","
","
","""event"",""trial"",""time""
""fullscreenenter"",""1"",""2460""
","
","","","","","","785.9000000059605","<p> You will have 3 seconds to make each choice. Try to respond before time runs out! </p><p> You will lose 5 points each time you do not make a response. </p>","","0","instructions","","","","","","","","","","",""
"html-keyboard-response","189","739698","0.0-11.0-2.0-0.0","3857","2","16","Male","approach_avoid_spark_v1","""event"",""trial"",""time""
""fullscreenenter"",""1"",""2460""
","
","
","""event"",""trial"",""time""
""fullscreenenter"",""1"",""2460""
","
","","","","","","null","<div style=""font-size:60px;"">+</div>","null","","fixation","","","","","","","","","","",""
"aa-learning-trial","190","742701","0.0-11.0-2.0-1.0","3857","2","16","Male","approach_avoid_spark_v1","""event"",""trial"",""time""
""fullscreenenter"",""1"",""2460""
","
","
","""event"",""trial"",""time""
""fullscreenenter"",""1"",""2460""
","
","","","","","","1609.8999999761581","images/tree2.png","","","learning","5","5","1","1","tree","plants","1","1","","good","[6]"
"html-keyboard-response","191","743205","0.0-11.0-2.0-0.1","3857","2","16","Male","approach_avoid_spark_v1","""event"",""trial"",""time""
""fullscreenenter"",""1"",""2460""
","
","
","""event"",""trial"",""time""
""fullscreenenter"",""1"",""2460""
","
","","","","","","null","<div style=""font-size:60px;"">+</div>","null","","fixation","","","","","","","","","","",""
"aa-learning-trial","192","746212","0.0-11.0-2.0-1.1","3857","2","16","Male","approach_avoid_spark_v1","""event"",""trial"",""time""
""fullscreenenter"",""1"",""2460""
","
","
","""event"",""trial"",""time""
""fullscreenenter"",""1"",""2460""
","
","","","","","","962.2000000178814","images/cactus5.png","","","learning","-5","-5","1","1","cactus","plants","1","1","","bad","[-5]"
"html-keyboard-response","193","746717","0.0-11.0-2.0-0.2","3857","2","16","Male","approach_avoid_spark_v1","""event"",""trial"",""time""
""fullscreenenter"",""1"",""2460""
","
","
","""event"",""trial"",""time""
""fullscreenenter"",""1"",""2460""
","
","","","","","","null","<div style=""font-size:60px;"">+</div>","null","","fixation","","","","","","","","","","",""
"aa-learning-trial","194","749720","0.0-11.0-2.0-1.2","3857","2","16","Male","approach_avoid_spark_v1","""event"",""trial"",""time""
""fullscreenenter"",""1"",""2460""
","
","
","""event"",""trial"",""time""
""fullscreenenter"",""1"",""2460""
","
","","","","","","1187.199999988079","images/cactus7.png","","","learning","-7","0","0","0","cactus","plants","1","1","","bad","[-5]"
"html-keyboard-response","195","750225","0.0-11.0-2.0-0.3","3857","2","16","Male","approach_avoid_spark_v1","""event"",""trial"",""time""
""fullscreenenter"",""1"",""2460""
","
","
","""event"",""trial"",""time""
""fullscreenenter"",""1"",""2460""
","
","","","","","","null","<div style=""font-size:60px;"">+</div>","null","","fixation","","","","","","","","","","",""
"aa-learning-trial","196","753230","0.0-11.0-2.0-1.3","3857","2","16","Male","approach_avoid_spark_v1","""event"",""trial"",""time""
""fullscreenenter"",""1"",""2460""
","
","
","""event"",""trial"",""time""
""fullscreenenter"",""1"",""2460""
","
","","","","","","769","images/flower8.png","","","learning","-1","-1","1","1","flower","plants","1","1","","neutral","0"
"html-keyboard-response","197","753735","0.0-11.0-2.0-0.4","3857","2","16","Male","approach_avoid_spark_v1","""event"",""trial"",""time""
""fullscreenenter"",""1"",""2460""
","
","
","""event"",""trial"",""time""
""fullscreenenter"",""1"",""2460""
","
","","","","","","null","<div style=""font-size:60px;"">+</div>","null","","fixation","","","","","","","","","","",""
"aa-learning-trial","198","756742","0.0-11.0-2.0-1.4","3857","2","16","Male","approach_avoid_spark_v1","""event"",""trial"",""time""
""fullscreenenter"",""1"",""2460""
","
","
","""event"",""trial"",""time""
""fullscreenenter"",""1"",""2460""
","
","","","","","","907.6999999880791","images/tree2.png","","","learning","8","8","1","1","tree","plants","1","1","","good","[6]"
"html-keyboard-response","199","757247","0.0-11.0-2.0-0.5","3857","2","16","Male","approach_avoid_spark_v1","""event"",""trial"",""time""
""fullscreenenter"",""1"",""2460""
","
","
","""event"",""trial"",""time""
""fullscreenenter"",""1"",""2460""
","
","","","","","","null","<div style=""font-size:60px;"">+</div>","null","","fixation","","","","","","","","","","",""
"aa-learning-trial","200","760250","0.0-11.0-2.0-1.5","3857","2","16","Male","approach_avoid_spark_v1","""event"",""trial"",""time""
""fullscreenenter"",""1"",""2460""
","
","
","""event"",""trial"",""time""
""fullscreenenter"",""1"",""2460""
","
","","","","","","917.5999999940395","images/tree6.png","","","learning","3","0","0","0","tree","plants","1","1","","good","[6]"
"html-keyboard-response","201","760753","0.0-11.0-2.0-0.6","3857","2","16","Male","approach_avoid_spark_v1","""event"",""trial"",""time""
""fullscreenenter"",""1"",""2460""
","
","
","""event"",""trial"",""time""
""fullscreenenter"",""1"",""2460""
","
","","","","","","null","<div style=""font-size:60px;"">+</div>","null","","fixation","","","","","","","","","","",""
"aa-learning-trial","202","763760","0.0-11.0-2.0-1.6","3857","2","16","Male","approach_avoid_spark_v1","""event"",""trial"",""time""
""fullscreenenter"",""1"",""2460""
","
","
","""event"",""trial"",""time""
""fullscreenenter"",""1"",""2460""
","
","","","","","","868.6999999880791","images/tree8.png","","","learning","6","6","1","1","tree","plants","1","1","","good","[6]"
"html-keyboard-response","203","764265","0.0-11.0-2.0-0.7","3857","2","16","Male","approach_avoid_spark_v1","""event"",""trial"",""time""
""fullscreenenter"",""1"",""2460""
","
","
","""event"",""trial"",""time""
""fullscreenenter"",""1"",""2460""
","
","","","","","","null","<div style=""font-size:60px;"">+</div>","null","","fixation","","","","","","","","","","",""
"aa-learning-trial","204","767272","0.0-11.0-2.0-1.7","3857","2","16","Male","approach_avoid_spark_v1","""event"",""trial"",""time""
""fullscreenenter"",""1"",""2460""
","
","
","""event"",""trial"",""time""
""fullscreenenter"",""1"",""2460""
","
","","","","","","688.7999999821186","images/cactus1.png","","","learning","-5","0","0","0","cactus","plants","1","1","","bad","[-5]"
"html-keyboard-response","205","767777","0.0-11.0-2.0-0.8","3857","2","16","Male","approach_avoid_spark_v1","""event"",""trial"",""time""
""fullscreenenter"",""1"",""2460""
","
","
","""event"",""trial"",""time""
""fullscreenenter"",""1"",""2460""
","
","","","","","","null","<div style=""font-size:60px;"">+</div>","null","","fixation","","","","","","","","","","",""
"aa-learning-trial","206","770784","0.0-11.0-2.0-1.8","3857","2","16","Male","approach_avoid_spark_v1","""event"",""trial"",""time""
""fullscreenenter"",""1"",""2460""
","
","
","""event"",""trial"",""time""
""fullscreenenter"",""1"",""2460""
","
","","","","","","955.5","images/cactus5.png","","","learning","-2","0","0","0","cactus","plants","1","1","","bad","[-5]"
"html-keyboard-response","207","771289","0.0-11.0-2.0-0.9","3857","2","16","Male","approach_avoid_spark_v1","""event"",""trial"",""time""
""fullscreenenter"",""1"",""2460""
","
","
","""event"",""trial"",""time""
""fullscreenenter"",""1"",""2460""
","
","","","","","","null","<div style=""font-size:60px;"">+</div>","null","","fixation","","","","","","","","","","",""
"aa-learning-trial","208","774293","0.0-11.0-2.0-1.9","3857","2","16","Male","approach_avoid_spark_v1","""event"",""trial"",""time""
""fullscreenenter"",""1"",""2460""
","
","
","""event"",""trial"",""time""
""fullscreenenter"",""1"",""2460""
","
","","","","","","942.3999999761581","images/flower8.png","","","learning","1","0","0","0","flower","plants","1","1","","neutral","0"
"html-keyboard-response","209","774798","0.0-11.0-2.0-0.10","3857","2","16","Male","approach_avoid_spark_v1","""event"",""trial"",""time""
""fullscreenenter"",""1"",""2460""
","
","
","""event"",""trial"",""time""
""fullscreenenter"",""1"",""2460""
","
","","","","","","null","<div style=""font-size:60px;"">+</div>","null","","fixation","","","","","","","","","","",""
"aa-learning-trial","210","777805","0.0-11.0-2.0-1.10","3857","2","16","Male","approach_avoid_spark_v1","""event"",""trial"",""time""
""fullscreenenter"",""1"",""2460""
","
","
","""event"",""trial"",""time""
""fullscreenenter"",""1"",""2460""
","
","","","","","","1096.7999999821186","images/flower4.png","","","learning","-1","0","0","0","flower","plants","1","1","","neutral","0"
"html-keyboard-response","211","778310","0.0-11.0-2.0-0.11","3857","2","16","Male","approach_avoid_spark_v1","""event"",""trial"",""time""
""fullscreenenter"",""1"",""2460""
","
","
","""event"",""trial"",""time""
""fullscreenenter"",""1"",""2460""
","
","","","","","","null","<div style=""font-size:60px;"">+</div>","null","","fixation","","","","","","","","","","",""
"aa-learning-trial","212","781317","0.0-11.0-2.0-1.11","3857","2","16","Male","approach_avoid_spark_v1","""event"",""trial"",""time""
""fullscreenenter"",""1"",""2460""
","
","
","""event"",""trial"",""time""
""fullscreenenter"",""1"",""2460""
","
","","","","","","913.1999999880791","images/cactus7.png","","","learning","-6","0","0","0","cactus","plants","1","1","","bad","[-5]"
"html-keyboard-response","213","781822","0.0-11.0-2.0-0.12","3857","2","16","Male","approach_avoid_spark_v1","""event"",""trial"",""time""
""fullscreenenter"",""1"",""2460""
","
","
","""event"",""trial"",""time""
""fullscreenenter"",""1"",""2460""
","
","","","","","","null","<div style=""font-size:60px;"">+</div>","null","","fixation","","","","","","","","","","",""
"aa-learning-trial","214","784829","0.0-11.0-2.0-1.12","3857","2","16","Male","approach_avoid_spark_v1","""event"",""trial"",""time""
""fullscreenenter"",""1"",""2460""
","
","
","""event"",""trial"",""time""
""fullscreenenter"",""1"",""2460""
","
","","","","","","908.7999999821186","images/flower3.png","","","learning","-2","0","0","0","flower","plants","1","1","","neutral","0"
"html-keyboard-response","215","785334","0.0-11.0-2.0-0.13","3857","2","16","Male","approach_avoid_spark_v1","""event"",""trial"",""time""
""fullscreenenter"",""1"",""2460""
","
","
","""event"",""trial"",""time""
""fullscreenenter"",""1"",""2460""
","
","","","","","","null","<div style=""font-size:60px;"">+</div>","null","","fixation","","","","","","","","","","",""
"aa-learning-trial","216","788338","0.0-11.0-2.0-1.13","3857","2","16","Male","approach_avoid_spark_v1","""event"",""trial"",""time""
""fullscreenenter"",""1"",""2460""
","
","
","""event"",""trial"",""time""
""fullscreenenter"",""1"",""2460""
","
","","","","","","651.6999999880791","images/tree8.png","","","learning","5","5","1","1","tree","plants","1","1","","good","[6]"
"html-keyboard-response","217","788843","0.0-11.0-2.0-0.14","3857","2","16","Male","approach_avoid_spark_v1","""event"",""trial"",""time""
""fullscreenenter"",""1"",""2460""
","
","
","""event"",""trial"",""time""
""fullscreenenter"",""1"",""2460""
","
","","","","","","null","<div style=""font-size:60px;"">+</div>","null","","fixation","","","","","","","","","","",""
"aa-learning-trial","218","791850","0.0-11.0-2.0-1.14","3857","2","16","Male","approach_avoid_spark_v1","""event"",""trial"",""time""
""fullscreenenter"",""1"",""2460""
","
","
","""event"",""trial"",""time""
""fullscreenenter"",""1"",""2460""
","
","","","","","","773.7000000178814","images/flower4.png","","","learning","1","0","0","0","flower","plants","1","1","","neutral","0"
"html-keyboard-response","219","792355","0.0-11.0-2.0-0.15","3857","2","16","Male","approach_avoid_spark_v1","""event"",""trial"",""time""
""fullscreenenter"",""1"",""2460""
","
","
","""event"",""trial"",""time""
""fullscreenenter"",""1"",""2460""
","
","","","","","","null","<div style=""font-size:60px;"">+</div>","null","","fixation","","","","","","","","","","",""
"aa-learning-trial","220","795362","0.0-11.0-2.0-1.15","3857","2","16","Male","approach_avoid_spark_v1","""event"",""trial"",""time""
""fullscreenenter"",""1"",""2460""
","
","
","""event"",""trial"",""time""
""fullscreenenter"",""1"",""2460""
","
","","","","","","948.2000000178814","images/tree8.png","","","learning","7","7","1","1","tree","plants","1","1","","good","[6]"
"html-keyboard-response","221","795867","0.0-11.0-2.0-0.16","3857","2","16","Male","approach_avoid_spark_v1","""event"",""trial"",""time""
""fullscreenenter"",""1"",""2460""
","
","
","""event"",""trial"",""time""
""fullscreenenter"",""1"",""2460""
","
","","","","","","null","<div style=""font-size:60px;"">+</div>","null","","fixation","","","","","","","","","","",""
"aa-learning-trial","222","798874","0.0-11.0-2.0-1.16","3857","2","16","Male","approach_avoid_spark_v1","""event"",""trial"",""time""
""fullscreenenter"",""1"",""2460""
","
","
","""event"",""trial"",""time""
""fullscreenenter"",""1"",""2460""
","
","","","","","","1669.699999988079","images/cactus6.png","","","learning","-4","0","0","0","cactus","plants","1","1","","bad","[-5]"
"html-keyboard-response","223","799379","0.0-11.0-2.0-0.17","3857","2","16","Male","approach_avoid_spark_v1","""event"",""trial"",""time""
""fullscreenenter"",""1"",""2460""
","
","
","""event"",""trial"",""time""
""fullscreenenter"",""1"",""2460""
","
","","","","","","null","<div style=""font-size:60px;"">+</div>","null","","fixation","","","","","","","","","","",""
"aa-learning-trial","224","802383","0.0-11.0-2.0-1.17","3857","2","16","Male","approach_avoid_spark_v1","""event"",""trial"",""time""
""fullscreenenter"",""1"",""2460""
","
","
","""event"",""trial"",""time""
""fullscreenenter"",""1"",""2460""
","
","","","","","","665.9000000059605","images/tree2.png","","","learning","7","7","1","1","tree","plants","1","1","","good","[6]"
"html-keyboard-response","225","802888","0.0-11.0-2.0-0.18","3857","2","16","Male","approach_avoid_spark_v1","""event"",""trial"",""time""
""fullscreenenter"",""1"",""2460""
","
","
","""event"",""trial"",""time""
""fullscreenenter"",""1"",""2460""
","
","","","","","","null","<div style=""font-size:60px;"">+</div>","null","","fixation","","","","","","","","","","",""
"aa-learning-trial","226","805895","0.0-11.0-2.0-1.18","3857","2","16","Male","approach_avoid_spark_v1","""event"",""trial"",""time""
""fullscreenenter"",""1"",""2460""
","
","
","""event"",""trial"",""time""
""fullscreenenter"",""1"",""2460""
","
","","","","","","581.2000000178814","images/cactus5.png","","","learning","-6","0","0","0","cactus","plants","1","1","","bad","[-5]"
"html-keyboard-response","227","806400","0.0-11.0-2.0-0.19","3857","2","16","Male","approach_avoid_spark_v1","""event"",""trial"",""time""
""fullscreenenter"",""1"",""2460""
","
","
","""event"",""trial"",""time""
""fullscreenenter"",""1"",""2460""
","
","","","","","","null","<div style=""font-size:60px;"">+</div>","null","","fixation","","","","","","","","","","",""
"aa-learning-trial","228","809407","0.0-11.0-2.0-1.19","3857","2","16","Male","approach_avoid_spark_v1","""event"",""trial"",""time""
""fullscreenenter"",""1"",""2460""
","
","
","""event"",""trial"",""time""
""fullscreenenter"",""1"",""2460""
","
","","","","","","895.4000000059605","images/tree5.png","","","learning","7","7","1","1","tree","plants","1","1","","good","[6]"
"html-keyboard-response","229","809912","0.0-11.0-2.0-0.20","3857","2","16","Male","approach_avoid_spark_v1","""event"",""trial"",""time""
""fullscreenenter"",""1"",""2460""
","
","
","""event"",""trial"",""time""
""fullscreenenter"",""1"",""2460""
","
","","","","","","null","<div style=""font-size:60px;"">+</div>","null","","fixation","","","","","","","","","","",""
"aa-learning-trial","230","812919","0.0-11.0-2.0-1.20","3857","2","16","Male","approach_avoid_spark_v1","""event"",""trial"",""time""
""fullscreenenter"",""1"",""2460""
","
","
","""event"",""trial"",""time""
""fullscreenenter"",""1"",""2460""
","
","","","","","","1190.5","images/cactus5.png","","","learning","-6","-6","1","1","cactus","plants","1","1","","bad","[-5]"
"html-keyboard-response","231","813424","0.0-11.0-2.0-0.21","3857","2","16","Male","approach_avoid_spark_v1","""event"",""trial"",""time""
""fullscreenenter"",""1"",""2460""
","
","
","""event"",""trial"",""time""
""fullscreenenter"",""1"",""2460""
","
","","","","","","null","<div style=""font-size:60px;"">+</div>","null","","fixation","","","","","","","","","","",""
"aa-learning-trial","232","816428","0.0-11.0-2.0-1.21","3857","2","16","Male","approach_avoid_spark_v1","""event"",""trial"",""time""
""fullscreenenter"",""1"",""2460""
","
","
","""event"",""trial"",""time""
""fullscreenenter"",""1"",""2460""
","
","","","","","","604.5999999940395","images/tree2.png","","","learning","6","6","1","1","tree","plants","1","1","","good","[6]"
"html-keyboard-response","233","816933","0.0-11.0-2.0-0.22","3857","2","16","Male","approach_avoid_spark_v1","""event"",""trial"",""time""
""fullscreenenter"",""1"",""2460""
","
","
","""event"",""trial"",""time""
""fullscreenenter"",""1"",""2460""
","
","","","","","","null","<div style=""font-size:60px;"">+</div>","null","","fixation","","","","","","","","","","",""
"aa-learning-trial","234","819940","0.0-11.0-2.0-1.22","3857","2","16","Male","approach_avoid_spark_v1","""event"",""trial"",""time""
""fullscreenenter"",""1"",""2460""
","
","
","""event"",""trial"",""time""
""fullscreenenter"",""1"",""2460""
","
","","","","","","657.2000000178814","images/flower3.png","","","learning","1","0","0","0","flower","plants","1","1","","neutral","0"
"html-keyboard-response","235","820445","0.0-11.0-2.0-0.23","3857","2","16","Male","approach_avoid_spark_v1","""event"",""trial"",""time""
""fullscreenenter"",""1"",""2460""
","
","
","""event"",""trial"",""time""
""fullscreenenter"",""1"",""2460""
","
","","","","","","null","<div style=""font-size:60px;"">+</div>","null","","fixation","","","","","","","","","","",""
"aa-learning-trial","236","823453","0.0-11.0-2.0-1.23","3857","2","16","Male","approach_avoid_spark_v1","""event"",""trial"",""time""
""fullscreenenter"",""1"",""2460""
","
","
","""event"",""trial"",""time""
""fullscreenenter"",""1"",""2460""
","
","","","","","","837.5999999940395","images/tree2.png","","","learning","7","7","1","1","tree","plants","1","1","","good","[6]"
"html-keyboard-response","237","823957","0.0-11.0-2.0-0.24","3857","2","16","Male","approach_avoid_spark_v1","""event"",""trial"",""time""
