"trial_type","trial_index","time_elapsed","internal_node_id","subject_id","task_condition","age","gender","task_version","interactions","blur_events","focus_events","fullscreenenter_events","fullscreenexit_events","success","timeout","failed_images","failed_audio","failed_video","rt","stimulus","response","button_pressed","task_part","approach_reward","points","key_press","option_selected","stim_cat","task_block","block_condition","block_number","correct","cat_type","mean_cat_reward"
"pavlovia","0","2","0.0-0.0","5592","1","21","Female","approach_avoid_spark_v1","
","
","
","
","
","","","","","","","","","","","","","","","","","","","","",""
"fullscreen","1","16117","0.0-1.0","5592","1","21","Female","approach_avoid_spark_v1","
","
","
","
","
","true","","","","","","","","","","","","","","","","","","","",""
"preload","2","16153","0.0-2.0","5592","1","21","Female","approach_avoid_spark_v1","
","
","
","
","
","true","false","[]","[]","[]","","","","","","","","","","","","","","","",""
"audio-keyboard-response","3","40289","0.0-3.0","5592","1","21","Female","approach_avoid_spark_v1","
","
","
","
","
","","","","","","0","audio/beep_loop.wav"," ","","","","","","","","","","","","",""
"audio-button-response","4","42555","0.0-4.0","5592","1","21","Female","approach_avoid_spark_v1","
","
","
","
","
","","","","","","2136","audio/shark.wav","4","","","","","","","","","","","","",""
"audio-button-response","5","44552","0.0-5.0","5592","1","21","Female","approach_avoid_spark_v1","
","
","
","
","
","","","","","","989","audio/turtle.wav","1","","","","","","","","","","","","",""
"preload","6","50293","0.0-6.0","5592","1","21","Female","approach_avoid_spark_v1","
","
","
","
","
","true","false","[]","[]","[]","","","","","","","","","","","","","","","",""
"html-keyboard-response","7","51815","0.0-7.0","5592","1","21","Female","approach_avoid_spark_v1","
","
","
","
","
","","","","","","1518","Welcome to the experiment. Press any key to begin and to advance the instructions."," ","","","","","","","","","","","","",""
"learning-instructions","8","60171","0.0-8.0-0.0-0.0","5592","1","21","Female","approach_avoid_spark_v1","
","
","
","
","
","","","","","","1396","<p> Welcome! Today you are going to play 6 different rounds of a decision-making game. </p><p> Use the mouse to click next to continue. </p>","","0","instructions","","","","","","","","","","",""
"learning-instructions","9","63869","0.0-8.0-0.0-0.1","5592","1","21","Female","approach_avoid_spark_v1","
","
","
","
","
","","","","","","971","<p> You will start with a practice round to learn the rules. </p>","","0","instructions","","","","","","","","","","",""
"learning-instructions","10","68144","0.0-8.0-0.0-0.2","5592","1","21","Female","approach_avoid_spark_v1","
","
","
","
","
","","","","","","828","<p> Your goal in this round is to give out sports equipment to kids. </p></div>","","0","instructions","","","","","","","","","","",""
"learning-instructions","11","76501","0.0-8.0-0.0-0.3","5592","1","21","Female","approach_avoid_spark_v1","
","
","
","
","
","","","","","","811","<p> The kids only like some of the equipment.  </p><p> On each turn, you will see a piece of sports equipment.   </p><p> You need to decide whether to give it to the kids or not.  </p>","","0","instructions","","","","","","","","","","",""
"learning-instructions","12","84544","0.0-8.0-0.0-0.4","5592","1","21","Female","approach_avoid_spark_v1","
","
","
","
","
","","","","","","3294","<p> You can give them the equipment by pressing 1 and choose not to give it to them by pressing 0. </p><br><div class=""choice-instructions-grid""> <div class=""choice-option""><img src=""images/approach.png"" class=""choice-option-img"" stage=""instructions"" position=""0"" ><div class=""choice-option-text""> Press ""1."" </div></div><div class=""choice-option""><img src=""images/avoid.png"" class=""choice-option-img"" stage=""instructions"" position=""1"" ><div class=""choice-option-text""> Press ""0."" </div></div>","","0","instructions","","","","","","","","","","",""
"learning-instructions","13","92851","0.0-8.0-0.0-0.5","5592","1","21","Female","approach_avoid_spark_v1","
","
","
","
","
","","","","","","925","<p> If you give them a piece of equipment they like, they will be happy! </p><p> But if you give them a piece of equipment they do not like, they will be sad. </p>","","0","instructions","","","","","","","","","","",""
"learning-instructions","14","104190","0.0-8.0-0.0-0.6","5592","1","21","Female","approach_avoid_spark_v1","
","
","
","
","
","","","","","","833.9999999999854","<p> You will earn points based on how you make kids feel. </p><p> If you make them happy, you will WIN anywhere from 1 - 9 points, </p><p> but if you make them sad, you will LOSE anywhere from 1 - 9 points. </p>","","0","instructions","","","","","","","","","","",""
"learning-instructions","15","114533","0.0-8.0-0.0-0.7","5592","1","21","Female","approach_avoid_spark_v1","
","
","
","
","
","","","","","","791","<p> You will see how many points you won or lost in the center of the screen. </p><p> Here is what you would see if you won 6 points: </p><p style=""color:green;font-size:50px;font-weight:bolder"">6</p><p style=""color:green"">The text is GREEN because you WON points.</p>","","0","instructions","","","","","","","","","","",""
"learning-instructions","16","121566","0.0-8.0-0.0-0.8","5592","1","21","Female","approach_avoid_spark_v1","
","
","
","
","
","","","","","","1530","<p> And here is what you would see if you lost 4 points: </p><p style=""color:red;font-size:50px;font-weight:bolder"">-4</p><p style=""color:red"">The text is RED because you LOST points. </p>","","0","instructions","","","","","","","","","","",""
"learning-instructions","17","137105","0.0-8.0-0.0-0.9","5592","1","21","Female","approach_avoid_spark_v1","
","
","
","
","
","","","","","","831.9999999999709","<p> Some of the equipment will make the kids VERY happy or sad. </p><p> These pieces of equipment will make you win or lose LOTS of points. </p><p> Other pieces of equipment will only make the kids a little happy or sad. </p><p> These pieces of equipment will make you win or lose small amounts of points. </p>","","0","instructions","","","","","","","","","","",""
"learning-instructions","18","148246","0.0-8.0-0.0-0.10","5592","1","21","Female","approach_avoid_spark_v1","
","
","
","
","
","","","","","","519","<p> If you choose not to give them the equipment, you will not win or lose any points. </p><p>  However, in the center of the screen, you will see the number of points you WOULD HAVE won or lost if you had given them the equipment. </p>","","0","instructions","","","","","","","","","","",""
"learning-instructions","19","170869","0.0-8.0-0.0-0.11","5592","1","21","Female","approach_avoid_spark_v1","
","
","
","
","
","","","","","","1100","<p> Here is what you might see if you did not give the equipment to the kids but it would have made them happy: </p><p style=""color:grey; font-size:50px; display: inline-block; border-spacing: 15px; border-width:3px; border-style:solid; border-color:red"">  &nbsp; 7 &nbsp; </p><p> Remember, in this case, you would not win or lose ANY points because you did not give them the equipment.  </p><p style=""color:grey"">The text is GREY because you earned ZERO points. </p><p style=""color:red"">However, choosing to give the kids the equipment would have made you win points. The box around the text is RED because you chose the worse option. </p>","","0","instructions","","","","","","","","","","",""
"learning-instructions","20","192934","0.0-8.0-0.0-0.12","5592","1","21","Female","approach_avoid_spark_v1","
","
","
","
","
","","","","","","995.0000000000291","<p> Here is what you might see if you did not give the equipment to the kids but it would have made them sad: </p><p style=""color:grey;font-size:50px; display: inline-block; border-spacing: 15px; border-width:3px; border-style:solid; border-color:green"">  &nbsp; -8 &nbsp; </p><p> Remember, in this case, you would not win or lose ANY points because you did not give them the equipment.  </p><p style=""color:grey"">The text is GREY because you earned ZERO points. </p><p  style=""color:green""> Choosing to give the kids the equipment would have made you lose points. The box around the text is GREEN because you chose the better option.</p>","","0","instructions","","","","","","","","","","",""
"learning-instructions","21","202686","0.0-8.0-0.0-0.13","5592","1","21","Female","approach_avoid_spark_v1","
","
","
","
","
","","","","","","989.9999999999709","<p> You will have 3 seconds to make each choice. Try to respond before time runs out! </p><p> You will lose 5 points each time you do not make a response. </p>","","0","instructions","","","","","","","","","","",""
"learning-instructions","22","209000","0.0-8.0-0.0-0.14","5592","1","21","Female","approach_avoid_spark_v1","
","
","
","
","
","","","","","","904","<p> This is just a practice round, but in the real game, your bonus payment will depend on your total number of points.","","0","instructions","","","","","","","","","","",""
"learning-instructions","23","215442","0.0-8.0-0.0-0.15","5592","1","21","Female","approach_avoid_spark_v1","
","
","
","
","
","","","","","","685","<p> Remember, you can give them the equipment by pressing 1 and choose not to give it to them by pressing 0. </p><br><div class=""choice-instructions-grid""> <div class=""choice-option""><img src=""images/approach.png"" class=""choice-option-img"" stage=""instructions"" position=""0"" ><div class=""choice-option-text""> Press ""1."" </div></div><div class=""choice-option""><img src=""images/avoid.png"" class=""choice-option-img"" stage=""instructions"" position=""1"" ><div class=""choice-option-text""> Press ""0."" </div></div>","","0","instructions","","","","","","","","","","",""
"html-button-response","24","216682","0.0-8.0-1.0","5592","1","21","Female","approach_avoid_spark_v1","
","
","
","
","
","","","","","","1138","<p> Ready to practice? </p>","0","","","","","","","","","","","","",""
"html-keyboard-response","25","217286","0.0-8.0-2.0-0.0","5592","1","21","Female","approach_avoid_spark_v1","
","
","
","
","
","","","","","","null","<div style=""font-size:60px;"">+</div>","null","","fixation","","","","","","","","","","",""
"aa-learning-trial","26","220289","0.0-8.0-2.0-1.0","5592","1","21","Female","approach_avoid_spark_v1","
","
","
","
","
","","","","","","2084","images/racket2.png","","","learning","2","-5","2","","practice","practice","practice","-1","","",""
"html-keyboard-response","27","220791","0.0-8.0-2.0-0.1","5592","1","21","Female","approach_avoid_spark_v1","
","
","
","
","
","","","","","","null","<div style=""font-size:60px;"">+</div>","null","","fixation","","","","","","","","","","",""
"aa-learning-trial","28","223795","0.0-8.0-2.0-1.1","5592","1","21","Female","approach_avoid_spark_v1","
","
","
","
","
","","","","","","1975","images/racket2.png","","","learning","9","-5","2","","practice","practice","practice","-1","","",""
"html-keyboard-response","29","224297","0.0-8.0-2.0-0.2","5592","1","21","Female","approach_avoid_spark_v1","
","
","
","
","
","","","","","","null","<div style=""font-size:60px;"">+</div>","null","","fixation","","","","","","","","","","",""
"aa-learning-trial","30","227301","0.0-8.0-2.0-1.2","5592","1","21","Female","approach_avoid_spark_v1","
","
","
","
","
","","","","","","2682.000000000029","images/ball2.png","","","learning","-8","0","0","0","practice","practice","practice","-1","","",""
"html-keyboard-response","31","227803","0.0-8.0-2.0-0.3","5592","1","21","Female","approach_avoid_spark_v1","
","
","
","
","
","","","","","","null","<div style=""font-size:60px;"">+</div>","null","","fixation","","","","","","","","","","",""
"aa-learning-trial","32","230805","0.0-8.0-2.0-1.3","5592","1","21","Female","approach_avoid_spark_v1","
","
","
","
","
","","","","","","1156","images/ball4.png","","","learning","5","-5","2","","practice","practice","practice","-1","","",""
"html-keyboard-response","33","231307","0.0-8.0-2.0-0.4","5592","1","21","Female","approach_avoid_spark_v1","
","
","
","
","
","","","","","","null","<div style=""font-size:60px;"">+</div>","null","","fixation","","","","","","","","","","",""
"aa-learning-trial","34","234310","0.0-8.0-2.0-1.4","5592","1","21","Female","approach_avoid_spark_v1","
","
","
","
","
","","","","","","2936.999999999971","images/racket3.png","","","learning","-8","-8","1","1","practice","practice","practice","-1","","",""
"html-keyboard-response","35","234812","0.0-8.0-2.0-0.5","5592","1","21","Female","approach_avoid_spark_v1","
","
","
","
","
","","","","","","null","<div style=""font-size:60px;"">+</div>","null","","fixation","","","","","","","","","","",""
"aa-learning-trial","36","237815","0.0-8.0-2.0-1.5","5592","1","21","Female","approach_avoid_spark_v1","
","
","
","
","
","","","","","","1141.999999999971","images/ball1.png","","","learning","-1","-1","1","1","practice","practice","practice","-1","","",""
"html-keyboard-response","37","238316","0.0-8.0-2.0-0.6","5592","1","21","Female","approach_avoid_spark_v1","
","
","
","
","
","","","","","","null","<div style=""font-size:60px;"">+</div>","null","","fixation","","","","","","","","","","",""
"aa-learning-trial","38","241319","0.0-8.0-2.0-1.6","5592","1","21","Female","approach_avoid_spark_v1","
","
","
","
","
","","","","","","1125","images/racket1.png","","","learning","-6","-6","1","1","practice","practice","practice","-1","","",""
"html-keyboard-response","39","241821","0.0-8.0-2.0-0.7","5592","1","21","Female","approach_avoid_spark_v1","
","
","
","
","
","","","","","","null","<div style=""font-size:60px;"">+</div>","null","","fixation","","","","","","","","","","",""
"aa-learning-trial","40","244825","0.0-8.0-2.0-1.7","5592","1","21","Female","approach_avoid_spark_v1","
","
","
","
","
","","","","","","971","images/racket4.png","","","learning","3","0","0","0","practice","practice","practice","-1","","",""
"html-keyboard-response","41","245327","0.0-8.0-2.0-0.8","5592","1","21","Female","approach_avoid_spark_v1","
","
","
","
","
","","","","","","null","<div style=""font-size:60px;"">+</div>","null","","fixation","","","","","","","","","","",""
"aa-learning-trial","42","248330","0.0-8.0-2.0-1.8","5592","1","21","Female","approach_avoid_spark_v1","
","
","
","
","
","","","","","","412","images/racket3.png","","","learning","8","8","1","1","practice","practice","practice","-1","","",""
"html-keyboard-response","43","248832","0.0-8.0-2.0-0.9","5592","1","21","Female","approach_avoid_spark_v1","
","
","
","
","
","","","","","","null","<div style=""font-size:60px;"">+</div>","null","","fixation","","","","","","","","","","",""
"aa-learning-trial","44","251834","0.0-8.0-2.0-1.9","5592","1","21","Female","approach_avoid_spark_v1","
","
","
","
","
","","","","","","757","images/ball3.png","","","learning","5","5","1","1","practice","practice","practice","-1","","",""
"html-keyboard-response","45","252341","0.0-8.0-2.0-0.10","5592","1","21","Female","approach_avoid_spark_v1","
","
","
","
","
","","","","","","null","<div style=""font-size:60px;"">+</div>","null","","fixation","","","","","","","","","","",""
"aa-learning-trial","46","255344","0.0-8.0-2.0-1.10","5592","1","21","Female","approach_avoid_spark_v1","
","
","
","
","
","","","","","","557","images/ball4.png","","","learning","4","4","1","1","practice","practice","practice","-1","","",""
"html-keyboard-response","47","255846","0.0-8.0-2.0-0.11","5592","1","21","Female","approach_avoid_spark_v1","
","
","
","
","
","","","","","","null","<div style=""font-size:60px;"">+</div>","null","","fixation","","","","","","","","","","",""
"aa-learning-trial","48","258850","0.0-8.0-2.0-1.11","5592","1","21","Female","approach_avoid_spark_v1","
","
","
","
","
","","","","","","874.9999999999709","images/racket1.png","","","learning","5","5","1","1","practice","practice","practice","-1","","",""
"html-button-response","49","261088","0.0-8.0-3.0","5592","1","21","Female","approach_avoid_spark_v1","
","
","
","
","
","","","","","","2233.999999999971","<p> You earned -8 points in the practice round! </p>","0","","break","","","","","","","","","","",""
"learning-instructions","50","268003","0.0-8.0-4.0-0.0","5592","1","21","Female","approach_avoid_spark_v1","
","
","
","
","
","","","","","","955.0000000000582","<p> It's almost time to start the real game. </p><p> Before you start, we're going to ask you a few questions about how the game works. </p>","","0","instructions","","","","","","","","","","",""
"preload","51","269214","0.0-8.0-5.0","5592","1","21","Female","approach_avoid_spark_v1","
","
","
","
","
","true","false","[]","[]","[]","","","","","","","","","","","","","","","",""
"comp-q","52","275186","0.0-8.0-6.0-0.0","5592","1","21","Female","approach_avoid_spark_v1","
","
","
","
","
","","","","","","970","<p> <b> True or False? </b> </p><p> If you see a number in GREY, that means you earned that many points. </p>","","1","comp_question","","","","","","","","","true","",""
"comp-q","53","285254","0.0-8.0-6.0-1.0","5592","1","21","Female","approach_avoid_spark_v1","
","
","
","
","
","","","","","","1709","<p><b> That's right! </b> If you see a grey number, it means you earned ZERO points. <br> The grey numbers show the points you WOULD HAVE earned if you had made the other choice. </p>","","0","comp_answer","","","","","","","","","","",""
"comp-q","54","290693","0.0-8.0-7.0-0.0","5592","1","21","Female","approach_avoid_spark_v1","
","
","
","
","
","","","","","","747","<p> <b> True or False? </b> </p><p> You will have as much time as you want to make each choice. </p>","","1","comp_question","","","","","","","","","true","",""
"comp-q","55","295853","0.0-8.0-7.0-1.0","5592","1","21","Female","approach_avoid_spark_v1","
","
","
","
","
","","","","","","1121.0000000000582","<p> <b> That's right! </b> You will only have 3 seconds to make each choice. </p>","","0","comp_answer","","","","","","","","","","",""
"comp-q","56","301369","0.0-8.0-8.0-0.0","5592","1","21","Female","approach_avoid_spark_v1","
","
","
","
","
","","","","","","861","<p> <b> True or False? </b> </p><p> You should use the '1' and '0' keys to make your choices. </p>","","0","comp_question","","","","","","","","","true","",""
"comp-q","57","307043","0.0-8.0-8.0-1.0","5592","1","21","Female","approach_avoid_spark_v1","
","
","
","
","
","","","","","","1065","<p> <b> That's right! </b> You should use the '1' and '0' keys to make each choice. </p>","","0","comp_answer","","","","","","","","","","",""
"learning-instructions","58","314758","0.0-8.0-9.0-0.0","5592","1","21","Female","approach_avoid_spark_v1","
","
","
","
","
","","","","","","1448","<p> It's now time to start the real game. </p>Do your best, because the points you earn in the next rounds will influence your bonus payment. </p>","","0","instructions","","","","","","","","","","",""
"preload","59","314873","0.0-9.0-0.0","5592","1","21","Female","approach_avoid_spark_v1","
","
","
","
","
","true","false","[]","[]","[]","","","","","","","","","","","","","","","",""
"learning-instructions","60","320542","0.0-9.0-1.0-0.0","5592","1","21","Female","approach_avoid_spark_v1","
","
","
","
","
","","","","","","2122","<p> Your goal in this round is to take care of lots of animals. </p></div>","","0","instructions","","","","","","","","","","",""
"learning-instructions","61","330392","0.0-9.0-1.0-0.1","5592","1","21","Female","approach_avoid_spark_v1","
","
","
","
","
","","","","","","739","<p> Some animals want to be pet, while other animals want to be left alone.  </p><p> On each turn, you will see an animal.   </p><p> You need to decide whether to pet it or not.  </p>","","0","instructions","","","","","","","","","","",""
"learning-instructions","62","336473","0.0-9.0-1.0-0.2","5592","1","21","Female","approach_avoid_spark_v1","
","
","
","
","
","","","","","","1253","<p> You can pet the animal by pressing 1 and leave the animal alone by pressing 0. </p><br><div class=""choice-instructions-grid""> <div class=""choice-option""><img src=""images/approach.png"" class=""choice-option-img"" stage=""instructions"" position=""0"" ><div class=""choice-option-text""> Press ""1."" </div></div><div class=""choice-option""><img src=""images/avoid.png"" class=""choice-option-img"" stage=""instructions"" position=""1"" ><div class=""choice-option-text""> Press ""0."" </div></div>","","0","instructions","","","","","","","","","","",""
"learning-instructions","63","345807","0.0-9.0-1.0-0.3","5592","1","21","Female","approach_avoid_spark_v1","
","
","
","
","
","","","","","","961","<p> If you pet an animal that wants to be pet, you will make it feel happy! </p><p> But if you pet an animal that wants to be left alone, you will make it feel angry. </p>","","0","instructions","","","","","","","","","","",""
"learning-instructions","64","358445","0.0-9.0-1.0-0.4","5592","1","21","Female","approach_avoid_spark_v1","
","
","
","
","
","","","","","","783","<p> You will earn points based on how you made the animal feel. </p><p> If you made it feel happy, you will WIN anywhere from 1 - 9 points, </p><p> but if you made it feel angry, you will LOSE anywhere from 1 - 9 points. </p>","","0","instructions","","","","","","","","","","",""
"learning-instructions","65","366513","0.0-9.0-1.0-0.5","5592","1","21","Female","approach_avoid_spark_v1","
","
","
","
","
","","","","","","840","<p> You will see how many points you won or lost in the center of the screen. </p><p> Here is what you would see if you won 5 points: </p><p style=""color:green;font-size:50px;font-weight:bolder"">5</p>","","0","instructions","","","","","","","","","","",""
"learning-instructions","66","370247","0.0-9.0-1.0-0.6","5592","1","21","Female","approach_avoid_spark_v1","
","
","
","
","
","","","","","","513","<p> And here is what you would see if you lost 3 points: </p><p style=""color:red;font-size:50px;font-weight:bolder"">-3</p>","","0","instructions","","","","","","","","","","",""
"learning-instructions","67","384503","0.0-9.0-1.0-0.7","5592","1","21","Female","approach_avoid_spark_v1","
","
","
","
","
","","","","","","1022","<p> Some animals will become very happy or very angry. </p><p> These animals will make you win or lose LOTS of points. </p><p> Other animals have less strong feelings. </p><p> These animals will make you win or lose small amounts of points. </p>","","0","instructions","","","","","","","","","","",""
"learning-instructions","68","395954","0.0-9.0-1.0-0.8","5592","1","21","Female","approach_avoid_spark_v1","
","
","
","
","
","","","","","","690","<p> If you choose to leave the animal alone, you will not win or lose any points. </p><p>  However, in the center of the screen, you will see the number of points you WOULD HAVE won or lost if you had pet the animal. </p>","","0","instructions","","","","","","","","","","",""
"learning-instructions","69","407950","0.0-9.0-1.0-0.9","5592","1","21","Female","approach_avoid_spark_v1","
","
","
","
","
","","","","","","846","<p> Here is what you might see if you did not pet the animal but the animal wanted to be pet: </p><p style=""color:grey; font-size:50px; display: inline-block; border-spacing: 15px; border-width:3px; border-style:solid; border-color:red"">  &nbsp; 6 &nbsp; </p><p> Remember, in this case, you would not win or lose ANY points because you did not pet the animal.  </p>","","0","instructions","","","","","","","","","","",""
"learning-instructions","70","415549","0.0-9.0-1.0-0.10","5592","1","21","Female","approach_avoid_spark_v1","
","
","
","
","
","","","","","","821.0000000000582","<p> Try to make the best choice for each animal because </p><p> at the end of the game, you will earn bonus money based on how many points you earned. </p>","","0","instructions","","","","","","","","","","",""
"learning-instructions","71","424409","0.0-9.0-1.0-0.11","5592","1","21","Female","approach_avoid_spark_v1","
","
","
","
","
","","","","","","676","<p> You will have 3 seconds to make each choice. Try to respond before time runs out! </p><p> You will lose 5 points each time you do not make a response. </p>","","0","instructions","","","","","","","","","","",""
"html-keyboard-response","72","425013","0.0-9.0-2.0-0.0","5592","1","21","Female","approach_avoid_spark_v1","
","
","
","
","
","","","","","","null","<div style=""font-size:60px;"">+</div>","null","","fixation","","","","","","","","","","",""
"aa-learning-trial","73","428017","0.0-9.0-2.0-1.0","5592","1","21","Female","approach_avoid_spark_v1","
","
","
","
","
","","","","","","1251","images/rodent4.png","","","learning","4","4","1","1","rodent","pets","1","0","","good","[5]"
"html-keyboard-response","74","428519","0.0-9.0-2.0-0.1","5592","1","21","Female","approach_avoid_spark_v1","
","
","
","
","
","","","","","","null","<div style=""font-size:60px;"">+</div>","null","","fixation","","","","","","","","","","",""
"aa-learning-trial","75","431523","0.0-9.0-2.0-1.1","5592","1","21","Female","approach_avoid_spark_v1","
","
","
","
","
","","","","","","1253","images/cat6.png","","","learning","-4","0","0","0","cat","pets","1","0","","bad","[-5]"
"html-keyboard-response","76","432025","0.0-9.0-2.0-0.2","5592","1","21","Female","approach_avoid_spark_v1","
","
","
","
","
","","","","","","null","<div style=""font-size:60px;"">+</div>","null","","fixation","","","","","","","","","","",""
"aa-learning-trial","77","435029","0.0-9.0-2.0-1.2","5592","1","21","Female","approach_avoid_spark_v1","
","
","
","
","
","","","","","","608","images/rabbit3.png","","","learning","1","1","1","1","rabbit","pets","1","0","","neutral","0"
"html-keyboard-response","78","435532","0.0-9.0-2.0-0.3","5592","1","21","Female","approach_avoid_spark_v1","
","
","
","
","
","","","","","","null","<div style=""font-size:60px;"">+</div>","null","","fixation","","","","","","","","","","",""
"aa-learning-trial","79","438536","0.0-9.0-2.0-1.3","5592","1","21","Female","approach_avoid_spark_v1","
","
","
","
","
","","","","","","1352","images/rodent1.png","","","learning","2","2","1","1","rodent","pets","1","0","","good","[5]"
"html-keyboard-response","80","439038","0.0-9.0-2.0-0.4","5592","1","21","Female","approach_avoid_spark_v1","
","
","
","
","
","","","","","","null","<div style=""font-size:60px;"">+</div>","null","","fixation","","","","","","","","","","",""
"aa-learning-trial","81","442041","0.0-9.0-2.0-1.4","5592","1","21","Female","approach_avoid_spark_v1","
","
","
","
","
","","","","","","995","images/rodent3.png","","","learning","6","0","0","0","rodent","pets","1","0","","good","[5]"
"html-keyboard-response","82","442543","0.0-9.0-2.0-0.5","5592","1","21","Female","approach_avoid_spark_v1","
","
","
","
","
","","","","","","null","<div style=""font-size:60px;"">+</div>","null","","fixation","","","","","","","","","","",""
"aa-learning-trial","83","445547","0.0-9.0-2.0-1.5","5592","1","21","Female","approach_avoid_spark_v1","
","
","
","
","
","","","","","","1402.0000000000582","images/rabbit7.png","","","learning","[1]","1","1","1","rabbit","pets","1","0","","neutral","0"
"html-keyboard-response","84","446049","0.0-9.0-2.0-0.6","5592","1","21","Female","approach_avoid_spark_v1","
","
","
","
","
","","","","","","null","<div style=""font-size:60px;"">+</div>","null","","fixation","","","","","","","","","","",""
"aa-learning-trial","85","449052","0.0-9.0-2.0-1.6","5592","1","21","Female","approach_avoid_spark_v1","
","
","
","
","
","","","","","","824","images/rabbit6.png","","","learning","-2","-2","1","1","rabbit","pets","1","0","","neutral","0"
"html-keyboard-response","86","449554","0.0-9.0-2.0-0.7","5592","1","21","Female","approach_avoid_spark_v1","
","
","
","
","
","","","","","","null","<div style=""font-size:60px;"">+</div>","null","","fixation","","","","","","","","","","",""
"aa-learning-trial","87","452558","0.0-9.0-2.0-1.7","5592","1","21","Female","approach_avoid_spark_v1","
","
","
","
","
","","","","","","513","images/rabbit7.png","","","learning","[1]","1","1","1","rabbit","pets","1","0","","neutral","0"
"html-keyboard-response","88","453060","0.0-9.0-2.0-0.8","5592","1","21","Female","approach_avoid_spark_v1","
","
","
","
","
","","","","","","null","<div style=""font-size:60px;"">+</div>","null","","fixation","","","","","","","","","","",""
"aa-learning-trial","89","456065","0.0-9.0-2.0-1.8","5592","1","21","Female","approach_avoid_spark_v1","
","
","
","
","
","","","","","","785","images/rodent1.png","","","learning","5","5","1","1","rodent","pets","1","0","","good","[5]"
"html-keyboard-response","90","456567","0.0-9.0-2.0-0.9","5592","1","21","Female","approach_avoid_spark_v1","
","
","
","
","
","","","","","","null","<div style=""font-size:60px;"">+</div>","null","","fixation","","","","","","","","","","",""
"aa-learning-trial","91","459570","0.0-9.0-2.0-1.9","5592","1","21","Female","approach_avoid_spark_v1","
","
","
","
","
","","","","","","769","images/cat6.png","","","learning","-2","0","0","0","cat","pets","1","0","","bad","[-5]"
"html-keyboard-response","92","460072","0.0-9.0-2.0-0.10","5592","1","21","Female","approach_avoid_spark_v1","
","
","
","
","
","","","","","","null","<div style=""font-size:60px;"">+</div>","null","","fixation","","","","","","","","","","",""
"aa-learning-trial","93","463076","0.0-9.0-2.0-1.10","5592","1","21","Female","approach_avoid_spark_v1","
","
","
","
","
","","","","","","751","images/rabbit3.png","","","learning","[1]","1","1","1","rabbit","pets","1","0","","neutral","0"
"html-keyboard-response","94","463578","0.0-9.0-2.0-0.11","5592","1","21","Female","approach_avoid_spark_v1","
","
","
","
","
","","","","","","null","<div style=""font-size:60px;"">+</div>","null","","fixation","","","","","","","","","","",""
"aa-learning-trial","95","466581","0.0-9.0-2.0-1.11","5592","1","21","Female","approach_avoid_spark_v1","
","
","
","
","
","","","","","","912","images/cat5.png","","","learning","-6","0","0","0","cat","pets","1","0","","bad","[-5]"
"html-keyboard-response","96","467083","0.0-9.0-2.0-0.12","5592","1","21","Female","approach_avoid_spark_v1","
","
","
","
","
","","","","","","null","<div style=""font-size:60px;"">+</div>","null","","fixation","","","","","","","","","","",""
"aa-learning-trial","97","470086","0.0-9.0-2.0-1.12","5592","1","21","Female","approach_avoid_spark_v1","
","
","
","
","
","","","","","","1410.9999999999418","images/rodent3.png","","","learning","5","5","1","1","rodent","pets","1","0","","good","[5]"
"html-keyboard-response","98","470588","0.0-9.0-2.0-0.13","5592","1","21","Female","approach_avoid_spark_v1","
","
","
","
","
","","","","","","null","<div style=""font-size:60px;"">+</div>","null","","fixation","","","","","","","","","","",""
"aa-learning-trial","99","473591","0.0-9.0-2.0-1.13","5592","1","21","Female","approach_avoid_spark_v1","
","
","
","
","
","","","","","","1193.9999999999418","images/cat3.png","","","learning","-4","-4","1","1","cat","pets","1","0","","bad","[-5]"
"html-keyboard-response","100","474094","0.0-9.0-2.0-0.14","5592","1","21","Female","approach_avoid_spark_v1","
","
","
","
","
","","","","","","null","<div style=""font-size:60px;"">+</div>","null","","fixation","","","","","","","","","","",""
"aa-learning-trial","101","477097","0.0-9.0-2.0-1.14","5592","1","21","Female","approach_avoid_spark_v1","
","
","
","
","
","","","","","","633","images/cat5.png","","","learning","-2","0","0","0","cat","pets","1","0","","bad","[-5]"
"html-keyboard-response","102","477598","0.0-9.0-2.0-0.15","5592","1","21","Female","approach_avoid_spark_v1","
","
","
","
","
","","","","","","null","<div style=""font-size:60px;"">+</div>","null","","fixation","","","","","","","","","","",""
"aa-learning-trial","103","480601","0.0-9.0-2.0-1.15","5592","1","21","Female","approach_avoid_spark_v1","
","
","
","
","
","","","","","","461.0000000000582","images/cat6.png","","","learning","-5","0","0","0","cat","pets","1","0","","bad","[-5]"
"html-keyboard-response","104","481103","0.0-9.0-2.0-0.16","5592","1","21","Female","approach_avoid_spark_v1","
","
","
","
","
","","","","","","null","<div style=""font-size:60px;"">+</div>","null","","fixation","","","","","","","","","","",""
"aa-learning-trial","105","484107","0.0-9.0-2.0-1.16","5592","1","21","Female","approach_avoid_spark_v1","
","
","
","
","
","","","","","","420.0000000000582","images/cat5.png","","","learning","-6","0","0","0","cat","pets","1","0","","bad","[-5]"
"html-keyboard-response","106","484609","0.0-9.0-2.0-0.17","5592","1","21","Female","approach_avoid_spark_v1","
","
","
","
","
","","","","","","null","<div style=""font-size:60px;"">+</div>","null","","fixation","","","","","","","","","","",""
"aa-learning-trial","107","487616","0.0-9.0-2.0-1.17","5592","1","21","Female","approach_avoid_spark_v1","
","
","
","
","
","","","","","","601.9999999999418","images/rabbit3.png","","","learning","[1]","1","1","1","rabbit","pets","1","0","","neutral","0"
"html-keyboard-response","108","488118","0.0-9.0-2.0-0.18","5592","1","21","Female","approach_avoid_spark_v1","
","
","
","
","
","","","","","","null","<div style=""font-size:60px;"">+</div>","null","","fixation","","","","","","","","","","",""
"aa-learning-trial","109","491122","0.0-9.0-2.0-1.18","5592","1","21","Female","approach_avoid_spark_v1","
","
","
","
","
","","","","","","673","images/rodent1.png","","","learning","7","7","1","1","rodent","pets","1","0","","good","[5]"
"html-keyboard-response","110","491624","0.0-9.0-2.0-0.19","5592","1","21","Female","approach_avoid_spark_v1","
","
","
","
","
","","","","","","null","<div style=""font-size:60px;"">+</div>","null","","fixation","","","","","","","","","","",""
"aa-learning-trial","111","494628","0.0-9.0-2.0-1.19","5592","1","21","Female","approach_avoid_spark_v1","
","
","
","
","
","","","","","","632.9999999999418","images/rabbit6.png","","","learning","1","1","1","1","rabbit","pets","1","0","","neutral","0"
"html-keyboard-response","112","495130","0.0-9.0-2.0-0.20","5592","1","21","Female","approach_avoid_spark_v1","
","
","
","
","
","","","","","","null","<div style=""font-size:60px;"">+</div>","null","","fixation","","","","","","","","","","",""
"aa-learning-trial","113","498134","0.0-9.0-2.0-1.20","5592","1","21","Female","approach_avoid_spark_v1","
","
","
","
","
","","","","","","589.9999999999418","images/rabbit5.png","","","learning","1","1","1","1","rabbit","pets","1","0","","neutral","0"
"html-keyboard-response","114","498636","0.0-9.0-2.0-0.21","5592","1","21","Female","approach_avoid_spark_v1","
","
","
","
","
","","","","","","null","<div style=""font-size:60px;"">+</div>","null","","fixation","","","","","","","","","","",""
"aa-learning-trial","115","501640","0.0-9.0-2.0-1.21","5592","1","21","Female","approach_avoid_spark_v1","
","
","
","
","
","","","","","","662.9999999999418","images/cat5.png","","","learning","-2","0","0","0","cat","pets","1","0","","bad","[-5]"
"html-keyboard-response","116","502142","0.0-9.0-2.0-0.22","5592","1","21","Female","approach_avoid_spark_v1","
","
","
","
","
","","","","","","null","<div style=""font-size:60px;"">+</div>","null","","fixation","","","","","","","","","","",""
"aa-learning-trial","117","505147","0.0-9.0-2.0-1.22","5592","1","21","Female","approach_avoid_spark_v1","
","
","
","
","
","","","","","","599","images/rabbit7.png","","","learning","[-1]","-1","1","1","rabbit","pets","1","0","","neutral","0"
"html-keyboard-response","118","505648","0.0-9.0-2.0-0.23","5592","1","21","Female","approach_avoid_spark_v1","
","
","
","
","
","","","","","","null","<div style=""font-size:60px;"">+</div>","null","","fixation","","","","","","","","","","",""
"aa-learning-trial","119","508651","0.0-9.0-2.0-1.23","5592","1","21","Female","approach_avoid_spark_v1","
","
","
","
","
","","","","","","1301.9999999999418","images/rabbit6.png","","","learning","[1]","1","1","1","rabbit","pets","1","0","","neutral","0"
"html-keyboard-response","120","509153","0.0-9.0-2.0-0.24","5592","1","21","Female","approach_avoid_spark_v1","
","
","
","
","
","","","","","","null","<div style=""font-size:60px;"">+</div>","null","","fixation","","","","","","","","","","",""
"aa-learning-trial","121","512157","0.0-9.0-2.0-1.24","5592","1","21","Female","approach_avoid_spark_v1","
","
","
","
","
","","","","","","721","images/rodent4.png","","","learning","5","5","1","1","rodent","pets","1","0","","good","[5]"
"html-keyboard-response","122","512659","0.0-9.0-2.0-0.25","5592","1","21","Female","approach_avoid_spark_v1","
","
","
","
","
","","","","","","null","<div style=""font-size:60px;"">+</div>","null","","fixation","","","","","","","","","","",""
"aa-learning-trial","123","515662","0.0-9.0-2.0-1.25","5592","1","21","Female","approach_avoid_spark_v1","
","
","
","
","
","","","","","","747.0000000000582","images/cat3.png","","","learning","-4","0","0","0","cat","pets","1","0","","bad","[-5]"
"html-keyboard-response","124","516165","0.0-9.0-2.0-0.26","5592","1","21","Female","approach_avoid_spark_v1","
","
","
","
","
","","","","","","null","<div style=""font-size:60px;"">+</div>","null","","fixation","","","","","","","","","","",""
"aa-learning-trial","125","519168","0.0-9.0-2.0-1.26","5592","1","21","Female","approach_avoid_spark_v1","
","
","
","
","
","","","","","","1291","images/cat5.png","","","learning","-7","0","0","0","cat","pets","1","0","","bad","[-5]"
"html-keyboard-response","126","519670","0.0-9.0-2.0-0.27","5592","1","21","Female","approach_avoid_spark_v1","
","
","
","
","
","","","","","","null","<div style=""font-size:60px;"">+</div>","null","","fixation","","","","","","","","","","",""
"aa-learning-trial","127","522672","0.0-9.0-2.0-1.27","5592","1","21","Female","approach_avoid_spark_v1","
","
","
","
","
","","","","","","2197.000000000058","images/cat6.png","","","learning","-2","-2","1","1","cat","pets","1","0","","bad","[-5]"
"html-keyboard-response","128","523175","0.0-9.0-2.0-0.28","5592","1","21","Female","approach_avoid_spark_v1","
","
","
","
","
","","","","","","null","<div style=""font-size:60px;"">+</div>","null","","fixation","","","","","","","","","","",""
"aa-learning-trial","129","526177","0.0-9.0-2.0-1.28","5592","1","21","Female","approach_avoid_spark_v1","
","
","
","
","
","","","","","","763.0000000000582","images/rodent3.png","","","learning","8","8","1","1","rodent","pets","1","0","","good","[5]"
"html-keyboard-response","130","526679","0.0-9.0-2.0-0.29","5592","1","21","Female","approach_avoid_spark_v1","
","
","
","
","
","","","","","","null","<div style=""font-size:60px;"">+</div>","null","","fixation","","","","","","","","","","",""
"aa-learning-trial","131","529687","0.0-9.0-2.0-1.29","5592","1","21","Female","approach_avoid_spark_v1","
","
","
","
","
","","","","","","403","images/cat6.png","","","learning","-7","0","0","0","cat","pets","1","0","","bad","[-5]"
"html-keyboard-response","132","530190","0.0-9.0-2.0-0.30","5592","1","21","Female","approach_avoid_spark_v1","
","
","
","
","
","","","","","","null","<div style=""font-size:60px;"">+</div>","null","","fixation","","","","","","","","","","",""
"aa-learning-trial","133","533193","0.0-9.0-2.0-1.30","5592","1","21","Female","approach_avoid_spark_v1","
","
","
","
","
","","","","","","1555.9999999998836","images/rodent3.png","","","learning","4","4","1","1","rodent","pets","1","0","","good","[5]"
"html-keyboard-response","134","533695","0.0-9.0-2.0-0.31","5592","1","21","Female","approach_avoid_spark_v1","
","
","
","
","
","","","","","","null","<div style=""font-size:60px;"">+</div>","null","","fixation","","","","","","","","","","",""
"aa-learning-trial","135","536699","0.0-9.0-2.0-1.31","5592","1","21","Female","approach_avoid_spark_v1","
","
","
","
","
","","","","","","817","images/rodent6.png","","","learning","6","6","1","1","rodent","pets","1","0","","good","[5]"
"html-keyboard-response","136","537201","0.0-9.0-2.0-0.32","5592","1","21","Female","approach_avoid_spark_v1","
","
","
","
","
","","","","","","null","<div style=""font-size:60px;"">+</div>","null","","fixation","","","","","","","","","","",""
"aa-learning-trial","137","540204","0.0-9.0-2.0-1.32","5592","1","21","Female","approach_avoid_spark_v1","
","
","
","
","
","","","","","","595","images/cat6.png","","","learning","-6","0","0","0","cat","pets","1","0","","bad","[-5]"
"html-keyboard-response","138","540706","0.0-9.0-2.0-0.33","5592","1","21","Female","approach_avoid_spark_v1","
","
","
","
","
","","","","","","null","<div style=""font-size:60px;"">+</div>","null","","fixation","","","","","","","","","","",""
"aa-learning-trial","139","543710","0.0-9.0-2.0-1.33","5592","1","21","Female","approach_avoid_spark_v1","
","
","
","
","
","","","","","","601","images/rabbit7.png","","","learning","[-1]","-1","1","1","rabbit","pets","1","0","","neutral","0"
"html-keyboard-response","140","544211","0.0-9.0-2.0-0.34","5592","1","21","Female","approach_avoid_spark_v1","
","
","
","
","
","","","","","","null","<div style=""font-size:60px;"">+</div>","null","","fixation","","","","","","","","","","",""
"aa-learning-trial","141","547214","0.0-9.0-2.0-1.34","5592","1","21","Female","approach_avoid_spark_v1","
","
","
","
","
","","","","","","831","images/rodent3.png","","","learning","4","4","1","1","rodent","pets","1","0","","good","[5]"
"html-keyboard-response","142","547717","0.0-9.0-2.0-0.35","5592","1","21","Female","approach_avoid_spark_v1","
","
","
","
","
","","","","","","null","<div style=""font-size:60px;"">+</div>","null","","fixation","","","","","","","","","","",""
"aa-learning-trial","143","550720","0.0-9.0-2.0-1.35","5592","1","21","Female","approach_avoid_spark_v1","
","
","
","
","
","","","","","","656","images/cat3.png","","","learning","-3","0","0","0","cat","pets","1","0","","bad","[-5]"
"html-keyboard-response","144","551222","0.0-9.0-2.0-0.36","5592","1","21","Female","approach_avoid_spark_v1","
","
","
","
","
","","","","","","null","<div style=""font-size:60px;"">+</div>","null","","fixation","","","","","","","","","","",""
"aa-learning-trial","145","554226","0.0-9.0-2.0-1.36","5592","1","21","Female","approach_avoid_spark_v1","
","
","
","
","
","","","","","","659","images/rabbit3.png","","","learning","-1","-1","1","1","rabbit","pets","1","0","","neutral","0"
"html-keyboard-response","146","554728","0.0-9.0-2.0-0.37","5592","1","21","Female","approach_avoid_spark_v1","
","
","
","
","
","","","","","","null","<div style=""font-size:60px;"">+</div>","null","","fixation","","","","","","","","","","",""
"aa-learning-trial","147","557731","0.0-9.0-2.0-1.37","5592","1","21","Female","approach_avoid_spark_v1","
","
","
","
","
","","","","","","665","images/rodent3.png","","","learning","9","9","1","1","rodent","pets","1","0","","good","[5]"
"html-keyboard-response","148","558233","0.0-9.0-2.0-0.38","5592","1","21","Female","approach_avoid_spark_v1","
","
","
","
","
","","","","","","null","<div style=""font-size:60px;"">+</div>","null","","fixation","","","","","","","","","","",""
"aa-learning-trial","149","561237","0.0-9.0-2.0-1.38","5592","1","21","Female","approach_avoid_spark_v1","
","
","
","
","
","","","","","","804","images/rodent4.png","","","learning","2","2","1","1","rodent","pets","1","0","","good","[5]"
"html-keyboard-response","150","561739","0.0-9.0-2.0-0.39","5592","1","21","Female","approach_avoid_spark_v1","
","
","
","
","
","","","","","","null","<div style=""font-size:60px;"">+</div>","null","","fixation","","","","","","","","","","",""
"aa-learning-trial","151","564743","0.0-9.0-2.0-1.39","5592","1","21","Female","approach_avoid_spark_v1","
","
","
","
","
","","","","","","989","images/cat7.png","","","learning","-5","0","0","0","cat","pets","1","0","","bad","[-5]"
"html-keyboard-response","152","565246","0.0-9.0-2.0-0.40","5592","1","21","Female","approach_avoid_spark_v1","
","
","
","
","
","","","","","","null","<div style=""font-size:60px;"">+</div>","null","","fixation","","","","","","","","","","",""
"aa-learning-trial","153","568250","0.0-9.0-2.0-1.40","5592","1","21","Female","approach_avoid_spark_v1","
","
","
","
","
","","","","","","857","images/rabbit2.png","","","learning","4","4","1","1","rabbit","pets","1","0","","neutral","0"
"html-keyboard-response","154","568752","0.0-9.0-2.0-0.41","5592","1","21","Female","approach_avoid_spark_v1","
","
","
","
","
","","","","","","null","<div style=""font-size:60px;"">+</div>","null","","fixation","","","","","","","","","","",""
"aa-learning-trial","155","571755","0.0-9.0-2.0-1.41","5592","1","21","Female","approach_avoid_spark_v1","
","
","
","
","
","","","","","","838","images/rabbit3.png","","","learning","-1","0","0","0","rabbit","pets","1","0","","neutral","0"
"html-keyboard-response","156","572257","0.0-9.0-2.0-0.42","5592","1","21","Female","approach_avoid_spark_v1","
","
","
","
","
","","","","","","null","<div style=""font-size:60px;"">+</div>","null","","fixation","","","","","","","","","","",""
"aa-learning-trial","157","575261","0.0-9.0-2.0-1.42","5592","1","21","Female","approach_avoid_spark_v1","
","
","
","
","
","","","","","","528.0000000001164","images/rabbit7.png","","","learning","-1","0","0","0","rabbit","pets","1","0","","neutral","0"
"html-keyboard-response","158","575763","0.0-9.0-2.0-0.43","5592","1","21","Female","approach_avoid_spark_v1","
","
","
","
","
","","","","","","null","<div style=""font-size:60px;"">+</div>","null","","fixation","","","","","","","","","","",""
"aa-learning-trial","159","578767","0.0-9.0-2.0-1.43","5592","1","21","Female","approach_avoid_spark_v1","
","
","
","
","
","","","","","","667","images/rabbit3.png","","","learning","-1","0","0","0","rabbit","pets","1","0","","neutral","0"
"html-keyboard-response","160","579269","0.0-9.0-2.0-0.44","5592","1","21","Female","approach_avoid_spark_v1","
","
","
","
","
","","","","","","null","<div style=""font-size:60px;"">+</div>","null","","fixation","","","","","","","","","","",""
"aa-learning-trial","161","582272","0.0-9.0-2.0-1.44","5592","1","21","Female","approach_avoid_spark_v1","
","
","
","
","
","","","","","","648","images/rodent1.png","","","learning","7","7","1","1","rodent","pets","1","0","","good","[5]"
"html-keyboard-response","162","582774","0.0-9.0-2.0-0.45","5592","1","21","Female","approach_avoid_spark_v1","
","
","
","
","
","","","","","","null","<div style=""font-size:60px;"">+</div>","null","","fixation","","","","","","","","","","",""
"aa-learning-trial","163","585777","0.0-9.0-2.0-1.45","5592","1","21","Female","approach_avoid_spark_v1","
","
","
","
","
","","","","","","812","images/rabbit7.png","","","learning","-1","0","0","0","rabbit","pets","1","0","","neutral","0"
"html-keyboard-response","164","586279","0.0-9.0-2.0-0.46","5592","1","21","Female","approach_avoid_spark_v1","
","
","
","
","
","","","","","","null","<div style=""font-size:60px;"">+</div>","null","","fixation","","","","","","","","","","",""
"aa-learning-trial","165","589282","0.0-9.0-2.0-1.46","5592","1","21","Female","approach_avoid_spark_v1","
","
","
","
","
","","","","","","861","images/cat4.png","","","learning","-5","0","0","0","cat","pets","1","0","","bad","[-5]"
"html-keyboard-response","166","589784","0.0-9.0-2.0-0.47","5592","1","21","Female","approach_avoid_spark_v1","
","
","
","
","
","","","","","","null","<div style=""font-size:60px;"">+</div>","null","","fixation","","","","","","","","","","",""
"aa-learning-trial","167","592787","0.0-9.0-2.0-1.47","5592","1","21","Female","approach_avoid_spark_v1","
","
","
","
","
","","","","","","597","images/cat5.png","","","learning","-3","0","0","0","cat","pets","1","0","","bad","[-5]"
"html-keyboard-response","168","593290","0.0-9.0-2.0-0.48","5592","1","21","Female","approach_avoid_spark_v1","
","
","
","
","
","","","","","","null","<div style=""font-size:60px;"">+</div>","null","","fixation","","","","","","","","","","",""
"aa-learning-trial","169","596293","0.0-9.0-2.0-1.48","5592","1","21","Female","approach_avoid_spark_v1","
","
","
","
","
","","","","","","712.9999999998836","images/rodent1.png","","","learning","5","5","1","1","rodent","pets","1","0","","good","[5]"
"html-keyboard-response","170","596796","0.0-9.0-2.0-0.49","5592","1","21","Female","approach_avoid_spark_v1","
","
","
","
","
","","","","","","null","<div style=""font-size:60px;"">+</div>","null","","fixation","","","","","","","","","","",""
"aa-learning-trial","171","599799","0.0-9.0-2.0-1.49","5592","1","21","Female","approach_avoid_spark_v1","
","
","
","
","
","","","","","","561","images/rodent1.png","","","learning","3","3","1","1","rodent","pets","1","0","","good","[5]"
"html-keyboard-response","172","600301","0.0-9.0-2.0-0.50","5592","1","21","Female","approach_avoid_spark_v1","
","
","
","
","
","","","","","","null","<div style=""font-size:60px;"">+</div>","null","","fixation","","","","","","","","","","",""
"aa-learning-trial","173","603305","0.0-9.0-2.0-1.50","5592","1","21","Female","approach_avoid_spark_v1","
","
","
","
","
","","","","","","676","images/rodent8.png","","","learning","5","5","1","1","rodent","pets","1","0","","good","[5]"
"html-button-response","174","605662","0.0-9.0-3.0","5592","1","21","Female","approach_avoid_spark_v1","
","
","
","
","
","","","","","","2353.0000000001164","<p> You have completed the round! <p> In this round, you earned 82 points! </p>","0","","break","","","","","","","","","","",""
"html-button-response","175","606852","0.0-10.0","5592","1","21","Female","approach_avoid_spark_v1","
","
","
","
","
","","","","","","1189","<p> Now it's time to play another round. </p>","0","","transition_screen","","","","","","","","","","",""
"preload","176","606967","0.0-11.0-0.0","5592","1","21","Female","approach_avoid_spark_v1","
","
","
","
","
","true","false","[]","[]","[]","","","","","","","","","","","","","","","",""
"learning-instructions","177","613652","0.0-11.0-1.0-0.0","5592","1","21","Female","approach_avoid_spark_v1","
","
","
","
","
","","","","","","1409","<p> Your goal in this round is to take your friend for rides in different vehicles. </p></div>","","0","instructions","","","","","","","","","","",""
"learning-instructions","178","624902","0.0-11.0-1.0-0.1","5592","1","21","Female","approach_avoid_spark_v1","
","
","
","
","
","","","","","","1441","<p> Your friend enjoys riding in some vehicles but not in others.  </p><p> On each turn, you will see a vehicle.   </p><p> You need to decide whether to take your friend for a ride or not.  </p>","","0","instructions","","","","","","","","","","",""
"learning-instructions","179","632052","0.0-11.0-1.0-0.2","5592","1","21","Female","approach_avoid_spark_v1","
","
","
","
","
","","","","","","793","<p> You can take your friend for a ride in the vehicle by pressing 1 and skip the ride by pressing 0. </p><br><div class=""choice-instructions-grid""> <div class=""choice-option""><img src=""images/approach.png"" class=""choice-option-img"" stage=""instructions"" position=""0"" ><div class=""choice-option-text""> Press ""1."" </div></div><div class=""choice-option""><img src=""images/avoid.png"" class=""choice-option-img"" stage=""instructions"" position=""1"" ><div class=""choice-option-text""> Press ""0."" </div></div>","","0","instructions","","","","","","","","","","",""
"learning-instructions","180","641375","0.0-11.0-1.0-0.3","5592","1","21","Female","approach_avoid_spark_v1","
","
","
","
","
","","","","","","717","<p> If you take them for a ride in a vehicle they like, they will be thrilled! </p><p> But if you take them for a ride in a vehicle they do not like, they will be upset. </p>","","0","instructions","","","","","","","","","","",""
"learning-instructions","181","653543","0.0-11.0-1.0-0.4","5592","1","21","Female","approach_avoid_spark_v1","
","
","
","
","
","","","","","","619","<p> You will earn points based on how you made your friend feel. </p><p> If you made him thrilled, you will WIN anywhere from 1 - 9 points, </p><p> but if you made him upset, you will LOSE anywhere from 1 - 9 points. </p>","","0","instructions","","","","","","","","","","",""
"learning-instructions","182","660724","0.0-11.0-1.0-0.5","5592","1","21","Female","approach_avoid_spark_v1","
","
","
","
","
","","","","","","527","<p> You will see how many points you won or lost in the center of the screen. </p><p> Here is what you would see if you won 5 points: </p><p style=""color:green;font-size:50px;font-weight:bolder"">5</p>","","0","instructions","","","","","","","","","","",""
"learning-instructions","183","663949","0.0-11.0-1.0-0.6","5592","1","21","Female","approach_avoid_spark_v1","
","
","
","
","
","","","","","","393","<p> And here is what you would see if you lost 3 points: </p><p style=""color:red;font-size:50px;font-weight:bolder"">-3</p>","","0","instructions","","","","","","","","","","",""
"learning-instructions","184","679814","0.0-11.0-1.0-0.7","5592","1","21","Female","approach_avoid_spark_v1","
","
","
","
","
","","","","","","745","<p> Some vehicles will make your friend REALLY thrilled or upset. </p><p> These vehicles will make you win or lose LOTS of points. </p><p> Other vehicles will only make him feel a little thrilled or upset. </p><p> These vehicles will make you win or lose small amounts of points. </p>","","0","instructions","","","","","","","","","","",""
"learning-instructions","185","692913","0.0-11.0-1.0-0.8","5592","1","21","Female","approach_avoid_spark_v1","
","
","
","
","
","","","","","","1492","<p> If you choose to skip the ride, you will not win or lose any points. </p><p>  However, in the center of the screen, you will see the number of points you WOULD HAVE won or lost if you had taken your friend for a ride. </p>","","0","instructions","","","","","","","","","","",""
"learning-instructions","186","704254","0.0-11.0-1.0-0.9","5592","1","21","Female","approach_avoid_spark_v1","
","
","
","
","
","","","","","","743","<p> Here is what you might see if you did not take your friend for a ride but he would have enjoyed it: </p><p style=""color:grey; font-size:50px; display: inline-block; border-spacing: 15px; border-width:3px; border-style:solid; border-color:red"">  &nbsp; 6 &nbsp; </p><p> Remember, in this case, you would not win or lose ANY points because you skipped the ride.  </p>","","0","instructions","","","","","","","","","","",""
"learning-instructions","187","712445","0.0-11.0-1.0-0.10","5592","1","21","Female","approach_avoid_spark_v1","
","
","
","
","
","","","","","","740.0000000001164","<p> Try to make the best choice for each vehicle because </p><p> at the end of the game, you will earn bonus money based on how many points you earned. </p>","","0","instructions","","","","","","","","","","",""
"learning-instructions","188","721776","0.0-11.0-1.0-0.11","5592","1","21","Female","approach_avoid_spark_v1","
","
","
","
","
","","","","","","1146","<p> You will have 3 seconds to make each choice. Try to respond before time runs out! </p><p> You will lose 5 points each time you do not make a response. </p>","","0","instructions","","","","","","","","","","",""
"html-keyboard-response","189","722381","0.0-11.0-2.0-0.0","5592","1","21","Female","approach_avoid_spark_v1","
","
","
","
","
","","","","","","null","<div style=""font-size:60px;"">+</div>","null","","fixation","","","","","","","","","","",""
"aa-learning-trial","190","725384","0.0-11.0-2.0-1.0","5592","1","21","Female","approach_avoid_spark_v1","
","
","
","
","
","","","","","","1561","images/boat4.png","","","learning","-6","-6","1","1","boat","vehicles","2","1","","neutral","0"
"html-keyboard-response","191","725887","0.0-11.0-2.0-0.1","5592","1","21","Female","approach_avoid_spark_v1","
","
","
","
","
","","","","","","null","<div style=""font-size:60px;"">+</div>","null","","fixation","","","","","","","","","","",""
"aa-learning-trial","192","728891","0.0-11.0-2.0-1.1","5592","1","21","Female","approach_avoid_spark_v1","
","
","
","
","
","","","","","","756","images/boat7.png","","","learning","-2","0","0","0","boat","vehicles","2","1","","neutral","0"
"html-keyboard-response","193","729393","0.0-11.0-2.0-0.2","5592","1","21","Female","approach_avoid_spark_v1","
","
","
","
","
","","","","","","null","<div style=""font-size:60px;"">+</div>","null","","fixation","","","","","","","","","","",""
"aa-learning-trial","194","732397","0.0-11.0-2.0-1.2","5592","1","21","Female","approach_avoid_spark_v1","
","
","
","
","
","","","","","","693","images/truck2.png","","","learning","9","9","1","1","truck","vehicles","2","1","","good","[6]"
"html-keyboard-response","195","732899","0.0-11.0-2.0-0.3","5592","1","21","Female","approach_avoid_spark_v1","
","
","
","
","
","","","","","","null","<div style=""font-size:60px;"">+</div>","null","","fixation","","","","","","","","","","",""
"aa-learning-trial","196","735903","0.0-11.0-2.0-1.3","5592","1","21","Female","approach_avoid_spark_v1","
","
","
","
","
","","","","","","448","images/truck2.png","","","learning","9","9","1","1","truck","vehicles","2","1","","good","[6]"
"html-keyboard-response","197","736405","0.0-11.0-2.0-0.4","5592","1","21","Female","approach_avoid_spark_v1","
","
","
","
","
","","","","","","null","<div style=""font-size:60px;"">+</div>","null","","fixation","","","","","","","","","","",""
"aa-learning-trial","198","739408","0.0-11.0-2.0-1.4","5592","1","21","Female","approach_avoid_spark_v1","
","
","
","
","
","","","","","","1038.0000000001164","images/plane4.png","","","learning","8","8","1","1","plane","vehicles","2","1","","bad","[-5]"
"html-keyboard-response","199","739910","0.0-11.0-2.0-0.5","5592","1","21","Female","approach_avoid_spark_v1","
","
","
","
","
","","","","","","null","<div style=""font-size:60px;"">+</div>","null","","fixation","","","","","","","","","","",""
"aa-learning-trial","200","742920","0.0-11.0-2.0-1.5","5592","1","21","Female","approach_avoid_spark_v1","
","
","
","
","
","","","","","","880","images/plane2.png","","","learning","1","1","1","1","plane","vehicles","2","1","","bad","[-5]"
"html-keyboard-response","201","743423","0.0-11.0-2.0-0.6","5592","1","21","Female","approach_avoid_spark_v1","
","
","
","
","
","","","","","","null","<div style=""font-size:60px;"">+</div>","null","","fixation","","","","","","","","","","",""
"aa-learning-trial","202","746429","0.0-11.0-2.0-1.6","5592","1","21","Female","approach_avoid_spark_v1","
","
","
","
","
","","","","","","969","images/boat7.png","","","learning","-2","0","0","0","boat","vehicles","2","1","","neutral","0"
"html-keyboard-response","203","746932","0.0-11.0-2.0-0.7","5592","1","21","Female","approach_avoid_spark_v1","
","
","
","
","
","","","","","","null","<div style=""font-size:60px;"">+</div>","null","","fixation","","","","","","","","","","",""
"aa-learning-trial","204","749936","0.0-11.0-2.0-1.7","5592","1","21","Female","approach_avoid_spark_v1","
","
","
","
","
","","","","","","838","images/plane7.png","","","learning","-7","-7","1","1","plane","vehicles","2","1","","bad","[-5]"
"html-keyboard-response","205","750438","0.0-11.0-2.0-0.8","5592","1","21","Female","approach_avoid_spark_v1","
","
","
","
","
","","","","","","null","<div style=""font-size:60px;"">+</div>","null","","fixation","","","","","","","","","","",""
"aa-learning-trial","206","753443","0.0-11.0-2.0-1.8","5592","1","21","Female","approach_avoid_spark_v1","
","
","
","
","
","","","","","","795","images/boat5.png","","","learning","5","0","0","0","boat","vehicles","2","1","","neutral","0"
"html-keyboard-response","207","753945","0.0-11.0-2.0-0.9","5592","1","21","Female","approach_avoid_spark_v1","
","
","
","
","
","","","","","","null","<div style=""font-size:60px;"">+</div>","null","","fixation","","","","","","","","","","",""
"aa-learning-trial","208","756949","0.0-11.0-2.0-1.9","5592","1","21","Female","approach_avoid_spark_v1","
","
","
","
","
","","","","","","1092","images/truck8.png","","","learning","3","3","1","1","truck","vehicles","2","1","","good","[6]"
"html-keyboard-response","209","757450","0.0-11.0-2.0-0.10","5592","1","21","Female","approach_avoid_spark_v1","
","
","
","
","
","","","","","","null","<div style=""font-size:60px;"">+</div>","null","","fixation","","","","","","","","","","",""
"aa-learning-trial","210","760453","0.0-11.0-2.0-1.10","5592","1","21","Female","approach_avoid_spark_v1","
","
","
","
","
","","","","","","692","images/boat5.png","","","learning","5","5","1","1","boat","vehicles","2","1","","neutral","0"
"html-keyboard-response","211","760955","0.0-11.0-2.0-0.11","5592","1","21","Female","approach_avoid_spark_v1","
","
","
","
","
","","","","","","null","<div style=""font-size:60px;"">+</div>","null","","fixation","","","","","","","","","","",""
"aa-learning-trial","212","763958","0.0-11.0-2.0-1.11","5592","1","21","Female","approach_avoid_spark_v1","
","
","
","
","
","","","","","","1352","images/plane7.png","","","learning","-7","0","0","0","plane","vehicles","2","1","","bad","[-5]"
"html-keyboard-response","213","764460","0.0-11.0-2.0-0.12","5592","1","21","Female","approach_avoid_spark_v1","
","
","
","
","
","","","","","","null","<div style=""font-size:60px;"">+</div>","null","","fixation","","","","","","","","","","",""
"aa-learning-trial","214","767463","0.0-11.0-2.0-1.12","5592","1","21","Female","approach_avoid_spark_v1","
","
","
","
","
","","","","","","817","images/plane2.png","","","learning","1","1","1","1","plane","vehicles","2","1","","bad","[-5]"
"html-keyboard-response","215","767965","0.0-11.0-2.0-0.13","5592","1","21","Female","approach_avoid_spark_v1","
","
","
","
","
","","","","","","null","<div style=""font-size:60px;"">+</div>","null","","fixation","","","","","","","","","","",""
"aa-learning-trial","216","770970","0.0-11.0-2.0-1.13","5592","1","21","Female","approach_avoid_spark_v1","
","
","
","
","
","","","","","","685","images/truck4.png","","","learning","2","2","1","1","truck","vehicles","2","1","","good","[6]"
"html-keyboard-response","217","771472","0.0-11.0-2.0-0.14","5592","1","21","Female","approach_avoid_spark_v1","
","
","
","
","
","","","","","","null","<div style=""font-size:60px;"">+</div>","null","","fixation","","","","","","","","","","",""
"aa-learning-trial","218","774475","0.0-11.0-2.0-1.14","5592","1","21","Female","approach_avoid_spark_v1","
","
","
","
","
","","","","","","464","images/truck4.png","","","learning","2","2","1","1","truck","vehicles","2","1","","good","[6]"
"html-keyboard-response","219","774978","0.0-11.0-2.0-0.15","5592","1","21","Female","approach_avoid_spark_v1","
","
","
","
","
","","","","","","null","<div style=""font-size:60px;"">+</div>","null","","fixation","","","","","","","","","","",""
"aa-learning-trial","220","777981","0.0-11.0-2.0-1.15","5592","1","21","Female","approach_avoid_spark_v1","
","
","
","
","
","","","","","","964","images/plane2.png","","","learning","1","1","1","1","plane","vehicles","2","1","","bad","[-5]"
"html-keyboard-response","221","778484","0.0-11.0-2.0-0.16","5592","1","21","Female","approach_avoid_spark_v1","
","
","
","
","
","","","","","","null","<div style=""font-size:60px;"">+</div>","null","","fixation","","","","","","","","","","",""
"aa-learning-trial","222","781490","0.0-11.0-2.0-1.16","5592","1","21","Female","approach_avoid_spark_v1","
","
","
","
","
","","","","","","1236","images/boat4.png","","","learning","-6","0","0","0","boat","vehicles","2","1","","neutral","0"
"html-keyboard-response","223","781992","0.0-11.0-2.0-0.17","5592","1","21","Female","approach_avoid_spark_v1","
","
","
","
","
","","","","","","null","<div style=""font-size:60px;"">+</div>","null","","fixation","","","","","","","","","","",""
"aa-learning-trial","224","784999","0.0-11.0-2.0-1.17","5592","1","21","Female","approach_avoid_spark_v1","
","
","
","
","
","","","","","","541.0000000001164","images/truck4.png","","","learning","2","2","1","1","truck","vehicles","2","1","","good","[6]"
"html-keyboard-response","225","785506","0.0-11.0-2.0-0.18","5592","1","21","Female","approach_avoid_spark_v1","
","
","
","
","
","","","","","","null","<div style=""font-size:60px;"">+</div>","null","","fixation","","","","","","","","","","",""
"aa-learning-trial","226","788513","0.0-11.0-2.0-1.18","5592","1","21","Female","approach_avoid_spark_v1","
","
","
","
","
","","","","","","602.9999999998836","images/plane2.png","","","learning","1","1","1","1","plane","vehicles","2","1","","bad","[-5]"
"html-keyboard-response","227","789015","0.0-11.0-2.0-0.19","5592","1","21","Female","approach_avoid_spark_v1","
","
","
","
","
","","","","","","null","<div style=""font-size:60px;"">+</div>","null","","fixation","","","","","","","","","","",""
"aa-learning-trial","228","792019","0.0-11.0-2.0-1.19","5592","1","21","Female","approach_avoid_spark_v1","
","
","
","
","
","","","","","","650","images/truck4.png","","","learning","2","2","1","1","truck","vehicles","2","1","","good","[6]"
"html-keyboard-response","229","792521","0.0-11.0-2.0-0.20","5592","1","21","Female","approach_avoid_spark_v1","
","
","
","
","
","","","","","","null","<div style=""font-size:60px;"">+</div>","null","","fixation","","","","","","","","","","",""
"aa-learning-trial","230","795525","0.0-11.0-2.0-1.20","5592","1","21","Female","approach_avoid_spark_v1","
","
","
","
","
","","","","","","1218","images/plane7.png","","","learning","-7","0","0","0","plane","vehicles","2","1","","bad","[-5]"
"html-keyboard-response","231","796026","0.0-11.0-2.0-0.21","5592","1","21","Female","approach_avoid_spark_v1","
","
","
","
","
","","","","","","null","<div style=""font-size:60px;"">+</div>","null","","fixation","","","","","","","","","","",""
"aa-learning-trial","232","799030","0.0-11.0-2.0-1.21","5592","1","21","Female","approach_avoid_spark_v1","
","
","
","
","
","","","","","","1109","images/boat7.png","","","learning","-2","0","0","0","boat","vehicles","2","1","","neutral","0"
"html-keyboard-response","233","799532","0.0-11.0-2.0-0.22","5592","1","21","Female","approach_avoid_spark_v1","
","
","
","
","
","","","","","","null","<div style=""font-size:60px;"">+</div>","null","","fixation","","","","","","","","","","",""
"aa-learning-trial","234","802535","0.0-11.0-2.0-1.22","5592","1","21","Female","approach_avoid_spark_v1","
","
","
","
","
","","","","","","913","images/truck8.png","","","learning","3","3","1","1","truck","vehicles","2","1","","good","[6]"
"html-keyboard-response","235","803037","0.0-11.0-2.0-0.23","5592","1","21","Female","approach_avoid_spark_v1","
","
","
","
","
","","","","","","null","<div style=""font-size:60px;"">+</div>","null","","fixation","","","","","","","","","","",""
"aa-learning-trial","236","806042","0.0-11.0-2.0-1.23","5592","1","21","Female","approach_avoid_spark_v1","
","
","
","
","
","","","","","","601.9999999998836","images/truck4.png","","","learning","2","2","1","1","truck","vehicles","2","1","","good","[6]"
"html-keyboard-response","237","806546","0.0-11.0-2.0-0.24","5592","1","21","Female","approach_avoid_spark_v1","
","
","
","
","
","","","","","","null","<div style=""font-size:60px;"">+</div>","null","","fixation","","","","","","","","","","",""
"aa-learning-trial","238","809549","0.0-11.0-2.0-1.24","5592","1","21","Female","approach_avoid_spark_v1","
","
","
","
","
","","","","","","1166.0000000001164","images/boat1.png","","","learning","-4","0","0","0","boat","vehicles","2","1","","neutral","0"
"html-keyboard-response","239","810052","0.0-11.0-2.0-0.25","5592","1","21","Female","approach_avoid_spark_v1","
","
","
","
","
","","","","","","null","<div style=""font-size:60px;"">+</div>","null","","fixation","","","","","","","","","","",""
"aa-learning-trial","240","813056","0.0-11.0-2.0-1.25","5592","1","21","Female","approach_avoid_spark_v1","
","
","
","
","
","","","","","","718.9999999998836","images/truck5.png","","","learning","-5","-5","1","1","truck","vehicles","2","1","","good","[6]"
"html-keyboard-response","241","813559","0.0-11.0-2.0-0.26","5592","1","21","Female","approach_avoid_spark_v1","
","
","
","
","
","","","","","","null","<div style=""font-size:60px;"">+</div>","null","","fixation","","","","","","","","","","",""
"aa-learning-trial","242","816562","0.0-11.0-2.0-1.26","5592","1","21","Female","approach_avoid_spark_v1","
","
","
","
","
","","","","","","1126","images/boat5.png","","","learning","5","5","1","1","boat","vehicles","2","1","","neutral","0"
"html-keyboard-response","243","817064","0.0-11.0-2.0-0.27","5592","1","21","Female","approach_avoid_spark_v1","
","
","
","
","
","","","","","","null","<div style=""font-size:60px;"">+</div>","null","","fixation","","","","","","","","","","",""
"aa-learning-trial","244","820068","0.0-11.0-2.0-1.27","5592","1","21","Female","approach_avoid_spark_v1","
","
","
","
","
","","","","","","886","images/plane7.png","","","learning","-7","0","0","0","plane","vehicles","2","1","","bad","[-5]"
"html-keyboard-response","245","820570","0.0-11.0-2.0-0.28","5592","1","21","Female","approach_avoid_spark_v1","
","
","
","
","
","","","","","","null","<div style=""font-size:60px;"">+</div>","null","","fixation","","","","","","","","","","",""
"aa-learning-trial","246","823572","0.0-11.0-2.0-1.28","5592","1","21","Female","approach_avoid_spark_v1","
","
","
","
","
","","","","","","707","images/boat5.png","","","learning","5","5","1","1","boat","vehicles","2","1","","neutral","0"
"html-keyboard-response","247","824074","0.0-11.0-2.0-0.29","5592","1","21","Female","approach_avoid_spark_v1","
","
","
","
","
","","","","","","null","<div style=""font-size:60px;"">+</div>","null","","fixation","","","","","","","","","","",""
"aa-learning-trial","248","827078","0.0-11.0-2.0-1.29","5592","1","21","Female","approach_avoid_spark_v1","
","
","
","
","
","","","","","","669","images/truck8.png","","","learning","3","3","1","1","truck","vehicles","2","1","","good","[6]"
"html-keyboard-response","249","827580","0.0-11.0-2.0-0.30","5592","1","21","Female","approach_avoid_spark_v1","
","
","
","
","
","","","","","","null","<div style=""font-size:60px;"">+</div>","null","","fixation","","","","","","","","","","",""
"aa-learning-trial","250","830583","0.0-11.0-2.0-1.30","5592","1","21","Female","approach_avoid_spark_v1","
","
","
","
","
","","","","","","1034","images/plane3.png","","","learning","4","4","1","1","plane","vehicles","2","1","","bad","[-5]"
"html-keyboard-response","251","831086","0.0-11.0-2.0-0.31","5592","1","21","Female","approach_avoid_spark_v1","
","
","
","
","
","","","","","","null","<div style=""font-size:60px;"">+</div>","null","","fixation","","","","","","","","","","",""
"aa-learning-trial","252","834089","0.0-11.0-2.0-1.31","5592","1","21","Female","approach_avoid_spark_v1","
","
","
","
","
","","","","","","723.9999999998836","images/truck2.png","","","learning","9","9","1","1","truck","vehicles","2","1","","good","[6]"
"html-keyboard-response","253","834592","0.0-11.0-2.0-0.32","5592","1","21","Female","approach_avoid_spark_v1","
","
","
","
","
","","","","","","null","<div style=""font-size:60px;"">+</div>","null","","fixation","","","","","","","","","","",""
"aa-learning-trial","254","837596","0.0-11.0-2.0-1.32","5592","1","21","Female","approach_avoid_spark_v1","
","
","
","
","
","","","","","","659","images/plane4.png","","","learning","8","8","1","1","plane","vehicles","2","1","","bad","[-5]"
"html-keyboard-response","255","838098","0.0-11.0-2.0-0.33","5592","1","21","Female","approach_avoid_spark_v1","
","
","
","
","
","","","","","","null","<div style=""font-size:60px;"">+</div>","null","","fixation","","","","","","","","","","",""
"aa-learning-trial","256","841104","0.0-11.0-2.0-1.33","5592","1","21","Female","approach_avoid_spark_v1","
","
","
","
","
","","","","","","638","images/truck2.png","","","learning","9","9","1","1","truck","vehicles","2","1","","good","[6]"
"html-keyboard-response","257","841607","0.0-11.0-2.0-0.34","5592","1","21","Female","approach_avoid_spark_v1","
","
","
","
","
","","","","","","null","<div style=""font-size:60px;"">+</div>","null","","fixation","","","","","","","","","","",""
"aa-learning-trial","258","844610","0.0-11.0-2.0-1.34","5592","1","21","Female","approach_avoid_spark_v1","
","
","
","
","
","","","","","","598","images/truck2.png","","","learning","9","9","1","1","truck","vehicles","2","1","","good","[6]"
"html-keyboard-response","259","845113","0.0-11.0-2.0-0.35","5592","1","21","Female","approach_avoid_spark_v1","
","
","
","
","
","","","","","","null","<div style=""font-size:60px;"">+</div>","null","","fixation","","","","","","","","","","",""
"aa-learning-trial","260","848116","0.0-11.0-2.0-1.35","5592","1","21","Female","approach_avoid_spark_v1","
","
","
","
","
","","","","","","736","images/boat4.png","","","learning","-6","0","0","0","boat","vehicles","2","1","","neutral","0"
"html-keyboard-response","261","848618","0.0-11.0-2.0-0.36","5592","1","21","Female","approach_avoid_spark_v1","
","
","
","
","
","","","","","","null","<div style=""font-size:60px;"">+</div>","null","","fixation","","","","","","","","","","",""
"aa-learning-trial","262","851622","0.0-11.0-2.0-1.36","5592","1","21","Female","approach_avoid_spark_v1","
","
","
","
","
","","","","","","966","images/plane5.png","","","learning","-3","-3","1","1","plane","vehicles","2","1","","bad","[-5]"
"html-keyboard-response","263","852124","0.0-11.0-2.0-0.37","5592","1","21","Female","approach_avoid_spark_v1","
","
","
","
","
","","","","","","null","<div style=""font-size:60px;"">+</div>","null","","fixation","","","","","","","","","","",""
"aa-learning-trial","264","855127","0.0-11.0-2.0-1.37","5592","1","21","Female","approach_avoid_spark_v1","
","
","
","
","
","","","","","","680","images/plane2.png","","","learning","1","1","1","1","plane","vehicles","2","1","","bad","[-5]"
"html-keyboard-response","265","855629","0.0-11.0-2.0-0.38","5592","1","21","Female","approach_avoid_spark_v1","
","
","
","
","
","","","","","","null","<div style=""font-size:60px;"">+</div>","null","","fixation","","","","","","","","","","",""
"aa-learning-trial","266","858633","0.0-11.0-2.0-1.38","5592","1","21","Female","approach_avoid_spark_v1","
","
","
","
","
","","","","","","683","images/boat5.png","","","learning","5","5","1","1","boat","vehicles","2","1","","neutral","0"
"html-keyboard-response","267","859135","0.0-11.0-2.0-0.39","5592","1","21","Female","approach_avoid_spark_v1","
","
","
","
","
","","","","","","null","<div style=""font-size:60px;"">+</div>","null","","fixation","","","","","","","","","","",""
"aa-learning-trial","268","862139","0.0-11.0-2.0-1.39","5592","1","21","Female","approach_avoid_spark_v1","
","
","
","
","
","","","","","","619","images/truck4.png","","","learning","2","2","1","1","truck","vehicles","2","1","","good","[6]"
"html-keyboard-response","269","862641","0.0-11.0-2.0-0.40","5592","1","21","Female","approach_avoid_spark_v1","
","
","
","
","
","","","","","","null","<div style=""font-size:60px;"">+</div>","null","","fixation","","","","","","","","","","",""
"aa-learning-trial","270","865644","0.0-11.0-2.0-1.40","5592","1","21","Female","approach_avoid_spark_v1","
","
","
","
","
","","","","","","1479","images/plane4.png","","","learning","8","8","1","1","plane","vehicles","2","1","","bad","[-5]"
"html-keyboard-response","271","866147","0.0-11.0-2.0-0.41","5592","1","21","Female","approach_avoid_spark_v1","
","
","
","
","
","","","","","","null","<div style=""font-size:60px;"">+</div>","null","","fixation","","","","","","","","","","",""
"aa-learning-trial","272","869150","0.0-11.0-2.0-1.41","5592","1","21","Female","approach_avoid_spark_v1","
","
","
","
","
","","","","","","652","images/plane2.png","","","learning","1","1","1","1","plane","vehicles","2","1","","bad","[-5]"
"html-keyboard-response","273","869652","0.0-11.0-2.0-0.42","5592","1","21","Female","approach_avoid_spark_v1","
","
","
","
","
","","","","","","null","<div style=""font-size:60px;"">+</div>","null","","fixation","","","","","","","","","","",""
"aa-learning-trial","274","872655","0.0-11.0-2.0-1.42","5592","1","21","Female","approach_avoid_spark_v1","
","
","
","
","
","","","","","","2298","images/plane7.png","","","learning","-7","0","0","0","plane","vehicles","2","1","","bad","[-5]"
"html-keyboard-response","275","873158","0.0-11.0-2.0-0.43","5592","1","21","Female","approach_avoid_spark_v1","
","
","
","
","
","","","","","","null","<div style=""font-size:60px;"">+</div>","null","","fixation","","","","","","","","","","",""
"aa-learning-trial","276","876161","0.0-11.0-2.0-1.43","5592","1","21","Female","approach_avoid_spark_v1","
","
","
","
","
","","","","","","1019","images/boat5.png","","","learning","5","5","1","1","boat","vehicles","2","1","","neutral","0"
"html-keyboard-response","277","876663","0.0-11.0-2.0-0.44","5592","1","21","Female","approach_avoid_spark_v1","
","
","
","
","
","","","","","","null","<div style=""font-size:60px;"">+</div>","null","","fixation","","","","","","","","","","",""
"aa-learning-trial","278","879666","0.0-11.0-2.0-1.44","5592","1","21","Female","approach_avoid_spark_v1","
","
","
","
","
","","","","","","956.9999999998836","images/plane7.png","","","learning","-7","0","0","0","plane","vehicles","2","1","","bad","[-5]"
"html-keyboard-response","279","880169","0.0-11.0-2.0-0.45","5592","1","21","Female","approach_avoid_spark_v1","
","
","
","
","
","","","","","","null","<div style=""font-size:60px;"">+</div>","null","","fixation","","","","","","","","","","",""
"aa-learning-trial","280","883172","0.0-11.0-2.0-1.45","5592","1","21","Female","approach_avoid_spark_v1","
","
","
","
","
","","","","","","1390","images/boat7.png","","","learning","-2","0","0","0","boat","vehicles","2","1","","neutral","0"
"html-keyboard-response","281","883675","0.0-11.0-2.0-0.46","5592","1","21","Female","approach_avoid_spark_v1","
","
","
","
","
","","","","","","null","<div style=""font-size:60px;"">+</div>","null","","fixation","","","","","","","","","","",""
"aa-learning-trial","282","886678","0.0-11.0-2.0-1.46","5592","1","21","Female","approach_avoid_spark_v1","
","
","
","
","
","","","","","","1370","images/boat8.png","","","learning","6","0","0","0","boat","vehicles","2","1","","neutral","0"
"html-keyboard-response","283","887180","0.0-11.0-2.0-0.47","5592","1","21","Female","approach_avoid_spark_v1","
","
","
","
","
","","","","","","null","<div style=""font-size:60px;"">+</div>","null","","fixation","","","","","","","","","","",""
"aa-learning-trial","284","890184","0.0-11.0-2.0-1.47","5592","1","21","Female","approach_avoid_spark_v1","
","
","
","
","
","","","","","","790","images/truck3.png","","","learning","-9","-9","1","1","truck","vehicles","2","1","","good","[6]"
"html-keyboard-response","285","890686","0.0-11.0-2.0-0.48","5592","1","21","Female","approach_avoid_spark_v1","
","
","
","
","
","","","","","","null","<div style=""font-size:60px;"">+</div>","null","","fixation","","","","","","","","","","",""
"aa-learning-trial","286","893691","0.0-11.0-2.0-1.48","5592","1","21","Female","approach_avoid_spark_v1","
","
","
","
","
","","","","","","1019","images/boat7.png","","","learning","-2","0","0","0","boat","vehicles","2","1","","neutral","0"
"html-keyboard-response","287","894193","0.0-11.0-2.0-0.49","5592","1","21","Female","approach_avoid_spark_v1","
","
","
","
","
","","","","","","null","<div style=""font-size:60px;"">+</div>","null","","fixation","","","","","","","","","","",""
"aa-learning-trial","288","897196","0.0-11.0-2.0-1.49","5592","1","21","Female","approach_avoid_spark_v1","
","
","
","
","
","","","","","","685","images/boat7.png","","","learning","-2","0","0","0","boat","vehicles","2","1","","neutral","0"
"html-keyboard-response","289","897699","0.0-11.0-2.0-0.50","5592","1","21","Female","approach_avoid_spark_v1","
","
","
","
","
","","","","","","null","<div style=""font-size:60px;"">+</div>","null","","fixation","","","","","","","","","","",""
"aa-learning-trial","290","900702","0.0-11.0-2.0-1.50","5592","1","21","Female","approach_avoid_spark_v1","
","
","
","
","
","","","","","","712","images/truck2.png","","","learning","9","9","1","1","truck","vehicles","2","1","","good","[6]"
"html-button-response","291","902487","0.0-11.0-3.0","5592","1","21","Female","approach_avoid_spark_v1","
","
","
","
","
","","","","","","1783","<p> You have completed the round! <p> In this round, you earned 104 points! </p>","0","","break","","","","","","","","","","",""
"html-button-response","292","903716","0.0-12.0","5592","1","21","Female","approach_avoid_spark_v1","
","
","
","
","
","","","","","","1228","<p> Now it's time to play another round. </p>","0","","transition_screen","","","","","","","","","","",""
"preload","293","903837","0.0-13.0-0.0","5592","1","21","Female","approach_avoid_spark_v1","
","
","
","
","
","true","false","[]","[]","[]","","","","","","","","","","","","","","","",""
"learning-instructions","294","910745","0.0-13.0-1.0-0.0","5592","1","21","Female","approach_avoid_spark_v1","
","
","
","
","
","","","","","","1757","<p> Your goal in this round is to sell different plants to a picky customer. </p></div>","","0","instructions","","","","","","","","","","",""
"learning-instructions","295","920453","0.0-13.0-1.0-0.1","5592","1","21","Female","approach_avoid_spark_v1","
","
","
","
","
","","","","","","681.0000000001164","<p> The customer likes some plants and dislikes others.  </p><p> On each turn, you will see a plant.   </p><p> You need to decide whether to offer it to the customer or not.  </p>","","0","instructions","","","","","","","","","","",""
"learning-instructions","296","926469","0.0-13.0-1.0-0.2","5592","1","21","Female","approach_avoid_spark_v1","
","
","
","
","
","","","","","","654","<p> You can offer the plant by pressing 1 and decide to not offer it by pressing 0. </p><br><div class=""choice-instructions-grid""> <div class=""choice-option""><img src=""images/approach.png"" class=""choice-option-img"" stage=""instructions"" position=""0"" ><div class=""choice-option-text""> Press ""1."" </div></div><div class=""choice-option""><img src=""images/avoid.png"" class=""choice-option-img"" stage=""instructions"" position=""1"" ><div class=""choice-option-text""> Press ""0."" </div></div>","","0","instructions","","","","","","","","","","",""
"learning-instructions","297","935810","0.0-13.0-1.0-0.3","5592","1","21","Female","approach_avoid_spark_v1","
","
","
","
","
","","","","","","425","<p> If you offer a plant to the customer that she likes, she will be very pleased! </p><p> But if you offer a plant that she does NOT like, she will be annoyed. </p>","","0","instructions","","","","","","","","","","",""
"learning-instructions","298","948386","0.0-13.0-1.0-0.4","5592","1","21","Female","approach_avoid_spark_v1","
","
","
","
","
","","","","","","442","<p> You will earn points based on how you made the customer feel. </p><p> If you made her pleased, you will WIN anywhere from 1 - 9 points, </p><p> but if you made her annoyed, you will LOSE anywhere from 1 - 9 points. </p>","","0","instructions","","","","","","","","","","",""
"learning-instructions","299","957925","0.0-13.0-1.0-0.5","5592","1","21","Female","approach_avoid_spark_v1","
","
","
","
","
","","","","","","2887","<p> You will see how many points you won or lost in the center of the screen. </p><p> Here is what you would see if you won 5 points: </p><p style=""color:green;font-size:50px;font-weight:bolder"">5</p>","","0","instructions","","","","","","","","","","",""
"learning-instructions","300","961992","0.0-13.0-1.0-0.6","5592","1","21","Female","approach_avoid_spark_v1","
","
","
","
","
","","","","","","1234","<p> And here is what you would see if you lost 3 points: </p><p style=""color:red;font-size:50px;font-weight:bolder"">-3</p>","","0","instructions","","","","","","","","","","",""
"learning-instructions","301","978182","0.0-13.0-1.0-0.7","5592","1","21","Female","approach_avoid_spark_v1","
","
","
","
","
","","","","","","1858","<p> Some plants will make the customer VERY pleased or annoyed. </p><p> These plants will make you win or lose LOTS of points. </p><p> The customer will have less strong feelings about other plants. </p><p> These plants will make you win or lose small amounts of points. </p>","","0","instructions","","","","","","","","","","",""
"learning-instructions","302","991340","0.0-13.0-1.0-0.8","5592","1","21","Female","approach_avoid_spark_v1","
","
","
","
","
","","","","","","961","<p> If you choose to not offer the plant to the customer, you will not win or lose any points. </p><p>  However, in the center of the screen, you will see the number of points you WOULD HAVE won or lost if you had offered the plant. </p>","","0","instructions","","","","","","","","","","",""
"learning-instructions","303","1003122","0.0-13.0-1.0-0.9","5592","1","21","Female","approach_avoid_spark_v1","
","
","
","
","
","","","","","","658","<p> Here is what you might see if you did not offer the plant but the customer would have liked it: </p><p style=""color:grey; font-size:50px; display: inline-block; border-spacing: 15px; border-width:3px; border-style:solid; border-color:red"">  &nbsp; 6 &nbsp; </p><p> Remember, in this case, you would not win or lose ANY points because you did not offer the plant.  </p>","","0","instructions","","","","","","","","","","",""
"learning-instructions","304","1010997","0.0-13.0-1.0-0.10","5592","1","21","Female","approach_avoid_spark_v1","
","
","
","
","
","","","","","","536","<p> Try to make the best choice for each plant because </p><p> at the end of the game, you will earn bonus money based on how many points you earned. </p>","","0","instructions","","","","","","","","","","",""
"learning-instructions","305","1021112","0.0-13.0-1.0-0.11","5592","1","21","Female","approach_avoid_spark_v1","
","
","
","
","
","","","","","","1931","<p> You will have 3 seconds to make each choice. Try to respond before time runs out! </p><p> You will lose 5 points each time you do not make a response. </p>","","0","instructions","","","","","","","","","","",""
"html-keyboard-response","306","1021716","0.0-13.0-2.0-0.0","5592","1","21","Female","approach_avoid_spark_v1","
","
","
","
","
","","","","","","null","<div style=""font-size:60px;"">+</div>","null","","fixation","","","","","","","","","","",""
"aa-learning-trial","307","1024719","0.0-13.0-2.0-1.0","5592","1","21","Female","approach_avoid_spark_v1","
","
","
","
","
","","","","","","1255","images/tree4.png","","","learning","-1","-1","1","1","tree","plants","1","2","","neutral","0"
"html-keyboard-response","308","1025221","0.0-13.0-2.0-0.1","5592","1","21","Female","approach_avoid_spark_v1","
","
","
","
","
","","","","","","null","<div style=""font-size:60px;"">+</div>","null","","fixation","","","","","","","","","","",""
"aa-learning-trial","309","1028227","0.0-13.0-2.0-1.1","5592","1","21","Female","approach_avoid_spark_v1","
","
","
","
","
","","","","","","653","images/bush3.png","","","learning","8","8","1","1","bush","plants","1","2","","good","[6]"
"html-keyboard-response","310","1028729","0.0-13.0-2.0-0.2","5592","1","21","Female","approach_avoid_spark_v1","
","
","
","
","
","","","","","","null","<div style=""font-size:60px;"">+</div>","null","","fixation","","","","","","","","","","",""
"aa-learning-trial","311","1031733","0.0-13.0-2.0-1.2","5592","1","21","Female","approach_avoid_spark_v1","
","
","
","
","
","","","","","","748","images/bush7.png","","","learning","7","7","1","1","bush","plants","1","2","","good","[6]"
"html-keyboard-response","312","1032236","0.0-13.0-2.0-0.3","5592","1","21","Female","approach_avoid_spark_v1","
","
","
","
","
","","","","","","null","<div style=""font-size:60px;"">+</div>","null","","fixation","","","","","","","","","","",""
"aa-learning-trial","313","1035239","0.0-13.0-2.0-1.3","5592","1","21","Female","approach_avoid_spark_v1","
","
","
","
","
","","","","","","905","images/tree1.png","","","learning","2","0","0","0","tree","plants","1","2","","neutral","0"
"html-keyboard-response","314","1035742","0.0-13.0-2.0-0.4","5592","1","21","Female","approach_avoid_spark_v1","
","
","
","
","
","","","","","","null","<div style=""font-size:60px;"">+</div>","null","","fixation","","","","","","","","","","",""
"aa-learning-trial","315","1038746","0.0-13.0-2.0-1.4","5592","1","21","Female","approach_avoid_spark_v1","
","
","
","
","
","","","","","","731","images/flower1.png","","","learning","-2","-2","1","1","flower","plants","1","2","","bad","[-3]"
"html-keyboard-response","316","1039248","0.0-13.0-2.0-0.5","5592","1","21","Female","approach_avoid_spark_v1","
","
","
","
","
","","","","","","null","<div style=""font-size:60px;"">+</div>","null","","fixation","","","","","","","","","","",""
"aa-learning-trial","317","1042252","0.0-13.0-2.0-1.5","5592","1","21","Female","approach_avoid_spark_v1","
","
","
","
","
","","","","","","1408.9999999998836","images/tree2.png","","","learning","[-1]","-1","1","1","tree","plants","1","2","","neutral","0"
"html-keyboard-response","318","1042755","0.0-13.0-2.0-0.6","5592","1","21","Female","approach_avoid_spark_v1","
","
","
","
","
","","","","","","null","<div style=""font-size:60px;"">+</div>","null","","fixation","","","","","","","","","","",""
"aa-learning-trial","319","1045759","0.0-13.0-2.0-1.6","5592","1","21","Female","approach_avoid_spark_v1","
","
","
","
","
","","","","","","894","images/tree1.png","","","learning","-1","0","0","0","tree","plants","1","2","","neutral","0"
"html-keyboard-response","320","1046263","0.0-13.0-2.0-0.7","5592","1","21","Female","approach_avoid_spark_v1","
","
","
","
","
","","","","","","null","<div style=""font-size:60px;"">+</div>","null","","fixation","","","","","","","","","","",""
"aa-learning-trial","321","1049267","0.0-13.0-2.0-1.7","5592","1","21","Female","approach_avoid_spark_v1","
","
","
","
","
","","","","","","920.0000000001164","images/flower4.png","","","learning","-1","-1","1","1","flower","plants","1","2","","bad","[-3]"
"html-keyboard-response","322","1049769","0.0-13.0-2.0-0.8","5592","1","21","Female","approach_avoid_spark_v1","
","
","
","
","
","","","","","","null","<div style=""font-size:60px;"">+</div>","null","","fixation","","","","","","","","","","",""
"aa-learning-trial","323","1052772","0.0-13.0-2.0-1.8","5592","1","21","Female","approach_avoid_spark_v1","
","
","
","
","
","","","","","","746","images/flower3.png","","","learning","-5","0","0","0","flower","plants","1","2","","bad","[-3]"
"html-keyboard-response","324","1053274","0.0-13.0-2.0-0.9","5592","1","21","Female","approach_avoid_spark_v1","
","
","
","
","
","","","","","","null","<div style=""font-size:60px;"">+</div>","null","","fixation","","","","","","","","","","",""
"aa-learning-trial","325","1056278","0.0-13.0-2.0-1.9","5592","1","21","Female","approach_avoid_spark_v1","
","
","
","
","
","","","","","","769.9999999997672","images/bush1.png","","","learning","5","5","1","1","bush","plants","1","2","","good","[6]"
"html-keyboard-response","326","1056780","0.0-13.0-2.0-0.10","5592","1","21","Female","approach_avoid_spark_v1","
","
","
","
","
","","","","","","null","<div style=""font-size:60px;"">+</div>","null","","fixation","","","","","","","","","","",""
"aa-learning-trial","327","1059785","0.0-13.0-2.0-1.10","5592","1","21","Female","approach_avoid_spark_v1","
","
","
","
","
","","","","","","864","images/bush3.png","","","learning","6","6","1","1","bush","plants","1","2","","good","[6]"
"html-keyboard-response","328","1060287","0.0-13.0-2.0-0.11","5592","1","21","Female","approach_avoid_spark_v1","
","
","
","
","
","","","","","","null","<div style=""font-size:60px;"">+</div>","null","","fixation","","","","","","","","","","",""
"aa-learning-trial","329","1063290","0.0-13.0-2.0-1.11","5592","1","21","Female","approach_avoid_spark_v1","
","
","
","
","
","","","","","","1274","images/flower1.png","","","learning","-3","0","0","0","flower","plants","1","2","","bad","[-3]"
"html-keyboard-response","330","1063793","0.0-13.0-2.0-0.12","5592","1","21","Female","approach_avoid_spark_v1","
","
","
","
","
","","","","","","null","<div style=""font-size:60px;"">+</div>","null","","fixation","","","","","","","","","","",""
"aa-learning-trial","331","1066796","0.0-13.0-2.0-1.12","5592","1","21","Female","approach_avoid_spark_v1","
","
","
","
","
","","","","","","1009","images/tree4.png","","","learning","-3","0","0","0","tree","plants","1","2","","neutral","0"
"html-keyboard-response","332","1067297","0.0-13.0-2.0-0.13","5592","1","21","Female","approach_avoid_spark_v1","
","
","
","
","
","","","","","","null","<div style=""font-size:60px;"">+</div>","null","","fixation","","","","","","","","","","",""
"aa-learning-trial","333","1070301","0.0-13.0-2.0-1.13","5592","1","21","Female","approach_avoid_spark_v1","
","
","
","
","
","","","","","","722","images/bush1.png","","","learning","4","4","1","1","bush","plants","1","2","","good","[6]"
"html-keyboard-response","334","1070803","0.0-13.0-2.0-0.14","5592","1","21","Female","approach_avoid_spark_v1","
","
","
","
","
","","","","","","null","<div style=""font-size:60px;"">+</div>","null","","fixation","","","","","","","","","","",""
"aa-learning-trial","335","1073806","0.0-13.0-2.0-1.14","5592","1","21","Female","approach_avoid_spark_v1","
","
","
","
","
","","","","","","795","images/flower3.png","","","learning","-4","0","0","0","flower","plants","1","2","","bad","[-3]"
"html-keyboard-response","336","1074308","0.0-13.0-2.0-0.15","5592","1","21","Female","approach_avoid_spark_v1","
","
","
","
","
","","","","","","null","<div style=""font-size:60px;"">+</div>","null","","fixation","","","","","","","","","","",""
"aa-learning-trial","337","1077311","0.0-13.0-2.0-1.15","5592","1","21","Female","approach_avoid_spark_v1","
","
","
","
","
","","","","","","1226","images/tree1.png","","","learning","-2","0","0","0","tree","plants","1","2","","neutral","0"
"html-keyboard-response","338","1077818","0.0-13.0-2.0-0.16","5592","1","21","Female","approach_avoid_spark_v1","
","
","
","
","
","","","","","","null","<div style=""font-size:60px;"">+</div>","null","","fixation","","","","","","","","","","",""
"aa-learning-trial","339","1080822","0.0-13.0-2.0-1.16","5592","1","21","Female","approach_avoid_spark_v1","
","
","
","
","
","","","","","","868","images/bush7.png","","","learning","5","5","1","1","bush","plants","1","2","","good","[6]"
"html-keyboard-response","340","1081325","0.0-13.0-2.0-0.17","5592","1","21","Female","approach_avoid_spark_v1","
","
","
","
","
","","","","","","null","<div style=""font-size:60px;"">+</div>","null","","fixation","","","","","","","","","","",""
"aa-learning-trial","341","1084328","0.0-13.0-2.0-1.17","5592","1","21","Female","approach_avoid_spark_v1","
","
","
","
","
","","","","","","715","images/flower1.png","","","learning","-2","0","0","0","flower","plants","1","2","","bad","[-3]"
"html-keyboard-response","342","1084830","0.0-13.0-2.0-0.18","5592","1","21","Female","approach_avoid_spark_v1","
","
","
","
","
","","","","","","null","<div style=""font-size:60px;"">+</div>","null","","fixation","","","","","","","","","","",""
"aa-learning-trial","343","1087835","0.0-13.0-2.0-1.18","5592","1","21","Female","approach_avoid_spark_v1","
","
","
","
","
","","","","","","830","images/bush1.png","","","learning","5","5","1","1","bush","plants","1","2","","good","[6]"
"html-keyboard-response","344","1088338","0.0-13.0-2.0-0.19","5592","1","21","Female","approach_avoid_spark_v1","
","
","
","
","
","","","","","","null","<div style=""font-size:60px;"">+</div>","null","","fixation","","","","","","","","","","",""
"aa-learning-trial","345","1091342","0.0-13.0-2.0-1.19","5592","1","21","Female","approach_avoid_spark_v1","
","
","
","
","
","","","","","","426.00000000023283","images/bush3.png","","","learning","5","5","1","1","bush","plants","1","2","","good","[6]"
"html-keyboard-response","346","1091844","0.0-13.0-2.0-0.20","5592","1","21","Female","approach_avoid_spark_v1","
","
","
","
","
","","","","","","null","<div style=""font-size:60px;"">+</div>","null","","fixation","","","","","","","","","","",""
"aa-learning-trial","347","1094849","0.0-13.0-2.0-1.20","5592","1","21","Female","approach_avoid_spark_v1","
","
","
","
","
","","","","","","542","images/bush1.png","","","learning","6","6","1","1","bush","plants","1","2","","good","[6]"
"html-keyboard-response","348","1095351","0.0-13.0-2.0-0.21","5592","1","21","Female","approach_avoid_spark_v1","
","
","
","
","
","","","","","","null","<div style=""font-size:60px;"">+</div>","null","","fixation","","","","","","","","","","",""
"aa-learning-trial","349","1098355","0.0-13.0-2.0-1.21","5592","1","21","Female","approach_avoid_spark_v1","
","
","
","
","
","","","","","","568.9999999997672","images/flower3.png","","","learning","-5","0","0","0","flower","plants","1","2","","bad","[-3]"
"html-keyboard-response","350","1098857","0.0-13.0-2.0-0.22","5592","1","21","Female","approach_avoid_spark_v1","
","
","
","
","
","","","","","","null","<div style=""font-size:60px;"">+</div>","null","","fixation","","","","","","","","","","",""
"aa-learning-trial","351","1101861","0.0-13.0-2.0-1.22","5592","1","21","Female","approach_avoid_spark_v1","
","
","
","
","
","","","","","","1721","images/tree8.png","","","learning","3","0","0","0","tree","plants","1","2","","neutral","0"
"html-keyboard-response","352","1102363","0.0-13.0-2.0-0.23","5592","1","21","Female","approach_avoid_spark_v1","
","
","
","
","
