"trial_type","trial_index","time_elapsed","internal_node_id","subject_id","task_condition","age","gender","task_version","interactions","blur_events","focus_events","fullscreenenter_events","fullscreenexit_events","success","timeout","failed_images","failed_audio","failed_video","rt","stimulus","response","button_pressed","task_part","approach_reward","points","key_press","option_selected","stim_cat","task_block","block_condition","block_number","correct","cat_type","mean_cat_reward"
"pavlovia","0","6","0.0-0.0","4500","2","15","Female","approach_avoid_spark_v1","""event"",""trial"",""time""
""fullscreenenter"",""1"",""2058""
","
","
","""event"",""trial"",""time""
""fullscreenenter"",""1"",""2058""
","
","","","","","","","","","","","","","","","","","","","","",""
"fullscreen","1","3030","0.0-1.0","4500","2","15","Female","approach_avoid_spark_v1","""event"",""trial"",""time""
""fullscreenenter"",""1"",""2058""
","
","
","""event"",""trial"",""time""
""fullscreenenter"",""1"",""2058""
","
","true","","","","","","","","","","","","","","","","","","","",""
"preload","2","16486","0.0-2.0","4500","2","15","Female","approach_avoid_spark_v1","""event"",""trial"",""time""
""fullscreenenter"",""1"",""2058""
","
","
","""event"",""trial"",""time""
""fullscreenenter"",""1"",""2058""
","
","true","false","[]","[]","[]","","","","","","","","","","","","","","","",""
"audio-keyboard-response","3","18345","0.0-3.0","4500","2","15","Female","approach_avoid_spark_v1","""event"",""trial"",""time""
""fullscreenenter"",""1"",""2058""
","
","
","""event"",""trial"",""time""
""fullscreenenter"",""1"",""2058""
","
","","","","","","1858.6666666666663","audio/beep_loop.wav"," ","","","","","","","","","","","","",""
"audio-button-response","4","20171","0.0-4.0","4500","2","15","Female","approach_avoid_spark_v1","""event"",""trial"",""time""
""fullscreenenter"",""1"",""2058""
","
","
","""event"",""trial"",""time""
""fullscreenenter"",""1"",""2058""
","
","","","","","","1821","audio/shark.wav","4","","","","","","","","","","","","",""
"audio-button-response","5","22679","0.0-5.0","4500","2","15","Female","approach_avoid_spark_v1","""event"",""trial"",""time""
""fullscreenenter"",""1"",""2058""
","
","
","""event"",""trial"",""time""
""fullscreenenter"",""1"",""2058""
","
","","","","","","1501","audio/turtle.wav","1","","","","","","","","","","","","",""
"preload","6","28240","0.0-6.0","4500","2","15","Female","approach_avoid_spark_v1","""event"",""trial"",""time""
""fullscreenenter"",""1"",""2058""
","
","
","""event"",""trial"",""time""
""fullscreenenter"",""1"",""2058""
","
","true","false","[]","[]","[]","","","","","","","","","","","","","","","",""
"html-keyboard-response","7","30905","0.0-7.0","4500","2","15","Female","approach_avoid_spark_v1","""event"",""trial"",""time""
""fullscreenenter"",""1"",""2058""
","
","
","""event"",""trial"",""time""
""fullscreenenter"",""1"",""2058""
","
","","","","","","2663.9000000059605","Welcome to the experiment. Press any key to begin and to advance the instructions."," ","","","","","","","","","","","","",""
"learning-instructions","8","38831","0.0-8.0-0.0-0.0","4500","2","15","Female","approach_avoid_spark_v1","""event"",""trial"",""time""
""fullscreenenter"",""1"",""2058""
","
","
","""event"",""trial"",""time""
""fullscreenenter"",""1"",""2058""
","
","","","","","","964.5999999940395","<p> Welcome! Today you are going to play 6 different rounds of a decision-making game. </p><p> Use the mouse to click next to continue. </p>","","0","instructions","","","","","","","","","","",""
"learning-instructions","9","42445","0.0-8.0-0.0-0.1","4500","2","15","Female","approach_avoid_spark_v1","""event"",""trial"",""time""
""fullscreenenter"",""1"",""2058""
","
","
","""event"",""trial"",""time""
""fullscreenenter"",""1"",""2058""
","
","","","","","","879","<p> You will start with a practice round to learn the rules. </p>","","0","instructions","","","","","","","","","","",""
"learning-instructions","10","46260","0.0-8.0-0.0-0.2","4500","2","15","Female","approach_avoid_spark_v1","""event"",""trial"",""time""
""fullscreenenter"",""1"",""2058""
","
","
","""event"",""trial"",""time""
""fullscreenenter"",""1"",""2058""
","
","","","","","","344.59999999403954","<p> Your goal in this round is to give out sports equipment to kids. </p></div>","","0","instructions","","","","","","","","","","",""
"learning-instructions","11","54164","0.0-8.0-0.0-0.3","4500","2","15","Female","approach_avoid_spark_v1","""event"",""trial"",""time""
""fullscreenenter"",""1"",""2058""
","
","
","""event"",""trial"",""time""
""fullscreenenter"",""1"",""2058""
","
","","","","","","338","<p> The kids only like some of the equipment.  </p><p> On each turn, you will see a piece of sports equipment.   </p><p> You need to decide whether to give it to the kids or not.  </p>","","0","instructions","","","","","","","","","","",""
"learning-instructions","12","62267","0.0-8.0-0.0-0.4","4500","2","15","Female","approach_avoid_spark_v1","""event"",""trial"",""time""
""fullscreenenter"",""1"",""2058""
","
","
","""event"",""trial"",""time""
""fullscreenenter"",""1"",""2058""
","
","","","","","","3340.899999976158","<p> You can give them the equipment by pressing 1 and choose not to give it to them by pressing 0. </p><br><div class=""choice-instructions-grid""> <div class=""choice-option""><img src=""images/approach.png"" class=""choice-option-img"" stage=""instructions"" position=""0"" ><div class=""choice-option-text""> Press ""1."" </div></div><div class=""choice-option""><img src=""images/avoid.png"" class=""choice-option-img"" stage=""instructions"" position=""1"" ><div class=""choice-option-text""> Press ""0."" </div></div>","","0","instructions","","","","","","","","","","",""
"learning-instructions","13","71122","0.0-8.0-0.0-0.5","4500","2","15","Female","approach_avoid_spark_v1","""event"",""trial"",""time""
""fullscreenenter"",""1"",""2058""
","
","
","""event"",""trial"",""time""
""fullscreenenter"",""1"",""2058""
","
","","","","","","1466.199999988079","<p> If you give them a piece of equipment they like, they will be happy! </p><p> But if you give them a piece of equipment they do not like, they will be sad. </p>","","0","instructions","","","","","","","","","","",""
"learning-instructions","14","82435","0.0-8.0-0.0-0.6","4500","2","15","Female","approach_avoid_spark_v1","""event"",""trial"",""time""
""fullscreenenter"",""1"",""2058""
","
","
","""event"",""trial"",""time""
""fullscreenenter"",""1"",""2058""
","
","","","","","","799.5","<p> You will earn points based on how you make kids feel. </p><p> If you make them happy, you will WIN anywhere from 1 - 9 points, </p><p> but if you make them sad, you will LOSE anywhere from 1 - 9 points. </p>","","0","instructions","","","","","","","","","","",""
"learning-instructions","15","94106","0.0-8.0-0.0-0.7","4500","2","15","Female","approach_avoid_spark_v1","""event"",""trial"",""time""
""fullscreenenter"",""1"",""2058""
","
","
","""event"",""trial"",""time""
""fullscreenenter"",""1"",""2058""
","
","","","","","","2099.9000000059605","<p> You will see how many points you won or lost in the center of the screen. </p><p> Here is what you would see if you won 6 points: </p><p style=""color:green;font-size:50px;font-weight:bolder"">6</p><p style=""color:green"">The text is GREEN because you WON points.</p>","","0","instructions","","","","","","","","","","",""
"learning-instructions","16","100917","0.0-8.0-0.0-0.8","4500","2","15","Female","approach_avoid_spark_v1","""event"",""trial"",""time""
""fullscreenenter"",""1"",""2058""
","
","
","""event"",""trial"",""time""
""fullscreenenter"",""1"",""2058""
","
","","","","","","1311","<p> And here is what you would see if you lost 4 points: </p><p style=""color:red;font-size:50px;font-weight:bolder"">-4</p><p style=""color:red"">The text is RED because you LOST points. </p>","","0","instructions","","","","","","","","","","",""
"learning-instructions","17","116950","0.0-8.0-0.0-0.9","4500","2","15","Female","approach_avoid_spark_v1","""event"",""trial"",""time""
""fullscreenenter"",""1"",""2058""
","
","
","""event"",""trial"",""time""
""fullscreenenter"",""1"",""2058""
","
","","","","","","1314.0999999940395","<p> Some of the equipment will make the kids VERY happy or sad. </p><p> These pieces of equipment will make you win or lose LOTS of points. </p><p> Other pieces of equipment will only make the kids a little happy or sad. </p><p> These pieces of equipment will make you win or lose small amounts of points. </p>","","0","instructions","","","","","","","","","","",""
"learning-instructions","18","128239","0.0-8.0-0.0-0.10","4500","2","15","Female","approach_avoid_spark_v1","""event"",""trial"",""time""
""fullscreenenter"",""1"",""2058""
","
","
","""event"",""trial"",""time""
""fullscreenenter"",""1"",""2058""
","
","","","","","","662.7999999821186","<p> If you choose not to give them the equipment, you will not win or lose any points. </p><p>  However, in the center of the screen, you will see the number of points you WOULD HAVE won or lost if you had given them the equipment. </p>","","0","instructions","","","","","","","","","","",""
"learning-instructions","19","151271","0.0-8.0-0.0-0.11","4500","2","15","Female","approach_avoid_spark_v1","""event"",""trial"",""time""
""fullscreenenter"",""1"",""2058""
","
","
","""event"",""trial"",""time""
""fullscreenenter"",""1"",""2058""
","
","","","","","","1505","<p> Here is what you might see if you did not give the equipment to the kids but it would have made them happy: </p><p style=""color:grey; font-size:50px; display: inline-block; border-spacing: 15px; border-width:3px; border-style:solid; border-color:red"">  &nbsp; 7 &nbsp; </p><p> Remember, in this case, you would not win or lose ANY points because you did not give them the equipment.  </p><p style=""color:grey"">The text is GREY because you earned ZERO points. </p><p style=""color:red"">However, choosing to give the kids the equipment would have made you win points. The box around the text is RED because you chose the worse option. </p>","","0","instructions","","","","","","","","","","",""
"learning-instructions","20","173075","0.0-8.0-0.0-0.12","4500","2","15","Female","approach_avoid_spark_v1","""event"",""trial"",""time""
""fullscreenenter"",""1"",""2058""
","
","
","""event"",""trial"",""time""
""fullscreenenter"",""1"",""2058""
","
","","","","","","728.6999999880791","<p> Here is what you might see if you did not give the equipment to the kids but it would have made them sad: </p><p style=""color:grey;font-size:50px; display: inline-block; border-spacing: 15px; border-width:3px; border-style:solid; border-color:green"">  &nbsp; -8 &nbsp; </p><p> Remember, in this case, you would not win or lose ANY points because you did not give them the equipment.  </p><p style=""color:grey"">The text is GREY because you earned ZERO points. </p><p  style=""color:green""> Choosing to give the kids the equipment would have made you lose points. The box around the text is GREEN because you chose the better option.</p>","","0","instructions","","","","","","","","","","",""
"learning-instructions","21","182865","0.0-8.0-0.0-0.13","4500","2","15","Female","approach_avoid_spark_v1","""event"",""trial"",""time""
""fullscreenenter"",""1"",""2058""
","
","
","""event"",""trial"",""time""
""fullscreenenter"",""1"",""2058""
","
","","","","","","718.1999999880791","<p> You will have 3 seconds to make each choice. Try to respond before time runs out! </p><p> You will lose 5 points each time you do not make a response. </p>","","0","instructions","","","","","","","","","","",""
"learning-instructions","22","189503","0.0-8.0-0.0-0.14","4500","2","15","Female","approach_avoid_spark_v1","""event"",""trial"",""time""
""fullscreenenter"",""1"",""2058""
","
","
","""event"",""trial"",""time""
""fullscreenenter"",""1"",""2058""
","
","","","","","","1227.5999999940395","<p> This is just a practice round, but in the real game, your bonus payment will depend on your total number of points.","","0","instructions","","","","","","","","","","",""
"learning-instructions","23","197038","0.0-8.0-0.0-0.15","4500","2","15","Female","approach_avoid_spark_v1","""event"",""trial"",""time""
""fullscreenenter"",""1"",""2058""
","
","
","""event"",""trial"",""time""
""fullscreenenter"",""1"",""2058""
","
","","","","","","1771.6000000238419","<p> Remember, you can give them the equipment by pressing 1 and choose not to give it to them by pressing 0. </p><br><div class=""choice-instructions-grid""> <div class=""choice-option""><img src=""images/approach.png"" class=""choice-option-img"" stage=""instructions"" position=""0"" ><div class=""choice-option-text""> Press ""1."" </div></div><div class=""choice-option""><img src=""images/avoid.png"" class=""choice-option-img"" stage=""instructions"" position=""1"" ><div class=""choice-option-text""> Press ""0."" </div></div>","","0","instructions","","","","","","","","","","",""
"html-button-response","24","203024","0.0-8.0-1.0","4500","2","15","Female","approach_avoid_spark_v1","""event"",""trial"",""time""
""fullscreenenter"",""1"",""2058""
","
","
","""event"",""trial"",""time""
""fullscreenenter"",""1"",""2058""
","
","","","","","","5867","<p> Ready to practice? </p>","0","","","","","","","","","","","","",""
"html-keyboard-response","25","203651","0.0-8.0-2.0-0.0","4500","2","15","Female","approach_avoid_spark_v1","""event"",""trial"",""time""
""fullscreenenter"",""1"",""2058""
","
","
","""event"",""trial"",""time""
""fullscreenenter"",""1"",""2058""
","
","","","","","","null","<div style=""font-size:60px;"">+</div>","null","","fixation","","","","","","","","","","",""
"aa-learning-trial","26","206663","0.0-8.0-2.0-1.0","4500","2","15","Female","approach_avoid_spark_v1","""event"",""trial"",""time""
""fullscreenenter"",""1"",""2058""
","
","
","""event"",""trial"",""time""
""fullscreenenter"",""1"",""2058""
","
","","","","","","1721.300000011921","images/ball2.png","","","learning","7","7","1","1","practice","practice","practice","-1","","",""
"html-keyboard-response","27","207166","0.0-8.0-2.0-0.1","4500","2","15","Female","approach_avoid_spark_v1","""event"",""trial"",""time""
""fullscreenenter"",""1"",""2058""
","
","
","""event"",""trial"",""time""
""fullscreenenter"",""1"",""2058""
","
","","","","","","null","<div style=""font-size:60px;"">+</div>","null","","fixation","","","","","","","","","","",""
"aa-learning-trial","28","210185","0.0-8.0-2.0-1.1","4500","2","15","Female","approach_avoid_spark_v1","""event"",""trial"",""time""
""fullscreenenter"",""1"",""2058""
","
","
","""event"",""trial"",""time""
""fullscreenenter"",""1"",""2058""
","
","","","","","","1137.2999999821186","images/racket3.png","","","learning","-4","0","0","0","practice","practice","practice","-1","","",""
"html-keyboard-response","29","210696","0.0-8.0-2.0-0.2","4500","2","15","Female","approach_avoid_spark_v1","""event"",""trial"",""time""
""fullscreenenter"",""1"",""2058""
","
","
","""event"",""trial"",""time""
""fullscreenenter"",""1"",""2058""
","
","","","","","","null","<div style=""font-size:60px;"">+</div>","null","","fixation","","","","","","","","","","",""
"aa-learning-trial","30","213704","0.0-8.0-2.0-1.2","4500","2","15","Female","approach_avoid_spark_v1","""event"",""trial"",""time""
""fullscreenenter"",""1"",""2058""
","
","
","""event"",""trial"",""time""
""fullscreenenter"",""1"",""2058""
","
","","","","","","1355.699999988079","images/racket2.png","","","learning","8","0","0","0","practice","practice","practice","-1","","",""
"html-keyboard-response","31","214216","0.0-8.0-2.0-0.3","4500","2","15","Female","approach_avoid_spark_v1","""event"",""trial"",""time""
""fullscreenenter"",""1"",""2058""
","
","
","""event"",""trial"",""time""
""fullscreenenter"",""1"",""2058""
","
","","","","","","null","<div style=""font-size:60px;"">+</div>","null","","fixation","","","","","","","","","","",""
"aa-learning-trial","32","217232","0.0-8.0-2.0-1.3","4500","2","15","Female","approach_avoid_spark_v1","""event"",""trial"",""time""
""fullscreenenter"",""1"",""2058""
","
","
","""event"",""trial"",""time""
""fullscreenenter"",""1"",""2058""
","
","","","","","","1388.699999988079","images/racket4.png","","","learning","-8","-8","1","1","practice","practice","practice","-1","","",""
"html-keyboard-response","33","217745","0.0-8.0-2.0-0.4","4500","2","15","Female","approach_avoid_spark_v1","""event"",""trial"",""time""
""fullscreenenter"",""1"",""2058""
","
","
","""event"",""trial"",""time""
""fullscreenenter"",""1"",""2058""
","
","","","","","","null","<div style=""font-size:60px;"">+</div>","null","","fixation","","","","","","","","","","",""
"aa-learning-trial","34","220765","0.0-8.0-2.0-1.4","4500","2","15","Female","approach_avoid_spark_v1","""event"",""trial"",""time""
""fullscreenenter"",""1"",""2058""
","
","
","""event"",""trial"",""time""
""fullscreenenter"",""1"",""2058""
","
","","","","","","1218.699999988079","images/racket1.png","","","learning","5","5","1","1","practice","practice","practice","-1","","",""
"html-keyboard-response","35","221277","0.0-8.0-2.0-0.5","4500","2","15","Female","approach_avoid_spark_v1","""event"",""trial"",""time""
""fullscreenenter"",""1"",""2058""
","
","
","""event"",""trial"",""time""
""fullscreenenter"",""1"",""2058""
","
","","","","","","null","<div style=""font-size:60px;"">+</div>","null","","fixation","","","","","","","","","","",""
"aa-learning-trial","36","224296","0.0-8.0-2.0-1.5","4500","2","15","Female","approach_avoid_spark_v1","""event"",""trial"",""time""
""fullscreenenter"",""1"",""2058""
","
","
","""event"",""trial"",""time""
""fullscreenenter"",""1"",""2058""
","
","","","","","","778.3000000119209","images/ball4.png","","","learning","-2","-2","1","1","practice","practice","practice","-1","","",""
"html-keyboard-response","37","224810","0.0-8.0-2.0-0.6","4500","2","15","Female","approach_avoid_spark_v1","""event"",""trial"",""time""
""fullscreenenter"",""1"",""2058""
","
","
","""event"",""trial"",""time""
""fullscreenenter"",""1"",""2058""
","
","","","","","","null","<div style=""font-size:60px;"">+</div>","null","","fixation","","","","","","","","","","",""
"aa-learning-trial","38","227820","0.0-8.0-2.0-1.6","4500","2","15","Female","approach_avoid_spark_v1","""event"",""trial"",""time""
""fullscreenenter"",""1"",""2058""
","
","
","""event"",""trial"",""time""
""fullscreenenter"",""1"",""2058""
","
","","","","","","883.5999999940395","images/ball4.png","","","learning","-8","-8","1","1","practice","practice","practice","-1","","",""
"html-keyboard-response","39","228327","0.0-8.0-2.0-0.7","4500","2","15","Female","approach_avoid_spark_v1","""event"",""trial"",""time""
""fullscreenenter"",""1"",""2058""
","
","
","""event"",""trial"",""time""
""fullscreenenter"",""1"",""2058""
","
","","","","","","null","<div style=""font-size:60px;"">+</div>","null","","fixation","","","","","","","","","","",""
"aa-learning-trial","40","231337","0.0-8.0-2.0-1.7","4500","2","15","Female","approach_avoid_spark_v1","""event"",""trial"",""time""
""fullscreenenter"",""1"",""2058""
","
","
","""event"",""trial"",""time""
""fullscreenenter"",""1"",""2058""
","
","","","","","","1286.4000000059605","images/racket4.png","","","learning","-9","-9","1","1","practice","practice","practice","-1","","",""
"html-keyboard-response","41","231846","0.0-8.0-2.0-0.8","4500","2","15","Female","approach_avoid_spark_v1","""event"",""trial"",""time""
""fullscreenenter"",""1"",""2058""
","
","
","""event"",""trial"",""time""
""fullscreenenter"",""1"",""2058""
","
","","","","","","null","<div style=""font-size:60px;"">+</div>","null","","fixation","","","","","","","","","","",""
"aa-learning-trial","42","234854","0.0-8.0-2.0-1.8","4500","2","15","Female","approach_avoid_spark_v1","""event"",""trial"",""time""
""fullscreenenter"",""1"",""2058""
","
","
","""event"",""trial"",""time""
""fullscreenenter"",""1"",""2058""
","
","","","","","","1135.9000000059605","images/racket1.png","","","learning","-7","-7","1","1","practice","practice","practice","-1","","",""
"html-keyboard-response","43","235358","0.0-8.0-2.0-0.9","4500","2","15","Female","approach_avoid_spark_v1","""event"",""trial"",""time""
""fullscreenenter"",""1"",""2058""
","
","
","""event"",""trial"",""time""
""fullscreenenter"",""1"",""2058""
","
","","","","","","null","<div style=""font-size:60px;"">+</div>","null","","fixation","","","","","","","","","","",""
"aa-learning-trial","44","238368","0.0-8.0-2.0-1.9","4500","2","15","Female","approach_avoid_spark_v1","""event"",""trial"",""time""
""fullscreenenter"",""1"",""2058""
","
","
","""event"",""trial"",""time""
""fullscreenenter"",""1"",""2058""
","
","","","","","","737.1999999880791","images/ball1.png","","","learning","-5","-5","1","1","practice","practice","practice","-1","","",""
"html-keyboard-response","45","238870","0.0-8.0-2.0-0.10","4500","2","15","Female","approach_avoid_spark_v1","""event"",""trial"",""time""
""fullscreenenter"",""1"",""2058""
","
","
","""event"",""trial"",""time""
""fullscreenenter"",""1"",""2058""
","
","","","","","","null","<div style=""font-size:60px;"">+</div>","null","","fixation","","","","","","","","","","",""
"aa-learning-trial","46","241878","0.0-8.0-2.0-1.10","4500","2","15","Female","approach_avoid_spark_v1","""event"",""trial"",""time""
""fullscreenenter"",""1"",""2058""
","
","
","""event"",""trial"",""time""
""fullscreenenter"",""1"",""2058""
","
","","","","","","263.19999998807907","images/ball1.png","","","learning","4","0","0","0","practice","practice","practice","-1","","",""
"html-keyboard-response","47","242382","0.0-8.0-2.0-0.11","4500","2","15","Female","approach_avoid_spark_v1","""event"",""trial"",""time""
""fullscreenenter"",""1"",""2058""
","
","
","""event"",""trial"",""time""
""fullscreenenter"",""1"",""2058""
","
","","","","","","null","<div style=""font-size:60px;"">+</div>","null","","fixation","","","","","","","","","","",""
"aa-learning-trial","48","245390","0.0-8.0-2.0-1.11","4500","2","15","Female","approach_avoid_spark_v1","""event"",""trial"",""time""
""fullscreenenter"",""1"",""2058""
","
","
","""event"",""trial"",""time""
""fullscreenenter"",""1"",""2058""
","
","","","","","","614.5","images/ball4.png","","","learning","9","9","1","1","practice","practice","practice","-1","","",""
"html-button-response","49","247482","0.0-8.0-3.0","4500","2","15","Female","approach_avoid_spark_v1","""event"",""trial"",""time""
""fullscreenenter"",""1"",""2058""
","
","
","""event"",""trial"",""time""
""fullscreenenter"",""1"",""2058""
","
","","","","","","2089.199999988079","<p> You earned -18 points in the practice round! </p>","0","","break","","","","","","","","","","",""
"learning-instructions","50","254587","0.0-8.0-4.0-0.0","4500","2","15","Female","approach_avoid_spark_v1","""event"",""trial"",""time""
""fullscreenenter"",""1"",""2058""
","
","
","""event"",""trial"",""time""
""fullscreenenter"",""1"",""2058""
","
","","","","","","1091.0999999940395","<p> It's almost time to start the real game. </p><p> Before you start, we're going to ask you a few questions about how the game works. </p>","","0","instructions","","","","","","","","","","",""
"preload","51","256564","0.0-8.0-5.0","4500","2","15","Female","approach_avoid_spark_v1","""event"",""trial"",""time""
""fullscreenenter"",""1"",""2058""
","
","
","""event"",""trial"",""time""
""fullscreenenter"",""1"",""2058""
","
","true","false","[]","[]","[]","","","","","","","","","","","","","","","",""
"comp-q","52","265211","0.0-8.0-6.0-0.0","4500","2","15","Female","approach_avoid_spark_v1","""event"",""trial"",""time""
""fullscreenenter"",""1"",""2058""
","
","
","""event"",""trial"",""time""
""fullscreenenter"",""1"",""2058""
","
","","","","","","3644.4000000059605","<p> <b> True or False? </b> </p><p> If you see a number in GREY, that means you earned that many points. </p>","","1","comp_question","","","","","","","","","true","",""
"comp-q","53","275072","0.0-8.0-6.0-1.0","4500","2","15","Female","approach_avoid_spark_v1","""event"",""trial"",""time""
""fullscreenenter"",""1"",""2058""
","
","
","""event"",""trial"",""time""
""fullscreenenter"",""1"",""2058""
","
","","","","","","1486.5","<p><b> That's right! </b> If you see a grey number, it means you earned ZERO points. <br> The grey numbers show the points you WOULD HAVE earned if you had made the other choice. </p>","","0","comp_answer","","","","","","","","","","",""
"comp-q","54","280424","0.0-8.0-7.0-0.0","4500","2","15","Female","approach_avoid_spark_v1","""event"",""trial"",""time""
""fullscreenenter"",""1"",""2058""
","
","
","""event"",""trial"",""time""
""fullscreenenter"",""1"",""2058""
","
","","","","","","658.3000000119209","<p> <b> True or False? </b> </p><p> You will have as much time as you want to make each choice. </p>","","1","comp_question","","","","","","","","","true","",""
"comp-q","55","285352","0.0-8.0-7.0-1.0","4500","2","15","Female","approach_avoid_spark_v1","""event"",""trial"",""time""
""fullscreenenter"",""1"",""2058""
","
","
","""event"",""trial"",""time""
""fullscreenenter"",""1"",""2058""
","
","","","","","","886.7999999821186","<p> <b> That's right! </b> You will only have 3 seconds to make each choice. </p>","","0","comp_answer","","","","","","","","","","",""
"comp-q","56","291172","0.0-8.0-8.0-0.0","4500","2","15","Female","approach_avoid_spark_v1","""event"",""trial"",""time""
""fullscreenenter"",""1"",""2058""
","
","
","""event"",""trial"",""time""
""fullscreenenter"",""1"",""2058""
","
","","","","","","1155.9000000059605","<p> <b> True or False? </b> </p><p> You should use the '1' and '0' keys to make your choices. </p>","","0","comp_question","","","","","","","","","true","",""
"comp-q","57","297219","0.0-8.0-8.0-1.0","4500","2","15","Female","approach_avoid_spark_v1","""event"",""trial"",""time""
""fullscreenenter"",""1"",""2058""
","
","
","""event"",""trial"",""time""
""fullscreenenter"",""1"",""2058""
","
","","","","","","1423.800000011921","<p> <b> That's right! </b> You should use the '1' and '0' keys to make each choice. </p>","","0","comp_answer","","","","","","","","","","",""
"learning-instructions","58","305609","0.0-8.0-9.0-0.0","4500","2","15","Female","approach_avoid_spark_v1","""event"",""trial"",""time""
""fullscreenenter"",""1"",""2058""
","
","
","""event"",""trial"",""time""
""fullscreenenter"",""1"",""2058""
","
","","","","","","2113.2000000178814","<p> It's now time to start the real game. </p>Do your best, because the points you earn in the next rounds will influence your bonus payment. </p>","","0","instructions","","","","","","","","","","",""
"preload","59","305747","0.0-9.0-0.0","4500","2","15","Female","approach_avoid_spark_v1","""event"",""trial"",""time""
""fullscreenenter"",""1"",""2058""
","
","
","""event"",""trial"",""time""
""fullscreenenter"",""1"",""2058""
","
","true","false","[]","[]","[]","","","","","","","","","","","","","","","",""
"learning-instructions","60","312165","0.0-9.0-1.0-0.0","4500","2","15","Female","approach_avoid_spark_v1","""event"",""trial"",""time""
""fullscreenenter"",""1"",""2058""
","
","
","""event"",""trial"",""time""
""fullscreenenter"",""1"",""2058""
","
","","","","","","2369.300000011921","<p> Your goal in this round is to take care of lots of animals. </p></div>","","0","instructions","","","","","","","","","","",""
"learning-instructions","61","322995","0.0-9.0-1.0-0.1","4500","2","15","Female","approach_avoid_spark_v1","""event"",""trial"",""time""
""fullscreenenter"",""1"",""2058""
","
","
","""event"",""trial"",""time""
""fullscreenenter"",""1"",""2058""
","
","","","","","","1268.4000000059605","<p> Some animals want to be pet, while other animals want to be left alone.  </p><p> On each turn, you will see an animal.   </p><p> You need to decide whether to pet it or not.  </p>","","0","instructions","","","","","","","","","","",""
"learning-instructions","62","329825","0.0-9.0-1.0-0.2","4500","2","15","Female","approach_avoid_spark_v1","""event"",""trial"",""time""
""fullscreenenter"",""1"",""2058""
","
","
","""event"",""trial"",""time""
""fullscreenenter"",""1"",""2058""
","
","","","","","","1729.199999988079","<p> You can pet the animal by pressing 1 and leave the animal alone by pressing 0. </p><br><div class=""choice-instructions-grid""> <div class=""choice-option""><img src=""images/approach.png"" class=""choice-option-img"" stage=""instructions"" position=""0"" ><div class=""choice-option-text""> Press ""1."" </div></div><div class=""choice-option""><img src=""images/avoid.png"" class=""choice-option-img"" stage=""instructions"" position=""1"" ><div class=""choice-option-text""> Press ""0."" </div></div>","","0","instructions","","","","","","","","","","",""
"learning-instructions","63","342153","0.0-9.0-1.0-0.3","4500","2","15","Female","approach_avoid_spark_v1","""event"",""trial"",""time""
""fullscreenenter"",""1"",""2058""
","
","
","""event"",""trial"",""time""
""fullscreenenter"",""1"",""2058""
","
","","","","","","3336.0999999940395","<p> If you pet an animal that wants to be pet, you will make it feel happy! </p><p> But if you pet an animal that wants to be left alone, you will make it feel angry. </p>","","0","instructions","","","","","","","","","","",""
"learning-instructions","64","355388","0.0-9.0-1.0-0.4","4500","2","15","Female","approach_avoid_spark_v1","""event"",""trial"",""time""
""fullscreenenter"",""1"",""2058""
","
","
","""event"",""trial"",""time""
""fullscreenenter"",""1"",""2058""
","
","","","","","","990.3999999761581","<p> You will earn points based on how you made the animal feel. </p><p> If you made it feel happy, you will WIN anywhere from 1 - 9 points, </p><p> but if you made it feel angry, you will LOSE anywhere from 1 - 9 points. </p>","","0","instructions","","","","","","","","","","",""
"learning-instructions","65","365029","0.0-9.0-1.0-0.5","4500","2","15","Female","approach_avoid_spark_v1","""event"",""trial"",""time""
""fullscreenenter"",""1"",""2058""
","
","
","""event"",""trial"",""time""
""fullscreenenter"",""1"",""2058""
","
","","","","","","1771.0999999940395","<p> You will see how many points you won or lost in the center of the screen. </p><p> Here is what you would see if you won 5 points: </p><p style=""color:green;font-size:50px;font-weight:bolder"">5</p>","","0","instructions","","","","","","","","","","",""
"learning-instructions","66","369591","0.0-9.0-1.0-0.6","4500","2","15","Female","approach_avoid_spark_v1","""event"",""trial"",""time""
""fullscreenenter"",""1"",""2058""
","
","
","""event"",""trial"",""time""
""fullscreenenter"",""1"",""2058""
","
","","","","","","833.9000000059605","<p> And here is what you would see if you lost 3 points: </p><p style=""color:red;font-size:50px;font-weight:bolder"">-3</p>","","0","instructions","","","","","","","","","","",""
"learning-instructions","67","384255","0.0-9.0-1.0-0.7","4500","2","15","Female","approach_avoid_spark_v1","""event"",""trial"",""time""
""fullscreenenter"",""1"",""2058""
","
","
","""event"",""trial"",""time""
""fullscreenenter"",""1"",""2058""
","
","","","","","","777.1999999880791","<p> Some animals will become very happy or very angry. </p><p> These animals will make you win or lose LOTS of points. </p><p> Other animals have less strong feelings. </p><p> These animals will make you win or lose small amounts of points. </p>","","0","instructions","","","","","","","","","","",""
"learning-instructions","68","396534","0.0-9.0-1.0-0.8","4500","2","15","Female","approach_avoid_spark_v1","""event"",""trial"",""time""
""fullscreenenter"",""1"",""2058""
","
","
","""event"",""trial"",""time""
""fullscreenenter"",""1"",""2058""
","
","","","","","","1246.7999999821186","<p> If you choose to leave the animal alone, you will not win or lose any points. </p><p>  However, in the center of the screen, you will see the number of points you WOULD HAVE won or lost if you had pet the animal. </p>","","0","instructions","","","","","","","","","","",""
"learning-instructions","69","412530","0.0-9.0-1.0-0.9","4500","2","15","Female","approach_avoid_spark_v1","""event"",""trial"",""time""
""fullscreenenter"",""1"",""2058""
","
","
","""event"",""trial"",""time""
""fullscreenenter"",""1"",""2058""
","
","","","","","","583.5999999940395","<p> Here is what you might see if you did not pet the animal but the animal wanted to be pet: </p><p style=""color:grey; font-size:50px; display: inline-block; border-spacing: 15px; border-width:3px; border-style:solid; border-color:red"">  &nbsp; 6 &nbsp; </p><p> Remember, in this case, you would not win or lose ANY points because you did not pet the animal.  </p>","","0","instructions","","","","","","","","","","",""
"learning-instructions","70","421971","0.0-9.0-1.0-0.10","4500","2","15","Female","approach_avoid_spark_v1","""event"",""trial"",""time""
""fullscreenenter"",""1"",""2058""
","
","
","""event"",""trial"",""time""
""fullscreenenter"",""1"",""2058""
","
","","","","","","944.5","<p> Try to make the best choice for each animal because </p><p> at the end of the game, you will earn bonus money based on how many points you earned. </p>","","0","instructions","","","","","","","","","","",""
"learning-instructions","71","430751","0.0-9.0-1.0-0.11","4500","2","15","Female","approach_avoid_spark_v1","""event"",""trial"",""time""
""fullscreenenter"",""1"",""2058""
","
","
","""event"",""trial"",""time""
""fullscreenenter"",""1"",""2058""
","
","","","","","","574.6999999880791","<p> You will have 3 seconds to make each choice. Try to respond before time runs out! </p><p> You will lose 5 points each time you do not make a response. </p>","","0","instructions","","","","","","","","","","",""
"html-keyboard-response","72","431366","0.0-9.0-2.0-0.0","4500","2","15","Female","approach_avoid_spark_v1","""event"",""trial"",""time""
""fullscreenenter"",""1"",""2058""
","
","
","""event"",""trial"",""time""
""fullscreenenter"",""1"",""2058""
","
","","","","","","null","<div style=""font-size:60px;"">+</div>","null","","fixation","","","","","","","","","","",""
"aa-learning-trial","73","434384","0.0-9.0-2.0-1.0","4500","2","15","Female","approach_avoid_spark_v1","""event"",""trial"",""time""
""fullscreenenter"",""1"",""2058""
","
","
","""event"",""trial"",""time""
""fullscreenenter"",""1"",""2058""
","
","","","","","","1118.800000011921","images/dog5.png","","","learning","-3","-3","1","1","dog","pets","2","0","","neutral","0"
"html-keyboard-response","74","434899","0.0-9.0-2.0-0.1","4500","2","15","Female","approach_avoid_spark_v1","""event"",""trial"",""time""
""fullscreenenter"",""1"",""2058""
","
","
","""event"",""trial"",""time""
""fullscreenenter"",""1"",""2058""
","
","","","","","","null","<div style=""font-size:60px;"">+</div>","null","","fixation","","","","","","","","","","",""
"aa-learning-trial","75","437906","0.0-9.0-2.0-1.1","4500","2","15","Female","approach_avoid_spark_v1","""event"",""trial"",""time""
""fullscreenenter"",""1"",""2058""
","
","
","""event"",""trial"",""time""
""fullscreenenter"",""1"",""2058""
","
","","","","","","728.0999999940395","images/rabbit4.png","","","learning","-9","-9","1","1","rabbit","pets","2","0","","good","[3]"
"html-keyboard-response","76","438420","0.0-9.0-2.0-0.2","4500","2","15","Female","approach_avoid_spark_v1","""event"",""trial"",""time""
""fullscreenenter"",""1"",""2058""
","
","
","""event"",""trial"",""time""
""fullscreenenter"",""1"",""2058""
","
","","","","","","null","<div style=""font-size:60px;"">+</div>","null","","fixation","","","","","","","","","","",""
"aa-learning-trial","77","441438","0.0-9.0-2.0-1.2","4500","2","15","Female","approach_avoid_spark_v1","""event"",""trial"",""time""
""fullscreenenter"",""1"",""2058""
","
","
","""event"",""trial"",""time""
""fullscreenenter"",""1"",""2058""
","
","","","","","","585.4000000059605","images/dog5.png","","","learning","-3","-3","1","1","dog","pets","2","0","","neutral","0"
"html-keyboard-response","78","441950","0.0-9.0-2.0-0.3","4500","2","15","Female","approach_avoid_spark_v1","""event"",""trial"",""time""
""fullscreenenter"",""1"",""2058""
","
","
","""event"",""trial"",""time""
""fullscreenenter"",""1"",""2058""
","
","","","","","","null","<div style=""font-size:60px;"">+</div>","null","","fixation","","","","","","","","","","",""
"aa-learning-trial","79","444968","0.0-9.0-2.0-1.3","4500","2","15","Female","approach_avoid_spark_v1","""event"",""trial"",""time""
""fullscreenenter"",""1"",""2058""
","
","
","""event"",""trial"",""time""
""fullscreenenter"",""1"",""2058""
","
","","","","","","655.5","images/dog6.png","","","learning","-8","-8","1","1","dog","pets","2","0","","neutral","0"
"html-keyboard-response","80","445486","0.0-9.0-2.0-0.4","4500","2","15","Female","approach_avoid_spark_v1","""event"",""trial"",""time""
""fullscreenenter"",""1"",""2058""
","
","
","""event"",""trial"",""time""
""fullscreenenter"",""1"",""2058""
","
","","","","","","null","<div style=""font-size:60px;"">+</div>","null","","fixation","","","","","","","","","","",""
"aa-learning-trial","81","448497","0.0-9.0-2.0-1.4","4500","2","15","Female","approach_avoid_spark_v1","""event"",""trial"",""time""
""fullscreenenter"",""1"",""2058""
","
","
","""event"",""trial"",""time""
""fullscreenenter"",""1"",""2058""
","
","","","","","","1249.4000000059605","images/cat6.png","","","learning","-5","-5","1","1","cat","pets","2","0","","bad","[-4]"
"html-keyboard-response","82","449012","0.0-9.0-2.0-0.5","4500","2","15","Female","approach_avoid_spark_v1","""event"",""trial"",""time""
""fullscreenenter"",""1"",""2058""
","
","
","""event"",""trial"",""time""
""fullscreenenter"",""1"",""2058""
","
","","","","","","null","<div style=""font-size:60px;"">+</div>","null","","fixation","","","","","","","","","","",""
"aa-learning-trial","83","452030","0.0-9.0-2.0-1.5","4500","2","15","Female","approach_avoid_spark_v1","""event"",""trial"",""time""
""fullscreenenter"",""1"",""2058""
","
","
","""event"",""trial"",""time""
""fullscreenenter"",""1"",""2058""
","
","","","","","","533.2999999821186","images/cat6.png","","","learning","-5","0","0","0","cat","pets","2","0","","bad","[-4]"
"html-keyboard-response","84","452543","0.0-9.0-2.0-0.6","4500","2","15","Female","approach_avoid_spark_v1","""event"",""trial"",""time""
""fullscreenenter"",""1"",""2058""
","
","
","""event"",""trial"",""time""
""fullscreenenter"",""1"",""2058""
","
","","","","","","null","<div style=""font-size:60px;"">+</div>","null","","fixation","","","","","","","","","","",""
"aa-learning-trial","85","455553","0.0-9.0-2.0-1.6","4500","2","15","Female","approach_avoid_spark_v1","""event"",""trial"",""time""
""fullscreenenter"",""1"",""2058""
","
","
","""event"",""trial"",""time""
""fullscreenenter"",""1"",""2058""
","
","","","","","","1141.9000000059605","images/cat5.png","","","learning","4","4","1","1","cat","pets","2","0","","bad","[-4]"
"html-keyboard-response","86","456068","0.0-9.0-2.0-0.7","4500","2","15","Female","approach_avoid_spark_v1","""event"",""trial"",""time""
""fullscreenenter"",""1"",""2058""
","
","
","""event"",""trial"",""time""
""fullscreenenter"",""1"",""2058""
","
","","","","","","null","<div style=""font-size:60px;"">+</div>","null","","fixation","","","","","","","","","","",""
"aa-learning-trial","87","459078","0.0-9.0-2.0-1.7","4500","2","15","Female","approach_avoid_spark_v1","""event"",""trial"",""time""
""fullscreenenter"",""1"",""2058""
","
","
","""event"",""trial"",""time""
""fullscreenenter"",""1"",""2058""
","
","","","","","","938.3999999761581","images/rabbit1.png","","","learning","9","9","1","1","rabbit","pets","2","0","","good","[3]"
"html-keyboard-response","88","459587","0.0-9.0-2.0-0.8","4500","2","15","Female","approach_avoid_spark_v1","""event"",""trial"",""time""
""fullscreenenter"",""1"",""2058""
","
","
","""event"",""trial"",""time""
""fullscreenenter"",""1"",""2058""
","
","","","","","","null","<div style=""font-size:60px;"">+</div>","null","","fixation","","","","","","","","","","",""
"aa-learning-trial","89","462598","0.0-9.0-2.0-1.8","4500","2","15","Female","approach_avoid_spark_v1","""event"",""trial"",""time""
""fullscreenenter"",""1"",""2058""
","
","
","""event"",""trial"",""time""
""fullscreenenter"",""1"",""2058""
","
","","","","","","678.7000000178814","images/cat7.png","","","learning","-1","-1","1","1","cat","pets","2","0","","bad","[-4]"
"html-keyboard-response","90","463102","0.0-9.0-2.0-0.9","4500","2","15","Female","approach_avoid_spark_v1","""event"",""trial"",""time""
""fullscreenenter"",""1"",""2058""
","
","
","""event"",""trial"",""time""
""fullscreenenter"",""1"",""2058""
","
","","","","","","null","<div style=""font-size:60px;"">+</div>","null","","fixation","","","","","","","","","","",""
"aa-learning-trial","91","466110","0.0-9.0-2.0-1.9","4500","2","15","Female","approach_avoid_spark_v1","""event"",""trial"",""time""
""fullscreenenter"",""1"",""2058""
","
","
","""event"",""trial"",""time""
""fullscreenenter"",""1"",""2058""
","
","","","","","","884.2000000178814","images/rabbit2.png","","","learning","3","0","0","0","rabbit","pets","2","0","","good","[3]"
"html-keyboard-response","92","466614","0.0-9.0-2.0-0.10","4500","2","15","Female","approach_avoid_spark_v1","""event"",""trial"",""time""
""fullscreenenter"",""1"",""2058""
","
","
","""event"",""trial"",""time""
""fullscreenenter"",""1"",""2058""
","
","","","","","","null","<div style=""font-size:60px;"">+</div>","null","","fixation","","","","","","","","","","",""
"aa-learning-trial","93","469622","0.0-9.0-2.0-1.10","4500","2","15","Female","approach_avoid_spark_v1","""event"",""trial"",""time""
""fullscreenenter"",""1"",""2058""
","
","
","""event"",""trial"",""time""
""fullscreenenter"",""1"",""2058""
","
","","","","","","741.6999999880791","images/dog6.png","","","learning","-8","-8","1","1","dog","pets","2","0","","neutral","0"
"html-keyboard-response","94","470126","0.0-9.0-2.0-0.11","4500","2","15","Female","approach_avoid_spark_v1","""event"",""trial"",""time""
""fullscreenenter"",""1"",""2058""
","
","
","""event"",""trial"",""time""
""fullscreenenter"",""1"",""2058""
","
","","","","","","null","<div style=""font-size:60px;"">+</div>","null","","fixation","","","","","","","","","","",""
"aa-learning-trial","95","473135","0.0-9.0-2.0-1.11","4500","2","15","Female","approach_avoid_spark_v1","""event"",""trial"",""time""
""fullscreenenter"",""1"",""2058""
","
","
","""event"",""trial"",""time""
""fullscreenenter"",""1"",""2058""
","
","","","","","","1309.699999988079","images/rabbit1.png","","","learning","9","9","1","1","rabbit","pets","2","0","","good","[3]"
"html-keyboard-response","96","473638","0.0-9.0-2.0-0.12","4500","2","15","Female","approach_avoid_spark_v1","""event"",""trial"",""time""
""fullscreenenter"",""1"",""2058""
","
","
","""event"",""trial"",""time""
""fullscreenenter"",""1"",""2058""
","
","","","","","","null","<div style=""font-size:60px;"">+</div>","null","","fixation","","","","","","","","","","",""
"aa-learning-trial","97","476645","0.0-9.0-2.0-1.12","4500","2","15","Female","approach_avoid_spark_v1","""event"",""trial"",""time""
""fullscreenenter"",""1"",""2058""
","
","
","""event"",""trial"",""time""
""fullscreenenter"",""1"",""2058""
","
","","","","","","657.9000000059605","images/rabbit2.png","","","learning","3","0","0","0","rabbit","pets","2","0","","good","[3]"
"html-keyboard-response","98","477150","0.0-9.0-2.0-0.13","4500","2","15","Female","approach_avoid_spark_v1","""event"",""trial"",""time""
""fullscreenenter"",""1"",""2058""
","
","
","""event"",""trial"",""time""
""fullscreenenter"",""1"",""2058""
","
","","","","","","null","<div style=""font-size:60px;"">+</div>","null","","fixation","","","","","","","","","","",""
"aa-learning-trial","99","480160","0.0-9.0-2.0-1.13","4500","2","15","Female","approach_avoid_spark_v1","""event"",""trial"",""time""
""fullscreenenter"",""1"",""2058""
","
","
","""event"",""trial"",""time""
""fullscreenenter"",""1"",""2058""
","
","","","","","","706.9000000059605","images/dog3.png","","","learning","6","6","1","1","dog","pets","2","0","","neutral","0"
"html-keyboard-response","100","480662","0.0-9.0-2.0-0.14","4500","2","15","Female","approach_avoid_spark_v1","""event"",""trial"",""time""
""fullscreenenter"",""1"",""2058""
","
","
","""event"",""trial"",""time""
""fullscreenenter"",""1"",""2058""
","
","","","","","","null","<div style=""font-size:60px;"">+</div>","null","","fixation","","","","","","","","","","",""
"aa-learning-trial","101","483670","0.0-9.0-2.0-1.14","4500","2","15","Female","approach_avoid_spark_v1","""event"",""trial"",""time""
""fullscreenenter"",""1"",""2058""
","
","
","""event"",""trial"",""time""
""fullscreenenter"",""1"",""2058""
","
","","","","","","762.9000000059605","images/cat5.png","","","learning","4","4","1","1","cat","pets","2","0","","bad","[-4]"
"html-keyboard-response","102","484173","0.0-9.0-2.0-0.15","4500","2","15","Female","approach_avoid_spark_v1","""event"",""trial"",""time""
""fullscreenenter"",""1"",""2058""
","
","
","""event"",""trial"",""time""
""fullscreenenter"",""1"",""2058""
","
","","","","","","null","<div style=""font-size:60px;"">+</div>","null","","fixation","","","","","","","","","","",""
"aa-learning-trial","103","487182","0.0-9.0-2.0-1.15","4500","2","15","Female","approach_avoid_spark_v1","""event"",""trial"",""time""
""fullscreenenter"",""1"",""2058""
","
","
","""event"",""trial"",""time""
""fullscreenenter"",""1"",""2058""
","
","","","","","","1012.5","images/rabbit1.png","","","learning","9","9","1","1","rabbit","pets","2","0","","good","[3]"
"html-keyboard-response","104","487685","0.0-9.0-2.0-0.16","4500","2","15","Female","approach_avoid_spark_v1","""event"",""trial"",""time""
""fullscreenenter"",""1"",""2058""
","
","
","""event"",""trial"",""time""
""fullscreenenter"",""1"",""2058""
","
","","","","","","null","<div style=""font-size:60px;"">+</div>","null","","fixation","","","","","","","","","","",""
"aa-learning-trial","105","490694","0.0-9.0-2.0-1.16","4500","2","15","Female","approach_avoid_spark_v1","""event"",""trial"",""time""
""fullscreenenter"",""1"",""2058""
","
","
","""event"",""trial"",""time""
""fullscreenenter"",""1"",""2058""
","
","","","","","","781.0999999940395","images/dog5.png","","","learning","-3","0","0","0","dog","pets","2","0","","neutral","0"
"html-keyboard-response","106","491198","0.0-9.0-2.0-0.17","4500","2","15","Female","approach_avoid_spark_v1","""event"",""trial"",""time""
""fullscreenenter"",""1"",""2058""
","
","
","""event"",""trial"",""time""
""fullscreenenter"",""1"",""2058""
","
","","","","","","null","<div style=""font-size:60px;"">+</div>","null","","fixation","","","","","","","","","","",""
"aa-learning-trial","107","494206","0.0-9.0-2.0-1.17","4500","2","15","Female","approach_avoid_spark_v1","""event"",""trial"",""time""
""fullscreenenter"",""1"",""2058""
","
","
","""event"",""trial"",""time""
""fullscreenenter"",""1"",""2058""
","
","","","","","","1348.4000000059605","images/rabbit1.png","","","learning","9","9","1","1","rabbit","pets","2","0","","good","[3]"
"html-keyboard-response","108","494710","0.0-9.0-2.0-0.18","4500","2","15","Female","approach_avoid_spark_v1","""event"",""trial"",""time""
""fullscreenenter"",""1"",""2058""
","
","
","""event"",""trial"",""time""
""fullscreenenter"",""1"",""2058""
","
","","","","","","null","<div style=""font-size:60px;"">+</div>","null","","fixation","","","","","","","","","","",""
"aa-learning-trial","109","497718","0.0-9.0-2.0-1.18","4500","2","15","Female","approach_avoid_spark_v1","""event"",""trial"",""time""
""fullscreenenter"",""1"",""2058""
","
","
","""event"",""trial"",""time""
""fullscreenenter"",""1"",""2058""
","
","","","","","","1286.7000000178814","images/rabbit4.png","","","learning","-9","-9","1","1","rabbit","pets","2","0","","good","[3]"
"html-keyboard-response","110","498222","0.0-9.0-2.0-0.19","4500","2","15","Female","approach_avoid_spark_v1","""event"",""trial"",""time""
""fullscreenenter"",""1"",""2058""
","
","
","""event"",""trial"",""time""
""fullscreenenter"",""1"",""2058""
","
","","","","","","null","<div style=""font-size:60px;"">+</div>","null","","fixation","","","","","","","","","","",""
"aa-learning-trial","111","501229","0.0-9.0-2.0-1.19","4500","2","15","Female","approach_avoid_spark_v1","""event"",""trial"",""time""
""fullscreenenter"",""1"",""2058""
","
","
","""event"",""trial"",""time""
""fullscreenenter"",""1"",""2058""
","
","","","","","","1485.2999999821186","images/cat6.png","","","learning","-5","0","0","0","cat","pets","2","0","","bad","[-4]"
"html-keyboard-response","112","501734","0.0-9.0-2.0-0.20","4500","2","15","Female","approach_avoid_spark_v1","""event"",""trial"",""time""
""fullscreenenter"",""1"",""2058""
","
","
","""event"",""trial"",""time""
""fullscreenenter"",""1"",""2058""
","
","","","","","","null","<div style=""font-size:60px;"">+</div>","null","","fixation","","","","","","","","","","",""
"aa-learning-trial","113","504742","0.0-9.0-2.0-1.20","4500","2","15","Female","approach_avoid_spark_v1","""event"",""trial"",""time""
""fullscreenenter"",""1"",""2058""
","
","
","""event"",""trial"",""time""
""fullscreenenter"",""1"",""2058""
","
","","","","","","972.0999999940395","images/cat4.png","","","learning","8","8","1","1","cat","pets","2","0","","bad","[-4]"
"html-keyboard-response","114","505246","0.0-9.0-2.0-0.21","4500","2","15","Female","approach_avoid_spark_v1","""event"",""trial"",""time""
""fullscreenenter"",""1"",""2058""
","
","
","""event"",""trial"",""time""
""fullscreenenter"",""1"",""2058""
","
","","","","","","null","<div style=""font-size:60px;"">+</div>","null","","fixation","","","","","","","","","","",""
"aa-learning-trial","115","508253","0.0-9.0-2.0-1.21","4500","2","15","Female","approach_avoid_spark_v1","""event"",""trial"",""time""
""fullscreenenter"",""1"",""2058""
","
","
","""event"",""trial"",""time""
""fullscreenenter"",""1"",""2058""
","
","","","","","","750.8000000119209","images/dog6.png","","","learning","-8","0","0","0","dog","pets","2","0","","neutral","0"
"html-keyboard-response","116","508758","0.0-9.0-2.0-0.22","4500","2","15","Female","approach_avoid_spark_v1","""event"",""trial"",""time""
""fullscreenenter"",""1"",""2058""
","
","
","""event"",""trial"",""time""
""fullscreenenter"",""1"",""2058""
","
","","","","","","null","<div style=""font-size:60px;"">+</div>","null","","fixation","","","","","","","","","","",""
"aa-learning-trial","117","511766","0.0-9.0-2.0-1.22","4500","2","15","Female","approach_avoid_spark_v1","""event"",""trial"",""time""
""fullscreenenter"",""1"",""2058""
","
","
","""event"",""trial"",""time""
""fullscreenenter"",""1"",""2058""
","
","","","","","","1978.2999999821186","images/dog3.png","","","learning","6","6","1","1","dog","pets","2","0","","neutral","0"
"html-keyboard-response","118","512269","0.0-9.0-2.0-0.23","4500","2","15","Female","approach_avoid_spark_v1","""event"",""trial"",""time""
""fullscreenenter"",""1"",""2058""
","
","
","""event"",""trial"",""time""
""fullscreenenter"",""1"",""2058""
","
","","","","","","null","<div style=""font-size:60px;"">+</div>","null","","fixation","","","","","","","","","","",""
"aa-learning-trial","119","515278","0.0-9.0-2.0-1.23","4500","2","15","Female","approach_avoid_spark_v1","""event"",""trial"",""time""
""fullscreenenter"",""1"",""2058""
","
","
","""event"",""trial"",""time""
""fullscreenenter"",""1"",""2058""
","
","","","","","","1197","images/cat5.png","","","learning","4","4","1","1","cat","pets","2","0","","bad","[-4]"
"html-keyboard-response","120","515782","0.0-9.0-2.0-0.24","4500","2","15","Female","approach_avoid_spark_v1","""event"",""trial"",""time""
""fullscreenenter"",""1"",""2058""
","
","
","""event"",""trial"",""time""
""fullscreenenter"",""1"",""2058""
","
","","","","","","null","<div style=""font-size:60px;"">+</div>","null","","fixation","","","","","","","","","","",""
"aa-learning-trial","121","518790","0.0-9.0-2.0-1.24","4500","2","15","Female","approach_avoid_spark_v1","""event"",""trial"",""time""
""fullscreenenter"",""1"",""2058""
","
","
","""event"",""trial"",""time""
""fullscreenenter"",""1"",""2058""
","
","","","","","","864","images/rabbit1.png","","","learning","9","9","1","1","rabbit","pets","2","0","","good","[3]"
"html-keyboard-response","122","519294","0.0-9.0-2.0-0.25","4500","2","15","Female","approach_avoid_spark_v1","""event"",""trial"",""time""
""fullscreenenter"",""1"",""2058""
","
","
","""event"",""trial"",""time""
""fullscreenenter"",""1"",""2058""
","
","","","","","","null","<div style=""font-size:60px;"">+</div>","null","","fixation","","","","","","","","","","",""
"aa-learning-trial","123","522302","0.0-9.0-2.0-1.25","4500","2","15","Female","approach_avoid_spark_v1","""event"",""trial"",""time""
""fullscreenenter"",""1"",""2058""
","
","
","""event"",""trial"",""time""
""fullscreenenter"",""1"",""2058""
","
","","","","","","643.3000000119209","images/dog5.png","","","learning","-3","0","0","0","dog","pets","2","0","","neutral","0"
"html-keyboard-response","124","522807","0.0-9.0-2.0-0.26","4500","2","15","Female","approach_avoid_spark_v1","""event"",""trial"",""time""
""fullscreenenter"",""1"",""2058""
","
","
","""event"",""trial"",""time""
""fullscreenenter"",""1"",""2058""
","
","","","","","","null","<div style=""font-size:60px;"">+</div>","null","","fixation","","","","","","","","","","",""
"aa-learning-trial","125","525820","0.0-9.0-2.0-1.26","4500","2","15","Female","approach_avoid_spark_v1","""event"",""trial"",""time""
""fullscreenenter"",""1"",""2058""
","
","
","""event"",""trial"",""time""
""fullscreenenter"",""1"",""2058""
","
","","","","","","1079.9000000059605","images/rabbit2.png","","","learning","3","0","0","0","rabbit","pets","2","0","","good","[3]"
"html-keyboard-response","126","526326","0.0-9.0-2.0-0.27","4500","2","15","Female","approach_avoid_spark_v1","""event"",""trial"",""time""
""fullscreenenter"",""1"",""2058""
","
","
","""event"",""trial"",""time""
""fullscreenenter"",""1"",""2058""
","
","","","","","","null","<div style=""font-size:60px;"">+</div>","null","","fixation","","","","","","","","","","",""
"aa-learning-trial","127","529334","0.0-9.0-2.0-1.27","4500","2","15","Female","approach_avoid_spark_v1","""event"",""trial"",""time""
""fullscreenenter"",""1"",""2058""
","
","
","""event"",""trial"",""time""
""fullscreenenter"",""1"",""2058""
","
","","","","","","720.0999999940395","images/rabbit2.png","","","learning","3","3","1","1","rabbit","pets","2","0","","good","[3]"
"html-keyboard-response","128","529838","0.0-9.0-2.0-0.28","4500","2","15","Female","approach_avoid_spark_v1","""event"",""trial"",""time""
""fullscreenenter"",""1"",""2058""
","
","
","""event"",""trial"",""time""
""fullscreenenter"",""1"",""2058""
","
","","","","","","null","<div style=""font-size:60px;"">+</div>","null","","fixation","","","","","","","","","","",""
"aa-learning-trial","129","532846","0.0-9.0-2.0-1.28","4500","2","15","Female","approach_avoid_spark_v1","""event"",""trial"",""time""
""fullscreenenter"",""1"",""2058""
","
","
","""event"",""trial"",""time""
""fullscreenenter"",""1"",""2058""
","
","","","","","","878.4000000059605","images/dog8.png","","","learning","1","1","1","1","dog","pets","2","0","","neutral","0"
"html-keyboard-response","130","533350","0.0-9.0-2.0-0.29","4500","2","15","Female","approach_avoid_spark_v1","""event"",""trial"",""time""
""fullscreenenter"",""1"",""2058""
","
","
","""event"",""trial"",""time""
""fullscreenenter"",""1"",""2058""
","
","","","","","","null","<div style=""font-size:60px;"">+</div>","null","","fixation","","","","","","","","","","",""
"aa-learning-trial","131","536358","0.0-9.0-2.0-1.29","4500","2","15","Female","approach_avoid_spark_v1","""event"",""trial"",""time""
""fullscreenenter"",""1"",""2058""
","
","
","""event"",""trial"",""time""
""fullscreenenter"",""1"",""2058""
","
","","","","","","597.8000000119209","images/cat5.png","","","learning","4","4","1","1","cat","pets","2","0","","bad","[-4]"
"html-keyboard-response","132","536862","0.0-9.0-2.0-0.30","4500","2","15","Female","approach_avoid_spark_v1","""event"",""trial"",""time""
""fullscreenenter"",""1"",""2058""
","
","
","""event"",""trial"",""time""
""fullscreenenter"",""1"",""2058""
","
","","","","","","null","<div style=""font-size:60px;"">+</div>","null","","fixation","","","","","","","","","","",""
"aa-learning-trial","133","539870","0.0-9.0-2.0-1.30","4500","2","15","Female","approach_avoid_spark_v1","""event"",""trial"",""time""
""fullscreenenter"",""1"",""2058""
","
","
","""event"",""trial"",""time""
""fullscreenenter"",""1"",""2058""
","
","","","","","","714.0999999940395","images/dog6.png","","","learning","-8","0","0","0","dog","pets","2","0","","neutral","0"
"html-keyboard-response","134","540374","0.0-9.0-2.0-0.31","4500","2","15","Female","approach_avoid_spark_v1","""event"",""trial"",""time""
""fullscreenenter"",""1"",""2058""
","
","
","""event"",""trial"",""time""
""fullscreenenter"",""1"",""2058""
","
","","","","","","null","<div style=""font-size:60px;"">+</div>","null","","fixation","","","","","","","","","","",""
"aa-learning-trial","135","543383","0.0-9.0-2.0-1.31","4500","2","15","Female","approach_avoid_spark_v1","""event"",""trial"",""time""
""fullscreenenter"",""1"",""2058""
","
","
","""event"",""trial"",""time""
""fullscreenenter"",""1"",""2058""
","
","","","","","","881.8999999761581","images/dog5.png","","","learning","-3","0","0","0","dog","pets","2","0","","neutral","0"
"html-keyboard-response","136","543886","0.0-9.0-2.0-0.32","4500","2","15","Female","approach_avoid_spark_v1","""event"",""trial"",""time""
""fullscreenenter"",""1"",""2058""
","
","
","""event"",""trial"",""time""
""fullscreenenter"",""1"",""2058""
","
","","","","","","null","<div style=""font-size:60px;"">+</div>","null","","fixation","","","","","","","","","","",""
"aa-learning-trial","137","546894","0.0-9.0-2.0-1.32","4500","2","15","Female","approach_avoid_spark_v1","""event"",""trial"",""time""
""fullscreenenter"",""1"",""2058""
","
","
","""event"",""trial"",""time""
""fullscreenenter"",""1"",""2058""
","
","","","","","","720.5","images/cat7.png","","","learning","-1","-1","1","1","cat","pets","2","0","","bad","[-4]"
"html-keyboard-response","138","547398","0.0-9.0-2.0-0.33","4500","2","15","Female","approach_avoid_spark_v1","""event"",""trial"",""time""
""fullscreenenter"",""1"",""2058""
","
","
","""event"",""trial"",""time""
""fullscreenenter"",""1"",""2058""
","
","","","","","","null","<div style=""font-size:60px;"">+</div>","null","","fixation","","","","","","","","","","",""
"aa-learning-trial","139","550407","0.0-9.0-2.0-1.33","4500","2","15","Female","approach_avoid_spark_v1","""event"",""trial"",""time""
""fullscreenenter"",""1"",""2058""
","
","
","""event"",""trial"",""time""
""fullscreenenter"",""1"",""2058""
","
","","","","","","889.0999999940395","images/rabbit1.png","","","learning","9","9","1","1","rabbit","pets","2","0","","good","[3]"
"html-keyboard-response","140","550910","0.0-9.0-2.0-0.34","4500","2","15","Female","approach_avoid_spark_v1","""event"",""trial"",""time""
""fullscreenenter"",""1"",""2058""
","
","
","""event"",""trial"",""time""
""fullscreenenter"",""1"",""2058""
","
","","","","","","null","<div style=""font-size:60px;"">+</div>","null","","fixation","","","","","","","","","","",""
"aa-learning-trial","141","553918","0.0-9.0-2.0-1.34","4500","2","15","Female","approach_avoid_spark_v1","""event"",""trial"",""time""
""fullscreenenter"",""1"",""2058""
","
","
","""event"",""trial"",""time""
""fullscreenenter"",""1"",""2058""
","
","","","","","","737.1999999880791","images/rabbit6.png","","","learning","-4","-4","1","1","rabbit","pets","2","0","","good","[3]"
"html-keyboard-response","142","554422","0.0-9.0-2.0-0.35","4500","2","15","Female","approach_avoid_spark_v1","""event"",""trial"",""time""
""fullscreenenter"",""1"",""2058""
","
","
","""event"",""trial"",""time""
""fullscreenenter"",""1"",""2058""
","
","","","","","","null","<div style=""font-size:60px;"">+</div>","null","","fixation","","","","","","","","","","",""
"aa-learning-trial","143","557430","0.0-9.0-2.0-1.35","4500","2","15","Female","approach_avoid_spark_v1","""event"",""trial"",""time""
""fullscreenenter"",""1"",""2058""
","
","
","""event"",""trial"",""time""
""fullscreenenter"",""1"",""2058""
","
","","","","","","1084.9000000059605","images/rabbit2.png","","","learning","3","3","1","1","rabbit","pets","2","0","","good","[3]"
"html-keyboard-response","144","557934","0.0-9.0-2.0-0.36","4500","2","15","Female","approach_avoid_spark_v1","""event"",""trial"",""time""
""fullscreenenter"",""1"",""2058""
","
","
","""event"",""trial"",""time""
""fullscreenenter"",""1"",""2058""
","
","","","","","","null","<div style=""font-size:60px;"">+</div>","null","","fixation","","","","","","","","","","",""
"aa-learning-trial","145","560943","0.0-9.0-2.0-1.36","4500","2","15","Female","approach_avoid_spark_v1","""event"",""trial"",""time""
""fullscreenenter"",""1"",""2058""
","
","
","""event"",""trial"",""time""
""fullscreenenter"",""1"",""2058""
","
","","","","","","1023.1999999880791","images/cat6.png","","","learning","-5","0","0","0","cat","pets","2","0","","bad","[-4]"
"html-keyboard-response","146","561446","0.0-9.0-2.0-0.37","4500","2","15","Female","approach_avoid_spark_v1","""event"",""trial"",""time""
""fullscreenenter"",""1"",""2058""
","
","
","""event"",""trial"",""time""
""fullscreenenter"",""1"",""2058""
","
","","","","","","null","<div style=""font-size:60px;"">+</div>","null","","fixation","","","","","","","","","","",""
"aa-learning-trial","147","564454","0.0-9.0-2.0-1.37","4500","2","15","Female","approach_avoid_spark_v1","""event"",""trial"",""time""
""fullscreenenter"",""1"",""2058""
","
","
","""event"",""trial"",""time""
""fullscreenenter"",""1"",""2058""
","
","","","","","","610.8000000119209","images/cat5.png","","","learning","4","4","1","1","cat","pets","2","0","","bad","[-4]"
"html-keyboard-response","148","564958","0.0-9.0-2.0-0.38","4500","2","15","Female","approach_avoid_spark_v1","""event"",""trial"",""time""
""fullscreenenter"",""1"",""2058""
","
","
","""event"",""trial"",""time""
""fullscreenenter"",""1"",""2058""
","
","","","","","","null","<div style=""font-size:60px;"">+</div>","null","","fixation","","","","","","","","","","",""
"aa-learning-trial","149","567966","0.0-9.0-2.0-1.38","4500","2","15","Female","approach_avoid_spark_v1","""event"",""trial"",""time""
""fullscreenenter"",""1"",""2058""
","
","
","""event"",""trial"",""time""
""fullscreenenter"",""1"",""2058""
","
","","","","","","639.8000000119209","images/dog6.png","","","learning","-8","0","0","0","dog","pets","2","0","","neutral","0"
"html-keyboard-response","150","568469","0.0-9.0-2.0-0.39","4500","2","15","Female","approach_avoid_spark_v1","""event"",""trial"",""time""
""fullscreenenter"",""1"",""2058""
","
","
","""event"",""trial"",""time""
""fullscreenenter"",""1"",""2058""
","
","","","","","","null","<div style=""font-size:60px;"">+</div>","null","","fixation","","","","","","","","","","",""
"aa-learning-trial","151","571478","0.0-9.0-2.0-1.39","4500","2","15","Female","approach_avoid_spark_v1","""event"",""trial"",""time""
""fullscreenenter"",""1"",""2058""
","
","
","""event"",""trial"",""time""
""fullscreenenter"",""1"",""2058""
","
","","","","","","727.3999999761581","images/rabbit2.png","","","learning","3","3","1","1","rabbit","pets","2","0","","good","[3]"
"html-keyboard-response","152","571982","0.0-9.0-2.0-0.40","4500","2","15","Female","approach_avoid_spark_v1","""event"",""trial"",""time""
""fullscreenenter"",""1"",""2058""
","
","
","""event"",""trial"",""time""
""fullscreenenter"",""1"",""2058""
","
","","","","","","null","<div style=""font-size:60px;"">+</div>","null","","fixation","","","","","","","","","","",""
"aa-learning-trial","153","574990","0.0-9.0-2.0-1.40","4500","2","15","Female","approach_avoid_spark_v1","""event"",""trial"",""time""
""fullscreenenter"",""1"",""2058""
","
","
","""event"",""trial"",""time""
""fullscreenenter"",""1"",""2058""
","
","","","","","","915.2000000178814","images/cat7.png","","","learning","-1","0","0","0","cat","pets","2","0","","bad","[-4]"
"html-keyboard-response","154","575495","0.0-9.0-2.0-0.41","4500","2","15","Female","approach_avoid_spark_v1","""event"",""trial"",""time""
""fullscreenenter"",""1"",""2058""
","
","
","""event"",""trial"",""time""
""fullscreenenter"",""1"",""2058""
","
","","","","","","null","<div style=""font-size:60px;"">+</div>","null","","fixation","","","","","","","","","","",""
"aa-learning-trial","155","578502","0.0-9.0-2.0-1.41","4500","2","15","Female","approach_avoid_spark_v1","""event"",""trial"",""time""
""fullscreenenter"",""1"",""2058""
","
","
","""event"",""trial"",""time""
""fullscreenenter"",""1"",""2058""
","
","","","","","","953.3000000119209","images/rabbit8.png","","","learning","-2","-2","1","1","rabbit","pets","2","0","","good","[3]"
"html-keyboard-response","156","579006","0.0-9.0-2.0-0.42","4500","2","15","Female","approach_avoid_spark_v1","""event"",""trial"",""time""
""fullscreenenter"",""1"",""2058""
","
","
","""event"",""trial"",""time""
""fullscreenenter"",""1"",""2058""
","
","","","","","","null","<div style=""font-size:60px;"">+</div>","null","","fixation","","","","","","","","","","",""
"aa-learning-trial","157","582014","0.0-9.0-2.0-1.42","4500","2","15","Female","approach_avoid_spark_v1","""event"",""trial"",""time""
""fullscreenenter"",""1"",""2058""
","
","
","""event"",""trial"",""time""
""fullscreenenter"",""1"",""2058""
","
","","","","","","670.8000000119209","images/cat6.png","","","learning","-5","0","0","0","cat","pets","2","0","","bad","[-4]"
"html-keyboard-response","158","582518","0.0-9.0-2.0-0.43","4500","2","15","Female","approach_avoid_spark_v1","""event"",""trial"",""time""
""fullscreenenter"",""1"",""2058""
","
","
","""event"",""trial"",""time""
""fullscreenenter"",""1"",""2058""
","
","","","","","","null","<div style=""font-size:60px;"">+</div>","null","","fixation","","","","","","","","","","",""
"aa-learning-trial","159","585526","0.0-9.0-2.0-1.43","4500","2","15","Female","approach_avoid_spark_v1","""event"",""trial"",""time""
""fullscreenenter"",""1"",""2058""
","
","
","""event"",""trial"",""time""
""fullscreenenter"",""1"",""2058""
","
","","","","","","1148.7000000178814","images/cat5.png","","","learning","4","4","1","1","cat","pets","2","0","","bad","[-4]"
"html-keyboard-response","160","586030","0.0-9.0-2.0-0.44","4500","2","15","Female","approach_avoid_spark_v1","""event"",""trial"",""time""
""fullscreenenter"",""1"",""2058""
","
","
","""event"",""trial"",""time""
""fullscreenenter"",""1"",""2058""
","
","","","","","","null","<div style=""font-size:60px;"">+</div>","null","","fixation","","","","","","","","","","",""
"aa-learning-trial","161","589038","0.0-9.0-2.0-1.44","4500","2","15","Female","approach_avoid_spark_v1","""event"",""trial"",""time""
""fullscreenenter"",""1"",""2058""
","
","
","""event"",""trial"",""time""
""fullscreenenter"",""1"",""2058""
","
","","","","","","617.5","images/dog5.png","","","learning","-3","0","0","0","dog","pets","2","0","","neutral","0"
"html-keyboard-response","162","589542","0.0-9.0-2.0-0.45","4500","2","15","Female","approach_avoid_spark_v1","""event"",""trial"",""time""
""fullscreenenter"",""1"",""2058""
","
","
","""event"",""trial"",""time""
""fullscreenenter"",""1"",""2058""
","
","","","","","","null","<div style=""font-size:60px;"">+</div>","null","","fixation","","","","","","","","","","",""
"aa-learning-trial","163","592551","0.0-9.0-2.0-1.45","4500","2","15","Female","approach_avoid_spark_v1","""event"",""trial"",""time""
""fullscreenenter"",""1"",""2058""
","
","
","""event"",""trial"",""time""
""fullscreenenter"",""1"",""2058""
","
","","","","","","614.8999999761581","images/cat6.png","","","learning","-5","0","0","0","cat","pets","2","0","","bad","[-4]"
"html-keyboard-response","164","593055","0.0-9.0-2.0-0.46","4500","2","15","Female","approach_avoid_spark_v1","""event"",""trial"",""time""
""fullscreenenter"",""1"",""2058""
","
","
","""event"",""trial"",""time""
""fullscreenenter"",""1"",""2058""
","
","","","","","","null","<div style=""font-size:60px;"">+</div>","null","","fixation","","","","","","","","","","",""
"aa-learning-trial","165","596062","0.0-9.0-2.0-1.46","4500","2","15","Female","approach_avoid_spark_v1","""event"",""trial"",""time""
""fullscreenenter"",""1"",""2058""
","
","
","""event"",""trial"",""time""
""fullscreenenter"",""1"",""2058""
","
","","","","","","632.4000000059605","images/dog6.png","","","learning","-8","0","0","0","dog","pets","2","0","","neutral","0"
"html-keyboard-response","166","596566","0.0-9.0-2.0-0.47","4500","2","15","Female","approach_avoid_spark_v1","""event"",""trial"",""time""
""fullscreenenter"",""1"",""2058""
","
","
","""event"",""trial"",""time""
""fullscreenenter"",""1"",""2058""
","
","","","","","","null","<div style=""font-size:60px;"">+</div>","null","","fixation","","","","","","","","","","",""
"aa-learning-trial","167","599574","0.0-9.0-2.0-1.47","4500","2","15","Female","approach_avoid_spark_v1","""event"",""trial"",""time""
""fullscreenenter"",""1"",""2058""
","
","
","""event"",""trial"",""time""
""fullscreenenter"",""1"",""2058""
","
","","","","","","811","images/dog7.png","","","learning","5","5","1","1","dog","pets","2","0","","neutral","0"
"html-keyboard-response","168","600078","0.0-9.0-2.0-0.48","4500","2","15","Female","approach_avoid_spark_v1","""event"",""trial"",""time""
""fullscreenenter"",""1"",""2058""
","
","
","""event"",""trial"",""time""
""fullscreenenter"",""1"",""2058""
","
","","","","","","null","<div style=""font-size:60px;"">+</div>","null","","fixation","","","","","","","","","","",""
"aa-learning-trial","169","603086","0.0-9.0-2.0-1.48","4500","2","15","Female","approach_avoid_spark_v1","""event"",""trial"",""time""
""fullscreenenter"",""1"",""2058""
","
","
","""event"",""trial"",""time""
""fullscreenenter"",""1"",""2058""
","
","","","","","","2078.5","images/rabbit4.png","","","learning","-9","-9","1","1","rabbit","pets","2","0","","good","[3]"
"html-keyboard-response","170","603590","0.0-9.0-2.0-0.49","4500","2","15","Female","approach_avoid_spark_v1","""event"",""trial"",""time""
""fullscreenenter"",""1"",""2058""
","
","
","""event"",""trial"",""time""
""fullscreenenter"",""1"",""2058""
","
","","","","","","null","<div style=""font-size:60px;"">+</div>","null","","fixation","","","","","","","","","","",""
"aa-learning-trial","171","606598","0.0-9.0-2.0-1.49","4500","2","15","Female","approach_avoid_spark_v1","""event"",""trial"",""time""
""fullscreenenter"",""1"",""2058""
","
","
","""event"",""trial"",""time""
""fullscreenenter"",""1"",""2058""
","
","","","","","","678.3000000119209","images/dog3.png","","","learning","6","6","1","1","dog","pets","2","0","","neutral","0"
"html-keyboard-response","172","607102","0.0-9.0-2.0-0.50","4500","2","15","Female","approach_avoid_spark_v1","""event"",""trial"",""time""
""fullscreenenter"",""1"",""2058""
","
","
","""event"",""trial"",""time""
""fullscreenenter"",""1"",""2058""
","
","","","","","","null","<div style=""font-size:60px;"">+</div>","null","","fixation","","","","","","","","","","",""
"aa-learning-trial","173","610110","0.0-9.0-2.0-1.50","4500","2","15","Female","approach_avoid_spark_v1","""event"",""trial"",""time""
""fullscreenenter"",""1"",""2058""
","
","
","""event"",""trial"",""time""
""fullscreenenter"",""1"",""2058""
","
","","","","","","766.6000000238419","images/cat8.png","","","learning","-7","-7","1","1","cat","pets","2","0","","bad","[-4]"
"html-button-response","174","613214","0.0-9.0-3.0","4500","2","15","Female","approach_avoid_spark_v1","""event"",""trial"",""time""
""fullscreenenter"",""1"",""2058""
","
","
","""event"",""trial"",""time""
""fullscreenenter"",""1"",""2058""
","
","","","","","","3100.7999999821186","<p> You have completed the round! <p> In this round, you earned 50 points! </p>","0","","break","","","","","","","","","","",""
"html-button-response","175","614285","0.0-10.0","4500","2","15","Female","approach_avoid_spark_v1","""event"",""trial"",""time""
""fullscreenenter"",""1"",""2058""
","
","
","""event"",""trial"",""time""
""fullscreenenter"",""1"",""2058""
","
","","","","","","1069.5","<p> Now it's time to play another round. </p>","0","","transition_screen","","","","","","","","","","",""
"preload","176","614416","0.0-11.0-0.0","4500","2","15","Female","approach_avoid_spark_v1","""event"",""trial"",""time""
""fullscreenenter"",""1"",""2058""
","
","
","""event"",""trial"",""time""
""fullscreenenter"",""1"",""2058""
","
","true","false","[]","[]","[]","","","","","","","","","","","","","","","",""
"learning-instructions","177","621012","0.0-11.0-1.0-0.0","4500","2","15","Female","approach_avoid_spark_v1","""event"",""trial"",""time""
""fullscreenenter"",""1"",""2058""
","
","
","""event"",""trial"",""time""
""fullscreenenter"",""1"",""2058""
","
","","","","","","1039.5","<p> Your goal in this round is to sell different plants to a picky customer. </p></div>","","0","instructions","","","","","","","","","","",""
"learning-instructions","178","631293","0.0-11.0-1.0-0.1","4500","2","15","Female","approach_avoid_spark_v1","""event"",""trial"",""time""
""fullscreenenter"",""1"",""2058""
","
","
","""event"",""trial"",""time""
""fullscreenenter"",""1"",""2058""
","
","","","","","","1121","<p> The customer likes some plants and dislikes others.  </p><p> On each turn, you will see a plant.   </p><p> You need to decide whether to offer it to the customer or not.  </p>","","0","instructions","","","","","","","","","","",""
"learning-instructions","179","637922","0.0-11.0-1.0-0.2","4500","2","15","Female","approach_avoid_spark_v1","""event"",""trial"",""time""
""fullscreenenter"",""1"",""2058""
","
","
","""event"",""trial"",""time""
""fullscreenenter"",""1"",""2058""
","
","","","","","","969.1999999880791","<p> You can offer the plant by pressing 1 and decide to not offer it by pressing 0. </p><br><div class=""choice-instructions-grid""> <div class=""choice-option""><img src=""images/approach.png"" class=""choice-option-img"" stage=""instructions"" position=""0"" ><div class=""choice-option-text""> Press ""1."" </div></div><div class=""choice-option""><img src=""images/avoid.png"" class=""choice-option-img"" stage=""instructions"" position=""1"" ><div class=""choice-option-text""> Press ""0."" </div></div>","","0","instructions","","","","","","","","","","",""
"learning-instructions","180","647507","0.0-11.0-1.0-0.3","4500","2","15","Female","approach_avoid_spark_v1","""event"",""trial"",""time""
""fullscreenenter"",""1"",""2058""
","
","
","""event"",""trial"",""time""
""fullscreenenter"",""1"",""2058""
","
","","","","","","825.1999999880791","<p> If you offer a plant to the customer that she likes, she will be very pleased! </p><p> But if you offer a plant that she does NOT like, she will be annoyed. </p>","","0","instructions","","","","","","","","","","",""
"learning-instructions","181","661697","0.0-11.0-1.0-0.4","4500","2","15","Female","approach_avoid_spark_v1","""event"",""trial"",""time""
""fullscreenenter"",""1"",""2058""
","
","
","""event"",""trial"",""time""
""fullscreenenter"",""1"",""2058""
","
","","","","","","1874.7000000178814","<p> You will earn points based on how you made the customer feel. </p><p> If you made her pleased, you will WIN anywhere from 1 - 9 points, </p><p> but if you made her annoyed, you will LOSE anywhere from 1 - 9 points. </p>","","0","instructions","","","","","","","","","","",""
"learning-instructions","182","669554","0.0-11.0-1.0-0.5","4500","2","15","Female","approach_avoid_spark_v1","""event"",""trial"",""time""
""fullscreenenter"",""1"",""2058""
","
","
","""event"",""trial"",""time""
""fullscreenenter"",""1"",""2058""
","
","","","","","","1201.4000000059605","<p> You will see how many points you won or lost in the center of the screen. </p><p> Here is what you would see if you won 5 points: </p><p style=""color:green;font-size:50px;font-weight:bolder"">5</p>","","0","instructions","","","","","","","","","","",""
"learning-instructions","183","673408","0.0-11.0-1.0-0.6","4500","2","15","Female","approach_avoid_spark_v1","""event"",""trial"",""time""
""fullscreenenter"",""1"",""2058""
","
","
","""event"",""trial"",""time""
""fullscreenenter"",""1"",""2058""
","
","","","","","","1005","<p> And here is what you would see if you lost 3 points: </p><p style=""color:red;font-size:50px;font-weight:bolder"">-3</p>","","0","instructions","","","","","","","","","","",""
"learning-instructions","184","690164","0.0-11.0-1.0-0.7","4500","2","15","Female","approach_avoid_spark_v1","""event"",""trial"",""time""
""fullscreenenter"",""1"",""2058""
","
","
","""event"",""trial"",""time""
""fullscreenenter"",""1"",""2058""
","
","","","","","","2131.4000000059605","<p> Some plants will make the customer VERY pleased or annoyed. </p><p> These plants will make you win or lose LOTS of points. </p><p> The customer will have less strong feelings about other plants. </p><p> These plants will make you win or lose small amounts of points. </p>","","0","instructions","","","","","","","","","","",""
"learning-instructions","185","703802","0.0-11.0-1.0-0.8","4500","2","15","Female","approach_avoid_spark_v1","""event"",""trial"",""time""
""fullscreenenter"",""1"",""2058""
","
","
","""event"",""trial"",""time""
""fullscreenenter"",""1"",""2058""
","
","","","","","","1198.7000000178814","<p> If you choose to not offer the plant to the customer, you will not win or lose any points. </p><p>  However, in the center of the screen, you will see the number of points you WOULD HAVE won or lost if you had offered the plant. </p>","","0","instructions","","","","","","","","","","",""
"learning-instructions","186","716228","0.0-11.0-1.0-0.9","4500","2","15","Female","approach_avoid_spark_v1","""event"",""trial"",""time""
""fullscreenenter"",""1"",""2058""
","
","
","""event"",""trial"",""time""
""fullscreenenter"",""1"",""2058""
","
","","","","","","1084.0999999940395","<p> Here is what you might see if you did not offer the plant but the customer would have liked it: </p><p style=""color:grey; font-size:50px; display: inline-block; border-spacing: 15px; border-width:3px; border-style:solid; border-color:red"">  &nbsp; 6 &nbsp; </p><p> Remember, in this case, you would not win or lose ANY points because you did not offer the plant.  </p>","","0","instructions","","","","","","","","","","",""
"learning-instructions","187","724554","0.0-11.0-1.0-0.10","4500","2","15","Female","approach_avoid_spark_v1","""event"",""trial"",""time""
""fullscreenenter"",""1"",""2058""
","
","
","""event"",""trial"",""time""
""fullscreenenter"",""1"",""2058""
","
","","","","","","840.4000000059605","<p> Try to make the best choice for each plant because </p><p> at the end of the game, you will earn bonus money based on how many points you earned. </p>","","0","instructions","","","","","","","","","","",""
"learning-instructions","188","754961","0.0-11.0-1.0-0.11","4500","2","15","Female","approach_avoid_spark_v1","""event"",""trial"",""time""
""fullscreenenter"",""1"",""2058""
","
","
","""event"",""trial"",""time""
""fullscreenenter"",""1"",""2058""
","
","","","","","","22217.100000023842","<p> You will have 3 seconds to make each choice. Try to respond before time runs out! </p><p> You will lose 5 points each time you do not make a response. </p>","","0","instructions","","","","","","","","","","",""
"html-keyboard-response","189","755577","0.0-11.0-2.0-0.0","4500","2","15","Female","approach_avoid_spark_v1","""event"",""trial"",""time""
""fullscreenenter"",""1"",""2058""
","
","
","""event"",""trial"",""time""
""fullscreenenter"",""1"",""2058""
","
","","","","","","null","<div style=""font-size:60px;"">+</div>","null","","fixation","","","","","","","","","","",""
"aa-learning-trial","190","758586","0.0-11.0-2.0-1.0","4500","2","15","Female","approach_avoid_spark_v1","""event"",""trial"",""time""
""fullscreenenter"",""1"",""2058""
","
","
","""event"",""trial"",""time""
""fullscreenenter"",""1"",""2058""
","
","","","","","","1292.800000011921","images/tree5.png","","","learning","-6","-6","1","1","tree","plants","1","1","","bad","[-6]"
"html-keyboard-response","191","759098","0.0-11.0-2.0-0.1","4500","2","15","Female","approach_avoid_spark_v1","""event"",""trial"",""time""
""fullscreenenter"",""1"",""2058""
","
","
","""event"",""trial"",""time""
""fullscreenenter"",""1"",""2058""
","
","","","","","","null","<div style=""font-size:60px;"">+</div>","null","","fixation","","","","","","","","","","",""
"aa-learning-trial","192","762117","0.0-11.0-2.0-1.1","4500","2","15","Female","approach_avoid_spark_v1","""event"",""trial"",""time""
""fullscreenenter"",""1"",""2058""
","
","
","""event"",""trial"",""time""
""fullscreenenter"",""1"",""2058""
","
","","","","","","371.19999998807907","images/bush1.png","","","learning","5","5","1","1","bush","plants","1","1","","good","[6]"
"html-keyboard-response","193","762627","0.0-11.0-2.0-0.2","4500","2","15","Female","approach_avoid_spark_v1","""event"",""trial"",""time""
""fullscreenenter"",""1"",""2058""
","
","
","""event"",""trial"",""time""
""fullscreenenter"",""1"",""2058""
","
","","","","","","null","<div style=""font-size:60px;"">+</div>","null","","fixation","","","","","","","","","","",""
"aa-learning-trial","194","765638","0.0-11.0-2.0-1.2","4500","2","15","Female","approach_avoid_spark_v1","""event"",""trial"",""time""
""fullscreenenter"",""1"",""2058""
","
","
","""event"",""trial"",""time""
""fullscreenenter"",""1"",""2058""
","
","","","","","","480.59999999403954","images/flower4.png","","","learning","-2","-2","1","1","flower","plants","1","1","","neutral","0"
"html-keyboard-response","195","766142","0.0-11.0-2.0-0.3","4500","2","15","Female","approach_avoid_spark_v1","""event"",""trial"",""time""
""fullscreenenter"",""1"",""2058""
","
","
","""event"",""trial"",""time""
""fullscreenenter"",""1"",""2058""
","
","","","","","","null","<div style=""font-size:60px;"">+</div>","null","","fixation","","","","","","","","","","",""
"aa-learning-trial","196","769150","0.0-11.0-2.0-1.3","4500","2","15","Female","approach_avoid_spark_v1","""event"",""trial"",""time""
""fullscreenenter"",""1"",""2058""
","
","
","""event"",""trial"",""time""
""fullscreenenter"",""1"",""2058""
","
","","","","","","537.3000000119209","images/tree1.png","","","learning","-7","-7","1","1","tree","plants","1","1","","bad","[-6]"
"html-keyboard-response","197","769654","0.0-11.0-2.0-0.4","4500","2","15","Female","approach_avoid_spark_v1","""event"",""trial"",""time""
""fullscreenenter"",""1"",""2058""
","
","
","""event"",""trial"",""time""
""fullscreenenter"",""1"",""2058""
","
","","","","","","null","<div style=""font-size:60px;"">+</div>","null","","fixation","","","","","","","","","","",""
"aa-learning-trial","198","772661","0.0-11.0-2.0-1.4","4500","2","15","Female","approach_avoid_spark_v1","""event"",""trial"",""time""
""fullscreenenter"",""1"",""2058""
","
","
","""event"",""trial"",""time""
""fullscreenenter"",""1"",""2058""
","
","","","","","","604.4000000059605","images/flower3.png","","","learning","1","1","1","1","flower","plants","1","1","","neutral","0"
"html-keyboard-response","199","773165","0.0-11.0-2.0-0.5","4500","2","15","Female","approach_avoid_spark_v1","""event"",""trial"",""time""
""fullscreenenter"",""1"",""2058""
","
","
","""event"",""trial"",""time""
""fullscreenenter"",""1"",""2058""
","
","","","","","","null","<div style=""font-size:60px;"">+</div>","null","","fixation","","","","","","","","","","",""
"aa-learning-trial","200","776174","0.0-11.0-2.0-1.5","4500","2","15","Female","approach_avoid_spark_v1","""event"",""trial"",""time""
""fullscreenenter"",""1"",""2058""
","
","
","""event"",""trial"",""time""
""fullscreenenter"",""1"",""2058""
","
","","","","","","484.39999997615814","images/flower2.png","","","learning","1","1","1","1","flower","plants","1","1","","neutral","0"
"html-keyboard-response","201","776678","0.0-11.0-2.0-0.6","4500","2","15","Female","approach_avoid_spark_v1","""event"",""trial"",""time""
""fullscreenenter"",""1"",""2058""
","
","
","""event"",""trial"",""time""
""fullscreenenter"",""1"",""2058""
","
","","","","","","null","<div style=""font-size:60px;"">+</div>","null","","fixation","","","","","","","","","","",""
"aa-learning-trial","202","779685","0.0-11.0-2.0-1.6","4500","2","15","Female","approach_avoid_spark_v1","""event"",""trial"",""time""
""fullscreenenter"",""1"",""2058""
","
","
","""event"",""trial"",""time""
""fullscreenenter"",""1"",""2058""
","
","","","","","","1090.7999999821186","images/bush8.png","","","learning","7","7","1","1","bush","plants","1","1","","good","[6]"
"html-keyboard-response","203","780189","0.0-11.0-2.0-0.7","4500","2","15","Female","approach_avoid_spark_v1","""event"",""trial"",""time""
""fullscreenenter"",""1"",""2058""
","
","
","""event"",""trial"",""time""
""fullscreenenter"",""1"",""2058""
","
","","","","","","null","<div style=""font-size:60px;"">+</div>","null","","fixation","","","","","","","","","","",""
"aa-learning-trial","204","783198","0.0-11.0-2.0-1.7","4500","2","15","Female","approach_avoid_spark_v1","""event"",""trial"",""time""
""fullscreenenter"",""1"",""2058""
","
","
","""event"",""trial"",""time""
""fullscreenenter"",""1"",""2058""
","
","","","","","","739.9000000059605","images/tree1.png","","","learning","-5","0","0","0","tree","plants","1","1","","bad","[-6]"
"html-keyboard-response","205","783701","0.0-11.0-2.0-0.8","4500","2","15","Female","approach_avoid_spark_v1","""event"",""trial"",""time""
""fullscreenenter"",""1"",""2058""
","
","
","""event"",""trial"",""time""
""fullscreenenter"",""1"",""2058""
","
","","","","","","null","<div style=""font-size:60px;"">+</div>","null","","fixation","","","","","","","","","","",""
"aa-learning-trial","206","786709","0.0-11.0-2.0-1.8","4500","2","15","Female","approach_avoid_spark_v1","""event"",""trial"",""time""
""fullscreenenter"",""1"",""2058""
","
","
","""event"",""trial"",""time""
""fullscreenenter"",""1"",""2058""
","
","","","","","","598.1999999880791","images/bush6.png","","","learning","7","7","1","1","bush","plants","1","1","","good","[6]"
"html-keyboard-response","207","787214","0.0-11.0-2.0-0.9","4500","2","15","Female","approach_avoid_spark_v1","""event"",""trial"",""time""
""fullscreenenter"",""1"",""2058""
","
","
","""event"",""trial"",""time""
""fullscreenenter"",""1"",""2058""
","
","","","","","","null","<div style=""font-size:60px;"">+</div>","null","","fixation","","","","","","","","","","",""
"aa-learning-trial","208","790222","0.0-11.0-2.0-1.9","4500","2","15","Female","approach_avoid_spark_v1","""event"",""trial"",""time""
""fullscreenenter"",""1"",""2058""
","
","
","""event"",""trial"",""time""
""fullscreenenter"",""1"",""2058""
","
","","","","","","736.5","images/tree2.png","","","learning","-11","-11","1","1","tree","plants","1","1","","bad","[-6]"
"html-keyboard-response","209","790726","0.0-11.0-2.0-0.10","4500","2","15","Female","approach_avoid_spark_v1","""event"",""trial"",""time""
""fullscreenenter"",""1"",""2058""
","
","
","""event"",""trial"",""time""
""fullscreenenter"",""1"",""2058""
","
","","","","","","null","<div style=""font-size:60px;"">+</div>","null","","fixation","","","","","","","","","","",""
"aa-learning-trial","210","793734","0.0-11.0-2.0-1.10","4500","2","15","Female","approach_avoid_spark_v1","""event"",""trial"",""time""
""fullscreenenter"",""1"",""2058""
","
","
","""event"",""trial"",""time""
""fullscreenenter"",""1"",""2058""
","
","","","","","","833.2999999821186","images/tree5.png","","","learning","-6","0","0","0","tree","plants","1","1","","bad","[-6]"
"html-keyboard-response","211","794237","0.0-11.0-2.0-0.11","4500","2","15","Female","approach_avoid_spark_v1","""event"",""trial"",""time""
""fullscreenenter"",""1"",""2058""
","
","
","""event"",""trial"",""time""
""fullscreenenter"",""1"",""2058""
","
","","","","","","null","<div style=""font-size:60px;"">+</div>","null","","fixation","","","","","","","","","","",""
"aa-learning-trial","212","797245","0.0-11.0-2.0-1.11","4500","2","15","Female","approach_avoid_spark_v1","""event"",""trial"",""time""
""fullscreenenter"",""1"",""2058""
","
","
","""event"",""trial"",""time""
""fullscreenenter"",""1"",""2058""
","
","","","","","","1261","images/flower4.png","","","learning","-1","0","0","0","flower","plants","1","1","","neutral","0"
"html-keyboard-response","213","797749","0.0-11.0-2.0-0.12","4500","2","15","Female","approach_avoid_spark_v1","""event"",""trial"",""time""
""fullscreenenter"",""1"",""2058""
","
","
","""event"",""trial"",""time""
""fullscreenenter"",""1"",""2058""
","
","","","","","","null","<div style=""font-size:60px;"">+</div>","null","","fixation","","","","","","","","","","",""
"aa-learning-trial","214","800758","0.0-11.0-2.0-1.12","4500","2","15","Female","approach_avoid_spark_v1","""event"",""trial"",""time""
""fullscreenenter"",""1"",""2058""
","
","
","""event"",""trial"",""time""
""fullscreenenter"",""1"",""2058""
","
","","","","","","1120","images/bush8.png","","","learning","5","5","1","1","bush","plants","1","1","","good","[6]"
"html-keyboard-response","215","801261","0.0-11.0-2.0-0.13","4500","2","15","Female","approach_avoid_spark_v1","""event"",""trial"",""time""
""fullscreenenter"",""1"",""2058""
","
","
","""event"",""trial"",""time""
""fullscreenenter"",""1"",""2058""
","
","","","","","","null","<div style=""font-size:60px;"">+</div>","null","","fixation","","","","","","","","","","",""
"aa-learning-trial","216","804270","0.0-11.0-2.0-1.13","4500","2","15","Female","approach_avoid_spark_v1","""event"",""trial"",""time""
""fullscreenenter"",""1"",""2058""
","
","
","""event"",""trial"",""time""
""fullscreenenter"",""1"",""2058""
","
","","","","","","908.4000000059605","images/flower2.png","","","learning","-2","-2","1","1","flower","plants","1","1","","neutral","0"
"html-keyboard-response","217","804773","0.0-11.0-2.0-0.14","4500","2","15","Female","approach_avoid_spark_v1","""event"",""trial"",""time""
""fullscreenenter"",""1"",""2058""
","
","
","""event"",""trial"",""time""
""fullscreenenter"",""1"",""2058""
","
","","","","","","null","<div style=""font-size:60px;"">+</div>","null","","fixation","","","","","","","","","","",""
"aa-learning-trial","218","807782","0.0-11.0-2.0-1.14","4500","2","15","Female","approach_avoid_spark_v1","""event"",""trial"",""time""
""fullscreenenter"",""1"",""2058""
","
","
","""event"",""trial"",""time""
""fullscreenenter"",""1"",""2058""
","
","","","","","","605.7999999821186","images/bush1.png","","","learning","6","6","1","1","bush","plants","1","1","","good","[6]"
"html-keyboard-response","219","808286","0.0-11.0-2.0-0.15","4500","2","15","Female","approach_avoid_spark_v1","""event"",""trial"",""time""
""fullscreenenter"",""1"",""2058""
","
","
","""event"",""trial"",""time""
""fullscreenenter"",""1"",""2058""
","
","","","","","","null","<div style=""font-size:60px;"">+</div>","null","","fixation","","","","","","","","","","",""
"aa-learning-trial","220","811293","0.0-11.0-2.0-1.15","4500","2","15","Female","approach_avoid_spark_v1","""event"",""trial"",""time""
""fullscreenenter"",""1"",""2058""
","
","
","""event"",""trial"",""time""
""fullscreenenter"",""1"",""2058""
","
","","","","","","1273.7999999821186","images/flower4.png","","","learning","-3","0","0","0","flower","plants","1","1","","neutral","0"
"html-keyboard-response","221","811797","0.0-11.0-2.0-0.16","4500","2","15","Female","approach_avoid_spark_v1","""event"",""trial"",""time""
""fullscreenenter"",""1"",""2058""
","
","
","""event"",""trial"",""time""
""fullscreenenter"",""1"",""2058""
","
","","","","","","null","<div style=""font-size:60px;"">+</div>","null","","fixation","","","","","","","","","","",""
"aa-learning-trial","222","814805","0.0-11.0-2.0-1.16","4500","2","15","Female","approach_avoid_spark_v1","""event"",""trial"",""time""
""fullscreenenter"",""1"",""2058""
","
","
","""event"",""trial"",""time""
""fullscreenenter"",""1"",""2058""
","
","","","","","","1621.2999999821186","images/tree2.png","","","learning","-6","0","0","0","tree","plants","1","1","","bad","[-6]"
"html-keyboard-response","223","815309","0.0-11.0-2.0-0.17","4500","2","15","Female","approach_avoid_spark_v1","""event"",""trial"",""time""
""fullscreenenter"",""1"",""2058""
","
","
","""event"",""trial"",""time""
""fullscreenenter"",""1"",""2058""
","
","","","","","","null","<div style=""font-size:60px;"">+</div>","null","","fixation","","","","","","","","","","",""
"aa-learning-trial","224","818318","0.0-11.0-2.0-1.17","4500","2","15","Female","approach_avoid_spark_v1","""event"",""trial"",""time""
""fullscreenenter"",""1"",""2058""
","
","
","""event"",""trial"",""time""
""fullscreenenter"",""1"",""2058""
","
","","","","","","649.9000000059605","images/bush1.png","","","learning","5","5","1","1","bush","plants","1","1","","good","[6]"
"html-keyboard-response","225","818822","0.0-11.0-2.0-0.18","4500","2","15","Female","approach_avoid_spark_v1","""event"",""trial"",""time""
""fullscreenenter"",""1"",""2058""
","
","
","""event"",""trial"",""time""
""fullscreenenter"",""1"",""2058""
","
","","","","","","null","<div style=""font-size:60px;"">+</div>","null","","fixation","","","","","","","","","","",""
"aa-learning-trial","226","821830","0.0-11.0-2.0-1.18","4500","2","15","Female","approach_avoid_spark_v1","""event"",""trial"",""time""
""fullscreenenter"",""1"",""2058""
","
","
","""event"",""trial"",""time""
""fullscreenenter"",""1"",""2058""
","
","","","","","","696.2999999821186","images/bush3.png","","","learning","4","4","1","1","bush","plants","1","1","","good","[6]"
"html-keyboard-response","227","822334","0.0-11.0-2.0-0.19","4500","2","15","Female","approach_avoid_spark_v1","""event"",""trial"",""time""
""fullscreenenter"",""1"",""2058""
","
","
","""event"",""trial"",""time""
""fullscreenenter"",""1"",""2058""
","
","","","","","","null","<div style=""font-size:60px;"">+</div>","null","","fixation","","","","","","","","","","",""
"aa-learning-trial","228","825342","0.0-11.0-2.0-1.19","4500","2","15","Female","approach_avoid_spark_v1","""event"",""trial"",""time""
""fullscreenenter"",""1"",""2058""
","
","
","""event"",""trial"",""time""
""fullscreenenter"",""1"",""2058""
","
","","","","","","916.5","images/tree6.png","","","learning","-5","-5","1","1","tree","plants","1","1","","bad","[-6]"
"html-keyboard-response","229","825847","0.0-11.0-2.0-0.20","4500","2","15","Female","approach_avoid_spark_v1","""event"",""trial"",""time""
""fullscreenenter"",""1"",""2058""
","
","
","""event"",""trial"",""time""
""fullscreenenter"",""1"",""2058""
","
","","","","","","null","<div style=""font-size:60px;"">+</div>","null","","fixation","","","","","","","","","","",""
"aa-learning-trial","230","828854","0.0-11.0-2.0-1.20","4500","2","15","Female","approach_avoid_spark_v1","""event"",""trial"",""time""
""fullscreenenter"",""1"",""2058""
","
","
","""event"",""trial"",""time""
""fullscreenenter"",""1"",""2058""
","
","","","","","","922.5999999940395","images/bush8.png","","","learning","5","5","1","1","bush","plants","1","1","","good","[6]"
"html-keyboard-response","231","829358","0.0-11.0-2.0-0.21","4500","2","15","Female","approach_avoid_spark_v1","""event"",""trial"",""time""
""fullscreenenter"",""1"",""2058""
","
","
","""event"",""trial"",""time""
""fullscreenenter"",""1"",""2058""
","
","","","","","","null","<div style=""font-size:60px;"">+</div>","null","","fixation","","","","","","","","","","",""
"aa-learning-trial","232","832366","0.0-11.0-2.0-1.21","4500","2","15","Female","approach_avoid_spark_v1","""event"",""trial"",""time""
""fullscreenenter"",""1"",""2058""
","
","
","""event"",""trial"",""time""
""fullscreenenter"",""1"",""2058""
","
","","","","","","761.7000000178814","images/tree1.png","","","learning","-6","0","0","0","tree","plants","1","1","","bad","[-6]"
"html-keyboard-response","233","832870","0.0-11.0-2.0-0.22","4500","2","15","Female","approach_avoid_spark_v1","""event"",""trial"",""time""
""fullscreenenter"",""1"",""2058""
","
","
","""event"",""trial"",""time""
""fullscreenenter"",""1"",""2058""
","
","","","","","","null","<div style=""font-size:60px;"">+</div>","null","","fixation","","","","","","","","","","",""
"aa-learning-trial","234","835878","0.0-11.0-2.0-1.22","4500","2","15","Female","approach_avoid_spark_v1","""event"",""trial"",""time""
""fullscreenenter"",""1"",""2058""
","
","
","""event"",""trial"",""time""
""fullscreenenter"",""1"",""2058""
","
","","","","","","680.5","images/flower2.png","","","learning","-1","-1","1","1","flower","plants","1","1","","neutral","0"
"html-keyboard-response","235","836381","0.0-11.0-2.0-0.23","4500","2","15","Female","approach_avoid_spark_v1","""event"",""trial"",""time""
""fullscreenenter"",""1"",""2058""
","
","
","""event"",""trial"",""time""
""fullscreenenter"",""1"",""2058""
","
","","","","","","null","<div style=""font-size:60px;"">+</div>","null","","fixation","","","","","","","","","","",""
"aa-learning-trial","236","839390","0.0-11.0-2.0-1.23","4500","2","15","Female","approach_avoid_spark_v1","""event"",""trial"",""time""
""fullscreenenter"",""1"",""2058""
","
","
","""event"",""trial"",""time""
""fullscreenenter"",""1"",""2058""
","
","","","","","","617.7999999821186","images/bush6.png","","","learning","7","7","1","1","bush","plants","1","1","","good","[6]"
