"trial_type","trial_index","time_elapsed","internal_node_id","subject_id","task_condition","age","gender","task_version","interactions","blur_events","focus_events","fullscreenenter_events","fullscreenexit_events","success","timeout","failed_images","failed_audio","failed_video","rt","stimulus","response","button_pressed","task_part","approach_reward","points","key_press","option_selected","stim_cat","task_block","block_condition","block_number","correct","cat_type","mean_cat_reward"
"pavlovia","0","3","0.0-0.0","4300","2","19","Female","approach_avoid_spark_v1","""event"",""trial"",""time""
""fullscreenenter"",""1"",""2690""
","
","
","""event"",""trial"",""time""
""fullscreenenter"",""1"",""2690""
","
","","","","","","","","","","","","","","","","","","","","",""
"fullscreen","1","3683","0.0-1.0","4300","2","19","Female","approach_avoid_spark_v1","""event"",""trial"",""time""
""fullscreenenter"",""1"",""2690""
","
","
","""event"",""trial"",""time""
""fullscreenenter"",""1"",""2690""
","
","true","","","","","","","","","","","","","","","","","","","",""
"preload","2","7452","0.0-2.0","4300","2","19","Female","approach_avoid_spark_v1","""event"",""trial"",""time""
""fullscreenenter"",""1"",""2690""
","
","
","""event"",""trial"",""time""
""fullscreenenter"",""1"",""2690""
","
","true","false","[]","[]","[]","","","","","","","","","","","","","","","",""
"audio-keyboard-response","3","9266","0.0-3.0","4300","2","19","Female","approach_avoid_spark_v1","""event"",""trial"",""time""
""fullscreenenter"",""1"",""2690""
","
","
","""event"",""trial"",""time""
""fullscreenenter"",""1"",""2690""
","
","","","","","","1818.6666666666672","audio/beep_loop.wav"," ","","","","","","","","","","","","",""
"audio-button-response","4","11361","0.0-4.0","4300","2","19","Female","approach_avoid_spark_v1","""event"",""trial"",""time""
""fullscreenenter"",""1"",""2690""
","
","
","""event"",""trial"",""time""
""fullscreenenter"",""1"",""2690""
","
","","","","","","2091","audio/shark.wav","4","","","","","","","","","","","","",""
"audio-button-response","5","14128","0.0-5.0","4300","2","19","Female","approach_avoid_spark_v1","""event"",""trial"",""time""
""fullscreenenter"",""1"",""2690""
","
","
","""event"",""trial"",""time""
""fullscreenenter"",""1"",""2690""
","
","","","","","","1760","audio/turtle.wav","1","","","","","","","","","","","","",""
"preload","6","16914","0.0-6.0","4300","2","19","Female","approach_avoid_spark_v1","""event"",""trial"",""time""
""fullscreenenter"",""1"",""2690""
","
","
","""event"",""trial"",""time""
""fullscreenenter"",""1"",""2690""
","
","true","false","[]","[]","[]","","","","","","","","","","","","","","","",""
"html-keyboard-response","7","18155","0.0-7.0","4300","2","19","Female","approach_avoid_spark_v1","""event"",""trial"",""time""
""fullscreenenter"",""1"",""2690""
","
","
","""event"",""trial"",""time""
""fullscreenenter"",""1"",""2690""
","
","","","","","","1238.5999999046326","Welcome to the experiment. Press any key to begin and to advance the instructions."," ","","","","","","","","","","","","",""
"learning-instructions","8","27678","0.0-8.0-0.0-0.0","4300","2","19","Female","approach_avoid_spark_v1","""event"",""trial"",""time""
""fullscreenenter"",""1"",""2690""
","
","
","""event"",""trial"",""time""
""fullscreenenter"",""1"",""2690""
","
","","","","","","2560.6000003814697","<p> Welcome! Today you are going to play 6 different rounds of a decision-making game. </p><p> Use the mouse to click next to continue. </p>","","0","instructions","","","","","","","","","","",""
"learning-instructions","9","31632","0.0-8.0-0.0-0.1","4300","2","19","Female","approach_avoid_spark_v1","""event"",""trial"",""time""
""fullscreenenter"",""1"",""2690""
","
","
","""event"",""trial"",""time""
""fullscreenenter"",""1"",""2690""
","
","","","","","","1215.8999996185303","<p> You will start with a practice round to learn the rules. </p>","","0","instructions","","","","","","","","","","",""
"learning-instructions","10","36310","0.0-8.0-0.0-0.2","4300","2","19","Female","approach_avoid_spark_v1","""event"",""trial"",""time""
""fullscreenenter"",""1"",""2690""
","
","
","""event"",""trial"",""time""
""fullscreenenter"",""1"",""2690""
","
","","","","","","1224.1999998092651","<p> Your goal in this round is to give out sports equipment to kids. </p></div>","","0","instructions","","","","","","","","","","",""
"learning-instructions","11","45127","0.0-8.0-0.0-0.3","4300","2","19","Female","approach_avoid_spark_v1","""event"",""trial"",""time""
""fullscreenenter"",""1"",""2690""
","
","
","""event"",""trial"",""time""
""fullscreenenter"",""1"",""2690""
","
","","","","","","1260.3000001907349","<p> The kids only like some of the equipment.  </p><p> On each turn, you will see a piece of sports equipment.   </p><p> You need to decide whether to give it to the kids or not.  </p>","","0","instructions","","","","","","","","","","",""
"learning-instructions","12","51206","0.0-8.0-0.0-0.4","4300","2","19","Female","approach_avoid_spark_v1","""event"",""trial"",""time""
""fullscreenenter"",""1"",""2690""
","
","
","""event"",""trial"",""time""
""fullscreenenter"",""1"",""2690""
","
","","","","","","1320.6999998092651","<p> You can give them the equipment by pressing 1 and choose not to give it to them by pressing 0. </p><br><div class=""choice-instructions-grid""> <div class=""choice-option""><img src=""images/approach.png"" class=""choice-option-img"" stage=""instructions"" position=""0"" ><div class=""choice-option-text""> Press ""1."" </div></div><div class=""choice-option""><img src=""images/avoid.png"" class=""choice-option-img"" stage=""instructions"" position=""1"" ><div class=""choice-option-text""> Press ""0."" </div></div>","","0","instructions","","","","","","","","","","",""
"learning-instructions","13","59510","0.0-8.0-0.0-0.5","4300","2","19","Female","approach_avoid_spark_v1","""event"",""trial"",""time""
""fullscreenenter"",""1"",""2690""
","
","
","""event"",""trial"",""time""
""fullscreenenter"",""1"",""2690""
","
","","","","","","913.3000001907349","<p> If you give them a piece of equipment they like, they will be happy! </p><p> But if you give them a piece of equipment they do not like, they will be sad. </p>","","0","instructions","","","","","","","","","","",""
"learning-instructions","14","70690","0.0-8.0-0.0-0.6","4300","2","19","Female","approach_avoid_spark_v1","""event"",""trial"",""time""
""fullscreenenter"",""1"",""2690""
","
","
","""event"",""trial"",""time""
""fullscreenenter"",""1"",""2690""
","
","","","","","","664.1000003814697","<p> You will earn points based on how you make kids feel. </p><p> If you make them happy, you will WIN anywhere from 1 - 9 points, </p><p> but if you make them sad, you will LOSE anywhere from 1 - 9 points. </p>","","0","instructions","","","","","","","","","","",""
"learning-instructions","15","81270","0.0-8.0-0.0-0.7","4300","2","19","Female","approach_avoid_spark_v1","""event"",""trial"",""time""
""fullscreenenter"",""1"",""2690""
","
","
","""event"",""trial"",""time""
""fullscreenenter"",""1"",""2690""
","
","","","","","","1022.5","<p> You will see how many points you won or lost in the center of the screen. </p><p> Here is what you would see if you won 6 points: </p><p style=""color:green;font-size:50px;font-weight:bolder"">6</p><p style=""color:green"">The text is GREEN because you WON points.</p>","","0","instructions","","","","","","","","","","",""
"learning-instructions","16","87701","0.0-8.0-0.0-0.8","4300","2","19","Female","approach_avoid_spark_v1","""event"",""trial"",""time""
""fullscreenenter"",""1"",""2690""
","
","
","""event"",""trial"",""time""
""fullscreenenter"",""1"",""2690""
","
","","","","","","924.3000001907349","<p> And here is what you would see if you lost 4 points: </p><p style=""color:red;font-size:50px;font-weight:bolder"">-4</p><p style=""color:red"">The text is RED because you LOST points. </p>","","0","instructions","","","","","","","","","","",""
"learning-instructions","17","103676","0.0-8.0-0.0-0.9","4300","2","19","Female","approach_avoid_spark_v1","""event"",""trial"",""time""
""fullscreenenter"",""1"",""2690""
","
","
","""event"",""trial"",""time""
""fullscreenenter"",""1"",""2690""
","
","","","","","","1249.5999999046326","<p> Some of the equipment will make the kids VERY happy or sad. </p><p> These pieces of equipment will make you win or lose LOTS of points. </p><p> Other pieces of equipment will only make the kids a little happy or sad. </p><p> These pieces of equipment will make you win or lose small amounts of points. </p>","","0","instructions","","","","","","","","","","",""
"learning-instructions","18","114888","0.0-8.0-0.0-0.10","4300","2","19","Female","approach_avoid_spark_v1","""event"",""trial"",""time""
""fullscreenenter"",""1"",""2690""
","
","
","""event"",""trial"",""time""
""fullscreenenter"",""1"",""2690""
","
","","","","","","591.1000003814697","<p> If you choose not to give them the equipment, you will not win or lose any points. </p><p>  However, in the center of the screen, you will see the number of points you WOULD HAVE won or lost if you had given them the equipment. </p>","","0","instructions","","","","","","","","","","",""
"learning-instructions","19","139251","0.0-8.0-0.0-0.11","4300","2","19","Female","approach_avoid_spark_v1","""event"",""trial"",""time""
""fullscreenenter"",""1"",""2690""
","
","
","""event"",""trial"",""time""
""fullscreenenter"",""1"",""2690""
","
","","","","","","2824.7999997138977","<p> Here is what you might see if you did not give the equipment to the kids but it would have made them happy: </p><p style=""color:grey; font-size:50px; display: inline-block; border-spacing: 15px; border-width:3px; border-style:solid; border-color:red"">  &nbsp; 7 &nbsp; </p><p> Remember, in this case, you would not win or lose ANY points because you did not give them the equipment.  </p><p style=""color:grey"">The text is GREY because you earned ZERO points. </p><p style=""color:red"">However, choosing to give the kids the equipment would have made you win points. The box around the text is RED because you chose the worse option. </p>","","0","instructions","","","","","","","","","","",""
"learning-instructions","20","161247","0.0-8.0-0.0-0.12","4300","2","19","Female","approach_avoid_spark_v1","""event"",""trial"",""time""
""fullscreenenter"",""1"",""2690""
","
","
","""event"",""trial"",""time""
""fullscreenenter"",""1"",""2690""
","
","","","","","","910.0999999046326","<p> Here is what you might see if you did not give the equipment to the kids but it would have made them sad: </p><p style=""color:grey;font-size:50px; display: inline-block; border-spacing: 15px; border-width:3px; border-style:solid; border-color:green"">  &nbsp; -8 &nbsp; </p><p> Remember, in this case, you would not win or lose ANY points because you did not give them the equipment.  </p><p style=""color:grey"">The text is GREY because you earned ZERO points. </p><p  style=""color:green""> Choosing to give the kids the equipment would have made you lose points. The box around the text is GREEN because you chose the better option.</p>","","0","instructions","","","","","","","","","","",""
"learning-instructions","21","171355","0.0-8.0-0.0-0.13","4300","2","19","Female","approach_avoid_spark_v1","""event"",""trial"",""time""
""fullscreenenter"",""1"",""2690""
","
","
","""event"",""trial"",""time""
""fullscreenenter"",""1"",""2690""
","
","","","","","","1138.8000001907349","<p> You will have 3 seconds to make each choice. Try to respond before time runs out! </p><p> You will lose 5 points each time you do not make a response. </p>","","0","instructions","","","","","","","","","","",""
"learning-instructions","22","177430","0.0-8.0-0.0-0.14","4300","2","19","Female","approach_avoid_spark_v1","""event"",""trial"",""time""
""fullscreenenter"",""1"",""2690""
","
","
","""event"",""trial"",""time""
""fullscreenenter"",""1"",""2690""
","
","","","","","","644.2999997138977","<p> This is just a practice round, but in the real game, your bonus payment will depend on your total number of points.","","0","instructions","","","","","","","","","","",""
"learning-instructions","23","184262","0.0-8.0-0.0-0.15","4300","2","19","Female","approach_avoid_spark_v1","""event"",""trial"",""time""
""fullscreenenter"",""1"",""2690""
","
","
","""event"",""trial"",""time""
""fullscreenenter"",""1"",""2690""
","
","","","","","","1065.1999998092651","<p> Remember, you can give them the equipment by pressing 1 and choose not to give it to them by pressing 0. </p><br><div class=""choice-instructions-grid""> <div class=""choice-option""><img src=""images/approach.png"" class=""choice-option-img"" stage=""instructions"" position=""0"" ><div class=""choice-option-text""> Press ""1."" </div></div><div class=""choice-option""><img src=""images/avoid.png"" class=""choice-option-img"" stage=""instructions"" position=""1"" ><div class=""choice-option-text""> Press ""0."" </div></div>","","0","instructions","","","","","","","","","","",""
"html-button-response","24","185621","0.0-8.0-1.0","4300","2","19","Female","approach_avoid_spark_v1","""event"",""trial"",""time""
""fullscreenenter"",""1"",""2690""
","
","
","""event"",""trial"",""time""
""fullscreenenter"",""1"",""2690""
","
","","","","","","1250.1999998092651","<p> Ready to practice? </p>","0","","","","","","","","","","","","",""
"html-keyboard-response","25","186241","0.0-8.0-2.0-0.0","4300","2","19","Female","approach_avoid_spark_v1","""event"",""trial"",""time""
""fullscreenenter"",""1"",""2690""
","
","
","""event"",""trial"",""time""
""fullscreenenter"",""1"",""2690""
","
","","","","","","null","<div style=""font-size:60px;"">+</div>","null","","fixation","","","","","","","","","","",""
"aa-learning-trial","26","189252","0.0-8.0-2.0-1.0","4300","2","19","Female","approach_avoid_spark_v1","""event"",""trial"",""time""
""fullscreenenter"",""1"",""2690""
","
","
","""event"",""trial"",""time""
""fullscreenenter"",""1"",""2690""
","
","","","","","","2047.0999999046326","images/ball4.png","","","learning","-5","-5","1","1","practice","practice","practice","-1","","",""
"html-keyboard-response","27","189771","0.0-8.0-2.0-0.1","4300","2","19","Female","approach_avoid_spark_v1","""event"",""trial"",""time""
""fullscreenenter"",""1"",""2690""
","
","
","""event"",""trial"",""time""
""fullscreenenter"",""1"",""2690""
","
","","","","","","null","<div style=""font-size:60px;"">+</div>","null","","fixation","","","","","","","","","","",""
"aa-learning-trial","28","192775","0.0-8.0-2.0-1.1","4300","2","19","Female","approach_avoid_spark_v1","""event"",""trial"",""time""
""fullscreenenter"",""1"",""2690""
","
","
","""event"",""trial"",""time""
""fullscreenenter"",""1"",""2690""
","
","","","","","","1628.5","images/racket1.png","","","learning","-3","0","0","0","practice","practice","practice","-1","","",""
"html-keyboard-response","29","193289","0.0-8.0-2.0-0.2","4300","2","19","Female","approach_avoid_spark_v1","""event"",""trial"",""time""
""fullscreenenter"",""1"",""2690""
","
","
","""event"",""trial"",""time""
""fullscreenenter"",""1"",""2690""
","
","","","","","","null","<div style=""font-size:60px;"">+</div>","null","","fixation","","","","","","","","","","",""
"aa-learning-trial","30","196309","0.0-8.0-2.0-1.2","4300","2","19","Female","approach_avoid_spark_v1","""event"",""trial"",""time""
""fullscreenenter"",""1"",""2690""
","
","
","""event"",""trial"",""time""
""fullscreenenter"",""1"",""2690""
","
","","","","","","1106","images/ball3.png","","","learning","3","3","1","1","practice","practice","practice","-1","","",""
"html-keyboard-response","31","196821","0.0-8.0-2.0-0.3","4300","2","19","Female","approach_avoid_spark_v1","""event"",""trial"",""time""
""fullscreenenter"",""1"",""2690""
","
","
","""event"",""trial"",""time""
""fullscreenenter"",""1"",""2690""
","
","","","","","","null","<div style=""font-size:60px;"">+</div>","null","","fixation","","","","","","","","","","",""
"aa-learning-trial","32","199841","0.0-8.0-2.0-1.3","4300","2","19","Female","approach_avoid_spark_v1","""event"",""trial"",""time""
""fullscreenenter"",""1"",""2690""
","
","
","""event"",""trial"",""time""
""fullscreenenter"",""1"",""2690""
","
","","","","","","1008.9000000953674","images/ball2.png","","","learning","1","0","0","0","practice","practice","practice","-1","","",""
"html-keyboard-response","33","200343","0.0-8.0-2.0-0.4","4300","2","19","Female","approach_avoid_spark_v1","""event"",""trial"",""time""
""fullscreenenter"",""1"",""2690""
","
","
","""event"",""trial"",""time""
""fullscreenenter"",""1"",""2690""
","
","","","","","","null","<div style=""font-size:60px;"">+</div>","null","","fixation","","","","","","","","","","",""
"aa-learning-trial","34","203361","0.0-8.0-2.0-1.4","4300","2","19","Female","approach_avoid_spark_v1","""event"",""trial"",""time""
""fullscreenenter"",""1"",""2690""
","
","
","""event"",""trial"",""time""
""fullscreenenter"",""1"",""2690""
","
","","","","","","730.8000001907349","images/racket3.png","","","learning","3","3","1","1","practice","practice","practice","-1","","",""
"html-keyboard-response","35","203875","0.0-8.0-2.0-0.5","4300","2","19","Female","approach_avoid_spark_v1","""event"",""trial"",""time""
""fullscreenenter"",""1"",""2690""
","
","
","""event"",""trial"",""time""
""fullscreenenter"",""1"",""2690""
","
","","","","","","null","<div style=""font-size:60px;"">+</div>","null","","fixation","","","","","","","","","","",""
"aa-learning-trial","36","206881","0.0-8.0-2.0-1.5","4300","2","19","Female","approach_avoid_spark_v1","""event"",""trial"",""time""
""fullscreenenter"",""1"",""2690""
","
","
","""event"",""trial"",""time""
""fullscreenenter"",""1"",""2690""
","
","","","","","","718.8000001907349","images/racket3.png","","","learning","3","3","1","1","practice","practice","practice","-1","","",""
"html-keyboard-response","37","207395","0.0-8.0-2.0-0.6","4300","2","19","Female","approach_avoid_spark_v1","""event"",""trial"",""time""
""fullscreenenter"",""1"",""2690""
","
","
","""event"",""trial"",""time""
""fullscreenenter"",""1"",""2690""
","
","","","","","","null","<div style=""font-size:60px;"">+</div>","null","","fixation","","","","","","","","","","",""
"aa-learning-trial","38","210401","0.0-8.0-2.0-1.6","4300","2","19","Female","approach_avoid_spark_v1","""event"",""trial"",""time""
""fullscreenenter"",""1"",""2690""
","
","
","""event"",""trial"",""time""
""fullscreenenter"",""1"",""2690""
","
","","","","","","1048","images/ball1.png","","","learning","-9","0","0","0","practice","practice","practice","-1","","",""
"html-keyboard-response","39","210914","0.0-8.0-2.0-0.7","4300","2","19","Female","approach_avoid_spark_v1","""event"",""trial"",""time""
""fullscreenenter"",""1"",""2690""
","
","
","""event"",""trial"",""time""
""fullscreenenter"",""1"",""2690""
","
","","","","","","null","<div style=""font-size:60px;"">+</div>","null","","fixation","","","","","","","","","","",""
"aa-learning-trial","40","213919","0.0-8.0-2.0-1.7","4300","2","19","Female","approach_avoid_spark_v1","""event"",""trial"",""time""
""fullscreenenter"",""1"",""2690""
","
","
","""event"",""trial"",""time""
""fullscreenenter"",""1"",""2690""
","
","","","","","","657","images/ball4.png","","","learning","1","1","1","1","practice","practice","practice","-1","","",""
"html-keyboard-response","41","214423","0.0-8.0-2.0-0.8","4300","2","19","Female","approach_avoid_spark_v1","""event"",""trial"",""time""
""fullscreenenter"",""1"",""2690""
","
","
","""event"",""trial"",""time""
""fullscreenenter"",""1"",""2690""
","
","","","","","","null","<div style=""font-size:60px;"">+</div>","null","","fixation","","","","","","","","","","",""
"aa-learning-trial","42","217433","0.0-8.0-2.0-1.8","4300","2","19","Female","approach_avoid_spark_v1","""event"",""trial"",""time""
""fullscreenenter"",""1"",""2690""
","
","
","""event"",""trial"",""time""
""fullscreenenter"",""1"",""2690""
","
","","","","","","560.2999997138977","images/ball3.png","","","learning","2","2","1","1","practice","practice","practice","-1","","",""
"html-keyboard-response","43","217935","0.0-8.0-2.0-0.9","4300","2","19","Female","approach_avoid_spark_v1","""event"",""trial"",""time""
""fullscreenenter"",""1"",""2690""
","
","
","""event"",""trial"",""time""
""fullscreenenter"",""1"",""2690""
","
","","","","","","null","<div style=""font-size:60px;"">+</div>","null","","fixation","","","","","","","","","","",""
"aa-learning-trial","44","220944","0.0-8.0-2.0-1.9","4300","2","19","Female","approach_avoid_spark_v1","""event"",""trial"",""time""
""fullscreenenter"",""1"",""2690""
","
","
","""event"",""trial"",""time""
""fullscreenenter"",""1"",""2690""
","
","","","","","","711.4000000953674","images/racket3.png","","","learning","-7","-7","1","1","practice","practice","practice","-1","","",""
"html-keyboard-response","45","221448","0.0-8.0-2.0-0.10","4300","2","19","Female","approach_avoid_spark_v1","""event"",""trial"",""time""
""fullscreenenter"",""1"",""2690""
","
","
","""event"",""trial"",""time""
""fullscreenenter"",""1"",""2690""
","
","","","","","","null","<div style=""font-size:60px;"">+</div>","null","","fixation","","","","","","","","","","",""
"aa-learning-trial","46","224456","0.0-8.0-2.0-1.10","4300","2","19","Female","approach_avoid_spark_v1","""event"",""trial"",""time""
""fullscreenenter"",""1"",""2690""
","
","
","""event"",""trial"",""time""
""fullscreenenter"",""1"",""2690""
","
","","","","","","667.7999997138977","images/ball4.png","","","learning","4","4","1","1","practice","practice","practice","-1","","",""
"html-keyboard-response","47","224972","0.0-8.0-2.0-0.11","4300","2","19","Female","approach_avoid_spark_v1","""event"",""trial"",""time""
""fullscreenenter"",""1"",""2690""
","
","
","""event"",""trial"",""time""
""fullscreenenter"",""1"",""2690""
","
","","","","","","null","<div style=""font-size:60px;"">+</div>","null","","fixation","","","","","","","","","","",""
"aa-learning-trial","48","227984","0.0-8.0-2.0-1.11","4300","2","19","Female","approach_avoid_spark_v1","""event"",""trial"",""time""
""fullscreenenter"",""1"",""2690""
","
","
","""event"",""trial"",""time""
""fullscreenenter"",""1"",""2690""
","
","","","","","","583.9000000953674","images/racket2.png","","","learning","-1","0","0","0","practice","practice","practice","-1","","",""
"html-button-response","49","229979","0.0-8.0-3.0","4300","2","19","Female","approach_avoid_spark_v1","""event"",""trial"",""time""
""fullscreenenter"",""1"",""2690""
","
","
","""event"",""trial"",""time""
""fullscreenenter"",""1"",""2690""
","
","","","","","","1991.6999998092651","<p> You earned 4 points in the practice round! </p>","0","","break","","","","","","","","","","",""
"learning-instructions","50","238034","0.0-8.0-4.0-0.0","4300","2","19","Female","approach_avoid_spark_v1","""event"",""trial"",""time""
""fullscreenenter"",""1"",""2690""
","
","
","""event"",""trial"",""time""
""fullscreenenter"",""1"",""2690""
","
","","","","","","1599.5999999046326","<p> It's almost time to start the real game. </p><p> Before you start, we're going to ask you a few questions about how the game works. </p>","","0","instructions","","","","","","","","","","",""
"preload","51","240788","0.0-8.0-5.0","4300","2","19","Female","approach_avoid_spark_v1","""event"",""trial"",""time""
""fullscreenenter"",""1"",""2690""
","
","
","""event"",""trial"",""time""
""fullscreenenter"",""1"",""2690""
","
","true","false","[]","[]","[]","","","","","","","","","","","","","","","",""
"comp-q","52","247150","0.0-8.0-6.0-0.0","4300","2","19","Female","approach_avoid_spark_v1","""event"",""trial"",""time""
""fullscreenenter"",""1"",""2690""
","
","
","""event"",""trial"",""time""
""fullscreenenter"",""1"",""2690""
","
","","","","","","1364.5","<p> <b> True or False? </b> </p><p> If you see a number in GREY, that means you earned that many points. </p>","","1","comp_question","","","","","","","","","true","",""
"comp-q","53","257062","0.0-8.0-6.0-1.0","4300","2","19","Female","approach_avoid_spark_v1","""event"",""trial"",""time""
""fullscreenenter"",""1"",""2690""
","
","
","""event"",""trial"",""time""
""fullscreenenter"",""1"",""2690""
","
","","","","","","1547.6000003814697","<p><b> That's right! </b> If you see a grey number, it means you earned ZERO points. <br> The grey numbers show the points you WOULD HAVE earned if you had made the other choice. </p>","","0","comp_answer","","","","","","","","","","",""
"comp-q","54","262754","0.0-8.0-7.0-0.0","4300","2","19","Female","approach_avoid_spark_v1","""event"",""trial"",""time""
""fullscreenenter"",""1"",""2690""
","
","
","""event"",""trial"",""time""
""fullscreenenter"",""1"",""2690""
","
","","","","","","999","<p> <b> True or False? </b> </p><p> You will have as much time as you want to make each choice. </p>","","1","comp_question","","","","","","","","","true","",""
"comp-q","55","267836","0.0-8.0-7.0-1.0","4300","2","19","Female","approach_avoid_spark_v1","""event"",""trial"",""time""
""fullscreenenter"",""1"",""2690""
","
","
","""event"",""trial"",""time""
""fullscreenenter"",""1"",""2690""
","
","","","","","","1041.5","<p> <b> That's right! </b> You will only have 3 seconds to make each choice. </p>","","0","comp_answer","","","","","","","","","","",""
"comp-q","56","273799","0.0-8.0-8.0-0.0","4300","2","19","Female","approach_avoid_spark_v1","""event"",""trial"",""time""
""fullscreenenter"",""1"",""2690""
","
","
","""event"",""trial"",""time""
""fullscreenenter"",""1"",""2690""
","
","","","","","","1294.7000002861023","<p> <b> True or False? </b> </p><p> You should use the '1' and '0' keys to make your choices. </p>","","0","comp_question","","","","","","","","","true","",""
"comp-q","57","279351","0.0-8.0-8.0-1.0","4300","2","19","Female","approach_avoid_spark_v1","""event"",""trial"",""time""
""fullscreenenter"",""1"",""2690""
","
","
","""event"",""trial"",""time""
""fullscreenenter"",""1"",""2690""
","
","","","","","","936.9000000953674","<p> <b> That's right! </b> You should use the '1' and '0' keys to make each choice. </p>","","0","comp_answer","","","","","","","","","","",""
"learning-instructions","58","287031","0.0-8.0-9.0-0.0","4300","2","19","Female","approach_avoid_spark_v1","""event"",""trial"",""time""
""fullscreenenter"",""1"",""2690""
","
","
","""event"",""trial"",""time""
""fullscreenenter"",""1"",""2690""
","
","","","","","","1406.4000000953674","<p> It's now time to start the real game. </p>Do your best, because the points you earn in the next rounds will influence your bonus payment. </p>","","0","instructions","","","","","","","","","","",""
"preload","59","287154","0.0-9.0-0.0","4300","2","19","Female","approach_avoid_spark_v1","""event"",""trial"",""time""
""fullscreenenter"",""1"",""2690""
","
","
","""event"",""trial"",""time""
""fullscreenenter"",""1"",""2690""
","
","true","false","[]","[]","[]","","","","","","","","","","","","","","","",""
"learning-instructions","60","292099","0.0-9.0-1.0-0.0","4300","2","19","Female","approach_avoid_spark_v1","""event"",""trial"",""time""
""fullscreenenter"",""1"",""2690""
","
","
","""event"",""trial"",""time""
""fullscreenenter"",""1"",""2690""
","
","","","","","","1154.4000000953674","<p> Your goal in this round is to take care of lots of animals. </p></div>","","0","instructions","","","","","","","","","","",""
"learning-instructions","61","302155","0.0-9.0-1.0-0.1","4300","2","19","Female","approach_avoid_spark_v1","""event"",""trial"",""time""
""fullscreenenter"",""1"",""2690""
","
","
","""event"",""trial"",""time""
""fullscreenenter"",""1"",""2690""
","
","","","","","","690.5","<p> Some animals want to be pet, while other animals want to be left alone.  </p><p> On each turn, you will see an animal.   </p><p> You need to decide whether to pet it or not.  </p>","","0","instructions","","","","","","","","","","",""
"learning-instructions","62","308069","0.0-9.0-1.0-0.2","4300","2","19","Female","approach_avoid_spark_v1","""event"",""trial"",""time""
""fullscreenenter"",""1"",""2690""
","
","
","""event"",""trial"",""time""
""fullscreenenter"",""1"",""2690""
","
","","","","","","883.4000000953674","<p> You can pet the animal by pressing 1 and leave the animal alone by pressing 0. </p><br><div class=""choice-instructions-grid""> <div class=""choice-option""><img src=""images/approach.png"" class=""choice-option-img"" stage=""instructions"" position=""0"" ><div class=""choice-option-text""> Press ""1."" </div></div><div class=""choice-option""><img src=""images/avoid.png"" class=""choice-option-img"" stage=""instructions"" position=""1"" ><div class=""choice-option-text""> Press ""0."" </div></div>","","0","instructions","","","","","","","","","","",""
"learning-instructions","63","319223","0.0-9.0-1.0-0.3","4300","2","19","Female","approach_avoid_spark_v1","""event"",""trial"",""time""
""fullscreenenter"",""1"",""2690""
","
","
","""event"",""trial"",""time""
""fullscreenenter"",""1"",""2690""
","
","","","","","","638.8000001907349","<p> If you pet an animal that wants to be pet, you will make it feel happy! </p><p> But if you pet an animal that wants to be left alone, you will make it feel angry. </p>","","0","instructions","","","","","","","","","","",""
"learning-instructions","64","334893","0.0-9.0-1.0-0.4","4300","2","19","Female","approach_avoid_spark_v1","""event"",""trial"",""time""
""fullscreenenter"",""1"",""2690""
","
","
","""event"",""trial"",""time""
""fullscreenenter"",""1"",""2690""
","
","","","","","","768.4000000953674","<p> You will earn points based on how you made the animal feel. </p><p> If you made it feel happy, you will WIN anywhere from 1 - 9 points, </p><p> but if you made it feel angry, you will LOSE anywhere from 1 - 9 points. </p>","","0","instructions","","","","","","","","","","",""
"learning-instructions","65","343735","0.0-9.0-1.0-0.5","4300","2","19","Female","approach_avoid_spark_v1","""event"",""trial"",""time""
""fullscreenenter"",""1"",""2690""
","
","
","""event"",""trial"",""time""
""fullscreenenter"",""1"",""2690""
","
","","","","","","580.7000002861023","<p> You will see how many points you won or lost in the center of the screen. </p><p> Here is what you would see if you won 5 points: </p><p style=""color:green;font-size:50px;font-weight:bolder"">5</p>","","0","instructions","","","","","","","","","","",""
"learning-instructions","66","347963","0.0-9.0-1.0-0.6","4300","2","19","Female","approach_avoid_spark_v1","""event"",""trial"",""time""
""fullscreenenter"",""1"",""2690""
","
","
","""event"",""trial"",""time""
""fullscreenenter"",""1"",""2690""
","
","","","","","","558.3000001907349","<p> And here is what you would see if you lost 3 points: </p><p style=""color:red;font-size:50px;font-weight:bolder"">-3</p>","","0","instructions","","","","","","","","","","",""
"learning-instructions","67","363406","0.0-9.0-1.0-0.7","4300","2","19","Female","approach_avoid_spark_v1","""event"",""trial"",""time""
""fullscreenenter"",""1"",""2690""
","
","
","""event"",""trial"",""time""
""fullscreenenter"",""1"",""2690""
","
","","","","","","801.8000001907349","<p> Some animals will become very happy or very angry. </p><p> These animals will make you win or lose LOTS of points. </p><p> Other animals have less strong feelings. </p><p> These animals will make you win or lose small amounts of points. </p>","","0","instructions","","","","","","","","","","",""
"learning-instructions","68","375325","0.0-9.0-1.0-0.8","4300","2","19","Female","approach_avoid_spark_v1","""event"",""trial"",""time""
""fullscreenenter"",""1"",""2690""
","
","
","""event"",""trial"",""time""
""fullscreenenter"",""1"",""2690""
","
","","","","","","601","<p> If you choose to leave the animal alone, you will not win or lose any points. </p><p>  However, in the center of the screen, you will see the number of points you WOULD HAVE won or lost if you had pet the animal. </p>","","0","instructions","","","","","","","","","","",""
"learning-instructions","69","388298","0.0-9.0-1.0-0.9","4300","2","19","Female","approach_avoid_spark_v1","""event"",""trial"",""time""
""fullscreenenter"",""1"",""2690""
","
","
","""event"",""trial"",""time""
""fullscreenenter"",""1"",""2690""
","
","","","","","","1383.7000002861023","<p> Here is what you might see if you did not pet the animal but the animal wanted to be pet: </p><p style=""color:grey; font-size:50px; display: inline-block; border-spacing: 15px; border-width:3px; border-style:solid; border-color:red"">  &nbsp; 6 &nbsp; </p><p> Remember, in this case, you would not win or lose ANY points because you did not pet the animal.  </p>","","0","instructions","","","","","","","","","","",""
"learning-instructions","70","396265","0.0-9.0-1.0-0.10","4300","2","19","Female","approach_avoid_spark_v1","""event"",""trial"",""time""
""fullscreenenter"",""1"",""2690""
","
","
","""event"",""trial"",""time""
""fullscreenenter"",""1"",""2690""
","
","","","","","","940.5","<p> Try to make the best choice for each animal because </p><p> at the end of the game, you will earn bonus money based on how many points you earned. </p>","","0","instructions","","","","","","","","","","",""
"learning-instructions","71","405250","0.0-9.0-1.0-0.11","4300","2","19","Female","approach_avoid_spark_v1","""event"",""trial"",""time""
""fullscreenenter"",""1"",""2690""
","
","
","""event"",""trial"",""time""
""fullscreenenter"",""1"",""2690""
","
","","","","","","796.8999996185303","<p> You will have 3 seconds to make each choice. Try to respond before time runs out! </p><p> You will lose 5 points each time you do not make a response. </p>","","0","instructions","","","","","","","","","","",""
"html-keyboard-response","72","405865","0.0-9.0-2.0-0.0","4300","2","19","Female","approach_avoid_spark_v1","""event"",""trial"",""time""
""fullscreenenter"",""1"",""2690""
","
","
","""event"",""trial"",""time""
""fullscreenenter"",""1"",""2690""
","
","","","","","","null","<div style=""font-size:60px;"">+</div>","null","","fixation","","","","","","","","","","",""
"aa-learning-trial","73","408879","0.0-9.0-2.0-1.0","4300","2","19","Female","approach_avoid_spark_v1","""event"",""trial"",""time""
""fullscreenenter"",""1"",""2690""
","
","
","""event"",""trial"",""time""
""fullscreenenter"",""1"",""2690""
","
","","","","","","684.9000000953674","images/rabbit4.png","","","learning","5","5","1","1","rabbit","pets","2","0","","neutral","0"
"html-keyboard-response","74","409390","0.0-9.0-2.0-0.1","4300","2","19","Female","approach_avoid_spark_v1","""event"",""trial"",""time""
""fullscreenenter"",""1"",""2690""
","
","
","""event"",""trial"",""time""
""fullscreenenter"",""1"",""2690""
","
","","","","","","null","<div style=""font-size:60px;"">+</div>","null","","fixation","","","","","","","","","","",""
"aa-learning-trial","75","412402","0.0-9.0-2.0-1.1","4300","2","19","Female","approach_avoid_spark_v1","""event"",""trial"",""time""
""fullscreenenter"",""1"",""2690""
","
","
","""event"",""trial"",""time""
""fullscreenenter"",""1"",""2690""
","
","","","","","","656","images/cat6.png","","","learning","2","2","1","1","cat","pets","2","0","","good","[3]"
"html-keyboard-response","76","412916","0.0-9.0-2.0-0.2","4300","2","19","Female","approach_avoid_spark_v1","""event"",""trial"",""time""
""fullscreenenter"",""1"",""2690""
","
","
","""event"",""trial"",""time""
""fullscreenenter"",""1"",""2690""
","
","","","","","","null","<div style=""font-size:60px;"">+</div>","null","","fixation","","","","","","","","","","",""
"aa-learning-trial","77","415933","0.0-9.0-2.0-1.2","4300","2","19","Female","approach_avoid_spark_v1","""event"",""trial"",""time""
""fullscreenenter"",""1"",""2690""
","
","
","""event"",""trial"",""time""
""fullscreenenter"",""1"",""2690""
","
","","","","","","549.5999999046326","images/cat6.png","","","learning","2","2","1","1","cat","pets","2","0","","good","[3]"
"html-keyboard-response","78","416444","0.0-9.0-2.0-0.3","4300","2","19","Female","approach_avoid_spark_v1","""event"",""trial"",""time""
""fullscreenenter"",""1"",""2690""
","
","
","""event"",""trial"",""time""
""fullscreenenter"",""1"",""2690""
","
","","","","","","null","<div style=""font-size:60px;"">+</div>","null","","fixation","","","","","","","","","","",""
"aa-learning-trial","79","419463","0.0-9.0-2.0-1.3","4300","2","19","Female","approach_avoid_spark_v1","""event"",""trial"",""time""
""fullscreenenter"",""1"",""2690""
","
","
","""event"",""trial"",""time""
""fullscreenenter"",""1"",""2690""
","
","","","","","","750.8000001907349","images/rabbit2.png","","","learning","-2","0","0","0","rabbit","pets","2","0","","neutral","0"
"html-keyboard-response","80","419978","0.0-9.0-2.0-0.4","4300","2","19","Female","approach_avoid_spark_v1","""event"",""trial"",""time""
""fullscreenenter"",""1"",""2690""
","
","
","""event"",""trial"",""time""
""fullscreenenter"",""1"",""2690""
","
","","","","","","null","<div style=""font-size:60px;"">+</div>","null","","fixation","","","","","","","","","","",""
"aa-learning-trial","81","422988","0.0-9.0-2.0-1.4","4300","2","19","Female","approach_avoid_spark_v1","""event"",""trial"",""time""
""fullscreenenter"",""1"",""2690""
","
","
","""event"",""trial"",""time""
""fullscreenenter"",""1"",""2690""
","
","","","","","","527.2000002861023","images/cat8.png","","","learning","-3","-3","1","1","cat","pets","2","0","","good","[3]"
"html-keyboard-response","82","423501","0.0-9.0-2.0-0.5","4300","2","19","Female","approach_avoid_spark_v1","""event"",""trial"",""time""
""fullscreenenter"",""1"",""2690""
","
","
","""event"",""trial"",""time""
""fullscreenenter"",""1"",""2690""
","
","","","","","","null","<div style=""font-size:60px;"">+</div>","null","","fixation","","","","","","","","","","",""
"aa-learning-trial","83","426513","0.0-9.0-2.0-1.5","4300","2","19","Female","approach_avoid_spark_v1","""event"",""trial"",""time""
""fullscreenenter"",""1"",""2690""
","
","
","""event"",""trial"",""time""
""fullscreenenter"",""1"",""2690""
","
","","","","","","1075.2999997138977","images/rabbit8.png","","","learning","-9","0","0","0","rabbit","pets","2","0","","neutral","0"
"html-keyboard-response","84","427027","0.0-9.0-2.0-0.6","4300","2","19","Female","approach_avoid_spark_v1","""event"",""trial"",""time""
""fullscreenenter"",""1"",""2690""
","
","
","""event"",""trial"",""time""
""fullscreenenter"",""1"",""2690""
","
","","","","","","null","<div style=""font-size:60px;"">+</div>","null","","fixation","","","","","","","","","","",""
"aa-learning-trial","85","430038","0.0-9.0-2.0-1.6","4300","2","19","Female","approach_avoid_spark_v1","""event"",""trial"",""time""
""fullscreenenter"",""1"",""2690""
","
","
","""event"",""trial"",""time""
""fullscreenenter"",""1"",""2690""
","
","","","","","","557.4000000953674","images/rabbit2.png","","","learning","-2","-2","1","1","rabbit","pets","2","0","","neutral","0"
"html-keyboard-response","86","430552","0.0-9.0-2.0-0.7","4300","2","19","Female","approach_avoid_spark_v1","""event"",""trial"",""time""
""fullscreenenter"",""1"",""2690""
","
","
","""event"",""trial"",""time""
""fullscreenenter"",""1"",""2690""
","
","","","","","","null","<div style=""font-size:60px;"">+</div>","null","","fixation","","","","","","","","","","",""
"aa-learning-trial","87","433571","0.0-9.0-2.0-1.7","4300","2","19","Female","approach_avoid_spark_v1","""event"",""trial"",""time""
""fullscreenenter"",""1"",""2690""
","
","
","""event"",""trial"",""time""
""fullscreenenter"",""1"",""2690""
","
","","","","","","676.5","images/rodent7.png","","","learning","9","0","0","0","rodent","pets","2","0","","bad","[-5]"
"html-keyboard-response","88","434081","0.0-9.0-2.0-0.8","4300","2","19","Female","approach_avoid_spark_v1","""event"",""trial"",""time""
""fullscreenenter"",""1"",""2690""
","
","
","""event"",""trial"",""time""
""fullscreenenter"",""1"",""2690""
","
","","","","","","null","<div style=""font-size:60px;"">+</div>","null","","fixation","","","","","","","","","","",""
"aa-learning-trial","89","437088","0.0-9.0-2.0-1.8","4300","2","19","Female","approach_avoid_spark_v1","""event"",""trial"",""time""
""fullscreenenter"",""1"",""2690""
","
","
","""event"",""trial"",""time""
""fullscreenenter"",""1"",""2690""
","
","","","","","","611.6999998092651","images/rodent7.png","","","learning","9","9","1","1","rodent","pets","2","0","","bad","[-5]"
"html-keyboard-response","90","437591","0.0-9.0-2.0-0.9","4300","2","19","Female","approach_avoid_spark_v1","""event"",""trial"",""time""
""fullscreenenter"",""1"",""2690""
","
","
","""event"",""trial"",""time""
""fullscreenenter"",""1"",""2690""
","
","","","","","","null","<div style=""font-size:60px;"">+</div>","null","","fixation","","","","","","","","","","",""
"aa-learning-trial","91","440613","0.0-9.0-2.0-1.9","4300","2","19","Female","approach_avoid_spark_v1","""event"",""trial"",""time""
""fullscreenenter"",""1"",""2690""
","
","
","""event"",""trial"",""time""
""fullscreenenter"",""1"",""2690""
","
","","","","","","1350.5999999046326","images/rabbit4.png","","","learning","5","0","0","0","rabbit","pets","2","0","","neutral","0"
"html-keyboard-response","92","441132","0.0-9.0-2.0-0.10","4300","2","19","Female","approach_avoid_spark_v1","""event"",""trial"",""time""
""fullscreenenter"",""1"",""2690""
","
","
","""event"",""trial"",""time""
""fullscreenenter"",""1"",""2690""
","
","","","","","","null","<div style=""font-size:60px;"">+</div>","null","","fixation","","","","","","","","","","",""
"aa-learning-trial","93","444144","0.0-9.0-2.0-1.10","4300","2","19","Female","approach_avoid_spark_v1","""event"",""trial"",""time""
""fullscreenenter"",""1"",""2690""
","
","
","""event"",""trial"",""time""
""fullscreenenter"",""1"",""2690""
","
","","","","","","1153.8000001907349","images/rodent8.png","","","learning","-7","-7","1","1","rodent","pets","2","0","","bad","[-5]"
"html-keyboard-response","94","444648","0.0-9.0-2.0-0.11","4300","2","19","Female","approach_avoid_spark_v1","""event"",""trial"",""time""
""fullscreenenter"",""1"",""2690""
","
","
","""event"",""trial"",""time""
""fullscreenenter"",""1"",""2690""
","
","","","","","","null","<div style=""font-size:60px;"">+</div>","null","","fixation","","","","","","","","","","",""
"aa-learning-trial","95","447656","0.0-9.0-2.0-1.11","4300","2","19","Female","approach_avoid_spark_v1","""event"",""trial"",""time""
""fullscreenenter"",""1"",""2690""
","
","
","""event"",""trial"",""time""
""fullscreenenter"",""1"",""2690""
","
","","","","","","747.0999999046326","images/cat3.png","","","learning","-8","0","0","0","cat","pets","2","0","","good","[3]"
"html-keyboard-response","96","448172","0.0-9.0-2.0-0.12","4300","2","19","Female","approach_avoid_spark_v1","""event"",""trial"",""time""
""fullscreenenter"",""1"",""2690""
","
","
","""event"",""trial"",""time""
""fullscreenenter"",""1"",""2690""
","
","","","","","","null","<div style=""font-size:60px;"">+</div>","null","","fixation","","","","","","","","","","",""
"aa-learning-trial","97","451183","0.0-9.0-2.0-1.12","4300","2","19","Female","approach_avoid_spark_v1","""event"",""trial"",""time""
""fullscreenenter"",""1"",""2690""
","
","
","""event"",""trial"",""time""
""fullscreenenter"",""1"",""2690""
","
","","","","","","790.5999999046326","images/rodent1.png","","","learning","-1","-1","1","1","rodent","pets","2","0","","bad","[-5]"
"html-keyboard-response","98","451691","0.0-9.0-2.0-0.13","4300","2","19","Female","approach_avoid_spark_v1","""event"",""trial"",""time""
""fullscreenenter"",""1"",""2690""
","
","
","""event"",""trial"",""time""
""fullscreenenter"",""1"",""2690""
","
","","","","","","null","<div style=""font-size:60px;"">+</div>","null","","fixation","","","","","","","","","","",""
"aa-learning-trial","99","454696","0.0-9.0-2.0-1.13","4300","2","19","Female","approach_avoid_spark_v1","""event"",""trial"",""time""
""fullscreenenter"",""1"",""2690""
","
","
","""event"",""trial"",""time""
""fullscreenenter"",""1"",""2690""
","
","","","","","","547.0999999046326","images/rodent1.png","","","learning","-1","-1","1","1","rodent","pets","2","0","","bad","[-5]"
"html-keyboard-response","100","455200","0.0-9.0-2.0-0.14","4300","2","19","Female","approach_avoid_spark_v1","""event"",""trial"",""time""
""fullscreenenter"",""1"",""2690""
","
","
","""event"",""trial"",""time""
""fullscreenenter"",""1"",""2690""
","
","","","","","","null","<div style=""font-size:60px;"">+</div>","null","","fixation","","","","","","","","","","",""
"aa-learning-trial","101","458209","0.0-9.0-2.0-1.14","4300","2","19","Female","approach_avoid_spark_v1","""event"",""trial"",""time""
""fullscreenenter"",""1"",""2690""
","
","
","""event"",""trial"",""time""
""fullscreenenter"",""1"",""2690""
","
","","","","","","786.9000000953674","images/cat3.png","","","learning","-8","-8","1","1","cat","pets","2","0","","good","[3]"
"html-keyboard-response","102","458717","0.0-9.0-2.0-0.15","4300","2","19","Female","approach_avoid_spark_v1","""event"",""trial"",""time""
""fullscreenenter"",""1"",""2690""
","
","
","""event"",""trial"",""time""
""fullscreenenter"",""1"",""2690""
","
","","","","","","null","<div style=""font-size:60px;"">+</div>","null","","fixation","","","","","","","","","","",""
"aa-learning-trial","103","461738","0.0-9.0-2.0-1.15","4300","2","19","Female","approach_avoid_spark_v1","""event"",""trial"",""time""
""fullscreenenter"",""1"",""2690""
","
","
","""event"",""trial"",""time""
""fullscreenenter"",""1"",""2690""
","
","","","","","","671.2000002861023","images/rabbit2.png","","","learning","-2","-2","1","1","rabbit","pets","2","0","","neutral","0"
"html-keyboard-response","104","462247","0.0-9.0-2.0-0.16","4300","2","19","Female","approach_avoid_spark_v1","""event"",""trial"",""time""
""fullscreenenter"",""1"",""2690""
","
","
","""event"",""trial"",""time""
""fullscreenenter"",""1"",""2690""
","
","","","","","","null","<div style=""font-size:60px;"">+</div>","null","","fixation","","","","","","","","","","",""
"aa-learning-trial","105","465256","0.0-9.0-2.0-1.16","4300","2","19","Female","approach_avoid_spark_v1","""event"",""trial"",""time""
""fullscreenenter"",""1"",""2690""
","
","
","""event"",""trial"",""time""
""fullscreenenter"",""1"",""2690""
","
","","","","","","1038.3000001907349","images/rodent1.png","","","learning","-1","0","0","0","rodent","pets","2","0","","bad","[-5]"
"html-keyboard-response","106","465760","0.0-9.0-2.0-0.17","4300","2","19","Female","approach_avoid_spark_v1","""event"",""trial"",""time""
""fullscreenenter"",""1"",""2690""
","
","
","""event"",""trial"",""time""
""fullscreenenter"",""1"",""2690""
","
","","","","","","null","<div style=""font-size:60px;"">+</div>","null","","fixation","","","","","","","","","","",""
"aa-learning-trial","107","468783","0.0-9.0-2.0-1.17","4300","2","19","Female","approach_avoid_spark_v1","""event"",""trial"",""time""
""fullscreenenter"",""1"",""2690""
","
","
","""event"",""trial"",""time""
""fullscreenenter"",""1"",""2690""
","
","","","","","","1396.1999998092651","images/rodent1.png","","","learning","-1","0","0","0","rodent","pets","2","0","","bad","[-5]"
"html-keyboard-response","108","469297","0.0-9.0-2.0-0.18","4300","2","19","Female","approach_avoid_spark_v1","""event"",""trial"",""time""
""fullscreenenter"",""1"",""2690""
","
","
","""event"",""trial"",""time""
""fullscreenenter"",""1"",""2690""
","
","","","","","","null","<div style=""font-size:60px;"">+</div>","null","","fixation","","","","","","","","","","",""
"aa-learning-trial","109","472303","0.0-9.0-2.0-1.18","4300","2","19","Female","approach_avoid_spark_v1","""event"",""trial"",""time""
""fullscreenenter"",""1"",""2690""
","
","
","""event"",""trial"",""time""
""fullscreenenter"",""1"",""2690""
","
","","","","","","813.7999997138977","images/cat6.png","","","learning","2","2","1","1","cat","pets","2","0","","good","[3]"
"html-keyboard-response","110","472807","0.0-9.0-2.0-0.19","4300","2","19","Female","approach_avoid_spark_v1","""event"",""trial"",""time""
""fullscreenenter"",""1"",""2690""
","
","
","""event"",""trial"",""time""
""fullscreenenter"",""1"",""2690""
","
","","","","","","null","<div style=""font-size:60px;"">+</div>","null","","fixation","","","","","","","","","","",""
"aa-learning-trial","111","475815","0.0-9.0-2.0-1.19","4300","2","19","Female","approach_avoid_spark_v1","""event"",""trial"",""time""
""fullscreenenter"",""1"",""2690""
","
","
","""event"",""trial"",""time""
""fullscreenenter"",""1"",""2690""
","
","","","","","","556.4000000953674","images/cat6.png","","","learning","2","2","1","1","cat","pets","2","0","","good","[3]"
"html-keyboard-response","112","476319","0.0-9.0-2.0-0.20","4300","2","19","Female","approach_avoid_spark_v1","""event"",""trial"",""time""
""fullscreenenter"",""1"",""2690""
","
","
","""event"",""trial"",""time""
""fullscreenenter"",""1"",""2690""
","
","","","","","","null","<div style=""font-size:60px;"">+</div>","null","","fixation","","","","","","","","","","",""
"aa-learning-trial","113","479328","0.0-9.0-2.0-1.20","4300","2","19","Female","approach_avoid_spark_v1","""event"",""trial"",""time""
""fullscreenenter"",""1"",""2690""
","
","
","""event"",""trial"",""time""
""fullscreenenter"",""1"",""2690""
","
","","","","","","728","images/rodent7.png","","","learning","9","9","1","1","rodent","pets","2","0","","bad","[-5]"
"html-keyboard-response","114","479834","0.0-9.0-2.0-0.21","4300","2","19","Female","approach_avoid_spark_v1","""event"",""trial"",""time""
""fullscreenenter"",""1"",""2690""
","
","
","""event"",""trial"",""time""
""fullscreenenter"",""1"",""2690""
","
","","","","","","null","<div style=""font-size:60px;"">+</div>","null","","fixation","","","","","","","","","","",""
"aa-learning-trial","115","482839","0.0-9.0-2.0-1.21","4300","2","19","Female","approach_avoid_spark_v1","""event"",""trial"",""time""
""fullscreenenter"",""1"",""2690""
","
","
","""event"",""trial"",""time""
""fullscreenenter"",""1"",""2690""
","
","","","","","","786.3000001907349","images/rabbit2.png","","","learning","-2","-2","1","1","rabbit","pets","2","0","","neutral","0"
"html-keyboard-response","116","483344","0.0-9.0-2.0-0.22","4300","2","19","Female","approach_avoid_spark_v1","""event"",""trial"",""time""
""fullscreenenter"",""1"",""2690""
","
","
","""event"",""trial"",""time""
""fullscreenenter"",""1"",""2690""
","
","","","","","","null","<div style=""font-size:60px;"">+</div>","null","","fixation","","","","","","","","","","",""
"aa-learning-trial","117","486364","0.0-9.0-2.0-1.22","4300","2","19","Female","approach_avoid_spark_v1","""event"",""trial"",""time""
""fullscreenenter"",""1"",""2690""
","
","
","""event"",""trial"",""time""
""fullscreenenter"",""1"",""2690""
","
","","","","","","1056.7000002861023","images/rabbit4.png","","","learning","5","5","1","1","rabbit","pets","2","0","","neutral","0"
"html-keyboard-response","118","486877","0.0-9.0-2.0-0.23","4300","2","19","Female","approach_avoid_spark_v1","""event"",""trial"",""time""
""fullscreenenter"",""1"",""2690""
","
","
","""event"",""trial"",""time""
""fullscreenenter"",""1"",""2690""
","
","","","","","","null","<div style=""font-size:60px;"">+</div>","null","","fixation","","","","","","","","","","",""
"aa-learning-trial","119","489887","0.0-9.0-2.0-1.23","4300","2","19","Female","approach_avoid_spark_v1","""event"",""trial"",""time""
""fullscreenenter"",""1"",""2690""
","
","
","""event"",""trial"",""time""
""fullscreenenter"",""1"",""2690""
","
","","","","","","658.0999999046326","images/rodent7.png","","","learning","9","9","1","1","rodent","pets","2","0","","bad","[-5]"
"html-keyboard-response","120","490392","0.0-9.0-2.0-0.24","4300","2","19","Female","approach_avoid_spark_v1","""event"",""trial"",""time""
""fullscreenenter"",""1"",""2690""
","
","
","""event"",""trial"",""time""
""fullscreenenter"",""1"",""2690""
","
","","","","","","null","<div style=""font-size:60px;"">+</div>","null","","fixation","","","","","","","","","","",""
"aa-learning-trial","121","493407","0.0-9.0-2.0-1.24","4300","2","19","Female","approach_avoid_spark_v1","""event"",""trial"",""time""
""fullscreenenter"",""1"",""2690""
","
","
","""event"",""trial"",""time""
""fullscreenenter"",""1"",""2690""
","
","","","","","","650","images/cat6.png","","","learning","2","2","1","1","cat","pets","2","0","","good","[3]"
"html-keyboard-response","122","493911","0.0-9.0-2.0-0.25","4300","2","19","Female","approach_avoid_spark_v1","""event"",""trial"",""time""
""fullscreenenter"",""1"",""2690""
","
","
","""event"",""trial"",""time""
""fullscreenenter"",""1"",""2690""
","
","","","","","","null","<div style=""font-size:60px;"">+</div>","null","","fixation","","","","","","","","","","",""
"aa-learning-trial","123","496918","0.0-9.0-2.0-1.25","4300","2","19","Female","approach_avoid_spark_v1","""event"",""trial"",""time""
""fullscreenenter"",""1"",""2690""
","
","
","""event"",""trial"",""time""
""fullscreenenter"",""1"",""2690""
","
","","","","","","1724.5999999046326","images/cat5.png","","","learning","6","6","1","1","cat","pets","2","0","","good","[3]"
"html-keyboard-response","124","497423","0.0-9.0-2.0-0.26","4300","2","19","Female","approach_avoid_spark_v1","""event"",""trial"",""time""
""fullscreenenter"",""1"",""2690""
","
","
","""event"",""trial"",""time""
""fullscreenenter"",""1"",""2690""
","
","","","","","","null","<div style=""font-size:60px;"">+</div>","null","","fixation","","","","","","","","","","",""
"aa-learning-trial","125","500445","0.0-9.0-2.0-1.26","4300","2","19","Female","approach_avoid_spark_v1","""event"",""trial"",""time""
""fullscreenenter"",""1"",""2690""
","
","
","""event"",""trial"",""time""
""fullscreenenter"",""1"",""2690""
","
","","","","","","806.2000002861023","images/rodent7.png","","","learning","9","9","1","1","rodent","pets","2","0","","bad","[-5]"
"html-keyboard-response","126","500953","0.0-9.0-2.0-0.27","4300","2","19","Female","approach_avoid_spark_v1","""event"",""trial"",""time""
""fullscreenenter"",""1"",""2690""
","
","
","""event"",""trial"",""time""
""fullscreenenter"",""1"",""2690""
","
","","","","","","null","<div style=""font-size:60px;"">+</div>","null","","fixation","","","","","","","","","","",""
"aa-learning-trial","127","503959","0.0-9.0-2.0-1.27","4300","2","19","Female","approach_avoid_spark_v1","""event"",""trial"",""time""
""fullscreenenter"",""1"",""2690""
","
","
","""event"",""trial"",""time""
""fullscreenenter"",""1"",""2690""
","
","","","","","","1003.7000002861023","images/cat3.png","","","learning","-8","0","0","0","cat","pets","2","0","","good","[3]"
"html-keyboard-response","128","504464","0.0-9.0-2.0-0.28","4300","2","19","Female","approach_avoid_spark_v1","""event"",""trial"",""time""
""fullscreenenter"",""1"",""2690""
","
","
","""event"",""trial"",""time""
""fullscreenenter"",""1"",""2690""
","
","","","","","","null","<div style=""font-size:60px;"">+</div>","null","","fixation","","","","","","","","","","",""
"aa-learning-trial","129","507483","0.0-9.0-2.0-1.28","4300","2","19","Female","approach_avoid_spark_v1","""event"",""trial"",""time""
""fullscreenenter"",""1"",""2690""
","
","
","""event"",""trial"",""time""
""fullscreenenter"",""1"",""2690""
","
","","","","","","648","images/cat1.png","","","learning","4","4","1","1","cat","pets","2","0","","good","[3]"
"html-keyboard-response","130","507994","0.0-9.0-2.0-0.29","4300","2","19","Female","approach_avoid_spark_v1","""event"",""trial"",""time""
""fullscreenenter"",""1"",""2690""
","
","
","""event"",""trial"",""time""
""fullscreenenter"",""1"",""2690""
","
","","","","","","null","<div style=""font-size:60px;"">+</div>","null","","fixation","","","","","","","","","","",""
"aa-learning-trial","131","510999","0.0-9.0-2.0-1.29","4300","2","19","Female","approach_avoid_spark_v1","""event"",""trial"",""time""
""fullscreenenter"",""1"",""2690""
","
","
","""event"",""trial"",""time""
""fullscreenenter"",""1"",""2690""
","
","","","","","","973.5999999046326","images/rodent6.png","","","learning","-4","-4","1","1","rodent","pets","2","0","","bad","[-5]"
"html-keyboard-response","132","511503","0.0-9.0-2.0-0.30","4300","2","19","Female","approach_avoid_spark_v1","""event"",""trial"",""time""
""fullscreenenter"",""1"",""2690""
","
","
","""event"",""trial"",""time""
""fullscreenenter"",""1"",""2690""
","
","","","","","","null","<div style=""font-size:60px;"">+</div>","null","","fixation","","","","","","","","","","",""
"aa-learning-trial","133","514512","0.0-9.0-2.0-1.30","4300","2","19","Female","approach_avoid_spark_v1","""event"",""trial"",""time""
""fullscreenenter"",""1"",""2690""
","
","
","""event"",""trial"",""time""
""fullscreenenter"",""1"",""2690""
","
","","","","","","641.9000000953674","images/rabbit8.png","","","learning","-9","-9","1","1","rabbit","pets","2","0","","neutral","0"
"html-keyboard-response","134","515030","0.0-9.0-2.0-0.31","4300","2","19","Female","approach_avoid_spark_v1","""event"",""trial"",""time""
""fullscreenenter"",""1"",""2690""
","
","
","""event"",""trial"",""time""
""fullscreenenter"",""1"",""2690""
","
","","","","","","null","<div style=""font-size:60px;"">+</div>","null","","fixation","","","","","","","","","","",""
"aa-learning-trial","135","518047","0.0-9.0-2.0-1.31","4300","2","19","Female","approach_avoid_spark_v1","""event"",""trial"",""time""
""fullscreenenter"",""1"",""2690""
","
","
","""event"",""trial"",""time""
""fullscreenenter"",""1"",""2690""
","
","","","","","","896.6999998092651","images/cat8.png","","","learning","-3","-3","1","1","cat","pets","2","0","","good","[3]"
"html-keyboard-response","136","518551","0.0-9.0-2.0-0.32","4300","2","19","Female","approach_avoid_spark_v1","""event"",""trial"",""time""
""fullscreenenter"",""1"",""2690""
","
","
","""event"",""trial"",""time""
""fullscreenenter"",""1"",""2690""
","
","","","","","","null","<div style=""font-size:60px;"">+</div>","null","","fixation","","","","","","","","","","",""
"aa-learning-trial","137","521560","0.0-9.0-2.0-1.32","4300","2","19","Female","approach_avoid_spark_v1","""event"",""trial"",""time""
""fullscreenenter"",""1"",""2690""
","
","
","""event"",""trial"",""time""
""fullscreenenter"",""1"",""2690""
","
","","","","","","700.5","images/cat8.png","","","learning","-3","0","0","0","cat","pets","2","0","","good","[3]"
"html-keyboard-response","138","522063","0.0-9.0-2.0-0.33","4300","2","19","Female","approach_avoid_spark_v1","""event"",""trial"",""time""
""fullscreenenter"",""1"",""2690""
","
","
","""event"",""trial"",""time""
""fullscreenenter"",""1"",""2690""
","
","","","","","","null","<div style=""font-size:60px;"">+</div>","null","","fixation","","","","","","","","","","",""
"aa-learning-trial","139","525071","0.0-9.0-2.0-1.33","4300","2","19","Female","approach_avoid_spark_v1","""event"",""trial"",""time""
""fullscreenenter"",""1"",""2690""
","
","
","""event"",""trial"",""time""
""fullscreenenter"",""1"",""2690""
","
","","","","","","713.2000002861023","images/cat6.png","","","learning","2","0","0","0","cat","pets","2","0","","good","[3]"
"html-keyboard-response","140","525576","0.0-9.0-2.0-0.34","4300","2","19","Female","approach_avoid_spark_v1","""event"",""trial"",""time""
""fullscreenenter"",""1"",""2690""
","
","
","""event"",""trial"",""time""
""fullscreenenter"",""1"",""2690""
","
","","","","","","null","<div style=""font-size:60px;"">+</div>","null","","fixation","","","","","","","","","","",""
"aa-learning-trial","141","528597","0.0-9.0-2.0-1.34","4300","2","19","Female","approach_avoid_spark_v1","""event"",""trial"",""time""
""fullscreenenter"",""1"",""2690""
","
","
","""event"",""trial"",""time""
""fullscreenenter"",""1"",""2690""
","
","","","","","","685.5","images/rabbit2.png","","","learning","-2","-2","1","1","rabbit","pets","2","0","","neutral","0"
"html-keyboard-response","142","529103","0.0-9.0-2.0-0.35","4300","2","19","Female","approach_avoid_spark_v1","""event"",""trial"",""time""
""fullscreenenter"",""1"",""2690""
","
","
","""event"",""trial"",""time""
""fullscreenenter"",""1"",""2690""
","
","","","","","","null","<div style=""font-size:60px;"">+</div>","null","","fixation","","","","","","","","","","",""
"aa-learning-trial","143","532111","0.0-9.0-2.0-1.35","4300","2","19","Female","approach_avoid_spark_v1","""event"",""trial"",""time""
""fullscreenenter"",""1"",""2690""
","
","
","""event"",""trial"",""time""
""fullscreenenter"",""1"",""2690""
","
","","","","","","727.7000002861023","images/cat3.png","","","learning","-8","0","0","0","cat","pets","2","0","","good","[3]"
"html-keyboard-response","144","532625","0.0-9.0-2.0-0.36","4300","2","19","Female","approach_avoid_spark_v1","""event"",""trial"",""time""
""fullscreenenter"",""1"",""2690""
","
","
","""event"",""trial"",""time""
""fullscreenenter"",""1"",""2690""
","
","","","","","","null","<div style=""font-size:60px;"">+</div>","null","","fixation","","","","","","","","","","",""
"aa-learning-trial","145","535631","0.0-9.0-2.0-1.36","4300","2","19","Female","approach_avoid_spark_v1","""event"",""trial"",""time""
""fullscreenenter"",""1"",""2690""
","
","
","""event"",""trial"",""time""
""fullscreenenter"",""1"",""2690""
","
","","","","","","691.7999997138977","images/rabbit7.png","","","learning","7","7","1","1","rabbit","pets","2","0","","neutral","0"
"html-keyboard-response","146","536135","0.0-9.0-2.0-0.37","4300","2","19","Female","approach_avoid_spark_v1","""event"",""trial"",""time""
""fullscreenenter"",""1"",""2690""
","
","
","""event"",""trial"",""time""
""fullscreenenter"",""1"",""2690""
","
","","","","","","null","<div style=""font-size:60px;"">+</div>","null","","fixation","","","","","","","","","","",""
"aa-learning-trial","147","539143","0.0-9.0-2.0-1.37","4300","2","19","Female","approach_avoid_spark_v1","""event"",""trial"",""time""
""fullscreenenter"",""1"",""2690""
","
","
","""event"",""trial"",""time""
""fullscreenenter"",""1"",""2690""
","
","","","","","","628.9000000953674","images/rabbit2.png","","","learning","-2","-2","1","1","rabbit","pets","2","0","","neutral","0"
"html-keyboard-response","148","539652","0.0-9.0-2.0-0.38","4300","2","19","Female","approach_avoid_spark_v1","""event"",""trial"",""time""
""fullscreenenter"",""1"",""2690""
","
","
","""event"",""trial"",""time""
""fullscreenenter"",""1"",""2690""
","
","","","","","","null","<div style=""font-size:60px;"">+</div>","null","","fixation","","","","","","","","","","",""
"aa-learning-trial","149","542663","0.0-9.0-2.0-1.38","4300","2","19","Female","approach_avoid_spark_v1","""event"",""trial"",""time""
""fullscreenenter"",""1"",""2690""
","
","
","""event"",""trial"",""time""
""fullscreenenter"",""1"",""2690""
","
","","","","","","932.1999998092651","images/rodent8.png","","","learning","-7","-7","1","1","rodent","pets","2","0","","bad","[-5]"
"html-keyboard-response","150","543167","0.0-9.0-2.0-0.39","4300","2","19","Female","approach_avoid_spark_v1","""event"",""trial"",""time""
""fullscreenenter"",""1"",""2690""
","
","
","""event"",""trial"",""time""
""fullscreenenter"",""1"",""2690""
","
","","","","","","null","<div style=""font-size:60px;"">+</div>","null","","fixation","","","","","","","","","","",""
"aa-learning-trial","151","546175","0.0-9.0-2.0-1.39","4300","2","19","Female","approach_avoid_spark_v1","""event"",""trial"",""time""
""fullscreenenter"",""1"",""2690""
","
","
","""event"",""trial"",""time""
""fullscreenenter"",""1"",""2690""
","
","","","","","","767.5999999046326","images/rabbit4.png","","","learning","5","5","1","1","rabbit","pets","2","0","","neutral","0"
"html-keyboard-response","152","546679","0.0-9.0-2.0-0.40","4300","2","19","Female","approach_avoid_spark_v1","""event"",""trial"",""time""
""fullscreenenter"",""1"",""2690""
","
","
","""event"",""trial"",""time""
""fullscreenenter"",""1"",""2690""
","
","","","","","","null","<div style=""font-size:60px;"">+</div>","null","","fixation","","","","","","","","","","",""
"aa-learning-trial","153","549687","0.0-9.0-2.0-1.40","4300","2","19","Female","approach_avoid_spark_v1","""event"",""trial"",""time""
""fullscreenenter"",""1"",""2690""
","
","
","""event"",""trial"",""time""
""fullscreenenter"",""1"",""2690""
","
","","","","","","711.9000000953674","images/rodent1.png","","","learning","-1","-1","1","1","rodent","pets","2","0","","bad","[-5]"
"html-keyboard-response","154","550205","0.0-9.0-2.0-0.41","4300","2","19","Female","approach_avoid_spark_v1","""event"",""trial"",""time""
""fullscreenenter"",""1"",""2690""
","
","
","""event"",""trial"",""time""
""fullscreenenter"",""1"",""2690""
","
","","","","","","null","<div style=""font-size:60px;"">+</div>","null","","fixation","","","","","","","","","","",""
"aa-learning-trial","155","553216","0.0-9.0-2.0-1.41","4300","2","19","Female","approach_avoid_spark_v1","""event"",""trial"",""time""
""fullscreenenter"",""1"",""2690""
","
","
","""event"",""trial"",""time""
""fullscreenenter"",""1"",""2690""
","
","","","","","","657","images/rabbit6.png","","","learning","-5","-5","1","1","rabbit","pets","2","0","","neutral","0"
"html-keyboard-response","156","553719","0.0-9.0-2.0-0.42","4300","2","19","Female","approach_avoid_spark_v1","""event"",""trial"",""time""
""fullscreenenter"",""1"",""2690""
","
","
","""event"",""trial"",""time""
""fullscreenenter"",""1"",""2690""
","
","","","","","","null","<div style=""font-size:60px;"">+</div>","null","","fixation","","","","","","","","","","",""
"aa-learning-trial","157","556728","0.0-9.0-2.0-1.42","4300","2","19","Female","approach_avoid_spark_v1","""event"",""trial"",""time""
""fullscreenenter"",""1"",""2690""
","
","
","""event"",""trial"",""time""
""fullscreenenter"",""1"",""2690""
","
","","","","","","956.6999998092651","images/rabbit4.png","","","learning","5","5","1","1","rabbit","pets","2","0","","neutral","0"
"html-keyboard-response","158","557231","0.0-9.0-2.0-0.43","4300","2","19","Female","approach_avoid_spark_v1","""event"",""trial"",""time""
""fullscreenenter"",""1"",""2690""
","
","
","""event"",""trial"",""time""
""fullscreenenter"",""1"",""2690""
","
","","","","","","null","<div style=""font-size:60px;"">+</div>","null","","fixation","","","","","","","","","","",""
"aa-learning-trial","159","560240","0.0-9.0-2.0-1.43","4300","2","19","Female","approach_avoid_spark_v1","""event"",""trial"",""time""
""fullscreenenter"",""1"",""2690""
","
","
","""event"",""trial"",""time""
""fullscreenenter"",""1"",""2690""
","
","","","","","","476.2999997138977","images/rodent8.png","","","learning","-7","0","0","0","rodent","pets","2","0","","bad","[-5]"
"html-keyboard-response","160","560757","0.0-9.0-2.0-0.44","4300","2","19","Female","approach_avoid_spark_v1","""event"",""trial"",""time""
""fullscreenenter"",""1"",""2690""
","
","
","""event"",""trial"",""time""
""fullscreenenter"",""1"",""2690""
","
","","","","","","null","<div style=""font-size:60px;"">+</div>","null","","fixation","","","","","","","","","","",""
"aa-learning-trial","161","563767","0.0-9.0-2.0-1.44","4300","2","19","Female","approach_avoid_spark_v1","""event"",""trial"",""time""
""fullscreenenter"",""1"",""2690""
","
","
","""event"",""trial"",""time""
""fullscreenenter"",""1"",""2690""
","
","","","","","","677","images/cat3.png","","","learning","-8","0","0","0","cat","pets","2","0","","good","[3]"
"html-keyboard-response","162","564282","0.0-9.0-2.0-0.45","4300","2","19","Female","approach_avoid_spark_v1","""event"",""trial"",""time""
""fullscreenenter"",""1"",""2690""
","
","
","""event"",""trial"",""time""
""fullscreenenter"",""1"",""2690""
","
","","","","","","null","<div style=""font-size:60px;"">+</div>","null","","fixation","","","","","","","","","","",""
"aa-learning-trial","163","567296","0.0-9.0-2.0-1.45","4300","2","19","Female","approach_avoid_spark_v1","""event"",""trial"",""time""
""fullscreenenter"",""1"",""2690""
","
","
","""event"",""trial"",""time""
""fullscreenenter"",""1"",""2690""
","
","","","","","","810.5999999046326","images/rabbit4.png","","","learning","5","5","1","1","rabbit","pets","2","0","","neutral","0"
"html-keyboard-response","164","567812","0.0-9.0-2.0-0.46","4300","2","19","Female","approach_avoid_spark_v1","""event"",""trial"",""time""
""fullscreenenter"",""1"",""2690""
","
","
","""event"",""trial"",""time""
""fullscreenenter"",""1"",""2690""
","
","","","","","","null","<div style=""font-size:60px;"">+</div>","null","","fixation","","","","","","","","","","",""
"aa-learning-trial","165","570824","0.0-9.0-2.0-1.46","4300","2","19","Female","approach_avoid_spark_v1","""event"",""trial"",""time""
""fullscreenenter"",""1"",""2690""
","
","
","""event"",""trial"",""time""
""fullscreenenter"",""1"",""2690""
","
","","","","","","854.3000001907349","images/rodent1.png","","","learning","-1","0","0","0","rodent","pets","2","0","","bad","[-5]"
"html-keyboard-response","166","571334","0.0-9.0-2.0-0.47","4300","2","19","Female","approach_avoid_spark_v1","""event"",""trial"",""time""
""fullscreenenter"",""1"",""2690""
","
","
","""event"",""trial"",""time""
""fullscreenenter"",""1"",""2690""
","
","","","","","","null","<div style=""font-size:60px;"">+</div>","null","","fixation","","","","","","","","","","",""
"aa-learning-trial","167","574343","0.0-9.0-2.0-1.47","4300","2","19","Female","approach_avoid_spark_v1","""event"",""trial"",""time""
""fullscreenenter"",""1"",""2690""
","
","
","""event"",""trial"",""time""
""fullscreenenter"",""1"",""2690""
","
","","","","","","732.1999998092651","images/cat3.png","","","learning","-8","0","0","0","cat","pets","2","0","","good","[3]"
"html-keyboard-response","168","574847","0.0-9.0-2.0-0.48","4300","2","19","Female","approach_avoid_spark_v1","""event"",""trial"",""time""
""fullscreenenter"",""1"",""2690""
","
","
","""event"",""trial"",""time""
""fullscreenenter"",""1"",""2690""
","
","","","","","","null","<div style=""font-size:60px;"">+</div>","null","","fixation","","","","","","","","","","",""
"aa-learning-trial","169","577855","0.0-9.0-2.0-1.48","4300","2","19","Female","approach_avoid_spark_v1","""event"",""trial"",""time""
""fullscreenenter"",""1"",""2690""
","
","
","""event"",""trial"",""time""
""fullscreenenter"",""1"",""2690""
","
","","","","","","789.4000000953674","images/rodent3.png","","","learning","3","3","1","1","rodent","pets","2","0","","bad","[-5]"
"html-keyboard-response","170","578367","0.0-9.0-2.0-0.49","4300","2","19","Female","approach_avoid_spark_v1","""event"",""trial"",""time""
""fullscreenenter"",""1"",""2690""
","
","
","""event"",""trial"",""time""
""fullscreenenter"",""1"",""2690""
","
","","","","","","null","<div style=""font-size:60px;"">+</div>","null","","fixation","","","","","","","","","","",""
"aa-learning-trial","171","581383","0.0-9.0-2.0-1.49","4300","2","19","Female","approach_avoid_spark_v1","""event"",""trial"",""time""
""fullscreenenter"",""1"",""2690""
","
","
","""event"",""trial"",""time""
""fullscreenenter"",""1"",""2690""
","
","","","","","","856.5","images/rabbit8.png","","","learning","-9","0","0","0","rabbit","pets","2","0","","neutral","0"
"html-keyboard-response","172","581888","0.0-9.0-2.0-0.50","4300","2","19","Female","approach_avoid_spark_v1","""event"",""trial"",""time""
""fullscreenenter"",""1"",""2690""
","
","
","""event"",""trial"",""time""
""fullscreenenter"",""1"",""2690""
","
","","","","","","null","<div style=""font-size:60px;"">+</div>","null","","fixation","","","","","","","","","","",""
"aa-learning-trial","173","584910","0.0-9.0-2.0-1.50","4300","2","19","Female","approach_avoid_spark_v1","""event"",""trial"",""time""
""fullscreenenter"",""1"",""2690""
","
","
","""event"",""trial"",""time""
""fullscreenenter"",""1"",""2690""
","
","","","","","","617.7000002861023","images/rodent7.png","","","learning","9","9","1","1","rodent","pets","2","0","","bad","[-5]"
"html-button-response","174","588791","0.0-9.0-3.0","4300","2","19","Female","approach_avoid_spark_v1","""event"",""trial"",""time""
""fullscreenenter"",""1"",""2690""
","
","
","""event"",""trial"",""time""
""fullscreenenter"",""1"",""2690""
","
","","","","","","3879.5","<p> You have completed the round! <p> In this round, you earned 41 points! </p>","0","","break","","","","","","","","","","",""
"html-button-response","175","590753","0.0-10.0","4300","2","19","Female","approach_avoid_spark_v1","""event"",""trial"",""time""
""fullscreenenter"",""1"",""2690""
","
","
","""event"",""trial"",""time""
""fullscreenenter"",""1"",""2690""
","
","","","","","","1960.8000001907349","<p> Now it's time to play another round. </p>","0","","transition_screen","","","","","","","","","","",""
"preload","176","590876","0.0-11.0-0.0","4300","2","19","Female","approach_avoid_spark_v1","""event"",""trial"",""time""
""fullscreenenter"",""1"",""2690""
","
","
","""event"",""trial"",""time""
""fullscreenenter"",""1"",""2690""
","
","true","false","[]","[]","[]","","","","","","","","","","","","","","","",""
"learning-instructions","177","608632","0.0-11.0-1.0-0.0","4300","2","19","Female","approach_avoid_spark_v1","""event"",""trial"",""time""
""fullscreenenter"",""1"",""2690""
","
","
","""event"",""trial"",""time""
""fullscreenenter"",""1"",""2690""
","
","","","","","","10743","<p> Your goal in this round is to take your friend for rides in different vehicles. </p></div>","","0","instructions","","","","","","","","","","",""
"learning-instructions","178","619269","0.0-11.0-1.0-0.1","4300","2","19","Female","approach_avoid_spark_v1","""event"",""trial"",""time""
""fullscreenenter"",""1"",""2690""
","
","
","""event"",""trial"",""time""
""fullscreenenter"",""1"",""2690""
","
","","","","","","720.9000000953674","<p> Your friend enjoys riding in some vehicles but not in others.  </p><p> On each turn, you will see a vehicle.   </p><p> You need to decide whether to take your friend for a ride or not.  </p>","","0","instructions","","","","","","","","","","",""
"learning-instructions","179","626471","0.0-11.0-1.0-0.2","4300","2","19","Female","approach_avoid_spark_v1","""event"",""trial"",""time""
""fullscreenenter"",""1"",""2690""
","
","
","""event"",""trial"",""time""
""fullscreenenter"",""1"",""2690""
","
","","","","","","691.2999997138977","<p> You can take your friend for a ride in the vehicle by pressing 1 and skip the ride by pressing 0. </p><br><div class=""choice-instructions-grid""> <div class=""choice-option""><img src=""images/approach.png"" class=""choice-option-img"" stage=""instructions"" position=""0"" ><div class=""choice-option-text""> Press ""1."" </div></div><div class=""choice-option""><img src=""images/avoid.png"" class=""choice-option-img"" stage=""instructions"" position=""1"" ><div class=""choice-option-text""> Press ""0."" </div></div>","","0","instructions","","","","","","","","","","",""
"learning-instructions","180","637683","0.0-11.0-1.0-0.3","4300","2","19","Female","approach_avoid_spark_v1","""event"",""trial"",""time""
""fullscreenenter"",""1"",""2690""
","
","
","""event"",""trial"",""time""
""fullscreenenter"",""1"",""2690""
","
","","","","","","594.1000003814697","<p> If you take them for a ride in a vehicle they like, they will be thrilled! </p><p> But if you take them for a ride in a vehicle they do not like, they will be upset. </p>","","0","instructions","","","","","","","","","","",""
"learning-instructions","181","653005","0.0-11.0-1.0-0.4","4300","2","19","Female","approach_avoid_spark_v1","""event"",""trial"",""time""
""fullscreenenter"",""1"",""2690""
","
","
","""event"",""trial"",""time""
""fullscreenenter"",""1"",""2690""
","
","","","","","","656","<p> You will earn points based on how you made your friend feel. </p><p> If you made him thrilled, you will WIN anywhere from 1 - 9 points, </p><p> but if you made him upset, you will LOSE anywhere from 1 - 9 points. </p>","","0","instructions","","","","","","","","","","",""
"learning-instructions","182","660256","0.0-11.0-1.0-0.5","4300","2","19","Female","approach_avoid_spark_v1","""event"",""trial"",""time""
""fullscreenenter"",""1"",""2690""
","
","
","""event"",""trial"",""time""
""fullscreenenter"",""1"",""2690""
","
","","","","","","607.6999998092651","<p> You will see how many points you won or lost in the center of the screen. </p><p> Here is what you would see if you won 5 points: </p><p style=""color:green;font-size:50px;font-weight:bolder"">5</p>","","0","instructions","","","","","","","","","","",""
"learning-instructions","183","663541","0.0-11.0-1.0-0.6","4300","2","19","Female","approach_avoid_spark_v1","""event"",""trial"",""time""
""fullscreenenter"",""1"",""2690""
","
","
","""event"",""trial"",""time""
""fullscreenenter"",""1"",""2690""
","
","","","","","","452.40000009536743","<p> And here is what you would see if you lost 3 points: </p><p style=""color:red;font-size:50px;font-weight:bolder"">-3</p>","","0","instructions","","","","","","","","","","",""
"learning-instructions","184","682775","0.0-11.0-1.0-0.7","4300","2","19","Female","approach_avoid_spark_v1","""event"",""trial"",""time""
""fullscreenenter"",""1"",""2690""
","
","
","""event"",""trial"",""time""
""fullscreenenter"",""1"",""2690""
","
","","","","","","2056.4000000953674","<p> Some vehicles will make your friend REALLY thrilled or upset. </p><p> These vehicles will make you win or lose LOTS of points. </p><p> Other vehicles will only make him feel a little thrilled or upset. </p><p> These vehicles will make you win or lose small amounts of points. </p>","","0","instructions","","","","","","","","","","",""
"learning-instructions","185","695947","0.0-11.0-1.0-0.8","4300","2","19","Female","approach_avoid_spark_v1","""event"",""trial"",""time""
""fullscreenenter"",""1"",""2690""
","
","
","""event"",""trial"",""time""
""fullscreenenter"",""1"",""2690""
","
","","","","","","679.6999998092651","<p> If you choose to skip the ride, you will not win or lose any points. </p><p>  However, in the center of the screen, you will see the number of points you WOULD HAVE won or lost if you had taken your friend for a ride. </p>","","0","instructions","","","","","","","","","","",""
"learning-instructions","186","707568","0.0-11.0-1.0-0.9","4300","2","19","Female","approach_avoid_spark_v1","""event"",""trial"",""time""
""fullscreenenter"",""1"",""2690""
","
","
","""event"",""trial"",""time""
""fullscreenenter"",""1"",""2690""
","
","","","","","","619.2000002861023","<p> Here is what you might see if you did not take your friend for a ride but he would have enjoyed it: </p><p style=""color:grey; font-size:50px; display: inline-block; border-spacing: 15px; border-width:3px; border-style:solid; border-color:red"">  &nbsp; 6 &nbsp; </p><p> Remember, in this case, you would not win or lose ANY points because you skipped the ride.  </p>","","0","instructions","","","","","","","","","","",""
"learning-instructions","187","715708","0.0-11.0-1.0-0.10","4300","2","19","Female","approach_avoid_spark_v1","""event"",""trial"",""time""
""fullscreenenter"",""1"",""2690""
","
","
","""event"",""trial"",""time""
""fullscreenenter"",""1"",""2690""
","
","","","","","","559.7000002861023","<p> Try to make the best choice for each vehicle because </p><p> at the end of the game, you will earn bonus money based on how many points you earned. </p>","","0","instructions","","","","","","","","","","",""
"learning-instructions","188","724517","0.0-11.0-1.0-0.11","4300","2","19","Female","approach_avoid_spark_v1","""event"",""trial"",""time""
""fullscreenenter"",""1"",""2690""
","
","
","""event"",""trial"",""time""
""fullscreenenter"",""1"",""2690""
","
","","","","","","608.0999999046326","<p> You will have 3 seconds to make each choice. Try to respond before time runs out! </p><p> You will lose 5 points each time you do not make a response. </p>","","0","instructions","","","","","","","","","","",""
"html-keyboard-response","189","725142","0.0-11.0-2.0-0.0","4300","2","19","Female","approach_avoid_spark_v1","""event"",""trial"",""time""
""fullscreenenter"",""1"",""2690""
","
","
","""event"",""trial"",""time""
""fullscreenenter"",""1"",""2690""
","
","","","","","","null","<div style=""font-size:60px;"">+</div>","null","","fixation","","","","","","","","","","",""
"aa-learning-trial","190","728162","0.0-11.0-2.0-1.0","4300","2","19","Female","approach_avoid_spark_v1","""event"",""trial"",""time""
""fullscreenenter"",""1"",""2690""
","
","
","""event"",""trial"",""time""
""fullscreenenter"",""1"",""2690""
","
","","","","","","1558.2000002861023","images/truck3.png","","","learning","5","0","0","0","truck","vehicles","1","1","","good","[4]"
"html-keyboard-response","191","728673","0.0-11.0-2.0-0.1","4300","2","19","Female","approach_avoid_spark_v1","""event"",""trial"",""time""
""fullscreenenter"",""1"",""2690""
","
","
","""event"",""trial"",""time""
""fullscreenenter"",""1"",""2690""
","
","","","","","","null","<div style=""font-size:60px;"">+</div>","null","","fixation","","","","","","","","","","",""
"aa-learning-trial","192","731682","0.0-11.0-2.0-1.1","4300","2","19","Female","approach_avoid_spark_v1","""event"",""trial"",""time""
""fullscreenenter"",""1"",""2690""
","
","
","""event"",""trial"",""time""
""fullscreenenter"",""1"",""2690""
","
","","","","","","540.8000001907349","images/boat4.png","","","learning","-6","-6","1","1","boat","vehicles","1","1","","bad","[-6]"
"html-keyboard-response","193","732201","0.0-11.0-2.0-0.2","4300","2","19","Female","approach_avoid_spark_v1","""event"",""trial"",""time""
""fullscreenenter"",""1"",""2690""
","
","
","""event"",""trial"",""time""
""fullscreenenter"",""1"",""2690""
","
","","","","","","null","<div style=""font-size:60px;"">+</div>","null","","fixation","","","","","","","","","","",""
"aa-learning-trial","194","735216","0.0-11.0-2.0-1.2","4300","2","19","Female","approach_avoid_spark_v1","""event"",""trial"",""time""
""fullscreenenter"",""1"",""2690""
","
","
","""event"",""trial"",""time""
""fullscreenenter"",""1"",""2690""
","
","","","","","","795.7000002861023","images/truck5.png","","","learning","5","5","1","1","truck","vehicles","1","1","","good","[4]"
"html-keyboard-response","195","735731","0.0-11.0-2.0-0.3","4300","2","19","Female","approach_avoid_spark_v1","""event"",""trial"",""time""
""fullscreenenter"",""1"",""2690""
","
","
","""event"",""trial"",""time""
""fullscreenenter"",""1"",""2690""
","
","","","","","","null","<div style=""font-size:60px;"">+</div>","null","","fixation","","","","","","","","","","",""
"aa-learning-trial","196","738736","0.0-11.0-2.0-1.3","4300","2","19","Female","approach_avoid_spark_v1","""event"",""trial"",""time""
""fullscreenenter"",""1"",""2690""
","
","
","""event"",""trial"",""time""
""fullscreenenter"",""1"",""2690""
","
","","","","","","765.1999998092651","images/boat8.png","","","learning","-3","0","0","0","boat","vehicles","1","1","","bad","[-6]"
"html-keyboard-response","197","739249","0.0-11.0-2.0-0.4","4300","2","19","Female","approach_avoid_spark_v1","""event"",""trial"",""time""
""fullscreenenter"",""1"",""2690""
","
","
","""event"",""trial"",""time""
""fullscreenenter"",""1"",""2690""
","
","","","","","","null","<div style=""font-size:60px;"">+</div>","null","","fixation","","","","","","","","","","",""
"aa-learning-trial","198","742258","0.0-11.0-2.0-1.4","4300","2","19","Female","approach_avoid_spark_v1","""event"",""trial"",""time""
""fullscreenenter"",""1"",""2690""
","
","
","""event"",""trial"",""time""
""fullscreenenter"",""1"",""2690""
","
","","","","","","647","images/truck5.png","","","learning","6","6","1","1","truck","vehicles","1","1","","good","[4]"
"html-keyboard-response","199","742772","0.0-11.0-2.0-0.5","4300","2","19","Female","approach_avoid_spark_v1","""event"",""trial"",""time""
""fullscreenenter"",""1"",""2690""
","
","
","""event"",""trial"",""time""
""fullscreenenter"",""1"",""2690""
","
","","","","","","null","<div style=""font-size:60px;"">+</div>","null","","fixation","","","","","","","","","","",""
"aa-learning-trial","200","745778","0.0-11.0-2.0-1.5","4300","2","19","Female","approach_avoid_spark_v1","""event"",""trial"",""time""
""fullscreenenter"",""1"",""2690""
","
","
","""event"",""trial"",""time""
""fullscreenenter"",""1"",""2690""
","
","","","","","","648.5","images/train7.png","","","learning","1","1","1","1","train","vehicles","1","1","","neutral","0"
"html-keyboard-response","201","746290","0.0-11.0-2.0-0.6","4300","2","19","Female","approach_avoid_spark_v1","""event"",""trial"",""time""
""fullscreenenter"",""1"",""2690""
","
","
","""event"",""trial"",""time""
""fullscreenenter"",""1"",""2690""
","
","","","","","","null","<div style=""font-size:60px;"">+</div>","null","","fixation","","","","","","","","","","",""
"aa-learning-trial","202","749299","0.0-11.0-2.0-1.6","4300","2","19","Female","approach_avoid_spark_v1","""event"",""trial"",""time""
""fullscreenenter"",""1"",""2690""
","
","
","""event"",""trial"",""time""
""fullscreenenter"",""1"",""2690""
","
","","","","","","583.9000000953674","images/train1.png","","","learning","1","1","1","1","train","vehicles","1","1","","neutral","0"
"html-keyboard-response","203","749813","0.0-11.0-2.0-0.7","4300","2","19","Female","approach_avoid_spark_v1","""event"",""trial"",""time""
""fullscreenenter"",""1"",""2690""
","
","
","""event"",""trial"",""time""
""fullscreenenter"",""1"",""2690""
","
","","","","","","null","<div style=""font-size:60px;"">+</div>","null","","fixation","","","","","","","","","","",""
"aa-learning-trial","204","752823","0.0-11.0-2.0-1.7","4300","2","19","Female","approach_avoid_spark_v1","""event"",""trial"",""time""
""fullscreenenter"",""1"",""2690""
","
","
","""event"",""trial"",""time""
""fullscreenenter"",""1"",""2690""
","
","","","","","","577.4000000953674","images/truck3.png","","","learning","2","2","1","1","truck","vehicles","1","1","","good","[4]"
"html-keyboard-response","205","753332","0.0-11.0-2.0-0.8","4300","2","19","Female","approach_avoid_spark_v1","""event"",""trial"",""time""
""fullscreenenter"",""1"",""2690""
","
","
","""event"",""trial"",""time""
""fullscreenenter"",""1"",""2690""
","
","","","","","","null","<div style=""font-size:60px;"">+</div>","null","","fixation","","","","","","","","","","",""
"aa-learning-trial","206","756350","0.0-11.0-2.0-1.8","4300","2","19","Female","approach_avoid_spark_v1","""event"",""trial"",""time""
""fullscreenenter"",""1"",""2690""
","
","
","""event"",""trial"",""time""
""fullscreenenter"",""1"",""2690""
","
","","","","","","608.5","images/truck6.png","","","learning","8","8","1","1","truck","vehicles","1","1","","good","[4]"
"html-keyboard-response","207","756855","0.0-11.0-2.0-0.9","4300","2","19","Female","approach_avoid_spark_v1","""event"",""trial"",""time""
""fullscreenenter"",""1"",""2690""
","
","
","""event"",""trial"",""time""
""fullscreenenter"",""1"",""2690""
","
","","","","","","null","<div style=""font-size:60px;"">+</div>","null","","fixation","","","","","","","","","","",""
"aa-learning-trial","208","759864","0.0-11.0-2.0-1.9","4300","2","19","Female","approach_avoid_spark_v1","""event"",""trial"",""time""
""fullscreenenter"",""1"",""2690""
","
","
","""event"",""trial"",""time""
""fullscreenenter"",""1"",""2690""
","
","","","","","","643.4000000953674","images/train2.png","","","learning","1","1","1","1","train","vehicles","1","1","","neutral","0"
"html-keyboard-response","209","760367","0.0-11.0-2.0-0.10","4300","2","19","Female","approach_avoid_spark_v1","""event"",""trial"",""time""
""fullscreenenter"",""1"",""2690""
","
","
","""event"",""trial"",""time""
""fullscreenenter"",""1"",""2690""
","
","","","","","","null","<div style=""font-size:60px;"">+</div>","null","","fixation","","","","","","","","","","",""
"aa-learning-trial","210","763375","0.0-11.0-2.0-1.10","4300","2","19","Female","approach_avoid_spark_v1","""event"",""trial"",""time""
""fullscreenenter"",""1"",""2690""
","
","
","""event"",""trial"",""time""
""fullscreenenter"",""1"",""2690""
","
","","","","","","461.6000003814697","images/train1.png","","","learning","-1","-1","1","1","train","vehicles","1","1","","neutral","0"
"html-keyboard-response","211","763879","0.0-11.0-2.0-0.11","4300","2","19","Female","approach_avoid_spark_v1","""event"",""trial"",""time""
""fullscreenenter"",""1"",""2690""
","
","
","""event"",""trial"",""time""
""fullscreenenter"",""1"",""2690""
","
","","","","","","null","<div style=""font-size:60px;"">+</div>","null","","fixation","","","","","","","","","","",""
"aa-learning-trial","212","766887","0.0-11.0-2.0-1.11","4300","2","19","Female","approach_avoid_spark_v1","""event"",""trial"",""time""
""fullscreenenter"",""1"",""2690""
","
","
","""event"",""trial"",""time""
""fullscreenenter"",""1"",""2690""
","
","","","","","","627","images/boat2.png","","","learning","-6","0","0","0","boat","vehicles","1","1","","bad","[-6]"
"html-keyboard-response","213","767391","0.0-11.0-2.0-0.12","4300","2","19","Female","approach_avoid_spark_v1","""event"",""trial"",""time""
""fullscreenenter"",""1"",""2690""
","
","
","""event"",""trial"",""time""
""fullscreenenter"",""1"",""2690""
","
","","","","","","null","<div style=""font-size:60px;"">+</div>","null","","fixation","","","","","","","","","","",""
"aa-learning-trial","214","770399","0.0-11.0-2.0-1.12","4300","2","19","Female","approach_avoid_spark_v1","""event"",""trial"",""time""
""fullscreenenter"",""1"",""2690""
","
","
","""event"",""trial"",""time""
""fullscreenenter"",""1"",""2690""
","
","","","","","","538.3000001907349","images/train7.png","","","learning","2","2","1","1","train","vehicles","1","1","","neutral","0"
"html-keyboard-response","215","770903","0.0-11.0-2.0-0.13","4300","2","19","Female","approach_avoid_spark_v1","""event"",""trial"",""time""
""fullscreenenter"",""1"",""2690""
","
","
","""event"",""trial"",""time""
""fullscreenenter"",""1"",""2690""
","
","","","","","","null","<div style=""font-size:60px;"">+</div>","null","","fixation","","","","","","","","","","",""
"aa-learning-trial","216","773910","0.0-11.0-2.0-1.13","4300","2","19","Female","approach_avoid_spark_v1","""event"",""trial"",""time""
""fullscreenenter"",""1"",""2690""
","
","
","""event"",""trial"",""time""
""fullscreenenter"",""1"",""2690""
","
","","","","","","459.7000002861023","images/boat4.png","","","learning","-5","0","0","0","boat","vehicles","1","1","","bad","[-6]"
"html-keyboard-response","217","774414","0.0-11.0-2.0-0.14","4300","2","19","Female","approach_avoid_spark_v1","""event"",""trial"",""time""
""fullscreenenter"",""1"",""2690""
","
","
","""event"",""trial"",""time""
""fullscreenenter"",""1"",""2690""
","
","","","","","","null","<div style=""font-size:60px;"">+</div>","null","","fixation","","","","","","","","","","",""
"aa-learning-trial","218","777429","0.0-11.0-2.0-1.14","4300","2","19","Female","approach_avoid_spark_v1","""event"",""trial"",""time""
""fullscreenenter"",""1"",""2690""
","
","
","""event"",""trial"",""time""
""fullscreenenter"",""1"",""2690""
","
","","","","","","581.6999998092651","images/boat2.png","","","learning","-6","0","0","0","boat","vehicles","1","1","","bad","[-6]"
"html-keyboard-response","219","777943","0.0-11.0-2.0-0.15","4300","2","19","Female","approach_avoid_spark_v1","""event"",""trial"",""time""
""fullscreenenter"",""1"",""2690""
","
","
","""event"",""trial"",""time""
""fullscreenenter"",""1"",""2690""
","
","","","","","","null","<div style=""font-size:60px;"">+</div>","null","","fixation","","","","","","","","","","",""
"aa-learning-trial","220","780950","0.0-11.0-2.0-1.15","4300","2","19","Female","approach_avoid_spark_v1","""event"",""trial"",""time""
""fullscreenenter"",""1"",""2690""
","
","
","""event"",""trial"",""time""
""fullscreenenter"",""1"",""2690""
","
","","","","","","460.30000019073486","images/boat2.png","","","learning","-8","0","0","0","boat","vehicles","1","1","","bad","[-6]"
"html-keyboard-response","221","781470","0.0-11.0-2.0-0.16","4300","2","19","Female","approach_avoid_spark_v1","""event"",""trial"",""time""
""fullscreenenter"",""1"",""2690""
","
","
","""event"",""trial"",""time""
""fullscreenenter"",""1"",""2690""
","
","","","","","","null","<div style=""font-size:60px;"">+</div>","null","","fixation","","","","","","","","","","",""
"aa-learning-trial","222","784489","0.0-11.0-2.0-1.16","4300","2","19","Female","approach_avoid_spark_v1","""event"",""trial"",""time""
""fullscreenenter"",""1"",""2690""
","
","
","""event"",""trial"",""time""
""fullscreenenter"",""1"",""2690""
","
","","","","","","521.2999997138977","images/train7.png","","","learning","-1","-1","1","1","train","vehicles","1","1","","neutral","0"
"html-keyboard-response","223","784998","0.0-11.0-2.0-0.17","4300","2","19","Female","approach_avoid_spark_v1","""event"",""trial"",""time""
""fullscreenenter"",""1"",""2690""
","
","
","""event"",""trial"",""time""
""fullscreenenter"",""1"",""2690""
","
","","","","","","null","<div style=""font-size:60px;"">+</div>","null","","fixation","","","","","","","","","","",""
"aa-learning-trial","224","788015","0.0-11.0-2.0-1.17","4300","2","19","Female","approach_avoid_spark_v1","""event"",""trial"",""time""
""fullscreenenter"",""1"",""2690""
","
","
","""event"",""trial"",""time""
""fullscreenenter"",""1"",""2690""
","
","","","","","","506","images/truck5.png","","","learning","5","5","1","1","truck","vehicles","1","1","","good","[4]"
"html-keyboard-response","225","788527","0.0-11.0-2.0-0.18","4300","2","19","Female","approach_avoid_spark_v1","""event"",""trial"",""time""
""fullscreenenter"",""1"",""2690""
","
","
","""event"",""trial"",""time""
""fullscreenenter"",""1"",""2690""
","
","","","","","","null","<div style=""font-size:60px;"">+</div>","null","","fixation","","","","","","","","","","",""
"aa-learning-trial","226","791549","0.0-11.0-2.0-1.18","4300","2","19","Female","approach_avoid_spark_v1","""event"",""trial"",""time""
""fullscreenenter"",""1"",""2690""
","
","
","""event"",""trial"",""time""
""fullscreenenter"",""1"",""2690""
","
","","","","","","504","images/boat4.png","","","learning","-7","0","0","0","boat","vehicles","1","1","","bad","[-6]"
"html-keyboard-response","227","792063","0.0-11.0-2.0-0.19","4300","2","19","Female","approach_avoid_spark_v1","""event"",""trial"",""time""
""fullscreenenter"",""1"",""2690""
","
","
","""event"",""trial"",""time""
""fullscreenenter"",""1"",""2690""
","
","","","","","","null","<div style=""font-size:60px;"">+</div>","null","","fixation","","","","","","","","","","",""
"aa-learning-trial","228","795071","0.0-11.0-2.0-1.19","4300","2","19","Female","approach_avoid_spark_v1","""event"",""trial"",""time""
""fullscreenenter"",""1"",""2690""
","
","
","""event"",""trial"",""time""
""fullscreenenter"",""1"",""2690""
","
","","","","","","490.40000009536743","images/boat8.png","","","learning","-5","0","0","0","boat","vehicles","1","1","","bad","[-6]"
"html-keyboard-response","229","795576","0.0-11.0-2.0-0.20","4300","2","19","Female","approach_avoid_spark_v1","""event"",""trial"",""time""
""fullscreenenter"",""1"",""2690""
","
","
","""event"",""trial"",""time""
""fullscreenenter"",""1"",""2690""
","
","","","","","","null","<div style=""font-size:60px;"">+</div>","null","","fixation","","","","","","","","","","",""
"aa-learning-trial","230","798583","0.0-11.0-2.0-1.20","4300","2","19","Female","approach_avoid_spark_v1","""event"",""trial"",""time""
""fullscreenenter"",""1"",""2690""
","
","
","""event"",""trial"",""time""
""fullscreenenter"",""1"",""2690""
","
","","","","","","541.0999999046326","images/train3.png","","","learning","-1","-1","1","1","train","vehicles","1","1","","neutral","0"
"html-keyboard-response","231","799086","0.0-11.0-2.0-0.21","4300","2","19","Female","approach_avoid_spark_v1","""event"",""trial"",""time""
""fullscreenenter"",""1"",""2690""
","
","
","""event"",""trial"",""time""
""fullscreenenter"",""1"",""2690""
","
","","","","","","null","<div style=""font-size:60px;"">+</div>","null","","fixation","","","","","","","","","","",""
"aa-learning-trial","232","802095","0.0-11.0-2.0-1.21","4300","2","19","Female","approach_avoid_spark_v1","""event"",""trial"",""time""
""fullscreenenter"",""1"",""2690""
","
","
","""event"",""trial"",""time""
""fullscreenenter"",""1"",""2690""
","
","","","","","","731.8000001907349","images/truck4.png","","","learning","3","3","1","1","truck","vehicles","1","1","","good","[4]"
"html-keyboard-response","233","802598","0.0-11.0-2.0-0.22","4300","2","19","Female","approach_avoid_spark_v1","""event"",""trial"",""time""
""fullscreenenter"",""1"",""2690""
","
","
","""event"",""trial"",""time""
""fullscreenenter"",""1"",""2690""
","
","","","","","","null","<div style=""font-size:60px;"">+</div>","null","","fixation","","","","","","","","","","",""
"aa-learning-trial","234","805607","0.0-11.0-2.0-1.22","4300","2","19","Female","approach_avoid_spark_v1","""event"",""trial"",""time""
""fullscreenenter"",""1"",""2690""
","
","
","""event"",""trial"",""time""
""fullscreenenter"",""1"",""2690""
","
","","","","","","512.5","images/truck5.png","","","learning","4","4","1","1","truck","vehicles","1","1","","good","[4]"
"html-keyboard-response","235","806112","0.0-11.0-2.0-0.23","4300","2","19","Female","approach_avoid_spark_v1","""event"",""trial"",""time""
""fullscreenenter"",""1"",""2690""
","
","
","""event"",""trial"",""time""
""fullscreenenter"",""1"",""2690""
","
","","","","","","null","<div style=""font-size:60px;"">+</div>","null","","fixation","","","","","","","","","","",""
"aa-learning-trial","236","809119","0.0-11.0-2.0-1.23","4300","2","19","Female","approach_avoid_spark_v1","""event"",""trial"",""time""
""fullscreenenter"",""1"",""2690""
","
","
","""event"",""trial"",""time""
""fullscreenenter"",""1"",""2690""
","
","","","","","","495","images/truck6.png","","","learning","3","3","1","1","truck","vehicles","1","1","","good","[4]"
