"trial_type","trial_index","time_elapsed","internal_node_id","subject_id","task_condition","age","gender","task_version","interactions","blur_events","focus_events","fullscreenenter_events","fullscreenexit_events","success","timeout","failed_images","failed_audio","failed_video","rt","stimulus","response","button_pressed","task_part","approach_reward","points","key_press","option_selected","stim_cat","task_block","block_condition","block_number","correct","cat_type","mean_cat_reward"
"pavlovia","0","10","0.0-0.0","7252","2","11","Female","approach_avoid_spark_v1","""event"",""trial"",""time""
""fullscreenenter"",""1"",""4307""
","
","
","""event"",""trial"",""time""
""fullscreenenter"",""1"",""4307""
","
","","","","","","","","","","","","","","","","","","","","",""
"fullscreen","1","5293","0.0-1.0","7252","2","11","Female","approach_avoid_spark_v1","""event"",""trial"",""time""
""fullscreenenter"",""1"",""4307""
","
","
","""event"",""trial"",""time""
""fullscreenenter"",""1"",""4307""
","
","true","","","","","","","","","","","","","","","","","","","",""
"preload","2","33155","0.0-2.0","7252","2","11","Female","approach_avoid_spark_v1","""event"",""trial"",""time""
""fullscreenenter"",""1"",""4307""
","
","
","""event"",""trial"",""time""
""fullscreenenter"",""1"",""4307""
","
","true","false","[]","[]","[]","","","","","","","","","","","","","","","",""
"audio-keyboard-response","3","37874","0.0-3.0","7252","2","11","Female","approach_avoid_spark_v1","""event"",""trial"",""time""
""fullscreenenter"",""1"",""4307""
","
","
","""event"",""trial"",""time""
""fullscreenenter"",""1"",""4307""
","
","","","","","","4725.260770975055","audio/beep_loop.wav"," ","","","","","","","","","","","","",""
"audio-button-response","4","42709","0.0-4.0","7252","2","11","Female","approach_avoid_spark_v1","""event"",""trial"",""time""
""fullscreenenter"",""1"",""4307""
","
","
","""event"",""trial"",""time""
""fullscreenenter"",""1"",""4307""
","
","","","","","","4836","audio/shark.wav","4","","","","","","","","","","","","",""
"audio-button-response","5","45760","0.0-5.0","7252","2","11","Female","approach_avoid_spark_v1","""event"",""trial"",""time""
""fullscreenenter"",""1"",""4307""
","
","
","""event"",""trial"",""time""
""fullscreenenter"",""1"",""4307""
","
","","","","","","2032","audio/turtle.wav","1","","","","","","","","","","","","",""
"preload","6","55641","0.0-6.0","7252","2","11","Female","approach_avoid_spark_v1","""event"",""trial"",""time""
""fullscreenenter"",""1"",""4307""
","
","
","""event"",""trial"",""time""
""fullscreenenter"",""1"",""4307""
","
","true","false","[]","[]","[]","","","","","","","","","","","","","","","",""
"html-keyboard-response","7","59341","0.0-7.0","7252","2","11","Female","approach_avoid_spark_v1","""event"",""trial"",""time""
""fullscreenenter"",""1"",""4307""
","
","
","""event"",""trial"",""time""
""fullscreenenter"",""1"",""4307""
","
","","","","","","3697.5999999046326","Welcome to the experiment. Press any key to begin and to advance the instructions."," ","","","","","","","","","","","","",""
"learning-instructions","8","68888","0.0-8.0-0.0-0.0","7252","2","11","Female","approach_avoid_spark_v1","""event"",""trial"",""time""
""fullscreenenter"",""1"",""4307""
","
","
","""event"",""trial"",""time""
""fullscreenenter"",""1"",""4307""
","
","","","","","","2590.300000190735","<p> Welcome! Today you are going to play 6 different rounds of a decision-making game. </p><p> Use the mouse to click next to continue. </p>","","0","instructions","","","","","","","","","","",""
"learning-instructions","9","79498","0.0-8.0-0.0-0.1","7252","2","11","Female","approach_avoid_spark_v1","""event"",""trial"",""time""
""fullscreenenter"",""1"",""4307""
","
","
","""event"",""trial"",""time""
""fullscreenenter"",""1"",""4307""
","
","","","","","","7867.300000190735","<p> You will start with a practice round to learn the rules. </p>","","0","instructions","","","","","","","","","","",""
"learning-instructions","10","83650","0.0-8.0-0.0-0.2","7252","2","11","Female","approach_avoid_spark_v1","""event"",""trial"",""time""
""fullscreenenter"",""1"",""4307""
","
","
","""event"",""trial"",""time""
""fullscreenenter"",""1"",""4307""
","
","","","","","","691.5","<p> Your goal in this round is to give out sports equipment to kids. </p></div>","","0","instructions","","","","","","","","","","",""
"learning-instructions","11","91740","0.0-8.0-0.0-0.3","7252","2","11","Female","approach_avoid_spark_v1","""event"",""trial"",""time""
""fullscreenenter"",""1"",""4307""
","
","
","""event"",""trial"",""time""
""fullscreenenter"",""1"",""4307""
","
","","","","","","533.8000001907349","<p> The kids only like some of the equipment.  </p><p> On each turn, you will see a piece of sports equipment.   </p><p> You need to decide whether to give it to the kids or not.  </p>","","0","instructions","","","","","","","","","","",""
"learning-instructions","12","101946","0.0-8.0-0.0-0.4","7252","2","11","Female","approach_avoid_spark_v1","""event"",""trial"",""time""
""fullscreenenter"",""1"",""4307""
","
","
","""event"",""trial"",""time""
""fullscreenenter"",""1"",""4307""
","
","","","","","","5457","<p> You can give them the equipment by pressing 1 and choose not to give it to them by pressing 0. </p><br><div class=""choice-instructions-grid""> <div class=""choice-option""><img src=""images/approach.png"" class=""choice-option-img"" stage=""instructions"" position=""0"" ><div class=""choice-option-text""> Press ""1."" </div></div><div class=""choice-option""><img src=""images/avoid.png"" class=""choice-option-img"" stage=""instructions"" position=""1"" ><div class=""choice-option-text""> Press ""0."" </div></div>","","0","instructions","","","","","","","","","","",""
"learning-instructions","13","110266","0.0-8.0-0.0-0.5","7252","2","11","Female","approach_avoid_spark_v1","""event"",""trial"",""time""
""fullscreenenter"",""1"",""4307""
","
","
","""event"",""trial"",""time""
""fullscreenenter"",""1"",""4307""
","
","","","","","","916.0999999046326","<p> If you give them a piece of equipment they like, they will be happy! </p><p> But if you give them a piece of equipment they do not like, they will be sad. </p>","","0","instructions","","","","","","","","","","",""
"learning-instructions","14","121842","0.0-8.0-0.0-0.6","7252","2","11","Female","approach_avoid_spark_v1","""event"",""trial"",""time""
""fullscreenenter"",""1"",""4307""
","
","
","""event"",""trial"",""time""
""fullscreenenter"",""1"",""4307""
","
","","","","","","1063.1999998092651","<p> You will earn points based on how you make kids feel. </p><p> If you make them happy, you will WIN anywhere from 1 - 9 points, </p><p> but if you make them sad, you will LOSE anywhere from 1 - 9 points. </p>","","0","instructions","","","","","","","","","","",""
"learning-instructions","15","132257","0.0-8.0-0.0-0.7","7252","2","11","Female","approach_avoid_spark_v1","""event"",""trial"",""time""
""fullscreenenter"",""1"",""4307""
","
","
","""event"",""trial"",""time""
""fullscreenenter"",""1"",""4307""
","
","","","","","","830.3999996185303","<p> You will see how many points you won or lost in the center of the screen. </p><p> Here is what you would see if you won 6 points: </p><p style=""color:green;font-size:50px;font-weight:bolder"">6</p><p style=""color:green"">The text is GREEN because you WON points.</p>","","0","instructions","","","","","","","","","","",""
"learning-instructions","16","138587","0.0-8.0-0.0-0.8","7252","2","11","Female","approach_avoid_spark_v1","""event"",""trial"",""time""
""fullscreenenter"",""1"",""4307""
","
","
","""event"",""trial"",""time""
""fullscreenenter"",""1"",""4307""
","
","","","","","","822.1999998092651","<p> And here is what you would see if you lost 4 points: </p><p style=""color:red;font-size:50px;font-weight:bolder"">-4</p><p style=""color:red"">The text is RED because you LOST points. </p>","","0","instructions","","","","","","","","","","",""
"learning-instructions","17","155923","0.0-8.0-0.0-0.9","7252","2","11","Female","approach_avoid_spark_v1","""event"",""trial"",""time""
""fullscreenenter"",""1"",""4307""
","
","
","""event"",""trial"",""time""
""fullscreenenter"",""1"",""4307""
","
","","","","","","2615.5","<p> Some of the equipment will make the kids VERY happy or sad. </p><p> These pieces of equipment will make you win or lose LOTS of points. </p><p> Other pieces of equipment will only make the kids a little happy or sad. </p><p> These pieces of equipment will make you win or lose small amounts of points. </p>","","0","instructions","","","","","","","","","","",""
"learning-instructions","18","168186","0.0-8.0-0.0-0.10","7252","2","11","Female","approach_avoid_spark_v1","""event"",""trial"",""time""
""fullscreenenter"",""1"",""4307""
","
","
","""event"",""trial"",""time""
""fullscreenenter"",""1"",""4307""
","
","","","","","","1631.8999996185303","<p> If you choose not to give them the equipment, you will not win or lose any points. </p><p>  However, in the center of the screen, you will see the number of points you WOULD HAVE won or lost if you had given them the equipment. </p>","","0","instructions","","","","","","","","","","",""
"learning-instructions","19","192514","0.0-8.0-0.0-0.11","7252","2","11","Female","approach_avoid_spark_v1","""event"",""trial"",""time""
""fullscreenenter"",""1"",""4307""
","
","
","""event"",""trial"",""time""
""fullscreenenter"",""1"",""4307""
","
","","","","","","2787.800000190735","<p> Here is what you might see if you did not give the equipment to the kids but it would have made them happy: </p><p style=""color:grey; font-size:50px; display: inline-block; border-spacing: 15px; border-width:3px; border-style:solid; border-color:red"">  &nbsp; 7 &nbsp; </p><p> Remember, in this case, you would not win or lose ANY points because you did not give them the equipment.  </p><p style=""color:grey"">The text is GREY because you earned ZERO points. </p><p style=""color:red"">However, choosing to give the kids the equipment would have made you win points. The box around the text is RED because you chose the worse option. </p>","","0","instructions","","","","","","","","","","",""
"learning-instructions","20","214437","0.0-8.0-0.0-0.12","7252","2","11","Female","approach_avoid_spark_v1","""event"",""trial"",""time""
""fullscreenenter"",""1"",""4307""
","
","
","""event"",""trial"",""time""
""fullscreenenter"",""1"",""4307""
","
","","","","","","846.3999996185303","<p> Here is what you might see if you did not give the equipment to the kids but it would have made them sad: </p><p style=""color:grey;font-size:50px; display: inline-block; border-spacing: 15px; border-width:3px; border-style:solid; border-color:green"">  &nbsp; -8 &nbsp; </p><p> Remember, in this case, you would not win or lose ANY points because you did not give them the equipment.  </p><p style=""color:grey"">The text is GREY because you earned ZERO points. </p><p  style=""color:green""> Choosing to give the kids the equipment would have made you lose points. The box around the text is GREEN because you chose the better option.</p>","","0","instructions","","","","","","","","","","",""
"learning-instructions","21","224371","0.0-8.0-0.0-0.13","7252","2","11","Female","approach_avoid_spark_v1","""event"",""trial"",""time""
""fullscreenenter"",""1"",""4307""
","
","
","""event"",""trial"",""time""
""fullscreenenter"",""1"",""4307""
","
","","","","","","885.8000001907349","<p> You will have 3 seconds to make each choice. Try to respond before time runs out! </p><p> You will lose 5 points each time you do not make a response. </p>","","0","instructions","","","","","","","","","","",""
"learning-instructions","22","231439","0.0-8.0-0.0-0.14","7252","2","11","Female","approach_avoid_spark_v1","""event"",""trial"",""time""
""fullscreenenter"",""1"",""4307""
","
","
","""event"",""trial"",""time""
""fullscreenenter"",""1"",""4307""
","
","","","","","","1635.5","<p> This is just a practice round, but in the real game, your bonus payment will depend on your total number of points.","","0","instructions","","","","","","","","","","",""
"learning-instructions","23","238387","0.0-8.0-0.0-0.15","7252","2","11","Female","approach_avoid_spark_v1","""event"",""trial"",""time""
""fullscreenenter"",""1"",""4307""
","
","
","""event"",""trial"",""time""
""fullscreenenter"",""1"",""4307""
","
","","","","","","1176.8000001907349","<p> Remember, you can give them the equipment by pressing 1 and choose not to give it to them by pressing 0. </p><br><div class=""choice-instructions-grid""> <div class=""choice-option""><img src=""images/approach.png"" class=""choice-option-img"" stage=""instructions"" position=""0"" ><div class=""choice-option-text""> Press ""1."" </div></div><div class=""choice-option""><img src=""images/avoid.png"" class=""choice-option-img"" stage=""instructions"" position=""1"" ><div class=""choice-option-text""> Press ""0."" </div></div>","","0","instructions","","","","","","","","","","",""
"html-button-response","24","240469","0.0-8.0-1.0","7252","2","11","Female","approach_avoid_spark_v1","""event"",""trial"",""time""
""fullscreenenter"",""1"",""4307""
","
","
","""event"",""trial"",""time""
""fullscreenenter"",""1"",""4307""
","
","","","","","","1962","<p> Ready to practice? </p>","0","","","","","","","","","","","","",""
"html-keyboard-response","25","241081","0.0-8.0-2.0-0.0","7252","2","11","Female","approach_avoid_spark_v1","""event"",""trial"",""time""
""fullscreenenter"",""1"",""4307""
","
","
","""event"",""trial"",""time""
""fullscreenenter"",""1"",""4307""
","
","","","","","","null","<div style=""font-size:60px;"">+</div>","null","","fixation","","","","","","","","","","",""
"aa-learning-trial","26","244102","0.0-8.0-2.0-1.0","7252","2","11","Female","approach_avoid_spark_v1","""event"",""trial"",""time""
""fullscreenenter"",""1"",""4307""
","
","
","""event"",""trial"",""time""
""fullscreenenter"",""1"",""4307""
","
","","","","","","1571.6000003814697","images/ball1.png","","","learning","-7","-7","1","1","practice","practice","practice","-1","","",""
"html-keyboard-response","27","244611","0.0-8.0-2.0-0.1","7252","2","11","Female","approach_avoid_spark_v1","""event"",""trial"",""time""
""fullscreenenter"",""1"",""4307""
","
","
","""event"",""trial"",""time""
""fullscreenenter"",""1"",""4307""
","
","","","","","","null","<div style=""font-size:60px;"">+</div>","null","","fixation","","","","","","","","","","",""
"aa-learning-trial","28","247628","0.0-8.0-2.0-1.1","7252","2","11","Female","approach_avoid_spark_v1","""event"",""trial"",""time""
""fullscreenenter"",""1"",""4307""
","
","
","""event"",""trial"",""time""
""fullscreenenter"",""1"",""4307""
","
","","","","","","1451.7999997138977","images/racket2.png","","","learning","-9","-9","1","1","practice","practice","practice","-1","","",""
"html-keyboard-response","29","248144","0.0-8.0-2.0-0.2","7252","2","11","Female","approach_avoid_spark_v1","""event"",""trial"",""time""
""fullscreenenter"",""1"",""4307""
","
","
","""event"",""trial"",""time""
""fullscreenenter"",""1"",""4307""
","
","","","","","","null","<div style=""font-size:60px;"">+</div>","null","","fixation","","","","","","","","","","",""
"aa-learning-trial","30","251161","0.0-8.0-2.0-1.2","7252","2","11","Female","approach_avoid_spark_v1","""event"",""trial"",""time""
""fullscreenenter"",""1"",""4307""
","
","
","""event"",""trial"",""time""
""fullscreenenter"",""1"",""4307""
","
","","","","","","1213","images/racket2.png","","","learning","-5","0","0","0","practice","practice","practice","-1","","",""
"html-keyboard-response","31","251677","0.0-8.0-2.0-0.3","7252","2","11","Female","approach_avoid_spark_v1","""event"",""trial"",""time""
""fullscreenenter"",""1"",""4307""
","
","
","""event"",""trial"",""time""
""fullscreenenter"",""1"",""4307""
","
","","","","","","null","<div style=""font-size:60px;"">+</div>","null","","fixation","","","","","","","","","","",""
"aa-learning-trial","32","254692","0.0-8.0-2.0-1.3","7252","2","11","Female","approach_avoid_spark_v1","""event"",""trial"",""time""
""fullscreenenter"",""1"",""4307""
","
","
","""event"",""trial"",""time""
""fullscreenenter"",""1"",""4307""
","
","","","","","","1674.8000001907349","images/ball2.png","","","learning","9","9","1","1","practice","practice","practice","-1","","",""
"html-keyboard-response","33","255204","0.0-8.0-2.0-0.4","7252","2","11","Female","approach_avoid_spark_v1","""event"",""trial"",""time""
""fullscreenenter"",""1"",""4307""
","
","
","""event"",""trial"",""time""
""fullscreenenter"",""1"",""4307""
","
","","","","","","null","<div style=""font-size:60px;"">+</div>","null","","fixation","","","","","","","","","","",""
"aa-learning-trial","34","258221","0.0-8.0-2.0-1.4","7252","2","11","Female","approach_avoid_spark_v1","""event"",""trial"",""time""
""fullscreenenter"",""1"",""4307""
","
","
","""event"",""trial"",""time""
""fullscreenenter"",""1"",""4307""
","
","","","","","","869.6000003814697","images/ball3.png","","","learning","-5","0","0","0","practice","practice","practice","-1","","",""
"html-keyboard-response","35","258728","0.0-8.0-2.0-0.5","7252","2","11","Female","approach_avoid_spark_v1","""event"",""trial"",""time""
""fullscreenenter"",""1"",""4307""
","
","
","""event"",""trial"",""time""
""fullscreenenter"",""1"",""4307""
","
","","","","","","null","<div style=""font-size:60px;"">+</div>","null","","fixation","","","","","","","","","","",""
"aa-learning-trial","36","261738","0.0-8.0-2.0-1.5","7252","2","11","Female","approach_avoid_spark_v1","""event"",""trial"",""time""
""fullscreenenter"",""1"",""4307""
","
","
","""event"",""trial"",""time""
""fullscreenenter"",""1"",""4307""
","
","","","","","","851.5","images/ball4.png","","","learning","5","5","1","1","practice","practice","practice","-1","","",""
"html-keyboard-response","37","262260","0.0-8.0-2.0-0.6","7252","2","11","Female","approach_avoid_spark_v1","""event"",""trial"",""time""
""fullscreenenter"",""1"",""4307""
","
","
","""event"",""trial"",""time""
""fullscreenenter"",""1"",""4307""
","
","","","","","","null","<div style=""font-size:60px;"">+</div>","null","","fixation","","","","","","","","","","",""
"aa-learning-trial","38","265270","0.0-8.0-2.0-1.6","7252","2","11","Female","approach_avoid_spark_v1","""event"",""trial"",""time""
""fullscreenenter"",""1"",""4307""
","
","
","""event"",""trial"",""time""
""fullscreenenter"",""1"",""4307""
","
","","","","","","1093.5","images/racket2.png","","","learning","-1","0","0","0","practice","practice","practice","-1","","",""
"html-keyboard-response","39","265778","0.0-8.0-2.0-0.7","7252","2","11","Female","approach_avoid_spark_v1","""event"",""trial"",""time""
""fullscreenenter"",""1"",""4307""
","
","
","""event"",""trial"",""time""
""fullscreenenter"",""1"",""4307""
","
","","","","","","null","<div style=""font-size:60px;"">+</div>","null","","fixation","","","","","","","","","","",""
"aa-learning-trial","40","268790","0.0-8.0-2.0-1.7","7252","2","11","Female","approach_avoid_spark_v1","""event"",""trial"",""time""
""fullscreenenter"",""1"",""4307""
","
","
","""event"",""trial"",""time""
""fullscreenenter"",""1"",""4307""
","
","","","","","","1333.5999999046326","images/ball4.png","","","learning","2","2","1","1","practice","practice","practice","-1","","",""
"html-keyboard-response","41","269293","0.0-8.0-2.0-0.8","7252","2","11","Female","approach_avoid_spark_v1","""event"",""trial"",""time""
""fullscreenenter"",""1"",""4307""
","
","
","""event"",""trial"",""time""
""fullscreenenter"",""1"",""4307""
","
","","","","","","null","<div style=""font-size:60px;"">+</div>","null","","fixation","","","","","","","","","","",""
"aa-learning-trial","42","272302","0.0-8.0-2.0-1.8","7252","2","11","Female","approach_avoid_spark_v1","""event"",""trial"",""time""
""fullscreenenter"",""1"",""4307""
","
","
","""event"",""trial"",""time""
""fullscreenenter"",""1"",""4307""
","
","","","","","","473.5","images/racket4.png","","","learning","-7","0","0","0","practice","practice","practice","-1","","",""
"html-keyboard-response","43","272806","0.0-8.0-2.0-0.9","7252","2","11","Female","approach_avoid_spark_v1","""event"",""trial"",""time""
""fullscreenenter"",""1"",""4307""
","
","
","""event"",""trial"",""time""
""fullscreenenter"",""1"",""4307""
","
","","","","","","null","<div style=""font-size:60px;"">+</div>","null","","fixation","","","","","","","","","","",""
"aa-learning-trial","44","275814","0.0-8.0-2.0-1.9","7252","2","11","Female","approach_avoid_spark_v1","""event"",""trial"",""time""
""fullscreenenter"",""1"",""4307""
","
","
","""event"",""trial"",""time""
""fullscreenenter"",""1"",""4307""
","
","","","","","","950.5","images/racket1.png","","","learning","-8","0","0","0","practice","practice","practice","-1","","",""
"html-keyboard-response","45","276317","0.0-8.0-2.0-0.10","7252","2","11","Female","approach_avoid_spark_v1","""event"",""trial"",""time""
""fullscreenenter"",""1"",""4307""
","
","
","""event"",""trial"",""time""
""fullscreenenter"",""1"",""4307""
","
","","","","","","null","<div style=""font-size:60px;"">+</div>","null","","fixation","","","","","","","","","","",""
"aa-learning-trial","46","279334","0.0-8.0-2.0-1.10","7252","2","11","Female","approach_avoid_spark_v1","""event"",""trial"",""time""
""fullscreenenter"",""1"",""4307""
","
","
","""event"",""trial"",""time""
""fullscreenenter"",""1"",""4307""
","
","","","","","","880.0999999046326","images/racket4.png","","","learning","7","0","0","0","practice","practice","practice","-1","","",""
"html-keyboard-response","47","279837","0.0-8.0-2.0-0.11","7252","2","11","Female","approach_avoid_spark_v1","""event"",""trial"",""time""
""fullscreenenter"",""1"",""4307""
","
","
","""event"",""trial"",""time""
""fullscreenenter"",""1"",""4307""
","
","","","","","","null","<div style=""font-size:60px;"">+</div>","null","","fixation","","","","","","","","","","",""
"aa-learning-trial","48","282847","0.0-8.0-2.0-1.11","7252","2","11","Female","approach_avoid_spark_v1","""event"",""trial"",""time""
""fullscreenenter"",""1"",""4307""
","
","
","""event"",""trial"",""time""
""fullscreenenter"",""1"",""4307""
","
","","","","","","1154.6999998092651","images/racket1.png","","","learning","-2","0","0","0","practice","practice","practice","-1","","",""
"html-button-response","49","287023","0.0-8.0-3.0","7252","2","11","Female","approach_avoid_spark_v1","""event"",""trial"",""time""
""fullscreenenter"",""1"",""4307""
","
","
","""event"",""trial"",""time""
""fullscreenenter"",""1"",""4307""
","
","","","","","","4170.700000286102","<p> You earned 0 points in the practice round! </p>","0","","break","","","","","","","","","","",""
"learning-instructions","50","294563","0.0-8.0-4.0-0.0","7252","2","11","Female","approach_avoid_spark_v1","""event"",""trial"",""time""
""fullscreenenter"",""1"",""4307""
","
","
","""event"",""trial"",""time""
""fullscreenenter"",""1"",""4307""
","
","","","","","","1566.2000002861023","<p> It's almost time to start the real game. </p><p> Before you start, we're going to ask you a few questions about how the game works. </p>","","0","instructions","","","","","","","","","","",""
"preload","51","297020","0.0-8.0-5.0","7252","2","11","Female","approach_avoid_spark_v1","""event"",""trial"",""time""
""fullscreenenter"",""1"",""4307""
","
","
","""event"",""trial"",""time""
""fullscreenenter"",""1"",""4307""
","
","true","false","[]","[]","[]","","","","","","","","","","","","","","","",""
"comp-q","52","305001","0.0-8.0-6.0-0.0","7252","2","11","Female","approach_avoid_spark_v1","""event"",""trial"",""time""
""fullscreenenter"",""1"",""4307""
","
","
","""event"",""trial"",""time""
""fullscreenenter"",""1"",""4307""
","
","","","","","","2982.800000190735","<p> <b> True or False? </b> </p><p> If you see a number in GREY, that means you earned that many points. </p>","","1","comp_question","","","","","","","","","true","",""
"comp-q","53","314895","0.0-8.0-6.0-1.0","7252","2","11","Female","approach_avoid_spark_v1","""event"",""trial"",""time""
""fullscreenenter"",""1"",""4307""
","
","
","""event"",""trial"",""time""
""fullscreenenter"",""1"",""4307""
","
","","","","","","1529.9000000953674","<p><b> That's right! </b> If you see a grey number, it means you earned ZERO points. <br> The grey numbers show the points you WOULD HAVE earned if you had made the other choice. </p>","","0","comp_answer","","","","","","","","","","",""
"comp-q","54","321425","0.0-8.0-7.0-0.0","7252","2","11","Female","approach_avoid_spark_v1","""event"",""trial"",""time""
""fullscreenenter"",""1"",""4307""
","
","
","""event"",""trial"",""time""
""fullscreenenter"",""1"",""4307""
","
","","","","","","1832.6999998092651","<p> <b> True or False? </b> </p><p> You will have as much time as you want to make each choice. </p>","","1","comp_question","","","","","","","","","true","",""
"comp-q","55","327013","0.0-8.0-7.0-1.0","7252","2","11","Female","approach_avoid_spark_v1","""event"",""trial"",""time""
""fullscreenenter"",""1"",""4307""
","
","
","""event"",""trial"",""time""
""fullscreenenter"",""1"",""4307""
","
","","","","","","1538.5","<p> <b> That's right! </b> You will only have 3 seconds to make each choice. </p>","","0","comp_answer","","","","","","","","","","",""
"comp-q","56","332759","0.0-8.0-8.0-0.0","7252","2","11","Female","approach_avoid_spark_v1","""event"",""trial"",""time""
""fullscreenenter"",""1"",""4307""
","
","
","""event"",""trial"",""time""
""fullscreenenter"",""1"",""4307""
","
","","","","","","1077.4000000953674","<p> <b> True or False? </b> </p><p> You should use the '1' and '0' keys to make your choices. </p>","","0","comp_question","","","","","","","","","true","",""
"comp-q","57","338965","0.0-8.0-8.0-1.0","7252","2","11","Female","approach_avoid_spark_v1","""event"",""trial"",""time""
""fullscreenenter"",""1"",""4307""
","
","
","""event"",""trial"",""time""
""fullscreenenter"",""1"",""4307""
","
","","","","","","1584.8000001907349","<p> <b> That's right! </b> You should use the '1' and '0' keys to make each choice. </p>","","0","comp_answer","","","","","","","","","","",""
"learning-instructions","58","347259","0.0-8.0-9.0-0.0","7252","2","11","Female","approach_avoid_spark_v1","""event"",""trial"",""time""
""fullscreenenter"",""1"",""4307""
","
","
","""event"",""trial"",""time""
""fullscreenenter"",""1"",""4307""
","
","","","","","","2015.6000003814697","<p> It's now time to start the real game. </p>Do your best, because the points you earn in the next rounds will influence your bonus payment. </p>","","0","instructions","","","","","","","","","","",""
"preload","59","347401","0.0-9.0-0.0","7252","2","11","Female","approach_avoid_spark_v1","""event"",""trial"",""time""
""fullscreenenter"",""1"",""4307""
","
","
","""event"",""trial"",""time""
""fullscreenenter"",""1"",""4307""
","
","true","false","[]","[]","[]","","","","","","","","","","","","","","","",""
"learning-instructions","60","352667","0.0-9.0-1.0-0.0","7252","2","11","Female","approach_avoid_spark_v1","""event"",""trial"",""time""
""fullscreenenter"",""1"",""4307""
","
","
","""event"",""trial"",""time""
""fullscreenenter"",""1"",""4307""
","
","","","","","","922.2000002861023","<p> Your goal in this round is to take care of lots of farm animals. </p></div>","","0","instructions","","","","","","","","","","",""
"learning-instructions","61","363551","0.0-9.0-1.0-0.1","7252","2","11","Female","approach_avoid_spark_v1","""event"",""trial"",""time""
""fullscreenenter"",""1"",""4307""
","
","
","""event"",""trial"",""time""
""fullscreenenter"",""1"",""4307""
","
","","","","","","1098.8999996185303","<p> Some farm animals are hungry, while other farm animals are already full.  </p><p> On each turn, you will see a farm animal.   </p><p> You need to decide whether to feed it or not.  </p>","","0","instructions","","","","","","","","","","",""
"learning-instructions","62","370196","0.0-9.0-1.0-0.2","7252","2","11","Female","approach_avoid_spark_v1","""event"",""trial"",""time""
""fullscreenenter"",""1"",""4307""
","
","
","""event"",""trial"",""time""
""fullscreenenter"",""1"",""4307""
","
","","","","","","856.5","<p> You can feed the farm animal by pressing 1 and leave the farm animal alone by pressing 0. </p><br><div class=""choice-instructions-grid""> <div class=""choice-option""><img src=""images/approach.png"" class=""choice-option-img"" stage=""instructions"" position=""0"" ><div class=""choice-option-text""> Press ""1."" </div></div><div class=""choice-option""><img src=""images/avoid.png"" class=""choice-option-img"" stage=""instructions"" position=""1"" ><div class=""choice-option-text""> Press ""0."" </div></div>","","0","instructions","","","","","","","","","","",""
"learning-instructions","63","380635","0.0-9.0-1.0-0.3","7252","2","11","Female","approach_avoid_spark_v1","""event"",""trial"",""time""
""fullscreenenter"",""1"",""4307""
","
","
","""event"",""trial"",""time""
""fullscreenenter"",""1"",""4307""
","
","","","","","","993.8000001907349","<p> If you feed a hungry farm animal, you will make it feel satisfied! </p><p> But if you feed the farm animal and it was already full, you will make it feel sick. </p>","","0","instructions","","","","","","","","","","",""
"learning-instructions","64","393797","0.0-9.0-1.0-0.4","7252","2","11","Female","approach_avoid_spark_v1","""event"",""trial"",""time""
""fullscreenenter"",""1"",""4307""
","
","
","""event"",""trial"",""time""
""fullscreenenter"",""1"",""4307""
","
","","","","","","929.9000000953674","<p> You will earn points based on how you made the farm animal feel. </p><p> If you made it satisfied, you will WIN anywhere from 1 - 9 points, </p><p> but if you made it sick, you will LOSE anywhere from 1 - 9 points. </p>","","0","instructions","","","","","","","","","","",""
"learning-instructions","65","402021","0.0-9.0-1.0-0.5","7252","2","11","Female","approach_avoid_spark_v1","""event"",""trial"",""time""
""fullscreenenter"",""1"",""4307""
","
","
","""event"",""trial"",""time""
""fullscreenenter"",""1"",""4307""
","
","","","","","","752.1999998092651","<p> You will see how many points you won or lost in the center of the screen. </p><p> Here is what you would see if you won 5 points: </p><p style=""color:green;font-size:50px;font-weight:bolder"">5</p>","","0","instructions","","","","","","","","","","",""
"learning-instructions","66","406205","0.0-9.0-1.0-0.6","7252","2","11","Female","approach_avoid_spark_v1","""event"",""trial"",""time""
""fullscreenenter"",""1"",""4307""
","
","
","""event"",""trial"",""time""
""fullscreenenter"",""1"",""4307""
","
","","","","","","567.0999999046326","<p> And here is what you would see if you lost 3 points: </p><p style=""color:red;font-size:50px;font-weight:bolder"">-3</p>","","0","instructions","","","","","","","","","","",""
"learning-instructions","67","422446","0.0-9.0-1.0-0.7","7252","2","11","Female","approach_avoid_spark_v1","""event"",""trial"",""time""
""fullscreenenter"",""1"",""4307""
","
","
","""event"",""trial"",""time""
""fullscreenenter"",""1"",""4307""
","
","","","","","","625.8000001907349","<p> Some farm animals will become very satisfied or very sick. </p><p> These farm animals will make you win or lose LOTS of points. </p><p> Other farm animals have less strong feelings. </p><p> These farm animals will make you win or lose small amounts of points. </p>","","0","instructions","","","","","","","","","","",""
"learning-instructions","68","435236","0.0-9.0-1.0-0.8","7252","2","11","Female","approach_avoid_spark_v1","""event"",""trial"",""time""
""fullscreenenter"",""1"",""4307""
","
","
","""event"",""trial"",""time""
""fullscreenenter"",""1"",""4307""
","
","","","","","","483.80000019073486","<p> If you choose to leave the farm animal alone, you will not win or lose any points. </p><p>  However, in the center of the screen, you will see the number of points you WOULD HAVE won or lost if you had fed the farm animal. </p>","","0","instructions","","","","","","","","","","",""
"learning-instructions","69","448826","0.0-9.0-1.0-0.9","7252","2","11","Female","approach_avoid_spark_v1","""event"",""trial"",""time""
""fullscreenenter"",""1"",""4307""
","
","
","""event"",""trial"",""time""
""fullscreenenter"",""1"",""4307""
","
","","","","","","1914","<p> Here is what you might see if you did not feed the farm animal but the animal was hungry: </p><p style=""color:grey; font-size:50px; display: inline-block; border-spacing: 15px; border-width:3px; border-style:solid; border-color:red"">  &nbsp; 6 &nbsp; </p><p> Remember, in this case, you would not win or lose ANY points because you did not feed the farm animal.  </p>","","0","instructions","","","","","","","","","","",""
"learning-instructions","70","458006","0.0-9.0-1.0-0.10","7252","2","11","Female","approach_avoid_spark_v1","""event"",""trial"",""time""
""fullscreenenter"",""1"",""4307""
","
","
","""event"",""trial"",""time""
""fullscreenenter"",""1"",""4307""
","
","","","","","","1229.8999996185303","<p> Try to make the best choice for each farm animal because </p><p> at the end of the game, you will earn bonus money based on how many points you earned. </p>","","0","instructions","","","","","","","","","","",""
"learning-instructions","71","466614","0.0-9.0-1.0-0.11","7252","2","11","Female","approach_avoid_spark_v1","""event"",""trial"",""time""
""fullscreenenter"",""1"",""4307""
","
","
","""event"",""trial"",""time""
""fullscreenenter"",""1"",""4307""
","
","","","","","","400.69999980926514","<p> You will have 3 seconds to make each choice. Try to respond before time runs out! </p><p> You will lose 5 points each time you do not make a response. </p>","","0","instructions","","","","","","","","","","",""
"html-keyboard-response","72","467249","0.0-9.0-2.0-0.0","7252","2","11","Female","approach_avoid_spark_v1","""event"",""trial"",""time""
""fullscreenenter"",""1"",""4307""
","
","
","""event"",""trial"",""time""
""fullscreenenter"",""1"",""4307""
","
","","","","","","null","<div style=""font-size:60px;"">+</div>","null","","fixation","","","","","","","","","","",""
"aa-learning-trial","73","470270","0.0-9.0-2.0-1.0","7252","2","11","Female","approach_avoid_spark_v1","""event"",""trial"",""time""
""fullscreenenter"",""1"",""4307""
","
","
","""event"",""trial"",""time""
""fullscreenenter"",""1"",""4307""
","
","","","","","","1298.1999998092651","images/goat5.png","","","learning","1","1","1","1","goat","animals","2","0","","good","[5]"
"html-keyboard-response","74","470781","0.0-9.0-2.0-0.1","7252","2","11","Female","approach_avoid_spark_v1","""event"",""trial"",""time""
""fullscreenenter"",""1"",""4307""
","
","
","""event"",""trial"",""time""
""fullscreenenter"",""1"",""4307""
","
","","","","","","null","<div style=""font-size:60px;"">+</div>","null","","fixation","","","","","","","","","","",""
"aa-learning-trial","75","473794","0.0-9.0-2.0-1.1","7252","2","11","Female","approach_avoid_spark_v1","""event"",""trial"",""time""
""fullscreenenter"",""1"",""4307""
","
","
","""event"",""trial"",""time""
""fullscreenenter"",""1"",""4307""
","
","","","","","","1151.5999999046326","images/goat4.png","","","learning","-3","-5","-","","goat","animals","2","0","","good","[5]"
"html-keyboard-response","76","474314","0.0-9.0-2.0-0.2","7252","2","11","Female","approach_avoid_spark_v1","""event"",""trial"",""time""
""fullscreenenter"",""1"",""4307""
","
","
","""event"",""trial"",""time""
""fullscreenenter"",""1"",""4307""
","
","","","","","","null","<div style=""font-size:60px;"">+</div>","null","","fixation","","","","","","","","","","",""
"aa-learning-trial","77","477329","0.0-9.0-2.0-1.2","7252","2","11","Female","approach_avoid_spark_v1","""event"",""trial"",""time""
""fullscreenenter"",""1"",""4307""
","
","
","""event"",""trial"",""time""
""fullscreenenter"",""1"",""4307""
","
","","","","","","933.5","images/sheep6.png","","","learning","-6","-6","1","1","sheep","animals","2","0","","bad","[-5]"
"html-keyboard-response","78","477848","0.0-9.0-2.0-0.3","7252","2","11","Female","approach_avoid_spark_v1","""event"",""trial"",""time""
""fullscreenenter"",""1"",""4307""
","
","
","""event"",""trial"",""time""
""fullscreenenter"",""1"",""4307""
","
","","","","","","null","<div style=""font-size:60px;"">+</div>","null","","fixation","","","","","","","","","","",""
"aa-learning-trial","79","480873","0.0-9.0-2.0-1.3","7252","2","11","Female","approach_avoid_spark_v1","""event"",""trial"",""time""
""fullscreenenter"",""1"",""4307""
","
","
","""event"",""trial"",""time""
""fullscreenenter"",""1"",""4307""
","
","","","","","","1364.9000000953674","images/goat3.png","","","learning","5","0","0","0","goat","animals","2","0","","good","[5]"
"html-keyboard-response","80","481397","0.0-9.0-2.0-0.4","7252","2","11","Female","approach_avoid_spark_v1","""event"",""trial"",""time""
""fullscreenenter"",""1"",""4307""
","
","
","""event"",""trial"",""time""
""fullscreenenter"",""1"",""4307""
","
","","","","","","null","<div style=""font-size:60px;"">+</div>","null","","fixation","","","","","","","","","","",""
"aa-learning-trial","81","484421","0.0-9.0-2.0-1.4","7252","2","11","Female","approach_avoid_spark_v1","""event"",""trial"",""time""
""fullscreenenter"",""1"",""4307""
","
","
","""event"",""trial"",""time""
""fullscreenenter"",""1"",""4307""
","
","","","","","","963.9000000953674","images/goat5.png","","","learning","1","0","0","0","goat","animals","2","0","","good","[5]"
"html-keyboard-response","82","484932","0.0-9.0-2.0-0.5","7252","2","11","Female","approach_avoid_spark_v1","""event"",""trial"",""time""
""fullscreenenter"",""1"",""4307""
","
","
","""event"",""trial"",""time""
""fullscreenenter"",""1"",""4307""
","
","","","","","","null","<div style=""font-size:60px;"">+</div>","null","","fixation","","","","","","","","","","",""
"aa-learning-trial","83","487944","0.0-9.0-2.0-1.5","7252","2","11","Female","approach_avoid_spark_v1","""event"",""trial"",""time""
""fullscreenenter"",""1"",""4307""
","
","
","""event"",""trial"",""time""
""fullscreenenter"",""1"",""4307""
","
","","","","","","897","images/horse5.png","","","learning","-7","-7","1","1","horse","animals","2","0","","neutral","0"
"html-keyboard-response","84","488463","0.0-9.0-2.0-0.6","7252","2","11","Female","approach_avoid_spark_v1","""event"",""trial"",""time""
""fullscreenenter"",""1"",""4307""
","
","
","""event"",""trial"",""time""
""fullscreenenter"",""1"",""4307""
","
","","","","","","null","<div style=""font-size:60px;"">+</div>","null","","fixation","","","","","","","","","","",""
"aa-learning-trial","85","491481","0.0-9.0-2.0-1.6","7252","2","11","Female","approach_avoid_spark_v1","""event"",""trial"",""time""
""fullscreenenter"",""1"",""4307""
","
","
","""event"",""trial"",""time""
""fullscreenenter"",""1"",""4307""
","
","","","","","","984.1999998092651","images/sheep5.png","","","learning","2","0","0","0","sheep","animals","2","0","","bad","[-5]"
"html-keyboard-response","86","491996","0.0-9.0-2.0-0.7","7252","2","11","Female","approach_avoid_spark_v1","""event"",""trial"",""time""
""fullscreenenter"",""1"",""4307""
","
","
","""event"",""trial"",""time""
""fullscreenenter"",""1"",""4307""
","
","","","","","","null","<div style=""font-size:60px;"">+</div>","null","","fixation","","","","","","","","","","",""
"aa-learning-trial","87","495016","0.0-9.0-2.0-1.7","7252","2","11","Female","approach_avoid_spark_v1","""event"",""trial"",""time""
""fullscreenenter"",""1"",""4307""
","
","
","""event"",""trial"",""time""
""fullscreenenter"",""1"",""4307""
","
","","","","","","984.1999998092651","images/horse3.png","","","learning","-4","-4","1","1","horse","animals","2","0","","neutral","0"
"html-keyboard-response","88","495529","0.0-9.0-2.0-0.8","7252","2","11","Female","approach_avoid_spark_v1","""event"",""trial"",""time""
""fullscreenenter"",""1"",""4307""
","
","
","""event"",""trial"",""time""
""fullscreenenter"",""1"",""4307""
","
","","","","","","null","<div style=""font-size:60px;"">+</div>","null","","fixation","","","","","","","","","","",""
"aa-learning-trial","89","498542","0.0-9.0-2.0-1.8","7252","2","11","Female","approach_avoid_spark_v1","""event"",""trial"",""time""
""fullscreenenter"",""1"",""4307""
","
","
","""event"",""trial"",""time""
""fullscreenenter"",""1"",""4307""
","
","","","","","","1349.8999996185303","images/goat3.png","","","learning","5","5","1","1","goat","animals","2","0","","good","[5]"
"html-keyboard-response","90","499046","0.0-9.0-2.0-0.9","7252","2","11","Female","approach_avoid_spark_v1","""event"",""trial"",""time""
""fullscreenenter"",""1"",""4307""
","
","
","""event"",""trial"",""time""
""fullscreenenter"",""1"",""4307""
","
","","","","","","null","<div style=""font-size:60px;"">+</div>","null","","fixation","","","","","","","","","","",""
"aa-learning-trial","91","502053","0.0-9.0-2.0-1.9","7252","2","11","Female","approach_avoid_spark_v1","""event"",""trial"",""time""
""fullscreenenter"",""1"",""4307""
","
","
","""event"",""trial"",""time""
""fullscreenenter"",""1"",""4307""
","
","","","","","","1378.4000000953674","images/sheep4.png","","","learning","8","8","1","1","sheep","animals","2","0","","bad","[-5]"
"html-keyboard-response","92","502557","0.0-9.0-2.0-0.10","7252","2","11","Female","approach_avoid_spark_v1","""event"",""trial"",""time""
""fullscreenenter"",""1"",""4307""
","
","
","""event"",""trial"",""time""
""fullscreenenter"",""1"",""4307""
","
","","","","","","null","<div style=""font-size:60px;"">+</div>","null","","fixation","","","","","","","","","","",""
"aa-learning-trial","93","505566","0.0-9.0-2.0-1.10","7252","2","11","Female","approach_avoid_spark_v1","""event"",""trial"",""time""
""fullscreenenter"",""1"",""4307""
","
","
","""event"",""trial"",""time""
""fullscreenenter"",""1"",""4307""
","
","","","","","","1385.5","images/horse6.png","","","learning","6","6","1","1","horse","animals","2","0","","neutral","0"
"html-keyboard-response","94","506070","0.0-9.0-2.0-0.11","7252","2","11","Female","approach_avoid_spark_v1","""event"",""trial"",""time""
""fullscreenenter"",""1"",""4307""
","
","
","""event"",""trial"",""time""
""fullscreenenter"",""1"",""4307""
","
","","","","","","null","<div style=""font-size:60px;"">+</div>","null","","fixation","","","","","","","","","","",""
"aa-learning-trial","95","509077","0.0-9.0-2.0-1.11","7252","2","11","Female","approach_avoid_spark_v1","""event"",""trial"",""time""
""fullscreenenter"",""1"",""4307""
","
","
","""event"",""trial"",""time""
""fullscreenenter"",""1"",""4307""
","
","","","","","","820.6000003814697","images/sheep6.png","","","learning","-6","-6","1","1","sheep","animals","2","0","","bad","[-5]"
"html-keyboard-response","96","509582","0.0-9.0-2.0-0.12","7252","2","11","Female","approach_avoid_spark_v1","""event"",""trial"",""time""
""fullscreenenter"",""1"",""4307""
","
","
","""event"",""trial"",""time""
""fullscreenenter"",""1"",""4307""
","
","","","","","","null","<div style=""font-size:60px;"">+</div>","null","","fixation","","","","","","","","","","",""
"aa-learning-trial","97","512589","0.0-9.0-2.0-1.12","7252","2","11","Female","approach_avoid_spark_v1","""event"",""trial"",""time""
""fullscreenenter"",""1"",""4307""
","
","
","""event"",""trial"",""time""
""fullscreenenter"",""1"",""4307""
","
","","","","","","885.6999998092651","images/sheep5.png","","","learning","2","2","1","1","sheep","animals","2","0","","bad","[-5]"
"html-keyboard-response","98","513094","0.0-9.0-2.0-0.13","7252","2","11","Female","approach_avoid_spark_v1","""event"",""trial"",""time""
""fullscreenenter"",""1"",""4307""
","
","
","""event"",""trial"",""time""
""fullscreenenter"",""1"",""4307""
","
","","","","","","null","<div style=""font-size:60px;"">+</div>","null","","fixation","","","","","","","","","","",""
"aa-learning-trial","99","516102","0.0-9.0-2.0-1.13","7252","2","11","Female","approach_avoid_spark_v1","""event"",""trial"",""time""
""fullscreenenter"",""1"",""4307""
","
","
","""event"",""trial"",""time""
""fullscreenenter"",""1"",""4307""
","
","","","","","","882.3000001907349","images/horse6.png","","","learning","6","6","1","1","horse","animals","2","0","","neutral","0"
"html-keyboard-response","100","516606","0.0-9.0-2.0-0.14","7252","2","11","Female","approach_avoid_spark_v1","""event"",""trial"",""time""
""fullscreenenter"",""1"",""4307""
","
","
","""event"",""trial"",""time""
""fullscreenenter"",""1"",""4307""
","
","","","","","","null","<div style=""font-size:60px;"">+</div>","null","","fixation","","","","","","","","","","",""
"aa-learning-trial","101","519614","0.0-9.0-2.0-1.14","7252","2","11","Female","approach_avoid_spark_v1","""event"",""trial"",""time""
""fullscreenenter"",""1"",""4307""
","
","
","""event"",""trial"",""time""
""fullscreenenter"",""1"",""4307""
","
","","","","","","1399.9000000953674","images/horse5.png","","","learning","-7","0","0","0","horse","animals","2","0","","neutral","0"
"html-keyboard-response","102","520118","0.0-9.0-2.0-0.15","7252","2","11","Female","approach_avoid_spark_v1","""event"",""trial"",""time""
""fullscreenenter"",""1"",""4307""
","
","
","""event"",""trial"",""time""
""fullscreenenter"",""1"",""4307""
","
","","","","","","null","<div style=""font-size:60px;"">+</div>","null","","fixation","","","","","","","","","","",""
"aa-learning-trial","103","523125","0.0-9.0-2.0-1.15","7252","2","11","Female","approach_avoid_spark_v1","""event"",""trial"",""time""
""fullscreenenter"",""1"",""4307""
","
","
","""event"",""trial"",""time""
""fullscreenenter"",""1"",""4307""
","
","","","","","","1959.5","images/horse6.png","","","learning","6","0","0","0","horse","animals","2","0","","neutral","0"
"html-keyboard-response","104","523630","0.0-9.0-2.0-0.16","7252","2","11","Female","approach_avoid_spark_v1","""event"",""trial"",""time""
""fullscreenenter"",""1"",""4307""
","
","
","""event"",""trial"",""time""
""fullscreenenter"",""1"",""4307""
","
","","","","","","null","<div style=""font-size:60px;"">+</div>","null","","fixation","","","","","","","","","","",""
"aa-learning-trial","105","526637","0.0-9.0-2.0-1.16","7252","2","11","Female","approach_avoid_spark_v1","""event"",""trial"",""time""
""fullscreenenter"",""1"",""4307""
","
","
","""event"",""trial"",""time""
""fullscreenenter"",""1"",""4307""
","
","","","","","","1204.2000002861023","images/sheep7.png","","","learning","-5","0","0","0","sheep","animals","2","0","","bad","[-5]"
"html-keyboard-response","106","527142","0.0-9.0-2.0-0.17","7252","2","11","Female","approach_avoid_spark_v1","""event"",""trial"",""time""
""fullscreenenter"",""1"",""4307""
","
","
","""event"",""trial"",""time""
""fullscreenenter"",""1"",""4307""
","
","","","","","","null","<div style=""font-size:60px;"">+</div>","null","","fixation","","","","","","","","","","",""
"aa-learning-trial","107","530150","0.0-9.0-2.0-1.17","7252","2","11","Female","approach_avoid_spark_v1","""event"",""trial"",""time""
""fullscreenenter"",""1"",""4307""
","
","
","""event"",""trial"",""time""
""fullscreenenter"",""1"",""4307""
","
","","","","","","771.2999997138977","images/sheep6.png","","","learning","-6","0","0","0","sheep","animals","2","0","","bad","[-5]"
"html-keyboard-response","108","530653","0.0-9.0-2.0-0.18","7252","2","11","Female","approach_avoid_spark_v1","""event"",""trial"",""time""
""fullscreenenter"",""1"",""4307""
","
","
","""event"",""trial"",""time""
""fullscreenenter"",""1"",""4307""
","
","","","","","","null","<div style=""font-size:60px;"">+</div>","null","","fixation","","","","","","","","","","",""
"aa-learning-trial","109","533662","0.0-9.0-2.0-1.18","7252","2","11","Female","approach_avoid_spark_v1","""event"",""trial"",""time""
""fullscreenenter"",""1"",""4307""
","
","
","""event"",""trial"",""time""
""fullscreenenter"",""1"",""4307""
","
","","","","","","1223","images/goat7.png","","","learning","-9","-9","1","1","goat","animals","2","0","","good","[5]"
"html-keyboard-response","110","534165","0.0-9.0-2.0-0.19","7252","2","11","Female","approach_avoid_spark_v1","""event"",""trial"",""time""
""fullscreenenter"",""1"",""4307""
","
","
","""event"",""trial"",""time""
""fullscreenenter"",""1"",""4307""
","
","","","","","","null","<div style=""font-size:60px;"">+</div>","null","","fixation","","","","","","","","","","",""
"aa-learning-trial","111","537174","0.0-9.0-2.0-1.19","7252","2","11","Female","approach_avoid_spark_v1","""event"",""trial"",""time""
""fullscreenenter"",""1"",""4307""
","
","
","""event"",""trial"",""time""
""fullscreenenter"",""1"",""4307""
","
","","","","","","982.2000002861023","images/sheep5.png","","","learning","2","0","0","0","sheep","animals","2","0","","bad","[-5]"
"html-keyboard-response","112","537678","0.0-9.0-2.0-0.20","7252","2","11","Female","approach_avoid_spark_v1","""event"",""trial"",""time""
""fullscreenenter"",""1"",""4307""
""blur"",""113"",""539935""
","""event"",""trial"",""time""
""blur"",""113"",""539935""
","
","""event"",""trial"",""time""
""fullscreenenter"",""1"",""4307""
","
","","","","","","null","<div style=""font-size:60px;"">+</div>","null","","fixation","","","","","","","","","","",""
"aa-learning-trial","113","540685","0.0-9.0-2.0-1.20","7252","2","11","Female","approach_avoid_spark_v1","""event"",""trial"",""time""
""fullscreenenter"",""1"",""4307""
""blur"",""113"",""539935""
","""event"",""trial"",""time""
""blur"",""113"",""539935""
","
","""event"",""trial"",""time""
""fullscreenenter"",""1"",""4307""
","
","","","","","","1290.4000000953674","images/sheep5.png","","","learning","2","2","1","1","sheep","animals","2","0","","bad","[-5]"
"html-keyboard-response","114","541189","0.0-9.0-2.0-0.21","7252","2","11","Female","approach_avoid_spark_v1","""event"",""trial"",""time""
""fullscreenenter"",""1"",""4307""
""blur"",""113"",""539935""
","""event"",""trial"",""time""
""blur"",""113"",""539935""
","
","""event"",""trial"",""time""
""fullscreenenter"",""1"",""4307""
","
","","","","","","null","<div style=""font-size:60px;"">+</div>","null","","fixation","","","","","","","","","","",""
"aa-learning-trial","115","544197","0.0-9.0-2.0-1.21","7252","2","11","Female","approach_avoid_spark_v1","""event"",""trial"",""time""
""fullscreenenter"",""1"",""4307""
""blur"",""113"",""539935""
","""event"",""trial"",""time""
""blur"",""113"",""539935""
","
","""event"",""trial"",""time""
""fullscreenenter"",""1"",""4307""
","
","","","","","","null","images/sheep5.png","","","learning","2","-5","","null","sheep","animals","2","0","","bad","[-5]"
"html-keyboard-response","116","544701","0.0-9.0-2.0-0.22","7252","2","11","Female","approach_avoid_spark_v1","""event"",""trial"",""time""
""fullscreenenter"",""1"",""4307""
""blur"",""113"",""539935""
","""event"",""trial"",""time""
""blur"",""113"",""539935""
","
","""event"",""trial"",""time""
""fullscreenenter"",""1"",""4307""
","
","","","","","","null","<div style=""font-size:60px;"">+</div>","null","","fixation","","","","","","","","","","",""
"aa-learning-trial","117","547709","0.0-9.0-2.0-1.22","7252","2","11","Female","approach_avoid_spark_v1","""event"",""trial"",""time""
""fullscreenenter"",""1"",""4307""
""blur"",""113"",""539935""
","""event"",""trial"",""time""
""blur"",""113"",""539935""
","
","""event"",""trial"",""time""
""fullscreenenter"",""1"",""4307""
","
","","","","","","null","images/goat5.png","","","learning","1","-5","","null","goat","animals","2","0","","good","[5]"
"html-keyboard-response","118","548212","0.0-9.0-2.0-0.23","7252","2","11","Female","approach_avoid_spark_v1","""event"",""trial"",""time""
""fullscreenenter"",""1"",""4307""
""blur"",""113"",""539935""
","""event"",""trial"",""time""
""blur"",""113"",""539935""
","
","""event"",""trial"",""time""
""fullscreenenter"",""1"",""4307""
","
","","","","","","null","<div style=""font-size:60px;"">+</div>","null","","fixation","","","","","","","","","","",""
"aa-learning-trial","119","551222","0.0-9.0-2.0-1.23","7252","2","11","Female","approach_avoid_spark_v1","""event"",""trial"",""time""
""fullscreenenter"",""1"",""4307""
""blur"",""113"",""539935""
","""event"",""trial"",""time""
""blur"",""113"",""539935""
","
","""event"",""trial"",""time""
""fullscreenenter"",""1"",""4307""
","
","","","","","","null","images/horse3.png","","","learning","-4","-5","","null","horse","animals","2","0","","neutral","0"
"html-keyboard-response","120","551726","0.0-9.0-2.0-0.24","7252","2","11","Female","approach_avoid_spark_v1","""event"",""trial"",""time""
""fullscreenenter"",""1"",""4307""
""blur"",""113"",""539935""
","""event"",""trial"",""time""
""blur"",""113"",""539935""
","
","""event"",""trial"",""time""
""fullscreenenter"",""1"",""4307""
","
","","","","","","null","<div style=""font-size:60px;"">+</div>","null","","fixation","","","","","","","","","","",""
"aa-learning-trial","121","554734","0.0-9.0-2.0-1.24","7252","2","11","Female","approach_avoid_spark_v1","""event"",""trial"",""time""
""fullscreenenter"",""1"",""4307""
""blur"",""113"",""539935""
","""event"",""trial"",""time""
""blur"",""113"",""539935""
","
","""event"",""trial"",""time""
""fullscreenenter"",""1"",""4307""
","
","","","","","","null","images/sheep4.png","","","learning","8","-5","","null","sheep","animals","2","0","","bad","[-5]"
"html-keyboard-response","122","555236","0.0-9.0-2.0-0.25","7252","2","11","Female","approach_avoid_spark_v1","""event"",""trial"",""time""
""fullscreenenter"",""1"",""4307""
""blur"",""113"",""539935""
","""event"",""trial"",""time""
""blur"",""113"",""539935""
","
","""event"",""trial"",""time""
""fullscreenenter"",""1"",""4307""
","
","","","","","","null","<div style=""font-size:60px;"">+</div>","null","","fixation","","","","","","","","","","",""
"aa-learning-trial","123","558246","0.0-9.0-2.0-1.25","7252","2","11","Female","approach_avoid_spark_v1","""event"",""trial"",""time""
""fullscreenenter"",""1"",""4307""
""blur"",""113"",""539935""
","""event"",""trial"",""time""
""blur"",""113"",""539935""
","
","""event"",""trial"",""time""
""fullscreenenter"",""1"",""4307""
","
","","","","","","null","images/sheep4.png","","","learning","8","-5","","null","sheep","animals","2","0","","bad","[-5]"
"html-keyboard-response","124","558749","0.0-9.0-2.0-0.26","7252","2","11","Female","approach_avoid_spark_v1","""event"",""trial"",""time""
""fullscreenenter"",""1"",""4307""
""blur"",""113"",""539935""
","""event"",""trial"",""time""
""blur"",""113"",""539935""
","
","""event"",""trial"",""time""
""fullscreenenter"",""1"",""4307""
","
","","","","","","null","<div style=""font-size:60px;"">+</div>","null","","fixation","","","","","","","","","","",""
"aa-learning-trial","125","561758","0.0-9.0-2.0-1.26","7252","2","11","Female","approach_avoid_spark_v1","""event"",""trial"",""time""
""fullscreenenter"",""1"",""4307""
""blur"",""113"",""539935""
","""event"",""trial"",""time""
""blur"",""113"",""539935""
","
","""event"",""trial"",""time""
""fullscreenenter"",""1"",""4307""
","
","","","","","","null","images/goat5.png","","","learning","1","-5","","null","goat","animals","2","0","","good","[5]"
"html-keyboard-response","126","562260","0.0-9.0-2.0-0.27","7252","2","11","Female","approach_avoid_spark_v1","""event"",""trial"",""time""
""fullscreenenter"",""1"",""4307""
""blur"",""113"",""539935""
","""event"",""trial"",""time""
""blur"",""113"",""539935""
","
","""event"",""trial"",""time""
""fullscreenenter"",""1"",""4307""
","
","","","","","","null","<div style=""font-size:60px;"">+</div>","null","","fixation","","","","","","","","","","",""
"aa-learning-trial","127","565269","0.0-9.0-2.0-1.27","7252","2","11","Female","approach_avoid_spark_v1","""event"",""trial"",""time""
""fullscreenenter"",""1"",""4307""
""blur"",""113"",""539935""
","""event"",""trial"",""time""
""blur"",""113"",""539935""
","
","""event"",""trial"",""time""
""fullscreenenter"",""1"",""4307""
","
","","","","","","null","images/goat4.png","","","learning","-3","-5","","null","goat","animals","2","0","","good","[5]"
"html-keyboard-response","128","565774","0.0-9.0-2.0-0.28","7252","2","11","Female","approach_avoid_spark_v1","""event"",""trial"",""time""
""fullscreenenter"",""1"",""4307""
""blur"",""113"",""539935""
","""event"",""trial"",""time""
""blur"",""113"",""539935""
","
","""event"",""trial"",""time""
""fullscreenenter"",""1"",""4307""
","
","","","","","","null","<div style=""font-size:60px;"">+</div>","null","","fixation","","","","","","","","","","",""
"aa-learning-trial","129","568780","0.0-9.0-2.0-1.28","7252","2","11","Female","approach_avoid_spark_v1","""event"",""trial"",""time""
""fullscreenenter"",""1"",""4307""
""blur"",""113"",""539935""
","""event"",""trial"",""time""
""blur"",""113"",""539935""
","
","""event"",""trial"",""time""
""fullscreenenter"",""1"",""4307""
","
","","","","","","null","images/goat3.png","","","learning","5","-5","","null","goat","animals","2","0","","good","[5]"
"html-keyboard-response","130","569285","0.0-9.0-2.0-0.29","7252","2","11","Female","approach_avoid_spark_v1","""event"",""trial"",""time""
""fullscreenenter"",""1"",""4307""
""blur"",""113"",""539935""
","""event"",""trial"",""time""
""blur"",""113"",""539935""
","
","""event"",""trial"",""time""
""fullscreenenter"",""1"",""4307""
","
","","","","","","null","<div style=""font-size:60px;"">+</div>","null","","fixation","","","","","","","","","","",""
"aa-learning-trial","131","572293","0.0-9.0-2.0-1.29","7252","2","11","Female","approach_avoid_spark_v1","""event"",""trial"",""time""
""fullscreenenter"",""1"",""4307""
""blur"",""113"",""539935""
","""event"",""trial"",""time""
""blur"",""113"",""539935""
","
","""event"",""trial"",""time""
""fullscreenenter"",""1"",""4307""
","
","","","","","","null","images/horse6.png","","","learning","6","-5","","null","horse","animals","2","0","","neutral","0"
"html-keyboard-response","132","572797","0.0-9.0-2.0-0.30","7252","2","11","Female","approach_avoid_spark_v1","""event"",""trial"",""time""
""fullscreenenter"",""1"",""4307""
""blur"",""113"",""539935""
","""event"",""trial"",""time""
""blur"",""113"",""539935""
","
","""event"",""trial"",""time""
""fullscreenenter"",""1"",""4307""
","
","","","","","","null","<div style=""font-size:60px;"">+</div>","null","","fixation","","","","","","","","","","",""
"aa-learning-trial","133","575805","0.0-9.0-2.0-1.30","7252","2","11","Female","approach_avoid_spark_v1","""event"",""trial"",""time""
""fullscreenenter"",""1"",""4307""
""blur"",""113"",""539935""
","""event"",""trial"",""time""
""blur"",""113"",""539935""
","
","""event"",""trial"",""time""
""fullscreenenter"",""1"",""4307""
","
","","","","","","null","images/horse5.png","","","learning","-7","-5","","null","horse","animals","2","0","","neutral","0"
"html-keyboard-response","134","576309","0.0-9.0-2.0-0.31","7252","2","11","Female","approach_avoid_spark_v1","""event"",""trial"",""time""
""fullscreenenter"",""1"",""4307""
""blur"",""113"",""539935""
","""event"",""trial"",""time""
""blur"",""113"",""539935""
","
","""event"",""trial"",""time""
""fullscreenenter"",""1"",""4307""
","
","","","","","","null","<div style=""font-size:60px;"">+</div>","null","","fixation","","","","","","","","","","",""
"aa-learning-trial","135","579316","0.0-9.0-2.0-1.31","7252","2","11","Female","approach_avoid_spark_v1","""event"",""trial"",""time""
""fullscreenenter"",""1"",""4307""
""blur"",""113"",""539935""
","""event"",""trial"",""time""
""blur"",""113"",""539935""
","
","""event"",""trial"",""time""
""fullscreenenter"",""1"",""4307""
","
","","","","","","null","images/goat3.png","","","learning","5","-5","","null","goat","animals","2","0","","good","[5]"
"html-keyboard-response","136","579821","0.0-9.0-2.0-0.32","7252","2","11","Female","approach_avoid_spark_v1","""event"",""trial"",""time""
""fullscreenenter"",""1"",""4307""
""blur"",""113"",""539935""
","""event"",""trial"",""time""
""blur"",""113"",""539935""
","
","""event"",""trial"",""time""
""fullscreenenter"",""1"",""4307""
","
","","","","","","null","<div style=""font-size:60px;"">+</div>","null","","fixation","","","","","","","","","","",""
"aa-learning-trial","137","582829","0.0-9.0-2.0-1.32","7252","2","11","Female","approach_avoid_spark_v1","""event"",""trial"",""time""
""fullscreenenter"",""1"",""4307""
""blur"",""113"",""539935""
","""event"",""trial"",""time""
""blur"",""113"",""539935""
","
","""event"",""trial"",""time""
""fullscreenenter"",""1"",""4307""
","
","","","","","","null","images/sheep6.png","","","learning","-6","-5","","null","sheep","animals","2","0","","bad","[-5]"
"html-keyboard-response","138","583333","0.0-9.0-2.0-0.33","7252","2","11","Female","approach_avoid_spark_v1","""event"",""trial"",""time""
""fullscreenenter"",""1"",""4307""
""blur"",""113"",""539935""
","""event"",""trial"",""time""
""blur"",""113"",""539935""
","
","""event"",""trial"",""time""
""fullscreenenter"",""1"",""4307""
","
","","","","","","null","<div style=""font-size:60px;"">+</div>","null","","fixation","","","","","","","","","","",""
"aa-learning-trial","139","586341","0.0-9.0-2.0-1.33","7252","2","11","Female","approach_avoid_spark_v1","""event"",""trial"",""time""
""fullscreenenter"",""1"",""4307""
""blur"",""113"",""539935""
","""event"",""trial"",""time""
""blur"",""113"",""539935""
","
","""event"",""trial"",""time""
""fullscreenenter"",""1"",""4307""
","
","","","","","","null","images/sheep5.png","","","learning","2","-5","","null","sheep","animals","2","0","","bad","[-5]"
"html-keyboard-response","140","586846","0.0-9.0-2.0-0.34","7252","2","11","Female","approach_avoid_spark_v1","""event"",""trial"",""time""
""fullscreenenter"",""1"",""4307""
""blur"",""113"",""539935""
","""event"",""trial"",""time""
""blur"",""113"",""539935""
","
","""event"",""trial"",""time""
""fullscreenenter"",""1"",""4307""
","
","","","","","","null","<div style=""font-size:60px;"">+</div>","null","","fixation","","","","","","","","","","",""
"aa-learning-trial","141","589853","0.0-9.0-2.0-1.34","7252","2","11","Female","approach_avoid_spark_v1","""event"",""trial"",""time""
""fullscreenenter"",""1"",""4307""
""blur"",""113"",""539935""
","""event"",""trial"",""time""
""blur"",""113"",""539935""
","
","""event"",""trial"",""time""
""fullscreenenter"",""1"",""4307""
","
","","","","","","null","images/sheep6.png","","","learning","-6","-5","","null","sheep","animals","2","0","","bad","[-5]"
"html-keyboard-response","142","590357","0.0-9.0-2.0-0.35","7252","2","11","Female","approach_avoid_spark_v1","""event"",""trial"",""time""
""fullscreenenter"",""1"",""4307""
""blur"",""113"",""539935""
","""event"",""trial"",""time""
""blur"",""113"",""539935""
","
","""event"",""trial"",""time""
""fullscreenenter"",""1"",""4307""
","
","","","","","","null","<div style=""font-size:60px;"">+</div>","null","","fixation","","","","","","","","","","",""
"aa-learning-trial","143","593365","0.0-9.0-2.0-1.35","7252","2","11","Female","approach_avoid_spark_v1","""event"",""trial"",""time""
""fullscreenenter"",""1"",""4307""
""blur"",""113"",""539935""
","""event"",""trial"",""time""
""blur"",""113"",""539935""
","
","""event"",""trial"",""time""
""fullscreenenter"",""1"",""4307""
","
","","","","","","null","images/horse5.png","","","learning","-7","-5","","null","horse","animals","2","0","","neutral","0"
"html-keyboard-response","144","593870","0.0-9.0-2.0-0.36","7252","2","11","Female","approach_avoid_spark_v1","""event"",""trial"",""time""
""fullscreenenter"",""1"",""4307""
""blur"",""113"",""539935""
","""event"",""trial"",""time""
""blur"",""113"",""539935""
","
","""event"",""trial"",""time""
""fullscreenenter"",""1"",""4307""
","
","","","","","","null","<div style=""font-size:60px;"">+</div>","null","","fixation","","","","","","","","","","",""
"aa-learning-trial","145","596878","0.0-9.0-2.0-1.36","7252","2","11","Female","approach_avoid_spark_v1","""event"",""trial"",""time""
""fullscreenenter"",""1"",""4307""
""blur"",""113"",""539935""
","""event"",""trial"",""time""
""blur"",""113"",""539935""
","
","""event"",""trial"",""time""
""fullscreenenter"",""1"",""4307""
","
","","","","","","null","images/horse5.png","","","learning","-7","-5","","null","horse","animals","2","0","","neutral","0"
"html-keyboard-response","146","597381","0.0-9.0-2.0-0.37","7252","2","11","Female","approach_avoid_spark_v1","""event"",""trial"",""time""
""fullscreenenter"",""1"",""4307""
""blur"",""113"",""539935""
","""event"",""trial"",""time""
""blur"",""113"",""539935""
","
","""event"",""trial"",""time""
""fullscreenenter"",""1"",""4307""
","
","","","","","","null","<div style=""font-size:60px;"">+</div>","null","","fixation","","","","","","","","","","",""
"aa-learning-trial","147","600391","0.0-9.0-2.0-1.37","7252","2","11","Female","approach_avoid_spark_v1","""event"",""trial"",""time""
""fullscreenenter"",""1"",""4307""
""blur"",""113"",""539935""
","""event"",""trial"",""time""
""blur"",""113"",""539935""
","
","""event"",""trial"",""time""
""fullscreenenter"",""1"",""4307""
","
","","","","","","null","images/horse3.png","","","learning","-4","-5","","null","horse","animals","2","0","","neutral","0"
"html-keyboard-response","148","600902","0.0-9.0-2.0-0.38","7252","2","11","Female","approach_avoid_spark_v1","""event"",""trial"",""time""
""fullscreenenter"",""1"",""4307""
""blur"",""113"",""539935""
","""event"",""trial"",""time""
""blur"",""113"",""539935""
","
","""event"",""trial"",""time""
""fullscreenenter"",""1"",""4307""
","
","","","","","","null","<div style=""font-size:60px;"">+</div>","null","","fixation","","","","","","","","","","",""
"aa-learning-trial","149","603910","0.0-9.0-2.0-1.38","7252","2","11","Female","approach_avoid_spark_v1","""event"",""trial"",""time""
""fullscreenenter"",""1"",""4307""
""blur"",""113"",""539935""
","""event"",""trial"",""time""
""blur"",""113"",""539935""
","
","""event"",""trial"",""time""
""fullscreenenter"",""1"",""4307""
","
","","","","","","null","images/horse6.png","","","learning","6","-5","","null","horse","animals","2","0","","neutral","0"
"html-keyboard-response","150","604414","0.0-9.0-2.0-0.39","7252","2","11","Female","approach_avoid_spark_v1","""event"",""trial"",""time""
""fullscreenenter"",""1"",""4307""
""blur"",""113"",""539935""
","""event"",""trial"",""time""
""blur"",""113"",""539935""
","
","""event"",""trial"",""time""
""fullscreenenter"",""1"",""4307""
","
","","","","","","null","<div style=""font-size:60px;"">+</div>","null","","fixation","","","","","","","","","","",""
"aa-learning-trial","151","607422","0.0-9.0-2.0-1.39","7252","2","11","Female","approach_avoid_spark_v1","""event"",""trial"",""time""
""fullscreenenter"",""1"",""4307""
""blur"",""113"",""539935""
","""event"",""trial"",""time""
""blur"",""113"",""539935""
","
","""event"",""trial"",""time""
""fullscreenenter"",""1"",""4307""
","
","","","","","","null","images/goat6.png","","","learning","7","-5","","null","goat","animals","2","0","","good","[5]"
"html-keyboard-response","152","607927","0.0-9.0-2.0-0.40","7252","2","11","Female","approach_avoid_spark_v1","""event"",""trial"",""time""
""fullscreenenter"",""1"",""4307""
""blur"",""113"",""539935""
","""event"",""trial"",""time""
""blur"",""113"",""539935""
","
","""event"",""trial"",""time""
""fullscreenenter"",""1"",""4307""
","
","","","","","","null","<div style=""font-size:60px;"">+</div>","null","","fixation","","","","","","","","","","",""
"aa-learning-trial","153","610934","0.0-9.0-2.0-1.40","7252","2","11","Female","approach_avoid_spark_v1","""event"",""trial"",""time""
""fullscreenenter"",""1"",""4307""
""blur"",""113"",""539935""
","""event"",""trial"",""time""
""blur"",""113"",""539935""
","
","""event"",""trial"",""time""
""fullscreenenter"",""1"",""4307""
","
","","","","","","null","images/goat5.png","","","learning","1","-5","","null","goat","animals","2","0","","good","[5]"
"html-keyboard-response","154","611437","0.0-9.0-2.0-0.41","7252","2","11","Female","approach_avoid_spark_v1","""event"",""trial"",""time""
""fullscreenenter"",""1"",""4307""
""blur"",""113"",""539935""
","""event"",""trial"",""time""
""blur"",""113"",""539935""
","
","""event"",""trial"",""time""
""fullscreenenter"",""1"",""4307""
","
","","","","","","null","<div style=""font-size:60px;"">+</div>","null","","fixation","","","","","","","","","","",""
"aa-learning-trial","155","614446","0.0-9.0-2.0-1.41","7252","2","11","Female","approach_avoid_spark_v1","""event"",""trial"",""time""
""fullscreenenter"",""1"",""4307""
""blur"",""113"",""539935""
","""event"",""trial"",""time""
""blur"",""113"",""539935""
","
","""event"",""trial"",""time""
""fullscreenenter"",""1"",""4307""
","
","","","","","","null","images/horse7.png","","","learning","-1","-5","","null","horse","animals","2","0","","neutral","0"
"html-keyboard-response","156","614949","0.0-9.0-2.0-0.42","7252","2","11","Female","approach_avoid_spark_v1","""event"",""trial"",""time""
""fullscreenenter"",""1"",""4307""
""blur"",""113"",""539935""
","""event"",""trial"",""time""
""blur"",""113"",""539935""
","
","""event"",""trial"",""time""
""fullscreenenter"",""1"",""4307""
","
","","","","","","null","<div style=""font-size:60px;"">+</div>","null","","fixation","","","","","","","","","","",""
"aa-learning-trial","157","617958","0.0-9.0-2.0-1.42","7252","2","11","Female","approach_avoid_spark_v1","""event"",""trial"",""time""
""fullscreenenter"",""1"",""4307""
""blur"",""113"",""539935""
","""event"",""trial"",""time""
""blur"",""113"",""539935""
","
","""event"",""trial"",""time""
""fullscreenenter"",""1"",""4307""
","
","","","","","","null","images/goat3.png","","","learning","5","-5","","null","goat","animals","2","0","","good","[5]"
"html-keyboard-response","158","618461","0.0-9.0-2.0-0.43","7252","2","11","Female","approach_avoid_spark_v1","""event"",""trial"",""time""
""fullscreenenter"",""1"",""4307""
""blur"",""113"",""539935""
""focus"",""159"",""620485""
","""event"",""trial"",""time""
""blur"",""113"",""539935""
","""event"",""trial"",""time""
""focus"",""159"",""620485""
","""event"",""trial"",""time""
""fullscreenenter"",""1"",""4307""
","
","","","","","","null","<div style=""font-size:60px;"">+</div>","null","","fixation","","","","","","","","","","",""
"aa-learning-trial","159","621470","0.0-9.0-2.0-1.43","7252","2","11","Female","approach_avoid_spark_v1","""event"",""trial"",""time""
""fullscreenenter"",""1"",""4307""
""blur"",""113"",""539935""
""focus"",""159"",""620485""
","""event"",""trial"",""time""
""blur"",""113"",""539935""
","""event"",""trial"",""time""
""focus"",""159"",""620485""
","""event"",""trial"",""time""
""fullscreenenter"",""1"",""4307""
","
","","","","","","null","images/sheep6.png","","","learning","-6","-5","","null","sheep","animals","2","0","","bad","[-5]"
"html-keyboard-response","160","621973","0.0-9.0-2.0-0.44","7252","2","11","Female","approach_avoid_spark_v1","""event"",""trial"",""time""
""fullscreenenter"",""1"",""4307""
""blur"",""113"",""539935""
""focus"",""159"",""620485""
","""event"",""trial"",""time""
""blur"",""113"",""539935""
","""event"",""trial"",""time""
""focus"",""159"",""620485""
","""event"",""trial"",""time""
""fullscreenenter"",""1"",""4307""
","
","","","","","","null","<div style=""font-size:60px;"">+</div>","null","","fixation","","","","","","","","","","",""
"aa-learning-trial","161","624981","0.0-9.0-2.0-1.44","7252","2","11","Female","approach_avoid_spark_v1","""event"",""trial"",""time""
""fullscreenenter"",""1"",""4307""
""blur"",""113"",""539935""
""focus"",""159"",""620485""
","""event"",""trial"",""time""
""blur"",""113"",""539935""
","""event"",""trial"",""time""
""focus"",""159"",""620485""
","""event"",""trial"",""time""
""fullscreenenter"",""1"",""4307""
","
","","","","","","null","images/goat4.png","","","learning","-3","-5","","null","goat","animals","2","0","","good","[5]"
"html-keyboard-response","162","625486","0.0-9.0-2.0-0.45","7252","2","11","Female","approach_avoid_spark_v1","""event"",""trial"",""time""
""fullscreenenter"",""1"",""4307""
""blur"",""113"",""539935""
""focus"",""159"",""620485""
","""event"",""trial"",""time""
""blur"",""113"",""539935""
","""event"",""trial"",""time""
""focus"",""159"",""620485""
","""event"",""trial"",""time""
""fullscreenenter"",""1"",""4307""
","
","","","","","","null","<div style=""font-size:60px;"">+</div>","null","","fixation","","","","","","","","","","",""
"aa-learning-trial","163","628494","0.0-9.0-2.0-1.45","7252","2","11","Female","approach_avoid_spark_v1","""event"",""trial"",""time""
""fullscreenenter"",""1"",""4307""
""blur"",""113"",""539935""
""focus"",""159"",""620485""
","""event"",""trial"",""time""
""blur"",""113"",""539935""
","""event"",""trial"",""time""
""focus"",""159"",""620485""
","""event"",""trial"",""time""
""fullscreenenter"",""1"",""4307""
","
","","","","","","null","images/horse2.png","","","learning","4","-5","","null","horse","animals","2","0","","neutral","0"
"html-keyboard-response","164","628997","0.0-9.0-2.0-0.46","7252","2","11","Female","approach_avoid_spark_v1","""event"",""trial"",""time""
""fullscreenenter"",""1"",""4307""
""blur"",""113"",""539935""
""focus"",""159"",""620485""
","""event"",""trial"",""time""
""blur"",""113"",""539935""
","""event"",""trial"",""time""
""focus"",""159"",""620485""
","""event"",""trial"",""time""
""fullscreenenter"",""1"",""4307""
","
","","","","","","null","<div style=""font-size:60px;"">+</div>","null","","fixation","","","","","","","","","","",""
"aa-learning-trial","165","632007","0.0-9.0-2.0-1.46","7252","2","11","Female","approach_avoid_spark_v1","""event"",""trial"",""time""
""fullscreenenter"",""1"",""4307""
""blur"",""113"",""539935""
""focus"",""159"",""620485""
","""event"",""trial"",""time""
""blur"",""113"",""539935""
","""event"",""trial"",""time""
""focus"",""159"",""620485""
","""event"",""trial"",""time""
""fullscreenenter"",""1"",""4307""
","
","","","","","","1434","images/horse5.png","","","learning","-7","-7","1","1","horse","animals","2","0","","neutral","0"
"html-keyboard-response","166","632518","0.0-9.0-2.0-0.47","7252","2","11","Female","approach_avoid_spark_v1","""event"",""trial"",""time""
""fullscreenenter"",""1"",""4307""
""blur"",""113"",""539935""
""focus"",""159"",""620485""
","""event"",""trial"",""time""
""blur"",""113"",""539935""
","""event"",""trial"",""time""
""focus"",""159"",""620485""
","""event"",""trial"",""time""
""fullscreenenter"",""1"",""4307""
","
","","","","","","null","<div style=""font-size:60px;"">+</div>","null","","fixation","","","","","","","","","","",""
"aa-learning-trial","167","635526","0.0-9.0-2.0-1.47","7252","2","11","Female","approach_avoid_spark_v1","""event"",""trial"",""time""
""fullscreenenter"",""1"",""4307""
""blur"",""113"",""539935""
""focus"",""159"",""620485""
","""event"",""trial"",""time""
""blur"",""113"",""539935""
","""event"",""trial"",""time""
""focus"",""159"",""620485""
","""event"",""trial"",""time""
""fullscreenenter"",""1"",""4307""
","
","","","","","","1339.8000001907349","images/goat5.png","","","learning","1","0","0","0","goat","animals","2","0","","good","[5]"
"html-keyboard-response","168","636030","0.0-9.0-2.0-0.48","7252","2","11","Female","approach_avoid_spark_v1","""event"",""trial"",""time""
""fullscreenenter"",""1"",""4307""
""blur"",""113"",""539935""
""focus"",""159"",""620485""
","""event"",""trial"",""time""
""blur"",""113"",""539935""
","""event"",""trial"",""time""
""focus"",""159"",""620485""
","""event"",""trial"",""time""
""fullscreenenter"",""1"",""4307""
","
","","","","","","null","<div style=""font-size:60px;"">+</div>","null","","fixation","","","","","","","","","","",""
"aa-learning-trial","169","639038","0.0-9.0-2.0-1.48","7252","2","11","Female","approach_avoid_spark_v1","""event"",""trial"",""time""
""fullscreenenter"",""1"",""4307""
""blur"",""113"",""539935""
""focus"",""159"",""620485""
","""event"",""trial"",""time""
""blur"",""113"",""539935""
","""event"",""trial"",""time""
""focus"",""159"",""620485""
","""event"",""trial"",""time""
""fullscreenenter"",""1"",""4307""
","
","","","","","","1230.4000000953674","images/sheep3.png","","","learning","3","3","1","1","sheep","animals","2","0","","bad","[-5]"
"html-keyboard-response","170","639542","0.0-9.0-2.0-0.49","7252","2","11","Female","approach_avoid_spark_v1","""event"",""trial"",""time""
""fullscreenenter"",""1"",""4307""
""blur"",""113"",""539935""
""focus"",""159"",""620485""
","""event"",""trial"",""time""
""blur"",""113"",""539935""
","""event"",""trial"",""time""
""focus"",""159"",""620485""
","""event"",""trial"",""time""
""fullscreenenter"",""1"",""4307""
","
","","","","","","null","<div style=""font-size:60px;"">+</div>","null","","fixation","","","","","","","","","","",""
"aa-learning-trial","171","642550","0.0-9.0-2.0-1.49","7252","2","11","Female","approach_avoid_spark_v1","""event"",""trial"",""time""
""fullscreenenter"",""1"",""4307""
""blur"",""113"",""539935""
""focus"",""159"",""620485""
","""event"",""trial"",""time""
""blur"",""113"",""539935""
","""event"",""trial"",""time""
""focus"",""159"",""620485""
","""event"",""trial"",""time""
""fullscreenenter"",""1"",""4307""
","
","","","","","","492.90000009536743","images/goat3.png","","","learning","5","0","0","0","goat","animals","2","0","","good","[5]"
"html-keyboard-response","172","643054","0.0-9.0-2.0-0.50","7252","2","11","Female","approach_avoid_spark_v1","""event"",""trial"",""time""
""fullscreenenter"",""1"",""4307""
""blur"",""113"",""539935""
""focus"",""159"",""620485""
","""event"",""trial"",""time""
""blur"",""113"",""539935""
","""event"",""trial"",""time""
""focus"",""159"",""620485""
","""event"",""trial"",""time""
""fullscreenenter"",""1"",""4307""
","
","","","","","","null","<div style=""font-size:60px;"">+</div>","null","","fixation","","","","","","","","","","",""
"aa-learning-trial","173","646062","0.0-9.0-2.0-1.50","7252","2","11","Female","approach_avoid_spark_v1","""event"",""trial"",""time""
""fullscreenenter"",""1"",""4307""
""blur"",""113"",""539935""
""focus"",""159"",""620485""
","""event"",""trial"",""time""
""blur"",""113"",""539935""
","""event"",""trial"",""time""
""focus"",""159"",""620485""
","""event"",""trial"",""time""
""fullscreenenter"",""1"",""4307""
","
","","","","","","81.7999997138977","images/horse6.png","","","learning","6","6","1","1","horse","animals","2","0","","neutral","0"
"html-button-response","174","668022","0.0-9.0-3.0","7252","2","11","Female","approach_avoid_spark_v1","""event"",""trial"",""time""
""fullscreenenter"",""1"",""4307""
""blur"",""113"",""539935""
""focus"",""159"",""620485""
","""event"",""trial"",""time""
""blur"",""113"",""539935""
","""event"",""trial"",""time""
""focus"",""159"",""620485""
","""event"",""trial"",""time""
""fullscreenenter"",""1"",""4307""
","
","","","","","","21958.300000190735","<p> You have completed the round! <p> In this round, you earned -130 points! </p>","0","","break","","","","","","","","","","",""
"html-button-response","175","670706","0.0-10.0","7252","2","11","Female","approach_avoid_spark_v1","""event"",""trial"",""time""
""fullscreenenter"",""1"",""4307""
""blur"",""113"",""539935""
""focus"",""159"",""620485""
","""event"",""trial"",""time""
""blur"",""113"",""539935""
","""event"",""trial"",""time""
""focus"",""159"",""620485""
","""event"",""trial"",""time""
""fullscreenenter"",""1"",""4307""
","
","","","","","","2681.699999809265","<p> Now it's time to play another round. </p>","0","","transition_screen","","","","","","","","","","",""
"preload","176","670850","0.0-11.0-0.0","7252","2","11","Female","approach_avoid_spark_v1","""event"",""trial"",""time""
""fullscreenenter"",""1"",""4307""
""blur"",""113"",""539935""
""focus"",""159"",""620485""
","""event"",""trial"",""time""
""blur"",""113"",""539935""
","""event"",""trial"",""time""
""focus"",""159"",""620485""
","""event"",""trial"",""time""
""fullscreenenter"",""1"",""4307""
","
","true","false","[]","[]","[]","","","","","","","","","","","","","","","",""
"learning-instructions","177","678598","0.0-11.0-1.0-0.0","7252","2","11","Female","approach_avoid_spark_v1","""event"",""trial"",""time""
""fullscreenenter"",""1"",""4307""
""blur"",""113"",""539935""
""focus"",""159"",""620485""
","""event"",""trial"",""time""
""blur"",""113"",""539935""
","""event"",""trial"",""time""
""focus"",""159"",""620485""
","""event"",""trial"",""time""
""fullscreenenter"",""1"",""4307""
","
","","","","","","2237.6000003814697","<p> Your goal in this round is to sell different plants to a picky customer. </p></div>","","0","instructions","","","","","","","","","","",""
"learning-instructions","178","689874","0.0-11.0-1.0-0.1","7252","2","11","Female","approach_avoid_spark_v1","""event"",""trial"",""time""
""fullscreenenter"",""1"",""4307""
""blur"",""113"",""539935""
""focus"",""159"",""620485""
","""event"",""trial"",""time""
""blur"",""113"",""539935""
","""event"",""trial"",""time""
""focus"",""159"",""620485""
","""event"",""trial"",""time""
""fullscreenenter"",""1"",""4307""
","
","","","","","","2023.6000003814697","<p> The customer likes some plants and dislikes others.  </p><p> On each turn, you will see a plant.   </p><p> You need to decide whether to offer it to the customer or not.  </p>","","0","instructions","","","","","","","","","","",""
"learning-instructions","179","696310","0.0-11.0-1.0-0.2","7252","2","11","Female","approach_avoid_spark_v1","""event"",""trial"",""time""
""fullscreenenter"",""1"",""4307""
""blur"",""113"",""539935""
""focus"",""159"",""620485""
","""event"",""trial"",""time""
""blur"",""113"",""539935""
","""event"",""trial"",""time""
""focus"",""159"",""620485""
","""event"",""trial"",""time""
""fullscreenenter"",""1"",""4307""
","
","","","","","","901.5","<p> You can offer the plant by pressing 1 and decide to not offer it by pressing 0. </p><br><div class=""choice-instructions-grid""> <div class=""choice-option""><img src=""images/approach.png"" class=""choice-option-img"" stage=""instructions"" position=""0"" ><div class=""choice-option-text""> Press ""1."" </div></div><div class=""choice-option""><img src=""images/avoid.png"" class=""choice-option-img"" stage=""instructions"" position=""1"" ><div class=""choice-option-text""> Press ""0."" </div></div>","","0","instructions","","","","","","","","","","",""
"learning-instructions","180","705838","0.0-11.0-1.0-0.3","7252","2","11","Female","approach_avoid_spark_v1","""event"",""trial"",""time""
""fullscreenenter"",""1"",""4307""
""blur"",""113"",""539935""
""focus"",""159"",""620485""
","""event"",""trial"",""time""
""blur"",""113"",""539935""
","""event"",""trial"",""time""
""focus"",""159"",""620485""
","""event"",""trial"",""time""
""fullscreenenter"",""1"",""4307""
","
","","","","","","647.5","<p> If you offer a plant to the customer that she likes, she will be very pleased! </p><p> But if you offer a plant that she does NOT like, she will be annoyed. </p>","","0","instructions","","","","","","","","","","",""
"learning-instructions","181","719219","0.0-11.0-1.0-0.4","7252","2","11","Female","approach_avoid_spark_v1","""event"",""trial"",""time""
""fullscreenenter"",""1"",""4307""
""blur"",""113"",""539935""
""focus"",""159"",""620485""
","""event"",""trial"",""time""
""blur"",""113"",""539935""
","""event"",""trial"",""time""
""focus"",""159"",""620485""
","""event"",""trial"",""time""
""fullscreenenter"",""1"",""4307""
","
","","","","","","914.6999998092651","<p> You will earn points based on how you made the customer feel. </p><p> If you made her pleased, you will WIN anywhere from 1 - 9 points, </p><p> but if you made her annoyed, you will LOSE anywhere from 1 - 9 points. </p>","","0","instructions","","","","","","","","","","",""
"learning-instructions","182","726395","0.0-11.0-1.0-0.5","7252","2","11","Female","approach_avoid_spark_v1","""event"",""trial"",""time""
""fullscreenenter"",""1"",""4307""
""blur"",""113"",""539935""
""focus"",""159"",""620485""
","""event"",""trial"",""time""
""blur"",""113"",""539935""
","""event"",""trial"",""time""
""focus"",""159"",""620485""
","""event"",""trial"",""time""
""fullscreenenter"",""1"",""4307""
","
","","","","","","511.59999990463257","<p> You will see how many points you won or lost in the center of the screen. </p><p> Here is what you would see if you won 5 points: </p><p style=""color:green;font-size:50px;font-weight:bolder"">5</p>","","0","instructions","","","","","","","","","","",""
"learning-instructions","183","729820","0.0-11.0-1.0-0.6","7252","2","11","Female","approach_avoid_spark_v1","""event"",""trial"",""time""
""fullscreenenter"",""1"",""4307""
""blur"",""113"",""539935""
""focus"",""159"",""620485""
","""event"",""trial"",""time""
""blur"",""113"",""539935""
","""event"",""trial"",""time""
""focus"",""159"",""620485""
","""event"",""trial"",""time""
""fullscreenenter"",""1"",""4307""
","
","","","","","","573.5","<p> And here is what you would see if you lost 3 points: </p><p style=""color:red;font-size:50px;font-weight:bolder"">-3</p>","","0","instructions","","","","","","","","","","",""
"learning-instructions","184","745116","0.0-11.0-1.0-0.7","7252","2","11","Female","approach_avoid_spark_v1","""event"",""trial"",""time""
""fullscreenenter"",""1"",""4307""
""blur"",""113"",""539935""
""focus"",""159"",""620485""
","""event"",""trial"",""time""
""blur"",""113"",""539935""
","""event"",""trial"",""time""
""focus"",""159"",""620485""
","""event"",""trial"",""time""
""fullscreenenter"",""1"",""4307""
","
","","","","","","651.2999997138977","<p> Some plants will make the customer VERY pleased or annoyed. </p><p> These plants will make you win or lose LOTS of points. </p><p> The customer will have less strong feelings about other plants. </p><p> These plants will make you win or lose small amounts of points. </p>","","0","instructions","","","","","","","","","","",""
"learning-instructions","185","759940","0.0-11.0-1.0-0.8","7252","2","11","Female","approach_avoid_spark_v1","""event"",""trial"",""time""
""fullscreenenter"",""1"",""4307""
""blur"",""113"",""539935""
""focus"",""159"",""620485""
","""event"",""trial"",""time""
""blur"",""113"",""539935""
","""event"",""trial"",""time""
""focus"",""159"",""620485""
","""event"",""trial"",""time""
""fullscreenenter"",""1"",""4307""
","
","","","","","","2116.9000000953674","<p> If you choose to not offer the plant to the customer, you will not win or lose any points. </p><p>  However, in the center of the screen, you will see the number of points you WOULD HAVE won or lost if you had offered the plant. </p>","","0","instructions","","","","","","","","","","",""
"learning-instructions","186","772337","0.0-11.0-1.0-0.9","7252","2","11","Female","approach_avoid_spark_v1","""event"",""trial"",""time""
""fullscreenenter"",""1"",""4307""
""blur"",""113"",""539935""
""focus"",""159"",""620485""
","""event"",""trial"",""time""
""blur"",""113"",""539935""
","""event"",""trial"",""time""
""focus"",""159"",""620485""
","""event"",""trial"",""time""
""fullscreenenter"",""1"",""4307""
","
","","","","","","973.5","<p> Here is what you might see if you did not offer the plant but the customer would have liked it: </p><p style=""color:grey; font-size:50px; display: inline-block; border-spacing: 15px; border-width:3px; border-style:solid; border-color:red"">  &nbsp; 6 &nbsp; </p><p> Remember, in this case, you would not win or lose ANY points because you did not offer the plant.  </p>","","0","instructions","","","","","","","","","","",""
"learning-instructions","187","783379","0.0-11.0-1.0-0.10","7252","2","11","Female","approach_avoid_spark_v1","""event"",""trial"",""time""
""fullscreenenter"",""1"",""4307""
""blur"",""113"",""539935""
""focus"",""159"",""620485""
","""event"",""trial"",""time""
""blur"",""113"",""539935""
","""event"",""trial"",""time""
""focus"",""159"",""620485""
","""event"",""trial"",""time""
""fullscreenenter"",""1"",""4307""
","
","","","","","","3522.7999997138977","<p> Try to make the best choice for each plant because </p><p> at the end of the game, you will earn bonus money based on how many points you earned. </p>","","0","instructions","","","","","","","","","","",""
"learning-instructions","188","792394","0.0-11.0-1.0-0.11","7252","2","11","Female","approach_avoid_spark_v1","""event"",""trial"",""time""
""fullscreenenter"",""1"",""4307""
""blur"",""113"",""539935""
""focus"",""159"",""620485""
","""event"",""trial"",""time""
""blur"",""113"",""539935""
","""event"",""trial"",""time""
""focus"",""159"",""620485""
","""event"",""trial"",""time""
""fullscreenenter"",""1"",""4307""
","
","","","","","","823.6999998092651","<p> You will have 3 seconds to make each choice. Try to respond before time runs out! </p><p> You will lose 5 points each time you do not make a response. </p>","","0","instructions","","","","","","","","","","",""
"html-keyboard-response","189","793013","0.0-11.0-2.0-0.0","7252","2","11","Female","approach_avoid_spark_v1","""event"",""trial"",""time""
""fullscreenenter"",""1"",""4307""
""blur"",""113"",""539935""
""focus"",""159"",""620485""
","""event"",""trial"",""time""
""blur"",""113"",""539935""
","""event"",""trial"",""time""
""focus"",""159"",""620485""
","""event"",""trial"",""time""
""fullscreenenter"",""1"",""4307""
","
","","","","","","null","<div style=""font-size:60px;"">+</div>","null","","fixation","","","","","","","","","","",""
"aa-learning-trial","190","796034","0.0-11.0-2.0-1.0","7252","2","11","Female","approach_avoid_spark_v1","""event"",""trial"",""time""
""fullscreenenter"",""1"",""4307""
""blur"",""113"",""539935""
""focus"",""159"",""620485""
","""event"",""trial"",""time""
""blur"",""113"",""539935""
","""event"",""trial"",""time""
""focus"",""159"",""620485""
","""event"",""trial"",""time""
""fullscreenenter"",""1"",""4307""
","
","","","","","","1273.0999999046326","images/cactus6.png","","","learning","-1","-1","1","1","cactus","plants","1","1","","neutral","0"
"html-keyboard-response","191","796545","0.0-11.0-2.0-0.1","7252","2","11","Female","approach_avoid_spark_v1","""event"",""trial"",""time""
""fullscreenenter"",""1"",""4307""
""blur"",""113"",""539935""
""focus"",""159"",""620485""
","""event"",""trial"",""time""
""blur"",""113"",""539935""
","""event"",""trial"",""time""
""focus"",""159"",""620485""
","""event"",""trial"",""time""
""fullscreenenter"",""1"",""4307""
","
","","","","","","null","<div style=""font-size:60px;"">+</div>","null","","fixation","","","","","","","","","","",""
"aa-learning-trial","192","799571","0.0-11.0-2.0-1.1","7252","2","11","Female","approach_avoid_spark_v1","""event"",""trial"",""time""
""fullscreenenter"",""1"",""4307""
""blur"",""113"",""539935""
""focus"",""159"",""620485""
","""event"",""trial"",""time""
""blur"",""113"",""539935""
","""event"",""trial"",""time""
""focus"",""159"",""620485""
","""event"",""trial"",""time""
""fullscreenenter"",""1"",""4307""
","
","","","","","","633.2000002861023","images/tree2.png","","","learning","-5","0","0","0","tree","plants","1","1","","bad","[-4]"
"html-keyboard-response","193","800081","0.0-11.0-2.0-0.2","7252","2","11","Female","approach_avoid_spark_v1","""event"",""trial"",""time""
""fullscreenenter"",""1"",""4307""
""blur"",""113"",""539935""
""focus"",""159"",""620485""
","""event"",""trial"",""time""
""blur"",""113"",""539935""
","""event"",""trial"",""time""
""focus"",""159"",""620485""
","""event"",""trial"",""time""
""fullscreenenter"",""1"",""4307""
","
","","","","","","null","<div style=""font-size:60px;"">+</div>","null","","fixation","","","","","","","","","","",""
"aa-learning-trial","194","803101","0.0-11.0-2.0-1.2","7252","2","11","Female","approach_avoid_spark_v1","""event"",""trial"",""time""
""fullscreenenter"",""1"",""4307""
""blur"",""113"",""539935""
""focus"",""159"",""620485""
","""event"",""trial"",""time""
""blur"",""113"",""539935""
","""event"",""trial"",""time""
""focus"",""159"",""620485""
","""event"",""trial"",""time""
""fullscreenenter"",""1"",""4307""
","
","","","","","","822.6000003814697","images/cactus3.png","","","learning","[-1]","0","0","0","cactus","plants","1","1","","neutral","0"
"html-keyboard-response","195","803611","0.0-11.0-2.0-0.3","7252","2","11","Female","approach_avoid_spark_v1","""event"",""trial"",""time""
""fullscreenenter"",""1"",""4307""
""blur"",""113"",""539935""
""focus"",""159"",""620485""
","""event"",""trial"",""time""
""blur"",""113"",""539935""
","""event"",""trial"",""time""
""focus"",""159"",""620485""
","""event"",""trial"",""time""
""fullscreenenter"",""1"",""4307""
","
","","","","","","null","<div style=""font-size:60px;"">+</div>","null","","fixation","","","","","","","","","","",""
"aa-learning-trial","196","806629","0.0-11.0-2.0-1.3","7252","2","11","Female","approach_avoid_spark_v1","""event"",""trial"",""time""
""fullscreenenter"",""1"",""4307""
""blur"",""113"",""539935""
""focus"",""159"",""620485""
","""event"",""trial"",""time""
""blur"",""113"",""539935""
","""event"",""trial"",""time""
""focus"",""159"",""620485""
","""event"",""trial"",""time""
""fullscreenenter"",""1"",""4307""
","
","","","","","","1229.5","images/tree6.png","","","learning","-2","-2","1","1","tree","plants","1","1","","bad","[-4]"
"html-keyboard-response","197","807138","0.0-11.0-2.0-0.4","7252","2","11","Female","approach_avoid_spark_v1","""event"",""trial"",""time""
""fullscreenenter"",""1"",""4307""
""blur"",""113"",""539935""
""focus"",""159"",""620485""
","""event"",""trial"",""time""
""blur"",""113"",""539935""
","""event"",""trial"",""time""
""focus"",""159"",""620485""
","""event"",""trial"",""time""
""fullscreenenter"",""1"",""4307""
","
","","","","","","null","<div style=""font-size:60px;"">+</div>","null","","fixation","","","","","","","","","","",""
"aa-learning-trial","198","810163","0.0-11.0-2.0-1.4","7252","2","11","Female","approach_avoid_spark_v1","""event"",""trial"",""time""
""fullscreenenter"",""1"",""4307""
""blur"",""113"",""539935""
""focus"",""159"",""620485""
","""event"",""trial"",""time""
""blur"",""113"",""539935""
","""event"",""trial"",""time""
""focus"",""159"",""620485""
","""event"",""trial"",""time""
""fullscreenenter"",""1"",""4307""
","
","","","","","","654","images/bush4.png","","","learning","6","0","0","0","bush","plants","1","1","","good","[6]"
"html-keyboard-response","199","810679","0.0-11.0-2.0-0.5","7252","2","11","Female","approach_avoid_spark_v1","""event"",""trial"",""time""
""fullscreenenter"",""1"",""4307""
""blur"",""113"",""539935""
""focus"",""159"",""620485""
","""event"",""trial"",""time""
""blur"",""113"",""539935""
","""event"",""trial"",""time""
""focus"",""159"",""620485""
","""event"",""trial"",""time""
""fullscreenenter"",""1"",""4307""
","
","","","","","","null","<div style=""font-size:60px;"">+</div>","null","","fixation","","","","","","","","","","",""
"aa-learning-trial","200","813689","0.0-11.0-2.0-1.5","7252","2","11","Female","approach_avoid_spark_v1","""event"",""trial"",""time""
""fullscreenenter"",""1"",""4307""
""blur"",""113"",""539935""
""focus"",""159"",""620485""
","""event"",""trial"",""time""
""blur"",""113"",""539935""
","""event"",""trial"",""time""
""focus"",""159"",""620485""
","""event"",""trial"",""time""
""fullscreenenter"",""1"",""4307""
","
","","","","","","868.5999999046326","images/bush3.png","","","learning","5","5","1","1","bush","plants","1","1","","good","[6]"
"html-keyboard-response","201","814212","0.0-11.0-2.0-0.6","7252","2","11","Female","approach_avoid_spark_v1","""event"",""trial"",""time""
""fullscreenenter"",""1"",""4307""
""blur"",""113"",""539935""
""focus"",""159"",""620485""
","""event"",""trial"",""time""
""blur"",""113"",""539935""
","""event"",""trial"",""time""
""focus"",""159"",""620485""
","""event"",""trial"",""time""
""fullscreenenter"",""1"",""4307""
","
","","","","","","null","<div style=""font-size:60px;"">+</div>","null","","fixation","","","","","","","","","","",""
"aa-learning-trial","202","817237","0.0-11.0-2.0-1.6","7252","2","11","Female","approach_avoid_spark_v1","""event"",""trial"",""time""
""fullscreenenter"",""1"",""4307""
""blur"",""113"",""539935""
""focus"",""159"",""620485""
","""event"",""trial"",""time""
""blur"",""113"",""539935""
","""event"",""trial"",""time""
""focus"",""159"",""620485""
","""event"",""trial"",""time""
""fullscreenenter"",""1"",""4307""
","
","","","","","","1120.6999998092651","images/bush4.png","","","learning","8","8","1","1","bush","plants","1","1","","good","[6]"
"html-keyboard-response","203","817745","0.0-11.0-2.0-0.7","7252","2","11","Female","approach_avoid_spark_v1","""event"",""trial"",""time""
""fullscreenenter"",""1"",""4307""
""blur"",""113"",""539935""
""focus"",""159"",""620485""
","""event"",""trial"",""time""
""blur"",""113"",""539935""
","""event"",""trial"",""time""
""focus"",""159"",""620485""
","""event"",""trial"",""time""
""fullscreenenter"",""1"",""4307""
","
","","","","","","null","<div style=""font-size:60px;"">+</div>","null","","fixation","","","","","","","","","","",""
"aa-learning-trial","204","820773","0.0-11.0-2.0-1.7","7252","2","11","Female","approach_avoid_spark_v1","""event"",""trial"",""time""
""fullscreenenter"",""1"",""4307""
""blur"",""113"",""539935""
""focus"",""159"",""620485""
","""event"",""trial"",""time""
""blur"",""113"",""539935""
","""event"",""trial"",""time""
""focus"",""159"",""620485""
","""event"",""trial"",""time""
""fullscreenenter"",""1"",""4307""
","
","","","","","","767.1999998092651","images/tree1.png","","","learning","-7","0","0","0","tree","plants","1","1","","bad","[-4]"
"html-keyboard-response","205","821293","0.0-11.0-2.0-0.8","7252","2","11","Female","approach_avoid_spark_v1","""event"",""trial"",""time""
""fullscreenenter"",""1"",""4307""
""blur"",""113"",""539935""
""focus"",""159"",""620485""
","""event"",""trial"",""time""
