"trial_type","trial_index","time_elapsed","internal_node_id","subject_id","task_condition","age","gender","task_version","interactions","blur_events","focus_events","fullscreenenter_events","fullscreenexit_events","success","timeout","failed_images","failed_audio","failed_video","rt","stimulus","response","button_pressed","task_part","approach_reward","points","key_press","option_selected","stim_cat","task_block","block_condition","block_number","correct","cat_type","mean_cat_reward"
"pavlovia","0","8","0.0-0.0","3816","2","11","Female","approach_avoid_spark_v1","""event"",""trial"",""time""
""fullscreenenter"",""1"",""5357""
","
","
","""event"",""trial"",""time""
""fullscreenenter"",""1"",""5357""
","
","","","","","","","","","","","","","","","","","","","","",""
"fullscreen","1","6347","0.0-1.0","3816","2","11","Female","approach_avoid_spark_v1","""event"",""trial"",""time""
""fullscreenenter"",""1"",""5357""
","
","
","""event"",""trial"",""time""
""fullscreenenter"",""1"",""5357""
","
","true","","","","","","","","","","","","","","","","","","","",""
"preload","2","55831","0.0-2.0","3816","2","11","Female","approach_avoid_spark_v1","""event"",""trial"",""time""
""fullscreenenter"",""1"",""5357""
","
","
","""event"",""trial"",""time""
""fullscreenenter"",""1"",""5357""
","
","true","false","[]","[]","[]","","","","","","","","","","","","","","","",""
"audio-keyboard-response","3","66562","0.0-3.0","3816","2","11","Female","approach_avoid_spark_v1","""event"",""trial"",""time""
""fullscreenenter"",""1"",""5357""
","
","
","""event"",""trial"",""time""
""fullscreenenter"",""1"",""5357""
","
","","","","","","10519.999999999996","audio/beep_loop.wav"," ","","","","","","","","","","","","",""
"audio-button-response","4","69537","0.0-4.0","3816","2","11","Female","approach_avoid_spark_v1","""event"",""trial"",""time""
""fullscreenenter"",""1"",""5357""
","
","
","""event"",""trial"",""time""
""fullscreenenter"",""1"",""5357""
","
","","","","","","2971","audio/shark.wav","4","","","","","","","","","","","","",""
"audio-button-response","5","72168","0.0-5.0","3816","2","11","Female","approach_avoid_spark_v1","""event"",""trial"",""time""
""fullscreenenter"",""1"",""5357""
","
","
","""event"",""trial"",""time""
""fullscreenenter"",""1"",""5357""
","
","","","","","","1621","audio/turtle.wav","1","","","","","","","","","","","","",""
"preload","6","97780","0.0-6.0","3816","2","11","Female","approach_avoid_spark_v1","""event"",""trial"",""time""
""fullscreenenter"",""1"",""5357""
","
","
","""event"",""trial"",""time""
""fullscreenenter"",""1"",""5357""
","
","true","false","[]","[]","[]","","","","","","","","","","","","","","","",""
"html-keyboard-response","7","119640","0.0-7.0","3816","2","11","Female","approach_avoid_spark_v1","""event"",""trial"",""time""
""fullscreenenter"",""1"",""5357""
","
","
","""event"",""trial"",""time""
""fullscreenenter"",""1"",""5357""
","
","","","","","","21857.799999952316","Welcome to the experiment. Press any key to begin and to advance the instructions."," ","","","","","","","","","","","","",""
"learning-instructions","8","128017","0.0-8.0-0.0-0.0","3816","2","11","Female","approach_avoid_spark_v1","""event"",""trial"",""time""
""fullscreenenter"",""1"",""5357""
","
","
","""event"",""trial"",""time""
""fullscreenenter"",""1"",""5357""
","
","","","","","","1133.6000000238419","<p> Welcome! Today you are going to play 6 different rounds of a decision-making game. </p><p> Use the mouse to click next to continue. </p>","","0","instructions","","","","","","","","","","",""
"learning-instructions","9","131226","0.0-8.0-0.0-0.1","3816","2","11","Female","approach_avoid_spark_v1","""event"",""trial"",""time""
""fullscreenenter"",""1"",""5357""
","
","
","""event"",""trial"",""time""
""fullscreenenter"",""1"",""5357""
","
","","","","","","473.30000001192093","<p> You will start with a practice round to learn the rules. </p>","","0","instructions","","","","","","","","","","",""
"learning-instructions","10","134858","0.0-8.0-0.0-0.2","3816","2","11","Female","approach_avoid_spark_v1","""event"",""trial"",""time""
""fullscreenenter"",""1"",""5357""
","
","
","""event"",""trial"",""time""
""fullscreenenter"",""1"",""5357""
","
","","","","","","175.30000001192093","<p> Your goal in this round is to give out sports equipment to kids. </p></div>","","0","instructions","","","","","","","","","","",""
"learning-instructions","11","142843","0.0-8.0-0.0-0.3","3816","2","11","Female","approach_avoid_spark_v1","""event"",""trial"",""time""
""fullscreenenter"",""1"",""5357""
","
","
","""event"",""trial"",""time""
""fullscreenenter"",""1"",""5357""
","
","","","","","","430.19999998807907","<p> The kids only like some of the equipment.  </p><p> On each turn, you will see a piece of sports equipment.   </p><p> You need to decide whether to give it to the kids or not.  </p>","","0","instructions","","","","","","","","","","",""
"learning-instructions","12","149244","0.0-8.0-0.0-0.4","3816","2","11","Female","approach_avoid_spark_v1","""event"",""trial"",""time""
""fullscreenenter"",""1"",""5357""
","
","
","""event"",""trial"",""time""
""fullscreenenter"",""1"",""5357""
","
","","","","","","1640.5999999642372","<p> You can give them the equipment by pressing 1 and choose not to give it to them by pressing 0. </p><br><div class=""choice-instructions-grid""> <div class=""choice-option""><img src=""images/approach.png"" class=""choice-option-img"" stage=""instructions"" position=""0"" ><div class=""choice-option-text""> Press ""1."" </div></div><div class=""choice-option""><img src=""images/avoid.png"" class=""choice-option-img"" stage=""instructions"" position=""1"" ><div class=""choice-option-text""> Press ""0."" </div></div>","","0","instructions","","","","","","","","","","",""
"learning-instructions","13","157341","0.0-8.0-0.0-0.5","3816","2","11","Female","approach_avoid_spark_v1","""event"",""trial"",""time""
""fullscreenenter"",""1"",""5357""
","
","
","""event"",""trial"",""time""
""fullscreenenter"",""1"",""5357""
","
","","","","","","708.1999999880791","<p> If you give them a piece of equipment they like, they will be happy! </p><p> But if you give them a piece of equipment they do not like, they will be sad. </p>","","0","instructions","","","","","","","","","","",""
"learning-instructions","14","169716","0.0-8.0-0.0-0.6","3816","2","11","Female","approach_avoid_spark_v1","""event"",""trial"",""time""
""fullscreenenter"",""1"",""5357""
","
","
","""event"",""trial"",""time""
""fullscreenenter"",""1"",""5357""
","
","","","","","","1852.699999988079","<p> You will earn points based on how you make kids feel. </p><p> If you make them happy, you will WIN anywhere from 1 - 9 points, </p><p> but if you make them sad, you will LOSE anywhere from 1 - 9 points. </p>","","0","instructions","","","","","","","","","","",""
"learning-instructions","15","181233","0.0-8.0-0.0-0.7","3816","2","11","Female","approach_avoid_spark_v1","""event"",""trial"",""time""
""fullscreenenter"",""1"",""5357""
","
","
","""event"",""trial"",""time""
""fullscreenenter"",""1"",""5357""
","
","","","","","","1958.8999999761581","<p> You will see how many points you won or lost in the center of the screen. </p><p> Here is what you would see if you won 6 points: </p><p style=""color:green;font-size:50px;font-weight:bolder"">6</p><p style=""color:green"">The text is GREEN because you WON points.</p>","","0","instructions","","","","","","","","","","",""
"learning-instructions","16","186986","0.0-8.0-0.0-0.8","3816","2","11","Female","approach_avoid_spark_v1","""event"",""trial"",""time""
""fullscreenenter"",""1"",""5357""
","
","
","""event"",""trial"",""time""
""fullscreenenter"",""1"",""5357""
","
","","","","","","242","<p> And here is what you would see if you lost 4 points: </p><p style=""color:red;font-size:50px;font-weight:bolder"">-4</p><p style=""color:red"">The text is RED because you LOST points. </p>","","0","instructions","","","","","","","","","","",""
"learning-instructions","17","203781","0.0-8.0-0.0-0.9","3816","2","11","Female","approach_avoid_spark_v1","""event"",""trial"",""time""
""fullscreenenter"",""1"",""5357""
","
","
","""event"",""trial"",""time""
""fullscreenenter"",""1"",""5357""
","
","","","","","","2067.5","<p> Some of the equipment will make the kids VERY happy or sad. </p><p> These pieces of equipment will make you win or lose LOTS of points. </p><p> Other pieces of equipment will only make the kids a little happy or sad. </p><p> These pieces of equipment will make you win or lose small amounts of points. </p>","","0","instructions","","","","","","","","","","",""
"learning-instructions","18","217655","0.0-8.0-0.0-0.10","3816","2","11","Female","approach_avoid_spark_v1","""event"",""trial"",""time""
""fullscreenenter"",""1"",""5357""
","
","
","""event"",""trial"",""time""
""fullscreenenter"",""1"",""5357""
","
","","","","","","3241.400000035763","<p> If you choose not to give them the equipment, you will not win or lose any points. </p><p>  However, in the center of the screen, you will see the number of points you WOULD HAVE won or lost if you had given them the equipment. </p>","","0","instructions","","","","","","","","","","",""
"learning-instructions","19","246603","0.0-8.0-0.0-0.11","3816","2","11","Female","approach_avoid_spark_v1","""event"",""trial"",""time""
""fullscreenenter"",""1"",""5357""
","
","
","""event"",""trial"",""time""
""fullscreenenter"",""1"",""5357""
","
","","","","","","7400.300000011921","<p> Here is what you might see if you did not give the equipment to the kids but it would have made them happy: </p><p style=""color:grey; font-size:50px; display: inline-block; border-spacing: 15px; border-width:3px; border-style:solid; border-color:red"">  &nbsp; 7 &nbsp; </p><p> Remember, in this case, you would not win or lose ANY points because you did not give them the equipment.  </p><p style=""color:grey"">The text is GREY because you earned ZERO points. </p><p style=""color:red"">However, choosing to give the kids the equipment would have made you win points. The box around the text is RED because you chose the worse option. </p>","","0","instructions","","","","","","","","","","",""
"learning-instructions","20","268296","0.0-8.0-0.0-0.12","3816","2","11","Female","approach_avoid_spark_v1","""event"",""trial"",""time""
""fullscreenenter"",""1"",""5357""
","
","
","""event"",""trial"",""time""
""fullscreenenter"",""1"",""5357""
","
","","","","","","623.1999999880791","<p> Here is what you might see if you did not give the equipment to the kids but it would have made them sad: </p><p style=""color:grey;font-size:50px; display: inline-block; border-spacing: 15px; border-width:3px; border-style:solid; border-color:green"">  &nbsp; -8 &nbsp; </p><p> Remember, in this case, you would not win or lose ANY points because you did not give them the equipment.  </p><p style=""color:grey"">The text is GREY because you earned ZERO points. </p><p  style=""color:green""> Choosing to give the kids the equipment would have made you lose points. The box around the text is GREEN because you chose the better option.</p>","","0","instructions","","","","","","","","","","",""
"learning-instructions","21","278895","0.0-8.0-0.0-0.13","3816","2","11","Female","approach_avoid_spark_v1","""event"",""trial"",""time""
""fullscreenenter"",""1"",""5357""
","
","
","""event"",""trial"",""time""
""fullscreenenter"",""1"",""5357""
","
","","","","","","683","<p> You will have 3 seconds to make each choice. Try to respond before time runs out! </p><p> You will lose 5 points each time you do not make a response. </p>","","0","instructions","","","","","","","","","","",""
"learning-instructions","22","284898","0.0-8.0-0.0-0.14","3816","2","11","Female","approach_avoid_spark_v1","""event"",""trial"",""time""
""fullscreenenter"",""1"",""5357""
","
","
","""event"",""trial"",""time""
""fullscreenenter"",""1"",""5357""
","
","","","","","","586.3000000119209","<p> This is just a practice round, but in the real game, your bonus payment will depend on your total number of points.","","0","instructions","","","","","","","","","","",""
"learning-instructions","23","291411","0.0-8.0-0.0-0.15","3816","2","11","Female","approach_avoid_spark_v1","""event"",""trial"",""time""
""fullscreenenter"",""1"",""5357""
","
","
","""event"",""trial"",""time""
""fullscreenenter"",""1"",""5357""
","
","","","","","","737.6999999880791","<p> Remember, you can give them the equipment by pressing 1 and choose not to give it to them by pressing 0. </p><br><div class=""choice-instructions-grid""> <div class=""choice-option""><img src=""images/approach.png"" class=""choice-option-img"" stage=""instructions"" position=""0"" ><div class=""choice-option-text""> Press ""1."" </div></div><div class=""choice-option""><img src=""images/avoid.png"" class=""choice-option-img"" stage=""instructions"" position=""1"" ><div class=""choice-option-text""> Press ""0."" </div></div>","","0","instructions","","","","","","","","","","",""
"html-button-response","24","293083","0.0-8.0-1.0","3816","2","11","Female","approach_avoid_spark_v1","""event"",""trial"",""time""
""fullscreenenter"",""1"",""5357""
","
","
","""event"",""trial"",""time""
""fullscreenenter"",""1"",""5357""
","
","","","","","","1567.1000000238419","<p> Ready to practice? </p>","0","","","","","","","","","","","","",""
"html-keyboard-response","25","293698","0.0-8.0-2.0-0.0","3816","2","11","Female","approach_avoid_spark_v1","""event"",""trial"",""time""
""fullscreenenter"",""1"",""5357""
","
","
","""event"",""trial"",""time""
""fullscreenenter"",""1"",""5357""
","
","","","","","","null","<div style=""font-size:60px;"">+</div>","null","","fixation","","","","","","","","","","",""
"aa-learning-trial","26","296714","0.0-8.0-2.0-1.0","3816","2","11","Female","approach_avoid_spark_v1","""event"",""trial"",""time""
""fullscreenenter"",""1"",""5357""
","
","
","""event"",""trial"",""time""
""fullscreenenter"",""1"",""5357""
","
","","","","","","2251.399999976158","images/racket3.png","","","learning","-3","-3","1","1","practice","practice","practice","-1","","",""
"html-keyboard-response","27","297230","0.0-8.0-2.0-0.1","3816","2","11","Female","approach_avoid_spark_v1","""event"",""trial"",""time""
""fullscreenenter"",""1"",""5357""
","
","
","""event"",""trial"",""time""
""fullscreenenter"",""1"",""5357""
","
","","","","","","null","<div style=""font-size:60px;"">+</div>","null","","fixation","","","","","","","","","","",""
"aa-learning-trial","28","300242","0.0-8.0-2.0-1.1","3816","2","11","Female","approach_avoid_spark_v1","""event"",""trial"",""time""
""fullscreenenter"",""1"",""5357""
","
","
","""event"",""trial"",""time""
""fullscreenenter"",""1"",""5357""
","
","","","","","","1935","images/racket1.png","","","learning","6","0","0","0","practice","practice","practice","-1","","",""
"html-keyboard-response","29","300751","0.0-8.0-2.0-0.2","3816","2","11","Female","approach_avoid_spark_v1","""event"",""trial"",""time""
""fullscreenenter"",""1"",""5357""
","
","
","""event"",""trial"",""time""
""fullscreenenter"",""1"",""5357""
","
","","","","","","null","<div style=""font-size:60px;"">+</div>","null","","fixation","","","","","","","","","","",""
"aa-learning-trial","30","303761","0.0-8.0-2.0-1.2","3816","2","11","Female","approach_avoid_spark_v1","""event"",""trial"",""time""
""fullscreenenter"",""1"",""5357""
","
","
","""event"",""trial"",""time""
""fullscreenenter"",""1"",""5357""
","
","","","","","","1521","images/ball3.png","","","learning","-8","-8","1","1","practice","practice","practice","-1","","",""
"html-keyboard-response","31","304265","0.0-8.0-2.0-0.3","3816","2","11","Female","approach_avoid_spark_v1","""event"",""trial"",""time""
""fullscreenenter"",""1"",""5357""
","
","
","""event"",""trial"",""time""
""fullscreenenter"",""1"",""5357""
","
","","","","","","null","<div style=""font-size:60px;"">+</div>","null","","fixation","","","","","","","","","","",""
"aa-learning-trial","32","307283","0.0-8.0-2.0-1.3","3816","2","11","Female","approach_avoid_spark_v1","""event"",""trial"",""time""
""fullscreenenter"",""1"",""5357""
","
","
","""event"",""trial"",""time""
""fullscreenenter"",""1"",""5357""
","
","","","","","","992.5","images/ball4.png","","","learning","-2","-2","1","1","practice","practice","practice","-1","","",""
"html-keyboard-response","33","307785","0.0-8.0-2.0-0.4","3816","2","11","Female","approach_avoid_spark_v1","""event"",""trial"",""time""
""fullscreenenter"",""1"",""5357""
","
","
","""event"",""trial"",""time""
""fullscreenenter"",""1"",""5357""
","
","","","","","","null","<div style=""font-size:60px;"">+</div>","null","","fixation","","","","","","","","","","",""
"aa-learning-trial","34","310807","0.0-8.0-2.0-1.4","3816","2","11","Female","approach_avoid_spark_v1","""event"",""trial"",""time""
""fullscreenenter"",""1"",""5357""
","
","
","""event"",""trial"",""time""
""fullscreenenter"",""1"",""5357""
","
","","","","","","875.3999999761581","images/racket4.png","","","learning","4","4","1","1","practice","practice","practice","-1","","",""
"html-keyboard-response","35","311314","0.0-8.0-2.0-0.5","3816","2","11","Female","approach_avoid_spark_v1","""event"",""trial"",""time""
""fullscreenenter"",""1"",""5357""
","
","
","""event"",""trial"",""time""
""fullscreenenter"",""1"",""5357""
","
","","","","","","null","<div style=""font-size:60px;"">+</div>","null","","fixation","","","","","","","","","","",""
"aa-learning-trial","36","314322","0.0-8.0-2.0-1.5","3816","2","11","Female","approach_avoid_spark_v1","""event"",""trial"",""time""
""fullscreenenter"",""1"",""5357""
","
","
","""event"",""trial"",""time""
""fullscreenenter"",""1"",""5357""
","
","","","","","","532.0999999642372","images/racket1.png","","","learning","4","4","1","1","practice","practice","practice","-1","","",""
"html-keyboard-response","37","314830","0.0-8.0-2.0-0.6","3816","2","11","Female","approach_avoid_spark_v1","""event"",""trial"",""time""
""fullscreenenter"",""1"",""5357""
","
","
","""event"",""trial"",""time""
""fullscreenenter"",""1"",""5357""
","
","","","","","","null","<div style=""font-size:60px;"">+</div>","null","","fixation","","","","","","","","","","",""
"aa-learning-trial","38","317844","0.0-8.0-2.0-1.6","3816","2","11","Female","approach_avoid_spark_v1","""event"",""trial"",""time""
""fullscreenenter"",""1"",""5357""
","
","
","""event"",""trial"",""time""
""fullscreenenter"",""1"",""5357""
","
","","","","","","633.7999999523163","images/racket1.png","","","learning","3","3","1","1","practice","practice","practice","-1","","",""
"html-keyboard-response","39","318361","0.0-8.0-2.0-0.7","3816","2","11","Female","approach_avoid_spark_v1","""event"",""trial"",""time""
""fullscreenenter"",""1"",""5357""
","
","
","""event"",""trial"",""time""
""fullscreenenter"",""1"",""5357""
","
","","","","","","null","<div style=""font-size:60px;"">+</div>","null","","fixation","","","","","","","","","","",""
"aa-learning-trial","40","321370","0.0-8.0-2.0-1.7","3816","2","11","Female","approach_avoid_spark_v1","""event"",""trial"",""time""
""fullscreenenter"",""1"",""5357""
","
","
","""event"",""trial"",""time""
""fullscreenenter"",""1"",""5357""
","
","","","","","","517.5","images/racket2.png","","","learning","3","3","1","1","practice","practice","practice","-1","","",""
"html-keyboard-response","41","321882","0.0-8.0-2.0-0.8","3816","2","11","Female","approach_avoid_spark_v1","""event"",""trial"",""time""
""fullscreenenter"",""1"",""5357""
","
","
","""event"",""trial"",""time""
""fullscreenenter"",""1"",""5357""
","
","","","","","","null","<div style=""font-size:60px;"">+</div>","null","","fixation","","","","","","","","","","",""
"aa-learning-trial","42","324895","0.0-8.0-2.0-1.8","3816","2","11","Female","approach_avoid_spark_v1","""event"",""trial"",""time""
""fullscreenenter"",""1"",""5357""
","
","
","""event"",""trial"",""time""
""fullscreenenter"",""1"",""5357""
","
","","","","","","null","images/ball1.png","","","learning","-9","-5","","null","practice","practice","practice","-1","","",""
"html-keyboard-response","43","325398","0.0-8.0-2.0-0.9","3816","2","11","Female","approach_avoid_spark_v1","""event"",""trial"",""time""
""fullscreenenter"",""1"",""5357""
","
","
","""event"",""trial"",""time""
""fullscreenenter"",""1"",""5357""
","
","","","","","","null","<div style=""font-size:60px;"">+</div>","null","","fixation","","","","","","","","","","",""
"aa-learning-trial","44","328413","0.0-8.0-2.0-1.9","3816","2","11","Female","approach_avoid_spark_v1","""event"",""trial"",""time""
""fullscreenenter"",""1"",""5357""
","
","
","""event"",""trial"",""time""
""fullscreenenter"",""1"",""5357""
","
","","","","","","null","images/racket4.png","","","learning","-1","-5","","null","practice","practice","practice","-1","","",""
"html-keyboard-response","45","328932","0.0-8.0-2.0-0.10","3816","2","11","Female","approach_avoid_spark_v1","""event"",""trial"",""time""
""fullscreenenter"",""1"",""5357""
","
","
","""event"",""trial"",""time""
""fullscreenenter"",""1"",""5357""
","
","","","","","","null","<div style=""font-size:60px;"">+</div>","null","","fixation","","","","","","","","","","",""
"aa-learning-trial","46","331944","0.0-8.0-2.0-1.10","3816","2","11","Female","approach_avoid_spark_v1","""event"",""trial"",""time""
""fullscreenenter"",""1"",""5357""
","
","
","""event"",""trial"",""time""
""fullscreenenter"",""1"",""5357""
","
","","","","","","765.7000000476837","images/racket3.png","","","learning","1","1","1","1","practice","practice","practice","-1","","",""
"html-keyboard-response","47","332451","0.0-8.0-2.0-0.11","3816","2","11","Female","approach_avoid_spark_v1","""event"",""trial"",""time""
""fullscreenenter"",""1"",""5357""
","
","
","""event"",""trial"",""time""
""fullscreenenter"",""1"",""5357""
","
","","","","","","null","<div style=""font-size:60px;"">+</div>","null","","fixation","","","","","","","","","","",""
"aa-learning-trial","48","335467","0.0-8.0-2.0-1.11","3816","2","11","Female","approach_avoid_spark_v1","""event"",""trial"",""time""
""fullscreenenter"",""1"",""5357""
","
","
","""event"",""trial"",""time""
""fullscreenenter"",""1"",""5357""
","
","","","","","","541.1999999880791","images/ball4.png","","","learning","8","0","0","0","practice","practice","practice","-1","","",""
"html-button-response","49","338154","0.0-8.0-3.0","3816","2","11","Female","approach_avoid_spark_v1","""event"",""trial"",""time""
""fullscreenenter"",""1"",""5357""
","
","
","""event"",""trial"",""time""
""fullscreenenter"",""1"",""5357""
","
","","","","","","2682.399999976158","<p> You earned -8 points in the practice round! </p>","0","","break","","","","","","","","","","",""
"learning-instructions","50","345586","0.0-8.0-4.0-0.0","3816","2","11","Female","approach_avoid_spark_v1","""event"",""trial"",""time""
""fullscreenenter"",""1"",""5357""
","
","
","""event"",""trial"",""time""
""fullscreenenter"",""1"",""5357""
","
","","","","","","1286.300000011921","<p> It's almost time to start the real game. </p><p> Before you start, we're going to ask you a few questions about how the game works. </p>","","0","instructions","","","","","","","","","","",""
"preload","51","353940","0.0-8.0-5.0","3816","2","11","Female","approach_avoid_spark_v1","""event"",""trial"",""time""
""fullscreenenter"",""1"",""5357""
","
","
","""event"",""trial"",""time""
""fullscreenenter"",""1"",""5357""
","
","true","false","[]","[]","[]","","","","","","","","","","","","","","","",""
"comp-q","52","360005","0.0-8.0-6.0-0.0","3816","2","11","Female","approach_avoid_spark_v1","""event"",""trial"",""time""
""fullscreenenter"",""1"",""5357""
","
","
","""event"",""trial"",""time""
""fullscreenenter"",""1"",""5357""
","
","","","","","","1063","<p> <b> True or False? </b> </p><p> If you see a number in GREY, that means you earned that many points. </p>","","1","comp_question","","","","","","","","","true","",""
"comp-q","53","373758","0.0-8.0-6.0-1.0","3816","2","11","Female","approach_avoid_spark_v1","""event"",""trial"",""time""
""fullscreenenter"",""1"",""5357""
","
","
","""event"",""trial"",""time""
""fullscreenenter"",""1"",""5357""
","
","","","","","","5387.800000011921","<p><b> That's right! </b> If you see a grey number, it means you earned ZERO points. <br> The grey numbers show the points you WOULD HAVE earned if you had made the other choice. </p>","","0","comp_answer","","","","","","","","","","",""
"comp-q","54","379592","0.0-8.0-7.0-0.0","3816","2","11","Female","approach_avoid_spark_v1","""event"",""trial"",""time""
""fullscreenenter"",""1"",""5357""
","
","
","""event"",""trial"",""time""
""fullscreenenter"",""1"",""5357""
","
","","","","","","1120.6000000238419","<p> <b> True or False? </b> </p><p> You will have as much time as you want to make each choice. </p>","","1","comp_question","","","","","","","","","true","",""
"comp-q","55","388273","0.0-8.0-7.0-1.0","3816","2","11","Female","approach_avoid_spark_v1","""event"",""trial"",""time""
""fullscreenenter"",""1"",""5357""
","
","
","""event"",""trial"",""time""
""fullscreenenter"",""1"",""5357""
","
","","","","","","4631.900000035763","<p> <b> That's right! </b> You will only have 3 seconds to make each choice. </p>","","0","comp_answer","","","","","","","","","","",""
"comp-q","56","393569","0.0-8.0-8.0-0.0","3816","2","11","Female","approach_avoid_spark_v1","""event"",""trial"",""time""
""fullscreenenter"",""1"",""5357""
","
","
","""event"",""trial"",""time""
""fullscreenenter"",""1"",""5357""
","
","","","","","","628","<p> <b> True or False? </b> </p><p> You should use the '1' and '0' keys to make your choices. </p>","","0","comp_question","","","","","","","","","true","",""
"comp-q","57","400841","0.0-8.0-8.0-1.0","3816","2","11","Female","approach_avoid_spark_v1","""event"",""trial"",""time""
""fullscreenenter"",""1"",""5357""
","
","
","""event"",""trial"",""time""
""fullscreenenter"",""1"",""5357""
","
","","","","","","2660.300000011921","<p> <b> That's right! </b> You should use the '1' and '0' keys to make each choice. </p>","","0","comp_answer","","","","","","","","","","",""
"learning-instructions","58","408412","0.0-8.0-9.0-0.0","3816","2","11","Female","approach_avoid_spark_v1","""event"",""trial"",""time""
""fullscreenenter"",""1"",""5357""
","
","
","""event"",""trial"",""time""
""fullscreenenter"",""1"",""5357""
","
","","","","","","1280.699999988079","<p> It's now time to start the real game. </p>Do your best, because the points you earn in the next rounds will influence your bonus payment. </p>","","0","instructions","","","","","","","","","","",""
"preload","59","408574","0.0-9.0-0.0","3816","2","11","Female","approach_avoid_spark_v1","""event"",""trial"",""time""
""fullscreenenter"",""1"",""5357""
","
","
","""event"",""trial"",""time""
""fullscreenenter"",""1"",""5357""
","
","true","false","[]","[]","[]","","","","","","","","","","","","","","","",""
"learning-instructions","60","415493","0.0-9.0-1.0-0.0","3816","2","11","Female","approach_avoid_spark_v1","""event"",""trial"",""time""
""fullscreenenter"",""1"",""5357""
","
","
","""event"",""trial"",""time""
""fullscreenenter"",""1"",""5357""
","
","","","","","","1701.6000000238419","<p> Your goal in this round is to decorate your friend's new house with furniture. </p></div>","","0","instructions","","","","","","","","","","",""
"learning-instructions","61","429274","0.0-9.0-1.0-0.1","3816","2","11","Female","approach_avoid_spark_v1","""event"",""trial"",""time""
""fullscreenenter"",""1"",""5357""
","
","
","""event"",""trial"",""time""
""fullscreenenter"",""1"",""5357""
","
","","","","","","922.8000000119209","<p> Your friend likes some pieces of furniture but not others.  </p><p> On each turn, you will see a piece of furniture.   </p><p> You need to decide whether to put it in your friend's house or not.  </p>","","0","instructions","","","","","","","","","","",""
"learning-instructions","62","436378","0.0-9.0-1.0-0.2","3816","2","11","Female","approach_avoid_spark_v1","""event"",""trial"",""time""
""fullscreenenter"",""1"",""5357""
","
","
","""event"",""trial"",""time""
""fullscreenenter"",""1"",""5357""
","
","","","","","","1116","<p> You can put the furniture in her house by pressing 1 and deliver it elsewhere by pressing 0. </p><br><div class=""choice-instructions-grid""> <div class=""choice-option""><img src=""images/approach.png"" class=""choice-option-img"" stage=""instructions"" position=""0"" ><div class=""choice-option-text""> Press ""1."" </div></div><div class=""choice-option""><img src=""images/avoid.png"" class=""choice-option-img"" stage=""instructions"" position=""1"" ><div class=""choice-option-text""> Press ""0."" </div></div>","","0","instructions","","","","","","","","","","",""
"learning-instructions","63","448639","0.0-9.0-1.0-0.3","3816","2","11","Female","approach_avoid_spark_v1","""event"",""trial"",""time""
""fullscreenenter"",""1"",""5357""
","
","
","""event"",""trial"",""time""
""fullscreenenter"",""1"",""5357""
","
","","","","","","1008.4000000357628","<p> If you decorate your friend's house with furniture she likes, she will be happy! </p><p> But if you give her furniture that she does not like, she will be annoyed. </p>","","0","instructions","","","","","","","","","","",""
"learning-instructions","64","463989","0.0-9.0-1.0-0.4","3816","2","11","Female","approach_avoid_spark_v1","""event"",""trial"",""time""
""fullscreenenter"",""1"",""5357""
","
","
","""event"",""trial"",""time""
""fullscreenenter"",""1"",""5357""
","
","","","","","","1978.1000000238419","<p> You will earn points based on how you made your friend feel. </p><p> If you made her happy, you will WIN anywhere from 1 - 9 points, </p><p> but if you made her annoyed you will LOSE anywhere from 1 - 9 points. </p>","","0","instructions","","","","","","","","","","",""
"learning-instructions","65","477862","0.0-9.0-1.0-0.5","3816","2","11","Female","approach_avoid_spark_v1","""event"",""trial"",""time""
""fullscreenenter"",""1"",""5357""
","
","
","""event"",""trial"",""time""
""fullscreenenter"",""1"",""5357""
","
","","","","","","2792.300000011921","<p> You will see how many points you won or lost in the center of the screen. </p><p> Here is what you would see if you won 5 points: </p><p style=""color:green;font-size:50px;font-weight:bolder"">5</p>","","0","instructions","","","","","","","","","","",""
"learning-instructions","66","487202","0.0-9.0-1.0-0.6","3816","2","11","Female","approach_avoid_spark_v1","""event"",""trial"",""time""
""fullscreenenter"",""1"",""5357""
","
","
","""event"",""trial"",""time""
""fullscreenenter"",""1"",""5357""
","
","","","","","","4692","<p> And here is what you would see if you lost 3 points: </p><p style=""color:red;font-size:50px;font-weight:bolder"">-3</p>","","0","instructions","","","","","","","","","","",""
"learning-instructions","67","512509","0.0-9.0-1.0-0.7","3816","2","11","Female","approach_avoid_spark_v1","""event"",""trial"",""time""
""fullscreenenter"",""1"",""5357""
","
","
","""event"",""trial"",""time""
""fullscreenenter"",""1"",""5357""
","
","","","","","","4599","<p> Some pieces of furniture will make her feel very happy or very annoyed. </p><p> These pieces of furniture will make you win or lose LOTS of points. </p><p> Other pieces of furniture will only make her feel a little happy or a little annoyed. </p><p> These pieces of furniture will make you win or lose small amounts of points. </p>","","0","instructions","","","","","","","","","","",""
"learning-instructions","68","527832","0.0-9.0-1.0-0.8","3816","2","11","Female","approach_avoid_spark_v1","""event"",""trial"",""time""
""fullscreenenter"",""1"",""5357""
","
","
","""event"",""trial"",""time""
""fullscreenenter"",""1"",""5357""
","
","","","","","","341.7000000476837","<p> If you choose to deliver a piece of furniture elsewhere, you will not win or lose any points. </p><p>  However, in the center of the screen, you will see the number of points you WOULD HAVE won or lost if you had given the furniture to your friend. </p>","","0","instructions","","","","","","","","","","",""
"learning-instructions","69","544769","0.0-9.0-1.0-0.9","3816","2","11","Female","approach_avoid_spark_v1","""event"",""trial"",""time""
""fullscreenenter"",""1"",""5357""
","
","
","""event"",""trial"",""time""
""fullscreenenter"",""1"",""5357""
","
","","","","","","3469.5","<p> Here is what you might see if you did not give a piece of furniture to your friend that would have made her happy: </p><p style=""color:grey; font-size:50px; display: inline-block; border-spacing: 15px; border-width:3px; border-style:solid; border-color:red"">  &nbsp; 6 &nbsp; </p><p> Remember, in this case, you would not win or lose ANY points because you did not give her the furniture.  </p>","","0","instructions","","","","","","","","","","",""
"learning-instructions","70","556101","0.0-9.0-1.0-0.10","3816","2","11","Female","approach_avoid_spark_v1","""event"",""trial"",""time""
""fullscreenenter"",""1"",""5357""
","
","
","""event"",""trial"",""time""
""fullscreenenter"",""1"",""5357""
","
","","","","","","741.4000000357628","<p> Try to make the best choice for each piece of furniture because </p><p> at the end of the game, you will earn bonus money based on how many points you earned. </p>","","0","instructions","","","","","","","","","","",""
"learning-instructions","71","564982","0.0-9.0-1.0-0.11","3816","2","11","Female","approach_avoid_spark_v1","""event"",""trial"",""time""
""fullscreenenter"",""1"",""5357""
","
","
","""event"",""trial"",""time""
""fullscreenenter"",""1"",""5357""
","
","","","","","","681.7999999523163","<p> You will have 3 seconds to make each choice. Try to respond before time runs out! </p><p> You will lose 5 points each time you do not make a response. </p>","","0","instructions","","","","","","","","","","",""
"html-keyboard-response","72","565598","0.0-9.0-2.0-0.0","3816","2","11","Female","approach_avoid_spark_v1","""event"",""trial"",""time""
""fullscreenenter"",""1"",""5357""
","
","
","""event"",""trial"",""time""
""fullscreenenter"",""1"",""5357""
","
","","","","","","null","<div style=""font-size:60px;"">+</div>","null","","fixation","","","","","","","","","","",""
"aa-learning-trial","73","568615","0.0-9.0-2.0-1.0","3816","2","11","Female","approach_avoid_spark_v1","""event"",""trial"",""time""
""fullscreenenter"",""1"",""5357""
","
","
","""event"",""trial"",""time""
""fullscreenenter"",""1"",""5357""
","
","","","","","","null","images/table3.png","","","learning","9","-5","","null","table","furniture","2","0","","bad","[-3]"
"html-keyboard-response","74","569117","0.0-9.0-2.0-0.1","3816","2","11","Female","approach_avoid_spark_v1","""event"",""trial"",""time""
""fullscreenenter"",""1"",""5357""
","
","
","""event"",""trial"",""time""
""fullscreenenter"",""1"",""5357""
","
","","","","","","null","<div style=""font-size:60px;"">+</div>","null","","fixation","","","","","","","","","","",""
"aa-learning-trial","75","572134","0.0-9.0-2.0-1.1","3816","2","11","Female","approach_avoid_spark_v1","""event"",""trial"",""time""
""fullscreenenter"",""1"",""5357""
","
","
","""event"",""trial"",""time""
""fullscreenenter"",""1"",""5357""
","
","","","","","","1300.199999988079","images/chair5.png","","","learning","7","0","0","0","chair","furniture","2","0","","neutral","0"
"html-keyboard-response","76","572648","0.0-9.0-2.0-0.2","3816","2","11","Female","approach_avoid_spark_v1","""event"",""trial"",""time""
""fullscreenenter"",""1"",""5357""
","
","
","""event"",""trial"",""time""
""fullscreenenter"",""1"",""5357""
","
","","","","","","null","<div style=""font-size:60px;"">+</div>","null","","fixation","","","","","","","","","","",""
"aa-learning-trial","77","575658","0.0-9.0-2.0-1.2","3816","2","11","Female","approach_avoid_spark_v1","""event"",""trial"",""time""
""fullscreenenter"",""1"",""5357""
","
","
","""event"",""trial"",""time""
""fullscreenenter"",""1"",""5357""
","
","","","","","","828.6999999880791","images/bed8.png","","","learning","8","8","1","1","bed","furniture","2","0","","good","[3]"
"html-keyboard-response","78","576169","0.0-9.0-2.0-0.3","3816","2","11","Female","approach_avoid_spark_v1","""event"",""trial"",""time""
""fullscreenenter"",""1"",""5357""
","
","
","""event"",""trial"",""time""
""fullscreenenter"",""1"",""5357""
","
","","","","","","null","<div style=""font-size:60px;"">+</div>","null","","fixation","","","","","","","","","","",""
"aa-learning-trial","79","579177","0.0-9.0-2.0-1.3","3816","2","11","Female","approach_avoid_spark_v1","""event"",""trial"",""time""
""fullscreenenter"",""1"",""5357""
","
","
","""event"",""trial"",""time""
""fullscreenenter"",""1"",""5357""
","
","","","","","","503.5999999642372","images/bed8.png","","","learning","8","8","1","1","bed","furniture","2","0","","good","[3]"
"html-keyboard-response","80","579690","0.0-9.0-2.0-0.4","3816","2","11","Female","approach_avoid_spark_v1","""event"",""trial"",""time""
""fullscreenenter"",""1"",""5357""
","
","
","""event"",""trial"",""time""
""fullscreenenter"",""1"",""5357""
","
","","","","","","null","<div style=""font-size:60px;"">+</div>","null","","fixation","","","","","","","","","","",""
"aa-learning-trial","81","582705","0.0-9.0-2.0-1.4","3816","2","11","Female","approach_avoid_spark_v1","""event"",""trial"",""time""
""fullscreenenter"",""1"",""5357""
","
","
","""event"",""trial"",""time""
""fullscreenenter"",""1"",""5357""
","
","","","","","","656.5","images/chair4.png","","","learning","-9","0","0","0","chair","furniture","2","0","","neutral","0"
"html-keyboard-response","82","583229","0.0-9.0-2.0-0.5","3816","2","11","Female","approach_avoid_spark_v1","""event"",""trial"",""time""
""fullscreenenter"",""1"",""5357""
","
","
","""event"",""trial"",""time""
""fullscreenenter"",""1"",""5357""
","
","","","","","","null","<div style=""font-size:60px;"">+</div>","null","","fixation","","","","","","","","","","",""
"aa-learning-trial","83","586254","0.0-9.0-2.0-1.5","3816","2","11","Female","approach_avoid_spark_v1","""event"",""trial"",""time""
""fullscreenenter"",""1"",""5357""
","
","
","""event"",""trial"",""time""
""fullscreenenter"",""1"",""5357""
","
","","","","","","1068.3999999761581","images/chair7.png","","","learning","-5","0","0","0","chair","furniture","2","0","","neutral","0"
"html-keyboard-response","84","586758","0.0-9.0-2.0-0.6","3816","2","11","Female","approach_avoid_spark_v1","""event"",""trial"",""time""
""fullscreenenter"",""1"",""5357""
","
","
","""event"",""trial"",""time""
""fullscreenenter"",""1"",""5357""
","
","","","","","","null","<div style=""font-size:60px;"">+</div>","null","","fixation","","","","","","","","","","",""
"aa-learning-trial","85","589776","0.0-9.0-2.0-1.6","3816","2","11","Female","approach_avoid_spark_v1","""event"",""trial"",""time""
""fullscreenenter"",""1"",""5357""
","
","
","""event"",""trial"",""time""
""fullscreenenter"",""1"",""5357""
","
","","","","","","438","images/bed6.png","","","learning","5","5","1","1","bed","furniture","2","0","","good","[3]"
"html-keyboard-response","86","590298","0.0-9.0-2.0-0.7","3816","2","11","Female","approach_avoid_spark_v1","""event"",""trial"",""time""
""fullscreenenter"",""1"",""5357""
","
","
","""event"",""trial"",""time""
""fullscreenenter"",""1"",""5357""
","
","","","","","","null","<div style=""font-size:60px;"">+</div>","null","","fixation","","","","","","","","","","",""
"aa-learning-trial","87","593322","0.0-9.0-2.0-1.7","3816","2","11","Female","approach_avoid_spark_v1","""event"",""trial"",""time""
""fullscreenenter"",""1"",""5357""
","
","
","""event"",""trial"",""time""
""fullscreenenter"",""1"",""5357""
","
","","","","","","737.9000000357628","images/chair7.png","","","learning","-5","0","0","0","chair","furniture","2","0","","neutral","0"
"html-keyboard-response","88","593834","0.0-9.0-2.0-0.8","3816","2","11","Female","approach_avoid_spark_v1","""event"",""trial"",""time""
""fullscreenenter"",""1"",""5357""
","
","
","""event"",""trial"",""time""
""fullscreenenter"",""1"",""5357""
","
","","","","","","null","<div style=""font-size:60px;"">+</div>","null","","fixation","","","","","","","","","","",""
"aa-learning-trial","89","596850","0.0-9.0-2.0-1.8","3816","2","11","Female","approach_avoid_spark_v1","""event"",""trial"",""time""
""fullscreenenter"",""1"",""5357""
","
","
","""event"",""trial"",""time""
""fullscreenenter"",""1"",""5357""
","
","","","","","","898.6999999880791","images/table6.png","","","learning","-1","0","0","0","table","furniture","2","0","","bad","[-3]"
"html-keyboard-response","90","597361","0.0-9.0-2.0-0.9","3816","2","11","Female","approach_avoid_spark_v1","""event"",""trial"",""time""
""fullscreenenter"",""1"",""5357""
","
","
","""event"",""trial"",""time""
""fullscreenenter"",""1"",""5357""
","
","","","","","","null","<div style=""font-size:60px;"">+</div>","null","","fixation","","","","","","","","","","",""
"aa-learning-trial","91","600375","0.0-9.0-2.0-1.9","3816","2","11","Female","approach_avoid_spark_v1","""event"",""trial"",""time""
""fullscreenenter"",""1"",""5357""
","
","
","""event"",""trial"",""time""
""fullscreenenter"",""1"",""5357""
","
","","","","","","689","images/chair4.png","","","learning","-9","0","0","0","chair","furniture","2","0","","neutral","0"
"html-keyboard-response","92","600886","0.0-9.0-2.0-0.10","3816","2","11","Female","approach_avoid_spark_v1","""event"",""trial"",""time""
""fullscreenenter"",""1"",""5357""
","
","
","""event"",""trial"",""time""
""fullscreenenter"",""1"",""5357""
","
","","","","","","null","<div style=""font-size:60px;"">+</div>","null","","fixation","","","","","","","","","","",""
"aa-learning-trial","93","603909","0.0-9.0-2.0-1.10","3816","2","11","Female","approach_avoid_spark_v1","""event"",""trial"",""time""
""fullscreenenter"",""1"",""5357""
","
","
","""event"",""trial"",""time""
""fullscreenenter"",""1"",""5357""
","
","","","","","","378","images/bed6.png","","","learning","5","5","1","1","bed","furniture","2","0","","good","[3]"
"html-keyboard-response","94","604416","0.0-9.0-2.0-0.11","3816","2","11","Female","approach_avoid_spark_v1","""event"",""trial"",""time""
""fullscreenenter"",""1"",""5357""
","
","
","""event"",""trial"",""time""
""fullscreenenter"",""1"",""5357""
","
","","","","","","null","<div style=""font-size:60px;"">+</div>","null","","fixation","","","","","","","","","","",""
"aa-learning-trial","95","607422","0.0-9.0-2.0-1.11","3816","2","11","Female","approach_avoid_spark_v1","""event"",""trial"",""time""
""fullscreenenter"",""1"",""5357""
","
","
","""event"",""trial"",""time""
""fullscreenenter"",""1"",""5357""
","
","","","","","","1044.5","images/table4.png","","","learning","-3","0","0","0","table","furniture","2","0","","bad","[-3]"
"html-keyboard-response","96","607928","0.0-9.0-2.0-0.12","3816","2","11","Female","approach_avoid_spark_v1","""event"",""trial"",""time""
""fullscreenenter"",""1"",""5357""
","
","
","""event"",""trial"",""time""
""fullscreenenter"",""1"",""5357""
","
","","","","","","null","<div style=""font-size:60px;"">+</div>","null","","fixation","","","","","","","","","","",""
"aa-learning-trial","97","610934","0.0-9.0-2.0-1.12","3816","2","11","Female","approach_avoid_spark_v1","""event"",""trial"",""time""
""fullscreenenter"",""1"",""5357""
","
","
","""event"",""trial"",""time""
""fullscreenenter"",""1"",""5357""
","
","","","","","","720.0999999642372","images/bed2.png","","","learning","-6","-6","1","1","bed","furniture","2","0","","good","[3]"
"html-keyboard-response","98","611443","0.0-9.0-2.0-0.13","3816","2","11","Female","approach_avoid_spark_v1","""event"",""trial"",""time""
""fullscreenenter"",""1"",""5357""
","
","
","""event"",""trial"",""time""
""fullscreenenter"",""1"",""5357""
","
","","","","","","null","<div style=""font-size:60px;"">+</div>","null","","fixation","","","","","","","","","","",""
"aa-learning-trial","99","614454","0.0-9.0-2.0-1.13","3816","2","11","Female","approach_avoid_spark_v1","""event"",""trial"",""time""
""fullscreenenter"",""1"",""5357""
","
","
","""event"",""trial"",""time""
""fullscreenenter"",""1"",""5357""
","
","","","","","","678.8999999761581","images/table3.png","","","learning","9","0","0","0","table","furniture","2","0","","bad","[-3]"
"html-keyboard-response","100","614970","0.0-9.0-2.0-0.14","3816","2","11","Female","approach_avoid_spark_v1","""event"",""trial"",""time""
""fullscreenenter"",""1"",""5357""
","
","
","""event"",""trial"",""time""
""fullscreenenter"",""1"",""5357""
","
","","","","","","null","<div style=""font-size:60px;"">+</div>","null","","fixation","","","","","","","","","","",""
"aa-learning-trial","101","617982","0.0-9.0-2.0-1.14","3816","2","11","Female","approach_avoid_spark_v1","""event"",""trial"",""time""
""fullscreenenter"",""1"",""5357""
","
","
","""event"",""trial"",""time""
""fullscreenenter"",""1"",""5357""
","
","","","","","","968.5","images/table6.png","","","learning","-1","0","0","0","table","furniture","2","0","","bad","[-3]"
"html-keyboard-response","102","618487","0.0-9.0-2.0-0.15","3816","2","11","Female","approach_avoid_spark_v1","""event"",""trial"",""time""
""fullscreenenter"",""1"",""5357""
","
","
","""event"",""trial"",""time""
""fullscreenenter"",""1"",""5357""
","
","","","","","","null","<div style=""font-size:60px;"">+</div>","null","","fixation","","","","","","","","","","",""
"aa-learning-trial","103","621499","0.0-9.0-2.0-1.15","3816","2","11","Female","approach_avoid_spark_v1","""event"",""trial"",""time""
""fullscreenenter"",""1"",""5357""
","
","
","""event"",""trial"",""time""
""fullscreenenter"",""1"",""5357""
","
","","","","","","602","images/bed8.png","","","learning","8","8","1","1","bed","furniture","2","0","","good","[3]"
"html-keyboard-response","104","622010","0.0-9.0-2.0-0.16","3816","2","11","Female","approach_avoid_spark_v1","""event"",""trial"",""time""
""fullscreenenter"",""1"",""5357""
","
","
","""event"",""trial"",""time""
""fullscreenenter"",""1"",""5357""
","
","","","","","","null","<div style=""font-size:60px;"">+</div>","null","","fixation","","","","","","","","","","",""
"aa-learning-trial","105","625026","0.0-9.0-2.0-1.16","3816","2","11","Female","approach_avoid_spark_v1","""event"",""trial"",""time""
""fullscreenenter"",""1"",""5357""
","
","
","""event"",""trial"",""time""
""fullscreenenter"",""1"",""5357""
","
","","","","","","648","images/chair4.png","","","learning","-9","0","0","0","chair","furniture","2","0","","neutral","0"
"html-keyboard-response","106","625545","0.0-9.0-2.0-0.17","3816","2","11","Female","approach_avoid_spark_v1","""event"",""trial"",""time""
""fullscreenenter"",""1"",""5357""
","
","
","""event"",""trial"",""time""
""fullscreenenter"",""1"",""5357""
","
","","","","","","null","<div style=""font-size:60px;"">+</div>","null","","fixation","","","","","","","","","","",""
"aa-learning-trial","107","628557","0.0-9.0-2.0-1.17","3816","2","11","Female","approach_avoid_spark_v1","""event"",""trial"",""time""
""fullscreenenter"",""1"",""5357""
","
","
","""event"",""trial"",""time""
""fullscreenenter"",""1"",""5357""
","
","","","","","","1142.5","images/table6.png","","","learning","-1","0","0","0","table","furniture","2","0","","bad","[-3]"
"html-keyboard-response","108","629064","0.0-9.0-2.0-0.18","3816","2","11","Female","approach_avoid_spark_v1","""event"",""trial"",""time""
""fullscreenenter"",""1"",""5357""
","
","
","""event"",""trial"",""time""
""fullscreenenter"",""1"",""5357""
","
","","","","","","null","<div style=""font-size:60px;"">+</div>","null","","fixation","","","","","","","","","","",""
"aa-learning-trial","109","632078","0.0-9.0-2.0-1.18","3816","2","11","Female","approach_avoid_spark_v1","""event"",""trial"",""time""
""fullscreenenter"",""1"",""5357""
","
","
","""event"",""trial"",""time""
""fullscreenenter"",""1"",""5357""
","
","","","","","","621.6999999880791","images/bed6.png","","","learning","5","5","1","1","bed","furniture","2","0","","good","[3]"
"html-keyboard-response","110","632596","0.0-9.0-2.0-0.19","3816","2","11","Female","approach_avoid_spark_v1","""event"",""trial"",""time""
""fullscreenenter"",""1"",""5357""
","
","
","""event"",""trial"",""time""
""fullscreenenter"",""1"",""5357""
","
","","","","","","null","<div style=""font-size:60px;"">+</div>","null","","fixation","","","","","","","","","","",""
"aa-learning-trial","111","635612","0.0-9.0-2.0-1.19","3816","2","11","Female","approach_avoid_spark_v1","""event"",""trial"",""time""
""fullscreenenter"",""1"",""5357""
","
","
","""event"",""trial"",""time""
""fullscreenenter"",""1"",""5357""
","
","","","","","","793.0999999642372","images/chair7.png","","","learning","-5","0","0","0","chair","furniture","2","0","","neutral","0"
"html-keyboard-response","112","636122","0.0-9.0-2.0-0.20","3816","2","11","Female","approach_avoid_spark_v1","""event"",""trial"",""time""
""fullscreenenter"",""1"",""5357""
","
","
","""event"",""trial"",""time""
""fullscreenenter"",""1"",""5357""
","
","","","","","","null","<div style=""font-size:60px;"">+</div>","null","","fixation","","","","","","","","","","",""
"aa-learning-trial","113","639140","0.0-9.0-2.0-1.20","3816","2","11","Female","approach_avoid_spark_v1","""event"",""trial"",""time""
""fullscreenenter"",""1"",""5357""
","
","
","""event"",""trial"",""time""
""fullscreenenter"",""1"",""5357""
","
","","","","","","1250.7999999523163","images/chair1.png","","","learning","3","3","1","1","chair","furniture","2","0","","neutral","0"
"html-keyboard-response","114","639647","0.0-9.0-2.0-0.21","3816","2","11","Female","approach_avoid_spark_v1","""event"",""trial"",""time""
""fullscreenenter"",""1"",""5357""
","
","
","""event"",""trial"",""time""
""fullscreenenter"",""1"",""5357""
","
","","","","","","null","<div style=""font-size:60px;"">+</div>","null","","fixation","","","","","","","","","","",""
"aa-learning-trial","115","642656","0.0-9.0-2.0-1.21","3816","2","11","Female","approach_avoid_spark_v1","""event"",""trial"",""time""
""fullscreenenter"",""1"",""5357""
","
","
","""event"",""trial"",""time""
""fullscreenenter"",""1"",""5357""
","
","","","","","","744.5999999642372","images/bed7.png","","","learning","-4","-4","1","1","bed","furniture","2","0","","good","[3]"
"html-keyboard-response","116","643169","0.0-9.0-2.0-0.22","3816","2","11","Female","approach_avoid_spark_v1","""event"",""trial"",""time""
""fullscreenenter"",""1"",""5357""
","
","
","""event"",""trial"",""time""
""fullscreenenter"",""1"",""5357""
","
","","","","","","null","<div style=""font-size:60px;"">+</div>","null","","fixation","","","","","","","","","","",""
"aa-learning-trial","117","646184","0.0-9.0-2.0-1.22","3816","2","11","Female","approach_avoid_spark_v1","""event"",""trial"",""time""
""fullscreenenter"",""1"",""5357""
","
","
","""event"",""trial"",""time""
""fullscreenenter"",""1"",""5357""
","
","","","","","","679.5","images/chair7.png","","","learning","-5","0","0","0","chair","furniture","2","0","","neutral","0"
"html-keyboard-response","118","646696","0.0-9.0-2.0-0.23","3816","2","11","Female","approach_avoid_spark_v1","""event"",""trial"",""time""
""fullscreenenter"",""1"",""5357""
","
","
","""event"",""trial"",""time""
""fullscreenenter"",""1"",""5357""
","
","","","","","","null","<div style=""font-size:60px;"">+</div>","null","","fixation","","","","","","","","","","",""
"aa-learning-trial","119","649706","0.0-9.0-2.0-1.23","3816","2","11","Female","approach_avoid_spark_v1","""event"",""trial"",""time""
""fullscreenenter"",""1"",""5357""
","
","
","""event"",""trial"",""time""
""fullscreenenter"",""1"",""5357""
","
","","","","","","655.1999999880791","images/chair7.png","","","learning","-5","0","0","0","chair","furniture","2","0","","neutral","0"
"html-keyboard-response","120","650214","0.0-9.0-2.0-0.24","3816","2","11","Female","approach_avoid_spark_v1","""event"",""trial"",""time""
""fullscreenenter"",""1"",""5357""
","
","
","""event"",""trial"",""time""
""fullscreenenter"",""1"",""5357""
","
","","","","","","null","<div style=""font-size:60px;"">+</div>","null","","fixation","","","","","","","","","","",""
"aa-learning-trial","121","653224","0.0-9.0-2.0-1.24","3816","2","11","Female","approach_avoid_spark_v1","""event"",""trial"",""time""
""fullscreenenter"",""1"",""5357""
","
","
","""event"",""trial"",""time""
""fullscreenenter"",""1"",""5357""
","
","","","","","","1064.0999999642372","images/chair5.png","","","learning","7","7","1","1","chair","furniture","2","0","","neutral","0"
"html-keyboard-response","122","653735","0.0-9.0-2.0-0.25","3816","2","11","Female","approach_avoid_spark_v1","""event"",""trial"",""time""
""fullscreenenter"",""1"",""5357""
","
","
","""event"",""trial"",""time""
""fullscreenenter"",""1"",""5357""
","
","","","","","","null","<div style=""font-size:60px;"">+</div>","null","","fixation","","","","","","","","","","",""
"aa-learning-trial","123","656747","0.0-9.0-2.0-1.25","3816","2","11","Female","approach_avoid_spark_v1","""event"",""trial"",""time""
""fullscreenenter"",""1"",""5357""
","
","
","""event"",""trial"",""time""
""fullscreenenter"",""1"",""5357""
","
","","","","","","647.6999999880791","images/bed8.png","","","learning","8","8","1","1","bed","furniture","2","0","","good","[3]"
"html-keyboard-response","124","657253","0.0-9.0-2.0-0.26","3816","2","11","Female","approach_avoid_spark_v1","""event"",""trial"",""time""
""fullscreenenter"",""1"",""5357""
","
","
","""event"",""trial"",""time""
""fullscreenenter"",""1"",""5357""
","
","","","","","","null","<div style=""font-size:60px;"">+</div>","null","","fixation","","","","","","","","","","",""
"aa-learning-trial","125","660265","0.0-9.0-2.0-1.26","3816","2","11","Female","approach_avoid_spark_v1","""event"",""trial"",""time""
""fullscreenenter"",""1"",""5357""
","
","
","""event"",""trial"",""time""
""fullscreenenter"",""1"",""5357""
","
","","","","","","856.1999999880791","images/table3.png","","","learning","9","9","1","1","table","furniture","2","0","","bad","[-3]"
"html-keyboard-response","126","660776","0.0-9.0-2.0-0.27","3816","2","11","Female","approach_avoid_spark_v1","""event"",""trial"",""time""
""fullscreenenter"",""1"",""5357""
","
","
","""event"",""trial"",""time""
""fullscreenenter"",""1"",""5357""
","
","","","","","","null","<div style=""font-size:60px;"">+</div>","null","","fixation","","","","","","","","","","",""
"aa-learning-trial","127","663784","0.0-9.0-2.0-1.27","3816","2","11","Female","approach_avoid_spark_v1","""event"",""trial"",""time""
""fullscreenenter"",""1"",""5357""
","
","
","""event"",""trial"",""time""
""fullscreenenter"",""1"",""5357""
","
","","","","","","662","images/table6.png","","","learning","-1","0","0","0","table","furniture","2","0","","bad","[-3]"
"html-keyboard-response","128","664297","0.0-9.0-2.0-0.28","3816","2","11","Female","approach_avoid_spark_v1","""event"",""trial"",""time""
""fullscreenenter"",""1"",""5357""
","
","
","""event"",""trial"",""time""
""fullscreenenter"",""1"",""5357""
","
","","","","","","null","<div style=""font-size:60px;"">+</div>","null","","fixation","","","","","","","","","","",""
"aa-learning-trial","129","667307","0.0-9.0-2.0-1.28","3816","2","11","Female","approach_avoid_spark_v1","""event"",""trial"",""time""
""fullscreenenter"",""1"",""5357""
","
","
","""event"",""trial"",""time""
""fullscreenenter"",""1"",""5357""
","
","","","","","","738.0999999642372","images/table3.png","","","learning","9","9","1","1","table","furniture","2","0","","bad","[-3]"
"html-keyboard-response","130","667809","0.0-9.0-2.0-0.29","3816","2","11","Female","approach_avoid_spark_v1","""event"",""trial"",""time""
""fullscreenenter"",""1"",""5357""
","
","
","""event"",""trial"",""time""
""fullscreenenter"",""1"",""5357""
","
","","","","","","null","<div style=""font-size:60px;"">+</div>","null","","fixation","","","","","","","","","","",""
"aa-learning-trial","131","670822","0.0-9.0-2.0-1.29","3816","2","11","Female","approach_avoid_spark_v1","""event"",""trial"",""time""
""fullscreenenter"",""1"",""5357""
","
","
","""event"",""trial"",""time""
""fullscreenenter"",""1"",""5357""
","
","","","","","","904.1000000238419","images/table4.png","","","learning","-3","0","0","0","table","furniture","2","0","","bad","[-3]"
"html-keyboard-response","132","671333","0.0-9.0-2.0-0.30","3816","2","11","Female","approach_avoid_spark_v1","""event"",""trial"",""time""
""fullscreenenter"",""1"",""5357""
","
","
","""event"",""trial"",""time""
""fullscreenenter"",""1"",""5357""
","
","","","","","","null","<div style=""font-size:60px;"">+</div>","null","","fixation","","","","","","","","","","",""
"aa-learning-trial","133","674343","0.0-9.0-2.0-1.30","3816","2","11","Female","approach_avoid_spark_v1","""event"",""trial"",""time""
""fullscreenenter"",""1"",""5357""
","
","
","""event"",""trial"",""time""
""fullscreenenter"",""1"",""5357""
","
","","","","","","838.5","images/chair5.png","","","learning","7","7","1","1","chair","furniture","2","0","","neutral","0"
"html-keyboard-response","134","674846","0.0-9.0-2.0-0.31","3816","2","11","Female","approach_avoid_spark_v1","""event"",""trial"",""time""
""fullscreenenter"",""1"",""5357""
","
","
","""event"",""trial"",""time""
""fullscreenenter"",""1"",""5357""
","
","","","","","","null","<div style=""font-size:60px;"">+</div>","null","","fixation","","","","","","","","","","",""
"aa-learning-trial","135","677862","0.0-9.0-2.0-1.31","3816","2","11","Female","approach_avoid_spark_v1","""event"",""trial"",""time""
""fullscreenenter"",""1"",""5357""
","
","
","""event"",""trial"",""time""
""fullscreenenter"",""1"",""5357""
","
","","","","","","627.5999999642372","images/chair4.png","","","learning","-9","0","0","0","chair","furniture","2","0","","neutral","0"
"html-keyboard-response","136","678373","0.0-9.0-2.0-0.32","3816","2","11","Female","approach_avoid_spark_v1","""event"",""trial"",""time""
""fullscreenenter"",""1"",""5357""
","
","
","""event"",""trial"",""time""
""fullscreenenter"",""1"",""5357""
","
","","","","","","null","<div style=""font-size:60px;"">+</div>","null","","fixation","","","","","","","","","","",""
"aa-learning-trial","137","681390","0.0-9.0-2.0-1.32","3816","2","11","Female","approach_avoid_spark_v1","""event"",""trial"",""time""
""fullscreenenter"",""1"",""5357""
","
","
","""event"",""trial"",""time""
""fullscreenenter"",""1"",""5357""
","
","","","","","","836.7000000476837","images/bed2.png","","","learning","-6","0","0","0","bed","furniture","2","0","","good","[3]"
"html-keyboard-response","138","681899","0.0-9.0-2.0-0.33","3816","2","11","Female","approach_avoid_spark_v1","""event"",""trial"",""time""
""fullscreenenter"",""1"",""5357""
","
","
","""event"",""trial"",""time""
""fullscreenenter"",""1"",""5357""
","
","","","","","","null","<div style=""font-size:60px;"">+</div>","null","","fixation","","","","","","","","","","",""
"aa-learning-trial","139","684904","0.0-9.0-2.0-1.33","3816","2","11","Female","approach_avoid_spark_v1","""event"",""trial"",""time""
""fullscreenenter"",""1"",""5357""
","
","
","""event"",""trial"",""time""
""fullscreenenter"",""1"",""5357""
","
","","","","","","601.8000000119209","images/chair4.png","","","learning","-9","0","0","0","chair","furniture","2","0","","neutral","0"
"html-keyboard-response","140","685414","0.0-9.0-2.0-0.34","3816","2","11","Female","approach_avoid_spark_v1","""event"",""trial"",""time""
""fullscreenenter"",""1"",""5357""
","
","
","""event"",""trial"",""time""
""fullscreenenter"",""1"",""5357""
","
","","","","","","null","<div style=""font-size:60px;"">+</div>","null","","fixation","","","","","","","","","","",""
"aa-learning-trial","141","688429","0.0-9.0-2.0-1.34","3816","2","11","Female","approach_avoid_spark_v1","""event"",""trial"",""time""
""fullscreenenter"",""1"",""5357""
","
","
","""event"",""trial"",""time""
""fullscreenenter"",""1"",""5357""
","
","","","","","","679.0999999642372","images/table3.png","","","learning","9","9","1","1","table","furniture","2","0","","bad","[-3]"
"html-keyboard-response","142","688942","0.0-9.0-2.0-0.35","3816","2","11","Female","approach_avoid_spark_v1","""event"",""trial"",""time""
""fullscreenenter"",""1"",""5357""
","
","
","""event"",""trial"",""time""
""fullscreenenter"",""1"",""5357""
","
","","","","","","null","<div style=""font-size:60px;"">+</div>","null","","fixation","","","","","","","","","","",""
"aa-learning-trial","143","691958","0.0-9.0-2.0-1.35","3816","2","11","Female","approach_avoid_spark_v1","""event"",""trial"",""time""
""fullscreenenter"",""1"",""5357""
","
","
","""event"",""trial"",""time""
""fullscreenenter"",""1"",""5357""
","
","","","","","","856.3000000119209","images/bed6.png","","","learning","5","5","1","1","bed","furniture","2","0","","good","[3]"
"html-keyboard-response","144","692468","0.0-9.0-2.0-0.36","3816","2","11","Female","approach_avoid_spark_v1","""event"",""trial"",""time""
""fullscreenenter"",""1"",""5357""
","
","
","""event"",""trial"",""time""
""fullscreenenter"",""1"",""5357""
","
","","","","","","null","<div style=""font-size:60px;"">+</div>","null","","fixation","","","","","","","","","","",""
"aa-learning-trial","145","695478","0.0-9.0-2.0-1.36","3816","2","11","Female","approach_avoid_spark_v1","""event"",""trial"",""time""
""fullscreenenter"",""1"",""5357""
","
","
","""event"",""trial"",""time""
""fullscreenenter"",""1"",""5357""
","
","","","","","","506.89999997615814","images/chair4.png","","","learning","-9","0","0","0","chair","furniture","2","0","","neutral","0"
"html-keyboard-response","146","695984","0.0-9.0-2.0-0.37","3816","2","11","Female","approach_avoid_spark_v1","""event"",""trial"",""time""
""fullscreenenter"",""1"",""5357""
","
","
","""event"",""trial"",""time""
""fullscreenenter"",""1"",""5357""
","
","","","","","","null","<div style=""font-size:60px;"">+</div>","null","","fixation","","","","","","","","","","",""
"aa-learning-trial","147","698990","0.0-9.0-2.0-1.37","3816","2","11","Female","approach_avoid_spark_v1","""event"",""trial"",""time""
""fullscreenenter"",""1"",""5357""
","
","
","""event"",""trial"",""time""
""fullscreenenter"",""1"",""5357""
","
","","","","","","563.5","images/bed6.png","","","learning","5","5","1","1","bed","furniture","2","0","","good","[3]"
"html-keyboard-response","148","699501","0.0-9.0-2.0-0.38","3816","2","11","Female","approach_avoid_spark_v1","""event"",""trial"",""time""
""fullscreenenter"",""1"",""5357""
","
","
","""event"",""trial"",""time""
""fullscreenenter"",""1"",""5357""
","
","","","","","","null","<div style=""font-size:60px;"">+</div>","null","","fixation","","","","","","","","","","",""
"aa-learning-trial","149","702524","0.0-9.0-2.0-1.38","3816","2","11","Female","approach_avoid_spark_v1","""event"",""trial"",""time""
""fullscreenenter"",""1"",""5357""
","
","
","""event"",""trial"",""time""
""fullscreenenter"",""1"",""5357""
","
","","","","","","609.6999999880791","images/table6.png","","","learning","-1","0","0","0","table","furniture","2","0","","bad","[-3]"
"html-keyboard-response","150","703045","0.0-9.0-2.0-0.39","3816","2","11","Female","approach_avoid_spark_v1","""event"",""trial"",""time""
""fullscreenenter"",""1"",""5357""
","
","
","""event"",""trial"",""time""
""fullscreenenter"",""1"",""5357""
","
","","","","","","null","<div style=""font-size:60px;"">+</div>","null","","fixation","","","","","","","","","","",""
"aa-learning-trial","151","706054","0.0-9.0-2.0-1.39","3816","2","11","Female","approach_avoid_spark_v1","""event"",""trial"",""time""
""fullscreenenter"",""1"",""5357""
","
","
","""event"",""trial"",""time""
""fullscreenenter"",""1"",""5357""
","
","","","","","","1366.1000000238419","images/chair3.png","","","learning","2","0","0","0","chair","furniture","2","0","","neutral","0"
"html-keyboard-response","152","706573","0.0-9.0-2.0-0.40","3816","2","11","Female","approach_avoid_spark_v1","""event"",""trial"",""time""
""fullscreenenter"",""1"",""5357""
","
","
","""event"",""trial"",""time""
""fullscreenenter"",""1"",""5357""
","
","","","","","","null","<div style=""font-size:60px;"">+</div>","null","","fixation","","","","","","","","","","",""
"aa-learning-trial","153","709588","0.0-9.0-2.0-1.40","3816","2","11","Female","approach_avoid_spark_v1","""event"",""trial"",""time""
""fullscreenenter"",""1"",""5357""
","
","
","""event"",""trial"",""time""
""fullscreenenter"",""1"",""5357""
","
","","","","","","737.6000000238419","images/bed6.png","","","learning","5","5","1","1","bed","furniture","2","0","","good","[3]"
"html-keyboard-response","154","710097","0.0-9.0-2.0-0.41","3816","2","11","Female","approach_avoid_spark_v1","""event"",""trial"",""time""
""fullscreenenter"",""1"",""5357""
","
","
","""event"",""trial"",""time""
""fullscreenenter"",""1"",""5357""
","
","","","","","","null","<div style=""font-size:60px;"">+</div>","null","","fixation","","","","","","","","","","",""
"aa-learning-trial","155","713116","0.0-9.0-2.0-1.41","3816","2","11","Female","approach_avoid_spark_v1","""event"",""trial"",""time""
""fullscreenenter"",""1"",""5357""
","
","
","""event"",""trial"",""time""
""fullscreenenter"",""1"",""5357""
","
","","","","","","671.5","images/table3.png","","","learning","9","9","1","1","table","furniture","2","0","","bad","[-3]"
"html-keyboard-response","156","713630","0.0-9.0-2.0-0.42","3816","2","11","Female","approach_avoid_spark_v1","""event"",""trial"",""time""
""fullscreenenter"",""1"",""5357""
","
","
","""event"",""trial"",""time""
""fullscreenenter"",""1"",""5357""
","
","","","","","","null","<div style=""font-size:60px;"">+</div>","null","","fixation","","","","","","","","","","",""
"aa-learning-trial","157","716643","0.0-9.0-2.0-1.42","3816","2","11","Female","approach_avoid_spark_v1","""event"",""trial"",""time""
""fullscreenenter"",""1"",""5357""
","
","
","""event"",""trial"",""time""
""fullscreenenter"",""1"",""5357""
","
","","","","","","676.5","images/table4.png","","","learning","-3","0","0","0","table","furniture","2","0","","bad","[-3]"
"html-keyboard-response","158","717154","0.0-9.0-2.0-0.43","3816","2","11","Female","approach_avoid_spark_v1","""event"",""trial"",""time""
""fullscreenenter"",""1"",""5357""
","
","
","""event"",""trial"",""time""
""fullscreenenter"",""1"",""5357""
","
","","","","","","null","<div style=""font-size:60px;"">+</div>","null","","fixation","","","","","","","","","","",""
"aa-learning-trial","159","720172","0.0-9.0-2.0-1.43","3816","2","11","Female","approach_avoid_spark_v1","""event"",""trial"",""time""
""fullscreenenter"",""1"",""5357""
","
","
","""event"",""trial"",""time""
""fullscreenenter"",""1"",""5357""
","
","","","","","","742.3999999761581","images/bed8.png","","","learning","8","8","1","1","bed","furniture","2","0","","good","[3]"
"html-keyboard-response","160","720682","0.0-9.0-2.0-0.44","3816","2","11","Female","approach_avoid_spark_v1","""event"",""trial"",""time""
""fullscreenenter"",""1"",""5357""
","
","
","""event"",""trial"",""time""
""fullscreenenter"",""1"",""5357""
","
","","","","","","null","<div style=""font-size:60px;"">+</div>","null","","fixation","","","","","","","","","","",""
"aa-learning-trial","161","723696","0.0-9.0-2.0-1.44","3816","2","11","Female","approach_avoid_spark_v1","""event"",""trial"",""time""
""fullscreenenter"",""1"",""5357""
","
","
","""event"",""trial"",""time""
""fullscreenenter"",""1"",""5357""
","
","","","","","","691.7000000476837","images/chair7.png","","","learning","-5","0","0","0","chair","furniture","2","0","","neutral","0"
"html-keyboard-response","162","724205","0.0-9.0-2.0-0.45","3816","2","11","Female","approach_avoid_spark_v1","""event"",""trial"",""time""
""fullscreenenter"",""1"",""5357""
","
","
","""event"",""trial"",""time""
""fullscreenenter"",""1"",""5357""
","
","","","","","","null","<div style=""font-size:60px;"">+</div>","null","","fixation","","","","","","","","","","",""
"aa-learning-trial","163","727209","0.0-9.0-2.0-1.45","3816","2","11","Female","approach_avoid_spark_v1","""event"",""trial"",""time""
""fullscreenenter"",""1"",""5357""
","
","
","""event"",""trial"",""time""
""fullscreenenter"",""1"",""5357""
","
","","","","","","935.3999999761581","images/bed5.png","","","learning","-2","0","0","0","bed","furniture","2","0","","good","[3]"
"html-keyboard-response","164","727721","0.0-9.0-2.0-0.46","3816","2","11","Female","approach_avoid_spark_v1","""event"",""trial"",""time""
""fullscreenenter"",""1"",""5357""
","
","
","""event"",""trial"",""time""
""fullscreenenter"",""1"",""5357""
","
","","","","","","null","<div style=""font-size:60px;"">+</div>","null","","fixation","","","","","","","","","","",""
"aa-learning-trial","165","730741","0.0-9.0-2.0-1.46","3816","2","11","Female","approach_avoid_spark_v1","""event"",""trial"",""time""
""fullscreenenter"",""1"",""5357""
","
","
","""event"",""trial"",""time""
""fullscreenenter"",""1"",""5357""
","
","","","","","","686.7999999523163","images/bed8.png","","","learning","8","8","1","1","bed","furniture","2","0","","good","[3]"
"html-keyboard-response","166","731245","0.0-9.0-2.0-0.47","3816","2","11","Female","approach_avoid_spark_v1","""event"",""trial"",""time""
""fullscreenenter"",""1"",""5357""
","
","
","""event"",""trial"",""time""
""fullscreenenter"",""1"",""5357""
","
","","","","","","null","<div style=""font-size:60px;"">+</div>","null","","fixation","","","","","","","","","","",""
"aa-learning-trial","167","734256","0.0-9.0-2.0-1.47","3816","2","11","Female","approach_avoid_spark_v1","""event"",""trial"",""time""
""fullscreenenter"",""1"",""5357""
","
","
","""event"",""trial"",""time""
""fullscreenenter"",""1"",""5357""
","
","","","","","","709.4000000357628","images/table6.png","","","learning","-1","0","0","0","table","furniture","2","0","","bad","[-3]"
"html-keyboard-response","168","734769","0.0-9.0-2.0-0.48","3816","2","11","Female","approach_avoid_spark_v1","""event"",""trial"",""time""
""fullscreenenter"",""1"",""5357""
","
","
","""event"",""trial"",""time""
""fullscreenenter"",""1"",""5357""
","
","","","","","","null","<div style=""font-size:60px;"">+</div>","null","","fixation","","","","","","","","","","",""
"aa-learning-trial","169","737773","0.0-9.0-2.0-1.48","3816","2","11","Female","approach_avoid_spark_v1","""event"",""trial"",""time""
""fullscreenenter"",""1"",""5357""
","
","
","""event"",""trial"",""time""
""fullscreenenter"",""1"",""5357""
","
","","","","","","745.8999999761581","images/table7.png","","","learning","-8","0","0","0","table","furniture","2","0","","bad","[-3]"
"html-keyboard-response","170","738285","0.0-9.0-2.0-0.49","3816","2","11","Female","approach_avoid_spark_v1","""event"",""trial"",""time""
""fullscreenenter"",""1"",""5357""
","
","
","""event"",""trial"",""time""
""fullscreenenter"",""1"",""5357""
","
","","","","","","null","<div style=""font-size:60px;"">+</div>","null","","fixation","","","","","","","","","","",""
"aa-learning-trial","171","741297","0.0-9.0-2.0-1.49","3816","2","11","Female","approach_avoid_spark_v1","""event"",""trial"",""time""
""fullscreenenter"",""1"",""5357""
","
","
","""event"",""trial"",""time""
""fullscreenenter"",""1"",""5357""
","
","","","","","","885.1000000238419","images/bed2.png","","","learning","-6","0","0","0","bed","furniture","2","0","","good","[3]"
"html-keyboard-response","172","741810","0.0-9.0-2.0-0.50","3816","2","11","Female","approach_avoid_spark_v1","""event"",""trial"",""time""
""fullscreenenter"",""1"",""5357""
","
","
","""event"",""trial"",""time""
""fullscreenenter"",""1"",""5357""
","
","","","","","","null","<div style=""font-size:60px;"">+</div>","null","","fixation","","","","","","","","","","",""
"aa-learning-trial","173","744823","0.0-9.0-2.0-1.50","3816","2","11","Female","approach_avoid_spark_v1","""event"",""trial"",""time""
""fullscreenenter"",""1"",""5357""
","
","
","""event"",""trial"",""time""
""fullscreenenter"",""1"",""5357""
","
","","","","","","744.5999999642372","images/table1.png","","","learning","4","0","0","0","table","furniture","2","0","","bad","[-3]"
"html-button-response","174","747256","0.0-9.0-3.0","3816","2","11","Female","approach_avoid_spark_v1","""event"",""trial"",""time""
""fullscreenenter"",""1"",""5357""
","
","
","""event"",""trial"",""time""
""fullscreenenter"",""1"",""5357""
","
","","","","","","2430.600000023842","<p> You have completed the round! <p> In this round, you earned 116 points! </p>","0","","break","","","","","","","","","","",""
"html-button-response","175","748193","0.0-10.0","3816","2","11","Female","approach_avoid_spark_v1","""event"",""trial"",""time""
""fullscreenenter"",""1"",""5357""
","
","
","""event"",""trial"",""time""
""fullscreenenter"",""1"",""5357""
","
","","","","","","935.5","<p> Now it's time to play another round. </p>","0","","transition_screen","","","","","","","","","","",""
"preload","176","748335","0.0-11.0-0.0","3816","2","11","Female","approach_avoid_spark_v1","""event"",""trial"",""time""
""fullscreenenter"",""1"",""5357""
","
","
","""event"",""trial"",""time""
""fullscreenenter"",""1"",""5357""
","
","true","false","[]","[]","[]","","","","","","","","","","","","","","","",""
"learning-instructions","177","757210","0.0-11.0-1.0-0.0","3816","2","11","Female","approach_avoid_spark_v1","""event"",""trial"",""time""
""fullscreenenter"",""1"",""5357""
","
","
","""event"",""trial"",""time""
""fullscreenenter"",""1"",""5357""
","
","","","","","","3559.5","<p> Your goal in this round is to eat tasty fruit. </p></div>","","0","instructions","","","","","","","","","","",""
"learning-instructions","178","775386","0.0-11.0-1.0-0.1","3816","2","11","Female","approach_avoid_spark_v1","""event"",""trial"",""time""
""fullscreenenter"",""1"",""5357""
","
","
","""event"",""trial"",""time""
""fullscreenenter"",""1"",""5357""
","
","","","","","","6035.299999952316","<p> Some of the fruits you will see are tasty. Others are rotten on the inside.  </p><p> On each turn, you will see a fruit.   </p><p> You need to decide whether to eat it or not.  </p>","","0","instructions","","","","","","","","","","",""
"learning-instructions","179","799702","0.0-11.0-1.0-0.2","3816","2","11","Female","approach_avoid_spark_v1","""event"",""trial"",""time""
""fullscreenenter"",""1"",""5357""
","
","
","""event"",""trial"",""time""
""fullscreenenter"",""1"",""5357""
","
","","","","","","16790.80000001192","<p> You can eat the fruit by pressing 1 and choose not to eat it by pressing 0. </p><br><div class=""choice-instructions-grid""> <div class=""choice-option""><img src=""images/approach.png"" class=""choice-option-img"" stage=""instructions"" position=""0"" ><div class=""choice-option-text""> Press ""1."" </div></div><div class=""choice-option""><img src=""images/avoid.png"" class=""choice-option-img"" stage=""instructions"" position=""1"" ><div class=""choice-option-text""> Press ""0."" </div></div>","","0","instructions","","","","","","","","","","",""
"learning-instructions","180","809448","0.0-11.0-1.0-0.3","3816","2","11","Female","approach_avoid_spark_v1","""event"",""trial"",""time""
""fullscreenenter"",""1"",""5357""
","
","
","""event"",""trial"",""time""
""fullscreenenter"",""1"",""5357""
","
","","","","","","1457.2999999523163","<p> If you eat the fruit and it was tasty, you will win points! </p><p> But if you eat the fruit and it was rotten, you will lose points. </p>","","0","instructions","","","","","","","","","","",""
"learning-instructions","181","825178","0.0-11.0-1.0-0.4","3816","2","11","Female","approach_avoid_spark_v1","""event"",""trial"",""time""
""fullscreenenter"",""1"",""5357""
","
","
","""event"",""trial"",""time""
""fullscreenenter"",""1"",""5357""
","
","","","","","","2676.400000035763","<p> You will earn points based on how tasty or rotten the fruit was. </p><p> If it was tasty, you will WIN anywhere from 1 - 9 points, </p><p> but if it was rotten, you will LOSE anywhere from 1 - 9 points. </p>","","0","instructions","","","","","","","","","","",""
"learning-instructions","182","833419","0.0-11.0-1.0-0.5","3816","2","11","Female","approach_avoid_spark_v1","""event"",""trial"",""time""
""fullscreenenter"",""1"",""5357""
","
","
","""event"",""trial"",""time""
""fullscreenenter"",""1"",""5357""
","
","","","","","","1567.3999999761581","<p> You will see how many points you won or lost in the center of the screen. </p><p> Here is what you would see if you earned 5 points: </p><p style=""color:green;font-size:50px;font-weight:bolder"">5</p>","","0","instructions","","","","","","","","","","",""
"learning-instructions","183","836644","0.0-11.0-1.0-0.6","3816","2","11","Female","approach_avoid_spark_v1","""event"",""trial"",""time""
""fullscreenenter"",""1"",""5357""
","
","
","""event"",""trial"",""time""
""fullscreenenter"",""1"",""5357""
","
","","","","","","372.30000001192093","<p> And here is what you would see if you lost 3 points: </p><p style=""color:red;font-size:50px;font-weight:bolder"">-3</p>","","0","instructions","","","","","","","","","","",""
"learning-instructions","184","859161","0.0-11.0-1.0-0.7","3816","2","11","Female","approach_avoid_spark_v1","""event"",""trial"",""time""
""fullscreenenter"",""1"",""5357""
","
","
","""event"",""trial"",""time""
""fullscreenenter"",""1"",""5357""
","
","","","","","","5130.199999988079","<p> Some fruit is very tasty or very rotten. </p><p> These fruits will make you win or lose LOTS of points. </p><p> Other fruits are only kind of tasty or kind of rotten. </p><p> These fruits will make you win or lose small amounts of points. </p>","","0","instructions","","","","","","","","","","",""
"learning-instructions","185","877292","0.0-11.0-1.0-0.8","3816","2","11","Female","approach_avoid_spark_v1","""event"",""trial"",""time""
""fullscreenenter"",""1"",""5357""
","
","
","""event"",""trial"",""time""
""fullscreenenter"",""1"",""5357""
","
","","","","","","4870.600000023842","<p> If you choose to not eat the fruit, you will not win or lose any points. </p><p>  However, in the center of the screen, you will see the number of points you WOULD HAVE earned if you had eaten the fruit. </p>","","0","instructions","","","","","","","","","","",""
"learning-instructions","186","896779","0.0-11.0-1.0-0.9","3816","2","11","Female","approach_avoid_spark_v1","""event"",""trial"",""time""
""fullscreenenter"",""1"",""5357""
","
","
","""event"",""trial"",""time""
""fullscreenenter"",""1"",""5357""
","
","","","","","","6857.800000011921","<p> Here is what you might see if you did not eat the fruit but the fruit was tasty: </p><p style=""color:grey; font-size:50px; display: inline-block; border-spacing: 15px; border-width:3px; border-style:solid; border-color:red"">  &nbsp; 6 &nbsp; </p><p> Remember, in this case, you would not win or lose ANY points because you did not eat the fruit.  </p>","","0","instructions","","","","","","","","","","",""
"learning-instructions","187","929174","0.0-11.0-1.0-0.10","3816","2","11","Female","approach_avoid_spark_v1","""event"",""trial"",""time""
""fullscreenenter"",""1"",""5357""
","
","
","""event"",""trial"",""time""
""fullscreenenter"",""1"",""5357""
","
","","","","","","18882.700000047684","<p> Try to make the best choice for each fruit because </p><p> at the end of the game, you will earn bonus money based on how many points you earned. </p>","","0","instructions","","","","","","","","","","",""
"learning-instructions","188","939286","0.0-11.0-1.0-0.11","3816","2","11","Female","approach_avoid_spark_v1","""event"",""trial"",""time""
""fullscreenenter"",""1"",""5357""
","
","
","""event"",""trial"",""time""
""fullscreenenter"",""1"",""5357""
","
","","","","","","1904.4000000357628","<p> You will have 3 seconds to make each choice. Try to respond before time runs out! </p><p> You will lose 5 points each time you do not make a response. </p>","","0","instructions","","","","","","","","","","",""
"html-keyboard-response","189","939924","0.0-11.0-2.0-0.0","3816","2","11","Female","approach_avoid_spark_v1","""event"",""trial"",""time""
""fullscreenenter"",""1"",""5357""
","
","
","""event"",""trial"",""time""
""fullscreenenter"",""1"",""5357""
","
","","","","","","null","<div style=""font-size:60px;"">+</div>","null","","fixation","","","","","","","","","","",""
"aa-learning-trial","190","942939","0.0-11.0-2.0-1.0","3816","2","11","Female","approach_avoid_spark_v1","""event"",""trial"",""time""
""fullscreenenter"",""1"",""5357""
","
","
","""event"",""trial"",""time""
""fullscreenenter"",""1"",""5357""
","
","","","","","","1952.1000000238419","images/straw2.png","","","learning","1","1","1","1","straw","fruit","1","1","","neutral","0"
"html-keyboard-response","191","943449","0.0-11.0-2.0-0.1","3816","2","11","Female","approach_avoid_spark_v1","""event"",""trial"",""time""
""fullscreenenter"",""1"",""5357""
","
","
","""event"",""trial"",""time""
""fullscreenenter"",""1"",""5357""
","
","","","","","","null","<div style=""font-size:60px;"">+</div>","null","","fixation","","","","","","","","","","",""
"aa-learning-trial","192","946469","0.0-11.0-2.0-1.1","3816","2","11","Female","approach_avoid_spark_v1","""event"",""trial"",""time""
""fullscreenenter"",""1"",""5357""
","
","
","""event"",""trial"",""time""
""fullscreenenter"",""1"",""5357""
","
","","","","","","615.8000000119209","images/straw3.png","","","learning","1","1","1","1","straw","fruit","1","1","","neutral","0"
"html-keyboard-response","193","946987","0.0-11.0-2.0-0.2","3816","2","11","Female","approach_avoid_spark_v1","""event"",""trial"",""time""
""fullscreenenter"",""1"",""5357""
","
","
","""event"",""trial"",""time""
""fullscreenenter"",""1"",""5357""
","
","","","","","","null","<div style=""font-size:60px;"">+</div>","null","","fixation","","","","","","","","","","",""
"aa-learning-trial","194","949998","0.0-11.0-2.0-1.2","3816","2","11","Female","approach_avoid_spark_v1","""event"",""trial"",""time""
""fullscreenenter"",""1"",""5357""
","
","
","""event"",""trial"",""time""
""fullscreenenter"",""1"",""5357""
","
","","","","","","469","images/banana2.png","","","learning","5","0","0","0","banana","fruit","1","1","","good","[4]"
"html-keyboard-response","195","950505","0.0-11.0-2.0-0.3","3816","2","11","Female","approach_avoid_spark_v1","""event"",""trial"",""time""
""fullscreenenter"",""1"",""5357""
","
","
","""event"",""trial"",""time""
""fullscreenenter"",""1"",""5357""
","
","","","","","","null","<div style=""font-size:60px;"">+</div>","null","","fixation","","","","","","","","","","",""
"aa-learning-trial","196","953531","0.0-11.0-2.0-1.3","3816","2","11","Female","approach_avoid_spark_v1","""event"",""trial"",""time""
""fullscreenenter"",""1"",""5357""
","
","
","""event"",""trial"",""time""
""fullscreenenter"",""1"",""5357""
","
","","","","","","613.3000000119209","images/banana8.png","","","learning","2","2","1","1","banana","fruit","1","1","","good","[4]"
"html-keyboard-response","197","954049","0.0-11.0-2.0-0.4","3816","2","11","Female","approach_avoid_spark_v1","""event"",""trial"",""time""
""fullscreenenter"",""1"",""5357""
","
","
","""event"",""trial"",""time""
""fullscreenenter"",""1"",""5357""
","
","","","","","","null","<div style=""font-size:60px;"">+</div>","null","","fixation","","","","","","","","","","",""
"aa-learning-trial","198","957063","0.0-11.0-2.0-1.4","3816","2","11","Female","approach_avoid_spark_v1","""event"",""trial"",""time""
""fullscreenenter"",""1"",""5357""
","
","
","""event"",""trial"",""time""
""fullscreenenter"",""1"",""5357""
","
","","","","","","542.2000000476837","images/apple1.png","","","learning","-5","0","0","0","apple","fruit","1","1","","bad","[-5]"
"html-keyboard-response","199","957571","0.0-11.0-2.0-0.5","3816","2","11","Female","approach_avoid_spark_v1","""event"",""trial"",""time""
""fullscreenenter"",""1"",""5357""
","
","
","""event"",""trial"",""time""
""fullscreenenter"",""1"",""5357""
","
","","","","","","null","<div style=""font-size:60px;"">+</div>","null","","fixation","","","","","","","","","","",""
"aa-learning-trial","200","960590","0.0-11.0-2.0-1.5","3816","2","11","Female","approach_avoid_spark_v1","""event"",""trial"",""time""
""fullscreenenter"",""1"",""5357""
","
","
","""event"",""trial"",""time""
""fullscreenenter"",""1"",""5357""
","
","","","","","","1333.699999988079","images/apple7.png","","","learning","-7","0","0","0","apple","fruit","1","1","","bad","[-5]"
"html-keyboard-response","201","961099","0.0-11.0-2.0-0.6","3816","2","11","Female","approach_avoid_spark_v1","""event"",""trial"",""time""
""fullscreenenter"",""1"",""5357""
","
","
","""event"",""trial"",""time""
""fullscreenenter"",""1"",""5357""
","
","","","","","","null","<div style=""font-size:60px;"">+</div>","null","","fixation","","","","","","","","","","",""
"aa-learning-trial","202","964128","0.0-11.0-2.0-1.6","3816","2","11","Female","approach_avoid_spark_v1","""event"",""trial"",""time""
""fullscreenenter"",""1"",""5357""
","
","
","""event"",""trial"",""time""
""fullscreenenter"",""1"",""5357""
","
","","","","","","609.5","images/banana6.png","","","learning","6","6","1","1","banana","fruit","1","1","","good","[4]"
"html-keyboard-response","203","964642","0.0-11.0-2.0-0.7","3816","2","11","Female","approach_avoid_spark_v1","""event"",""trial"",""time""
""fullscreenenter"",""1"",""5357""
","
","
","""event"",""trial"",""time""
""fullscreenenter"",""1"",""5357""
","
","","","","","","null","<div style=""font-size:60px;"">+</div>","null","","fixation","","","","","","","","","","",""
"aa-learning-trial","204","967656","0.0-11.0-2.0-1.7","3816","2","11","Female","approach_avoid_spark_v1","""event"",""trial"",""time""
""fullscreenenter"",""1"",""5357""
","
","
","""event"",""trial"",""time""
""fullscreenenter"",""1"",""5357""
","
","","","","","","612.5999999642372","images/apple3.png","","","learning","-5","0","0","0","apple","fruit","1","1","","bad","[-5]"
"html-keyboard-response","205","968172","0.0-11.0-2.0-0.8","3816","2","11","Female","approach_avoid_spark_v1","""event"",""trial"",""time""
""fullscreenenter"",""1"",""5357""
","
","
","""event"",""trial"",""time""
""fullscreenenter"",""1"",""5357""
","
","","","","","","null","<div style=""font-size:60px;"">+</div>","null","","fixation","","","","","","","","","","",""
"aa-learning-trial","206","971192","0.0-11.0-2.0-1.8","3816","2","11","Female","approach_avoid_spark_v1","""event"",""trial"",""time""
""fullscreenenter"",""1"",""5357""
","
","
","""event"",""trial"",""time""
""fullscreenenter"",""1"",""5357""
","
","","","","","","586.6000000238419","images/banana8.png","","","learning","5","5","1","1","banana","fruit","1","1","","good","[4]"
"html-keyboard-response","207","971695","0.0-11.0-2.0-0.9","3816","2","11","Female","approach_avoid_spark_v1","""event"",""trial"",""time""
""fullscreenenter"",""1"",""5357""
","
","
","""event"",""trial"",""time""
""fullscreenenter"",""1"",""5357""
","
","","","","","","null","<div style=""font-size:60px;"">+</div>","null","","fixation","","","","","","","","","","",""
"aa-learning-trial","208","974710","0.0-11.0-2.0-1.9","3816","2","11","Female","approach_avoid_spark_v1","""event"",""trial"",""time""
""fullscreenenter"",""1"",""5357""
","
","
","""event"",""trial"",""time""
""fullscreenenter"",""1"",""5357""
","
","","","","","","725.5","images/apple7.png","","","learning","-5","0","0","0","apple","fruit","1","1","","bad","[-5]"
"html-keyboard-response","209","975225","0.0-11.0-2.0-0.10","3816","2","11","Female","approach_avoid_spark_v1","""event"",""trial"",""time""
""fullscreenenter"",""1"",""5357""
","
","
","""event"",""trial"",""time""
""fullscreenenter"",""1"",""5357""
","
","","","","","","null","<div style=""font-size:60px;"">+</div>","null","","fixation","","","","","","","","","","",""
"aa-learning-trial","210","978243","0.0-11.0-2.0-1.10","3816","2","11","Female","approach_avoid_spark_v1","""event"",""trial"",""time""
""fullscreenenter"",""1"",""5357""
","
","
","""event"",""trial"",""time""
""fullscreenenter"",""1"",""5357""
","
","","","","","","525.5999999642372","images/straw7.png","","","learning","1","1","1","1","straw","fruit","1","1","","neutral","0"
"html-keyboard-response","211","978757","0.0-11.0-2.0-0.11","3816","2","11","Female","approach_avoid_spark_v1","""event"",""trial"",""time""
""fullscreenenter"",""1"",""5357""
","
","
","""event"",""trial"",""time""
""fullscreenenter"",""1"",""5357""
","
","","","","","","null","<div style=""font-size:60px;"">+</div>","null","","fixation","","","","","","","","","","",""
"aa-learning-trial","212","981780","0.0-11.0-2.0-1.11","3816","2","11","Female","approach_avoid_spark_v1","""event"",""trial"",""time""
""fullscreenenter"",""1"",""5357""
","
","
","""event"",""trial"",""time""
""fullscreenenter"",""1"",""5357""
","
","","","","","","630.0999999642372","images/straw7.png","","","learning","1","1","1","1","straw","fruit","1","1","","neutral","0"
"html-keyboard-response","213","982286","0.0-11.0-2.0-0.12","3816","2","11","Female","approach_avoid_spark_v1","""event"",""trial"",""time""
""fullscreenenter"",""1"",""5357""
","
","
","""event"",""trial"",""time""
""fullscreenenter"",""1"",""5357""
","
","","","","","","null","<div style=""font-size:60px;"">+</div>","null","","fixation","","","","","","","","","","",""
"aa-learning-trial","214","985297","0.0-11.0-2.0-1.12","3816","2","11","Female","approach_avoid_spark_v1","""event"",""trial"",""time""
""fullscreenenter"",""1"",""5357""
","
","
","""event"",""trial"",""time""
""fullscreenenter"",""1"",""5357""
","
","","","","","","620.8000000119209","images/apple3.png","","","learning","-5","0","0","0","apple","fruit","1","1","","bad","[-5]"
"html-keyboard-response","215","985807","0.0-11.0-2.0-0.13","3816","2","11","Female","approach_avoid_spark_v1","""event"",""trial"",""time""
""fullscreenenter"",""1"",""5357""
","
","
","""event"",""trial"",""time""
""fullscreenenter"",""1"",""5357""
","
","","","","","","null","<div style=""font-size:60px;"">+</div>","null","","fixation","","","","","","","","","","",""
"aa-learning-trial","216","988818","0.0-11.0-2.0-1.13","3816","2","11","Female","approach_avoid_spark_v1","""event"",""trial"",""time""
""fullscreenenter"",""1"",""5357""
","
","
","""event"",""trial"",""time""
""fullscreenenter"",""1"",""5357""
","
","","","","","","561.1000000238419","images/straw2.png","","","learning","1","1","1","1","straw","fruit","1","1","","neutral","0"
"html-keyboard-response","217","989333","0.0-11.0-2.0-0.14","3816","2","11","Female","approach_avoid_spark_v1","""event"",""trial"",""time""
""fullscreenenter"",""1"",""5357""
","
","
","""event"",""trial"",""time""
""fullscreenenter"",""1"",""5357""
","
","","","","","","null","<div style=""font-size:60px;"">+</div>","null","","fixation","","","","","","","","","","",""
"aa-learning-trial","218","992345","0.0-11.0-2.0-1.14","3816","2","11","Female","approach_avoid_spark_v1","""event"",""trial"",""time""
""fullscreenenter"",""1"",""5357""
","
","
","""event"",""trial"",""time""
""fullscreenenter"",""1"",""5357""
","
","","","","","","660.1000000238419","images/banana6.png","","","learning","3","3","1","1","banana","fruit","1","1","","good","[4]"
"html-keyboard-response","219","992854","0.0-11.0-2.0-0.15","3816","2","11","Female","approach_avoid_spark_v1","""event"",""trial"",""time""
""fullscreenenter"",""1"",""5357""
","
","
","""event"",""trial"",""time""
""fullscreenenter"",""1"",""5357""
","
","","","","","","null","<div style=""font-size:60px;"">+</div>","null","","fixation","","","","","","","","","","",""
"aa-learning-trial","220","995864","0.0-11.0-2.0-1.15","3816","2","11","Female","approach_avoid_spark_v1","""event"",""trial"",""time""
""fullscreenenter"",""1"",""5357""
","
","
","""event"",""trial"",""time""
""fullscreenenter"",""1"",""5357""
","
","","","","","","582.8999999761581","images/banana2.png","","","learning","1","1","1","1","banana","fruit","1","1","","good","[4]"
"html-keyboard-response","221","996367","0.0-11.0-2.0-0.16","3816","2","11","Female","approach_avoid_spark_v1","""event"",""trial"",""time""
""fullscreenenter"",""1"",""5357""
","
","
","""event"",""trial"",""time""
""fullscreenenter"",""1"",""5357""
","
","","","","","","null","<div style=""font-size:60px;"">+</div>","null","","fixation","","","","","","","","","","",""
"aa-learning-trial","222","999378","0.0-11.0-2.0-1.16","3816","2","11","Female","approach_avoid_spark_v1","""event"",""trial"",""time""
""fullscreenenter"",""1"",""5357""
","
","
","""event"",""trial"",""time""
""fullscreenenter"",""1"",""5357""
","
","","","","","","610.2000000476837","images/banana8.png","","","learning","1","1","1","1","banana","fruit","1","1","","good","[4]"
"html-keyboard-response","223","999886","0.0-11.0-2.0-0.17","3816","2","11","Female","approach_avoid_spark_v1","""event"",""trial"",""time""
""fullscreenenter"",""1"",""5357""
","
","
","""event"",""trial"",""time""
""fullscreenenter"",""1"",""5357""
","
","","","","","","null","<div style=""font-size:60px;"">+</div>","null","","fixation","","","","","","","","","","",""
"aa-learning-trial","224","1002897","0.0-11.0-2.0-1.17","3816","2","11","Female","approach_avoid_spark_v1","""event"",""trial"",""time""
""fullscreenenter"",""1"",""5357""
","
","
","""event"",""trial"",""time""
""fullscreenenter"",""1"",""5357""
","
","","","","","","588.5999999642372","images/banana6.png","","","learning","3","3","1","1","banana","fruit","1","1","","good","[4]"
"html-keyboard-response","225","1003405","0.0-11.0-2.0-0.18","3816","2","11","Female","approach_avoid_spark_v1","""event"",""trial"",""time""
""fullscreenenter"",""1"",""5357""
","
","
","""event"",""trial"",""time""
""fullscreenenter"",""1"",""5357""
","
","","","","","","null","<div style=""font-size:60px;"">+</div>","null","","fixation","","","","","","","","","","",""
"aa-learning-trial","226","1006415","0.0-11.0-2.0-1.18","3816","2","11","Female","approach_avoid_spark_v1","""event"",""trial"",""time""
""fullscreenenter"",""1"",""5357""
","
","
","""event"",""trial"",""time""
""fullscreenenter"",""1"",""5357""
","
","","","","","","540","images/straw7.png","","","learning","1","1","1","1","straw","fruit","1","1","","neutral","0"
"html-keyboard-response","227","1006930","0.0-11.0-2.0-0.19","3816","2","11","Female","approach_avoid_spark_v1","""event"",""trial"",""time""
""fullscreenenter"",""1"",""5357""
","
","
","""event"",""trial"",""time""
""fullscreenenter"",""1"",""5357""
","
","","","","","","null","<div style=""font-size:60px;"">+</div>","null","","fixation","","","","","","","","","","",""
"aa-learning-trial","228","1009947","0.0-11.0-2.0-1.19","3816","2","11","Female","approach_avoid_spark_v1","""event"",""trial"",""time""
""fullscreenenter"",""1"",""5357""
","
","
","""event"",""trial"",""time""
""fullscreenenter"",""1"",""5357""
","
","","","","","","554","images/banana6.png","","","learning","3","3","1","1","banana","fruit","1","1","","good","[4]"
"html-keyboard-response","229","1010455","0.0-11.0-2.0-0.20","3816","2","11","Female","approach_avoid_spark_v1","""event"",""trial"",""time""
""fullscreenenter"",""1"",""5357""
","
","
","""event"",""trial"",""time""
""fullscreenenter"",""1"",""5357""
","
","","","","","","null","<div style=""font-size:60px;"">+</div>","null","","fixation","","","","","","","","","","",""
"aa-learning-trial","230","1013461","0.0-11.0-2.0-1.20","3816","2","11","Female","approach_avoid_spark_v1","""event"",""trial"",""time""
""fullscreenenter"",""1"",""5357""
","
","
","""event"",""trial"",""time""
""fullscreenenter"",""1"",""5357""
","
","","","","","","589.6999999880791","images/straw3.png","","","learning","-1","-1","1","1","straw","fruit","1","1","","neutral","0"
"html-keyboard-response","231","1013969","0.0-11.0-2.0-0.21","3816","2","11","Female","approach_avoid_spark_v1","""event"",""trial"",""time""
""fullscreenenter"",""1"",""5357""
","
","
","""event"",""trial"",""time""
""fullscreenenter"",""1"",""5357""
","
","","","","","","null","<div style=""font-size:60px;"">+</div>","null","","fixation","","","","","","","","","","",""
"aa-learning-trial","232","1016987","0.0-11.0-2.0-1.21","3816","2","11","Female","approach_avoid_spark_v1","""event"",""trial"",""time""
""fullscreenenter"",""1"",""5357""
","
","
","""event"",""trial"",""time""
""fullscreenenter"",""1"",""5357""
","
","","","","","","762.7000000476837","images/apple2.png","","","learning","-4","0","0","0","apple","fruit","1","1","","bad","[-5]"
"html-keyboard-response","233","1017498","0.0-11.0-2.0-0.22","3816","2","11","Female","approach_avoid_spark_v1","""event"",""trial"",""time""
""fullscreenenter"",""1"",""5357""
","
","
","""event"",""trial"",""time""
""fullscreenenter"",""1"",""5357""
","
","","","","","","null","<div style=""font-size:60px;"">+</div>","null","","fixation","","","","","","","","","","",""
"aa-learning-trial","234","1020517","0.0-11.0-2.0-1.22","3816","2","11","Female","approach_avoid_spark_v1","""event"",""trial"",""time""
""fullscreenenter"",""1"",""5357""
","
","
","""event"",""trial"",""time""
""fullscreenenter"",""1"",""5357""
","
","","","","","","725.1999999880791","images/straw2.png","","","learning","-2","-2","1","1","straw","fruit","1","1","","neutral","0"
"html-keyboard-response","235","1021024","0.0-11.0-2.0-0.23","3816","2","11","Female","approach_avoid_spark_v1","""event"",""trial"",""time""
""fullscreenenter"",""1"",""5357""
","
","
","""event"",""trial"",""time""
""fullscreenenter"",""1"",""5357""
","
","","","","","","null","<div style=""font-size:60px;"">+</div>","null","","fixation","","","","","","","","","","",""
"aa-learning-trial","236","1024030","0.0-11.0-2.0-1.23","3816","2","11","Female","approach_avoid_spark_v1","""event"",""trial"",""time""
""fullscreenenter"",""1"",""5357""
","
","
","""event"",""trial"",""time""
""fullscreenenter"",""1"",""5357""
","
