"trial_type","trial_index","time_elapsed","internal_node_id","subject_id","task_condition","age","gender","task_version","interactions","blur_events","focus_events","fullscreenenter_events","fullscreenexit_events","success","timeout","failed_images","failed_audio","failed_video","rt","stimulus","response","button_pressed","task_part","approach_reward","points","key_press","option_selected","stim_cat","task_block","block_condition","block_number","correct","cat_type","mean_cat_reward"
"pavlovia","0","5","0.0-0.0","6292","1","21","Female","approach_avoid_spark_v1","""event"",""trial"",""time""
""fullscreenenter"",""1"",""3293""
","
","
","""event"",""trial"",""time""
""fullscreenenter"",""1"",""3293""
","
","","","","","","","","","","","","","","","","","","","","",""
"fullscreen","1","4261","0.0-1.0","6292","1","21","Female","approach_avoid_spark_v1","""event"",""trial"",""time""
""fullscreenenter"",""1"",""3293""
","
","
","""event"",""trial"",""time""
""fullscreenenter"",""1"",""3293""
","
","true","","","","","","","","","","","","","","","","","","","",""
"preload","2","17179","0.0-2.0","6292","1","21","Female","approach_avoid_spark_v1","""event"",""trial"",""time""
""fullscreenenter"",""1"",""3293""
","
","
","""event"",""trial"",""time""
""fullscreenenter"",""1"",""3293""
","
","true","false","[]","[]","[]","","","","","","","","","","","","","","","",""
"audio-keyboard-response","3","19765","0.0-3.0","6292","1","21","Female","approach_avoid_spark_v1","""event"",""trial"",""time""
""fullscreenenter"",""1"",""3293""
","
","
","""event"",""trial"",""time""
""fullscreenenter"",""1"",""3293""
","
","","","","","","2580.31746031746","audio/beep_loop.wav","audiovolumedown","","","","","","","","","","","","",""
"audio-button-response","4","22181","0.0-4.0","6292","1","21","Female","approach_avoid_spark_v1","""event"",""trial"",""time""
""fullscreenenter"",""1"",""3293""
","
","
","""event"",""trial"",""time""
""fullscreenenter"",""1"",""3293""
","
","","","","","","2421","audio/shark.wav","4","","","","","","","","","","","","",""
"audio-button-response","5","24806","0.0-5.0","6292","1","21","Female","approach_avoid_spark_v1","""event"",""trial"",""time""
""fullscreenenter"",""1"",""3293""
","
","
","""event"",""trial"",""time""
""fullscreenenter"",""1"",""3293""
","
","","","","","","1602","audio/turtle.wav","1","","","","","","","","","","","","",""
"preload","6","32431","0.0-6.0","6292","1","21","Female","approach_avoid_spark_v1","""event"",""trial"",""time""
""fullscreenenter"",""1"",""3293""
","
","
","""event"",""trial"",""time""
""fullscreenenter"",""1"",""3293""
","
","true","false","[]","[]","[]","","","","","","","","","","","","","","","",""
"html-keyboard-response","7","35080","0.0-7.0","6292","1","21","Female","approach_avoid_spark_v1","""event"",""trial"",""time""
""fullscreenenter"",""1"",""3293""
","
","
","""event"",""trial"",""time""
""fullscreenenter"",""1"",""3293""
","
","","","","","","2648.0999999940395","Welcome to the experiment. Press any key to begin and to advance the instructions."," ","","","","","","","","","","","","",""
"learning-instructions","8","43561","0.0-8.0-0.0-0.0","6292","1","21","Female","approach_avoid_spark_v1","""event"",""trial"",""time""
""fullscreenenter"",""1"",""3293""
","
","
","""event"",""trial"",""time""
""fullscreenenter"",""1"",""3293""
","
","","","","","","1521.4000000059605","<p> Welcome! Today you are going to play 6 different rounds of a decision-making game. </p><p> Use the mouse to click next to continue. </p>","","0","instructions","","","","","","","","","","",""
"learning-instructions","9","47319","0.0-8.0-0.0-0.1","6292","1","21","Female","approach_avoid_spark_v1","""event"",""trial"",""time""
""fullscreenenter"",""1"",""3293""
","
","
","""event"",""trial"",""time""
""fullscreenenter"",""1"",""3293""
","
","","","","","","1010","<p> You will start with a practice round to learn the rules. </p>","","0","instructions","","","","","","","","","","",""
"learning-instructions","10","51820","0.0-8.0-0.0-0.2","6292","1","21","Female","approach_avoid_spark_v1","""event"",""trial"",""time""
""fullscreenenter"",""1"",""3293""
","
","
","""event"",""trial"",""time""
""fullscreenenter"",""1"",""3293""
","
","","","","","","1031.5","<p> Your goal in this round is to give out sports equipment to kids. </p></div>","","0","instructions","","","","","","","","","","",""
"learning-instructions","11","60170","0.0-8.0-0.0-0.3","6292","1","21","Female","approach_avoid_spark_v1","""event"",""trial"",""time""
""fullscreenenter"",""1"",""3293""
","
","
","""event"",""trial"",""time""
""fullscreenenter"",""1"",""3293""
","
","","","","","","791.2999999821186","<p> The kids only like some of the equipment.  </p><p> On each turn, you will see a piece of sports equipment.   </p><p> You need to decide whether to give it to the kids or not.  </p>","","0","instructions","","","","","","","","","","",""
"learning-instructions","12","67048","0.0-8.0-0.0-0.4","6292","1","21","Female","approach_avoid_spark_v1","""event"",""trial"",""time""
""fullscreenenter"",""1"",""3293""
","
","
","""event"",""trial"",""time""
""fullscreenenter"",""1"",""3293""
","
","","","","","","2119.0999999940395","<p> You can give them the equipment by pressing 1 and choose not to give it to them by pressing 0. </p><br><div class=""choice-instructions-grid""> <div class=""choice-option""><img src=""images/approach.png"" class=""choice-option-img"" stage=""instructions"" position=""0"" ><div class=""choice-option-text""> Press ""1."" </div></div><div class=""choice-option""><img src=""images/avoid.png"" class=""choice-option-img"" stage=""instructions"" position=""1"" ><div class=""choice-option-text""> Press ""0."" </div></div>","","0","instructions","","","","","","","","","","",""
"learning-instructions","13","75154","0.0-8.0-0.0-0.5","6292","1","21","Female","approach_avoid_spark_v1","""event"",""trial"",""time""
""fullscreenenter"",""1"",""3293""
","
","
","""event"",""trial"",""time""
""fullscreenenter"",""1"",""3293""
","
","","","","","","715.8999999761581","<p> If you give them a piece of equipment they like, they will be happy! </p><p> But if you give them a piece of equipment they do not like, they will be sad. </p>","","0","instructions","","","","","","","","","","",""
"learning-instructions","14","86602","0.0-8.0-0.0-0.6","6292","1","21","Female","approach_avoid_spark_v1","""event"",""trial"",""time""
""fullscreenenter"",""1"",""3293""
","
","
","""event"",""trial"",""time""
""fullscreenenter"",""1"",""3293""
","
","","","","","","923.6999999880791","<p> You will earn points based on how you make kids feel. </p><p> If you make them happy, you will WIN anywhere from 1 - 9 points, </p><p> but if you make them sad, you will LOSE anywhere from 1 - 9 points. </p>","","0","instructions","","","","","","","","","","",""
"learning-instructions","15","96584","0.0-8.0-0.0-0.7","6292","1","21","Female","approach_avoid_spark_v1","""event"",""trial"",""time""
""fullscreenenter"",""1"",""3293""
","
","
","""event"",""trial"",""time""
""fullscreenenter"",""1"",""3293""
","
","","","","","","435.19999998807907","<p> You will see how many points you won or lost in the center of the screen. </p><p> Here is what you would see if you won 6 points: </p><p style=""color:green;font-size:50px;font-weight:bolder"">6</p><p style=""color:green"">The text is GREEN because you WON points.</p>","","0","instructions","","","","","","","","","","",""
"learning-instructions","16","103392","0.0-8.0-0.0-0.8","6292","1","21","Female","approach_avoid_spark_v1","""event"",""trial"",""time""
""fullscreenenter"",""1"",""3293""
","
","
","""event"",""trial"",""time""
""fullscreenenter"",""1"",""3293""
","
","","","","","","1303","<p> And here is what you would see if you lost 4 points: </p><p style=""color:red;font-size:50px;font-weight:bolder"">-4</p><p style=""color:red"">The text is RED because you LOST points. </p>","","0","instructions","","","","","","","","","","",""
"learning-instructions","17","120612","0.0-8.0-0.0-0.9","6292","1","21","Female","approach_avoid_spark_v1","""event"",""trial"",""time""
""fullscreenenter"",""1"",""3293""
","
","
","""event"",""trial"",""time""
""fullscreenenter"",""1"",""3293""
","
","","","","","","2497.5","<p> Some of the equipment will make the kids VERY happy or sad. </p><p> These pieces of equipment will make you win or lose LOTS of points. </p><p> Other pieces of equipment will only make the kids a little happy or sad. </p><p> These pieces of equipment will make you win or lose small amounts of points. </p>","","0","instructions","","","","","","","","","","",""
"learning-instructions","18","133567","0.0-8.0-0.0-0.10","6292","1","21","Female","approach_avoid_spark_v1","""event"",""trial"",""time""
""fullscreenenter"",""1"",""3293""
","
","
","""event"",""trial"",""time""
""fullscreenenter"",""1"",""3293""
","
","","","","","","2333.2000000178814","<p> If you choose not to give them the equipment, you will not win or lose any points. </p><p>  However, in the center of the screen, you will see the number of points you WOULD HAVE won or lost if you had given them the equipment. </p>","","0","instructions","","","","","","","","","","",""
"learning-instructions","19","156544","0.0-8.0-0.0-0.11","6292","1","21","Female","approach_avoid_spark_v1","""event"",""trial"",""time""
""fullscreenenter"",""1"",""3293""
","
","
","""event"",""trial"",""time""
""fullscreenenter"",""1"",""3293""
","
","","","","","","1450","<p> Here is what you might see if you did not give the equipment to the kids but it would have made them happy: </p><p style=""color:grey; font-size:50px; display: inline-block; border-spacing: 15px; border-width:3px; border-style:solid; border-color:red"">  &nbsp; 7 &nbsp; </p><p> Remember, in this case, you would not win or lose ANY points because you did not give them the equipment.  </p><p style=""color:grey"">The text is GREY because you earned ZERO points. </p><p style=""color:red"">However, choosing to give the kids the equipment would have made you win points. The box around the text is RED because you chose the worse option. </p>","","0","instructions","","","","","","","","","","",""
"learning-instructions","20","180206","0.0-8.0-0.0-0.12","6292","1","21","Female","approach_avoid_spark_v1","""event"",""trial"",""time""
""fullscreenenter"",""1"",""3293""
","
","
","""event"",""trial"",""time""
""fullscreenenter"",""1"",""3293""
","
","","","","","","2581.300000011921","<p> Here is what you might see if you did not give the equipment to the kids but it would have made them sad: </p><p style=""color:grey;font-size:50px; display: inline-block; border-spacing: 15px; border-width:3px; border-style:solid; border-color:green"">  &nbsp; -8 &nbsp; </p><p> Remember, in this case, you would not win or lose ANY points because you did not give them the equipment.  </p><p style=""color:grey"">The text is GREY because you earned ZERO points. </p><p  style=""color:green""> Choosing to give the kids the equipment would have made you lose points. The box around the text is GREEN because you chose the better option.</p>","","0","instructions","","","","","","","","","","",""
"learning-instructions","21","190074","0.0-8.0-0.0-0.13","6292","1","21","Female","approach_avoid_spark_v1","""event"",""trial"",""time""
""fullscreenenter"",""1"",""3293""
","
","
","""event"",""trial"",""time""
""fullscreenenter"",""1"",""3293""
","
","","","","","","1007","<p> You will have 3 seconds to make each choice. Try to respond before time runs out! </p><p> You will lose 5 points each time you do not make a response. </p>","","0","instructions","","","","","","","","","","",""
"learning-instructions","22","196698","0.0-8.0-0.0-0.14","6292","1","21","Female","approach_avoid_spark_v1","""event"",""trial"",""time""
""fullscreenenter"",""1"",""3293""
","
","
","""event"",""trial"",""time""
""fullscreenenter"",""1"",""3293""
","
","","","","","","1200.800000011921","<p> This is just a practice round, but in the real game, your bonus payment will depend on your total number of points.","","0","instructions","","","","","","","","","","",""
"learning-instructions","23","202956","0.0-8.0-0.0-0.15","6292","1","21","Female","approach_avoid_spark_v1","""event"",""trial"",""time""
""fullscreenenter"",""1"",""3293""
","
","
","""event"",""trial"",""time""
""fullscreenenter"",""1"",""3293""
","
","","","","","","489.40000000596046","<p> Remember, you can give them the equipment by pressing 1 and choose not to give it to them by pressing 0. </p><br><div class=""choice-instructions-grid""> <div class=""choice-option""><img src=""images/approach.png"" class=""choice-option-img"" stage=""instructions"" position=""0"" ><div class=""choice-option-text""> Press ""1."" </div></div><div class=""choice-option""><img src=""images/avoid.png"" class=""choice-option-img"" stage=""instructions"" position=""1"" ><div class=""choice-option-text""> Press ""0."" </div></div>","","0","instructions","","","","","","","","","","",""
"html-button-response","24","204566","0.0-8.0-1.0","6292","1","21","Female","approach_avoid_spark_v1","""event"",""trial"",""time""
""fullscreenenter"",""1"",""3293""
","
","
","""event"",""trial"",""time""
""fullscreenenter"",""1"",""3293""
","
","","","","","","1507.4000000059605","<p> Ready to practice? </p>","0","","","","","","","","","","","","",""
"html-keyboard-response","25","205178","0.0-8.0-2.0-0.0","6292","1","21","Female","approach_avoid_spark_v1","""event"",""trial"",""time""
""fullscreenenter"",""1"",""3293""
","
","
","""event"",""trial"",""time""
""fullscreenenter"",""1"",""3293""
","
","","","","","","null","<div style=""font-size:60px;"">+</div>","null","","fixation","","","","","","","","","","",""
"aa-learning-trial","26","208185","0.0-8.0-2.0-1.0","6292","1","21","Female","approach_avoid_spark_v1","""event"",""trial"",""time""
""fullscreenenter"",""1"",""3293""
","
","
","""event"",""trial"",""time""
""fullscreenenter"",""1"",""3293""
","
","","","","","","1096.5999999940395","images/racket1.png","","","learning","-6","-6","1","1","practice","practice","practice","-1","","",""
"html-keyboard-response","27","208687","0.0-8.0-2.0-0.1","6292","1","21","Female","approach_avoid_spark_v1","""event"",""trial"",""time""
""fullscreenenter"",""1"",""3293""
","
","
","""event"",""trial"",""time""
""fullscreenenter"",""1"",""3293""
","
","","","","","","null","<div style=""font-size:60px;"">+</div>","null","","fixation","","","","","","","","","","",""
"aa-learning-trial","28","211696","0.0-8.0-2.0-1.1","6292","1","21","Female","approach_avoid_spark_v1","""event"",""trial"",""time""
""fullscreenenter"",""1"",""3293""
","
","
","""event"",""trial"",""time""
""fullscreenenter"",""1"",""3293""
","
","","","","","","1098.5","images/racket1.png","","","learning","3","0","0","0","practice","practice","practice","-1","","",""
"html-keyboard-response","29","212205","0.0-8.0-2.0-0.2","6292","1","21","Female","approach_avoid_spark_v1","""event"",""trial"",""time""
""fullscreenenter"",""1"",""3293""
","
","
","""event"",""trial"",""time""
""fullscreenenter"",""1"",""3293""
","
","","","","","","null","<div style=""font-size:60px;"">+</div>","null","","fixation","","","","","","","","","","",""
"aa-learning-trial","30","215215","0.0-8.0-2.0-1.2","6292","1","21","Female","approach_avoid_spark_v1","""event"",""trial"",""time""
""fullscreenenter"",""1"",""3293""
","
","
","""event"",""trial"",""time""
""fullscreenenter"",""1"",""3293""
","
","","","","","","1236.5","images/racket4.png","","","learning","6","6","1","1","practice","practice","practice","-1","","",""
"html-keyboard-response","31","215725","0.0-8.0-2.0-0.3","6292","1","21","Female","approach_avoid_spark_v1","""event"",""trial"",""time""
""fullscreenenter"",""1"",""3293""
","
","
","""event"",""trial"",""time""
""fullscreenenter"",""1"",""3293""
","
","","","","","","null","<div style=""font-size:60px;"">+</div>","null","","fixation","","","","","","","","","","",""
"aa-learning-trial","32","218746","0.0-8.0-2.0-1.3","6292","1","21","Female","approach_avoid_spark_v1","""event"",""trial"",""time""
""fullscreenenter"",""1"",""3293""
","
","
","""event"",""trial"",""time""
""fullscreenenter"",""1"",""3293""
","
","","","","","","930.6999999880791","images/ball2.png","","","learning","-6","-6","1","1","practice","practice","practice","-1","","",""
"html-keyboard-response","33","219256","0.0-8.0-2.0-0.4","6292","1","21","Female","approach_avoid_spark_v1","""event"",""trial"",""time""
""fullscreenenter"",""1"",""3293""
","
","
","""event"",""trial"",""time""
""fullscreenenter"",""1"",""3293""
","
","","","","","","null","<div style=""font-size:60px;"">+</div>","null","","fixation","","","","","","","","","","",""
"aa-learning-trial","34","222266","0.0-8.0-2.0-1.4","6292","1","21","Female","approach_avoid_spark_v1","""event"",""trial"",""time""
""fullscreenenter"",""1"",""3293""
","
","
","""event"",""trial"",""time""
""fullscreenenter"",""1"",""3293""
","
","","","","","","1145.199999988079","images/ball1.png","","","learning","-3","-3","1","1","practice","practice","practice","-1","","",""
"html-keyboard-response","35","222774","0.0-8.0-2.0-0.5","6292","1","21","Female","approach_avoid_spark_v1","""event"",""trial"",""time""
""fullscreenenter"",""1"",""3293""
","
","
","""event"",""trial"",""time""
""fullscreenenter"",""1"",""3293""
","
","","","","","","null","<div style=""font-size:60px;"">+</div>","null","","fixation","","","","","","","","","","",""
"aa-learning-trial","36","225795","0.0-8.0-2.0-1.5","6292","1","21","Female","approach_avoid_spark_v1","""event"",""trial"",""time""
""fullscreenenter"",""1"",""3293""
","
","
","""event"",""trial"",""time""
""fullscreenenter"",""1"",""3293""
","
","","","","","","1271.5999999940395","images/racket2.png","","","learning","4","4","1","1","practice","practice","practice","-1","","",""
"html-keyboard-response","37","226297","0.0-8.0-2.0-0.6","6292","1","21","Female","approach_avoid_spark_v1","""event"",""trial"",""time""
""fullscreenenter"",""1"",""3293""
","
","
","""event"",""trial"",""time""
""fullscreenenter"",""1"",""3293""
","
","","","","","","null","<div style=""font-size:60px;"">+</div>","null","","fixation","","","","","","","","","","",""
"aa-learning-trial","38","229308","0.0-8.0-2.0-1.6","6292","1","21","Female","approach_avoid_spark_v1","""event"",""trial"",""time""
""fullscreenenter"",""1"",""3293""
","
","
","""event"",""trial"",""time""
""fullscreenenter"",""1"",""3293""
","
","","","","","","1252.699999988079","images/racket4.png","","","learning","-1","-1","1","1","practice","practice","practice","-1","","",""
"html-keyboard-response","39","229825","0.0-8.0-2.0-0.7","6292","1","21","Female","approach_avoid_spark_v1","""event"",""trial"",""time""
""fullscreenenter"",""1"",""3293""
","
","
","""event"",""trial"",""time""
""fullscreenenter"",""1"",""3293""
","
","","","","","","null","<div style=""font-size:60px;"">+</div>","null","","fixation","","","","","","","","","","",""
"aa-learning-trial","40","232833","0.0-8.0-2.0-1.7","6292","1","21","Female","approach_avoid_spark_v1","""event"",""trial"",""time""
""fullscreenenter"",""1"",""3293""
","
","
","""event"",""trial"",""time""
""fullscreenenter"",""1"",""3293""
","
","","","","","","1052.5999999940395","images/racket1.png","","","learning","-7","0","0","0","practice","practice","practice","-1","","",""
"html-keyboard-response","41","233337","0.0-8.0-2.0-0.8","6292","1","21","Female","approach_avoid_spark_v1","""event"",""trial"",""time""
""fullscreenenter"",""1"",""3293""
","
","
","""event"",""trial"",""time""
""fullscreenenter"",""1"",""3293""
","
","","","","","","null","<div style=""font-size:60px;"">+</div>","null","","fixation","","","","","","","","","","",""
"aa-learning-trial","42","236344","0.0-8.0-2.0-1.8","6292","1","21","Female","approach_avoid_spark_v1","""event"",""trial"",""time""
""fullscreenenter"",""1"",""3293""
","
","
","""event"",""trial"",""time""
""fullscreenenter"",""1"",""3293""
","
","","","","","","1061.2999999821186","images/racket1.png","","","learning","-2","0","0","0","practice","practice","practice","-1","","",""
"html-keyboard-response","43","236846","0.0-8.0-2.0-0.9","6292","1","21","Female","approach_avoid_spark_v1","""event"",""trial"",""time""
""fullscreenenter"",""1"",""3293""
","
","
","""event"",""trial"",""time""
""fullscreenenter"",""1"",""3293""
","
","","","","","","null","<div style=""font-size:60px;"">+</div>","null","","fixation","","","","","","","","","","",""
"aa-learning-trial","44","239857","0.0-8.0-2.0-1.9","6292","1","21","Female","approach_avoid_spark_v1","""event"",""trial"",""time""
""fullscreenenter"",""1"",""3293""
","
","
","""event"",""trial"",""time""
""fullscreenenter"",""1"",""3293""
","
","","","","","","730","images/racket4.png","","","learning","-9","-9","1","1","practice","practice","practice","-1","","",""
"html-keyboard-response","45","240361","0.0-8.0-2.0-0.10","6292","1","21","Female","approach_avoid_spark_v1","""event"",""trial"",""time""
""fullscreenenter"",""1"",""3293""
","
","
","""event"",""trial"",""time""
""fullscreenenter"",""1"",""3293""
","
","","","","","","null","<div style=""font-size:60px;"">+</div>","null","","fixation","","","","","","","","","","",""
"aa-learning-trial","46","243367","0.0-8.0-2.0-1.10","6292","1","21","Female","approach_avoid_spark_v1","""event"",""trial"",""time""
""fullscreenenter"",""1"",""3293""
","
","
","""event"",""trial"",""time""
""fullscreenenter"",""1"",""3293""
","
","","","","","","887.5","images/ball4.png","","","learning","-5","-5","1","1","practice","practice","practice","-1","","",""
"html-keyboard-response","47","243869","0.0-8.0-2.0-0.11","6292","1","21","Female","approach_avoid_spark_v1","""event"",""trial"",""time""
""fullscreenenter"",""1"",""3293""
","
","
","""event"",""trial"",""time""
""fullscreenenter"",""1"",""3293""
","
","","","","","","null","<div style=""font-size:60px;"">+</div>","null","","fixation","","","","","","","","","","",""
"aa-learning-trial","48","246876","0.0-8.0-2.0-1.11","6292","1","21","Female","approach_avoid_spark_v1","""event"",""trial"",""time""
""fullscreenenter"",""1"",""3293""
","
","
","""event"",""trial"",""time""
""fullscreenenter"",""1"",""3293""
","
","","","","","","885.4000000059605","images/ball1.png","","","learning","9","0","0","0","practice","practice","practice","-1","","",""
"html-button-response","49","249424","0.0-8.0-3.0","6292","1","21","Female","approach_avoid_spark_v1","""event"",""trial"",""time""
""fullscreenenter"",""1"",""3293""
","
","
","""event"",""trial"",""time""
""fullscreenenter"",""1"",""3293""
","
","","","","","","2545.199999988079","<p> You earned -20 points in the practice round! </p>","0","","break","","","","","","","","","","",""
"learning-instructions","50","257680","0.0-8.0-4.0-0.0","6292","1","21","Female","approach_avoid_spark_v1","""event"",""trial"",""time""
""fullscreenenter"",""1"",""3293""
","
","
","""event"",""trial"",""time""
""fullscreenenter"",""1"",""3293""
","
","","","","","","1789.7999999821186","<p> It's almost time to start the real game. </p><p> Before you start, we're going to ask you a few questions about how the game works. </p>","","0","instructions","","","","","","","","","","",""
"preload","51","260040","0.0-8.0-5.0","6292","1","21","Female","approach_avoid_spark_v1","""event"",""trial"",""time""
""fullscreenenter"",""1"",""3293""
","
","
","""event"",""trial"",""time""
""fullscreenenter"",""1"",""3293""
","
","true","false","[]","[]","[]","","","","","","","","","","","","","","","",""
"comp-q","52","266142","0.0-8.0-6.0-0.0","6292","1","21","Female","approach_avoid_spark_v1","""event"",""trial"",""time""
""fullscreenenter"",""1"",""3293""
","
","
","""event"",""trial"",""time""
""fullscreenenter"",""1"",""3293""
","
","","","","","","1100.699999988079","<p> <b> True or False? </b> </p><p> If you see a number in GREY, that means you earned that many points. </p>","","1","comp_question","","","","","","","","","true","",""
"comp-q","53","275963","0.0-8.0-6.0-1.0","6292","1","21","Female","approach_avoid_spark_v1","""event"",""trial"",""time""
""fullscreenenter"",""1"",""3293""
","
","
","""event"",""trial"",""time""
""fullscreenenter"",""1"",""3293""
","
","","","","","","1442.699999988079","<p><b> That's right! </b> If you see a grey number, it means you earned ZERO points. <br> The grey numbers show the points you WOULD HAVE earned if you had made the other choice. </p>","","0","comp_answer","","","","","","","","","","",""
"comp-q","54","281605","0.0-8.0-7.0-0.0","6292","1","21","Female","approach_avoid_spark_v1","""event"",""trial"",""time""
""fullscreenenter"",""1"",""3293""
","
","
","""event"",""trial"",""time""
""fullscreenenter"",""1"",""3293""
","
","","","","","","944.8000000119209","<p> <b> True or False? </b> </p><p> You will have as much time as you want to make each choice. </p>","","1","comp_question","","","","","","","","","true","",""
"comp-q","55","286781","0.0-8.0-7.0-1.0","6292","1","21","Female","approach_avoid_spark_v1","""event"",""trial"",""time""
""fullscreenenter"",""1"",""3293""
","
","
","""event"",""trial"",""time""
""fullscreenenter"",""1"",""3293""
","
","","","","","","1130.4000000059605","<p> <b> That's right! </b> You will only have 3 seconds to make each choice. </p>","","0","comp_answer","","","","","","","","","","",""
"comp-q","56","292371","0.0-8.0-8.0-0.0","6292","1","21","Female","approach_avoid_spark_v1","""event"",""trial"",""time""
""fullscreenenter"",""1"",""3293""
","
","
","""event"",""trial"",""time""
""fullscreenenter"",""1"",""3293""
","
","","","","","","910.1999999880791","<p> <b> True or False? </b> </p><p> You should use the '1' and '0' keys to make your choices. </p>","","0","comp_question","","","","","","","","","true","",""
"comp-q","57","298221","0.0-8.0-8.0-1.0","6292","1","21","Female","approach_avoid_spark_v1","""event"",""trial"",""time""
""fullscreenenter"",""1"",""3293""
","
","
","""event"",""trial"",""time""
""fullscreenenter"",""1"",""3293""
","
","","","","","","1220.699999988079","<p> <b> That's right! </b> You should use the '1' and '0' keys to make each choice. </p>","","0","comp_answer","","","","","","","","","","",""
"learning-instructions","58","306183","0.0-8.0-9.0-0.0","6292","1","21","Female","approach_avoid_spark_v1","""event"",""trial"",""time""
""fullscreenenter"",""1"",""3293""
","
","
","""event"",""trial"",""time""
""fullscreenenter"",""1"",""3293""
","
","","","","","","1671.4000000059605","<p> It's now time to start the real game. </p>Do your best, because the points you earn in the next rounds will influence your bonus payment. </p>","","0","instructions","","","","","","","","","","",""
"preload","59","306324","0.0-9.0-0.0","6292","1","21","Female","approach_avoid_spark_v1","""event"",""trial"",""time""
""fullscreenenter"",""1"",""3293""
","
","
","""event"",""trial"",""time""
""fullscreenenter"",""1"",""3293""
","
","true","false","[]","[]","[]","","","","","","","","","","","","","","","",""
"learning-instructions","60","311952","0.0-9.0-1.0-0.0","6292","1","21","Female","approach_avoid_spark_v1","""event"",""trial"",""time""
""fullscreenenter"",""1"",""3293""
","
","
","""event"",""trial"",""time""
""fullscreenenter"",""1"",""3293""
","
","","","","","","1620.2999999821186","<p> Your goal in this round is to take care of lots of farm animals. </p></div>","","0","instructions","","","","","","","","","","",""
"learning-instructions","61","322404","0.0-9.0-1.0-0.1","6292","1","21","Female","approach_avoid_spark_v1","""event"",""trial"",""time""
""fullscreenenter"",""1"",""3293""
","
","
","""event"",""trial"",""time""
""fullscreenenter"",""1"",""3293""
","
","","","","","","792.4000000059605","<p> Some farm animals are hungry, while other farm animals are already full.  </p><p> On each turn, you will see a farm animal.   </p><p> You need to decide whether to feed it or not.  </p>","","0","instructions","","","","","","","","","","",""
"learning-instructions","62","328700","0.0-9.0-1.0-0.2","6292","1","21","Female","approach_avoid_spark_v1","""event"",""trial"",""time""
""fullscreenenter"",""1"",""3293""
","
","
","""event"",""trial"",""time""
""fullscreenenter"",""1"",""3293""
","
","","","","","","638.5","<p> You can feed the farm animal by pressing 1 and leave the farm animal alone by pressing 0. </p><br><div class=""choice-instructions-grid""> <div class=""choice-option""><img src=""images/approach.png"" class=""choice-option-img"" stage=""instructions"" position=""0"" ><div class=""choice-option-text""> Press ""1."" </div></div><div class=""choice-option""><img src=""images/avoid.png"" class=""choice-option-img"" stage=""instructions"" position=""1"" ><div class=""choice-option-text""> Press ""0."" </div></div>","","0","instructions","","","","","","","","","","",""
"learning-instructions","63","338964","0.0-9.0-1.0-0.3","6292","1","21","Female","approach_avoid_spark_v1","""event"",""trial"",""time""
""fullscreenenter"",""1"",""3293""
","
","
","""event"",""trial"",""time""
""fullscreenenter"",""1"",""3293""
","
","","","","","","1012.5","<p> If you feed a hungry farm animal, you will make it feel satisfied! </p><p> But if you feed the farm animal and it was already full, you will make it feel sick. </p>","","0","instructions","","","","","","","","","","",""
"learning-instructions","64","351732","0.0-9.0-1.0-0.4","6292","1","21","Female","approach_avoid_spark_v1","""event"",""trial"",""time""
""fullscreenenter"",""1"",""3293""
","
","
","""event"",""trial"",""time""
""fullscreenenter"",""1"",""3293""
","
","","","","","","610.5999999940395","<p> You will earn points based on how you made the farm animal feel. </p><p> If you made it satisfied, you will WIN anywhere from 1 - 9 points, </p><p> but if you made it sick, you will LOSE anywhere from 1 - 9 points. </p>","","0","instructions","","","","","","","","","","",""
"learning-instructions","65","359551","0.0-9.0-1.0-0.5","6292","1","21","Female","approach_avoid_spark_v1","""event"",""trial"",""time""
""fullscreenenter"",""1"",""3293""
","
","
","""event"",""trial"",""time""
""fullscreenenter"",""1"",""3293""
","
","","","","","","608.9000000059605","<p> You will see how many points you won or lost in the center of the screen. </p><p> Here is what you would see if you won 5 points: </p><p style=""color:green;font-size:50px;font-weight:bolder"">5</p>","","0","instructions","","","","","","","","","","",""
"learning-instructions","66","363483","0.0-9.0-1.0-0.6","6292","1","21","Female","approach_avoid_spark_v1","""event"",""trial"",""time""
""fullscreenenter"",""1"",""3293""
","
","
","""event"",""trial"",""time""
""fullscreenenter"",""1"",""3293""
","
","","","","","","630.9000000059605","<p> And here is what you would see if you lost 3 points: </p><p style=""color:red;font-size:50px;font-weight:bolder"">-3</p>","","0","instructions","","","","","","","","","","",""
"learning-instructions","67","379651","0.0-9.0-1.0-0.7","6292","1","21","Female","approach_avoid_spark_v1","""event"",""trial"",""time""
""fullscreenenter"",""1"",""3293""
","
","
","""event"",""trial"",""time""
""fullscreenenter"",""1"",""3293""
","
","","","","","","771","<p> Some farm animals will become very satisfied or very sick. </p><p> These farm animals will make you win or lose LOTS of points. </p><p> Other farm animals have less strong feelings. </p><p> These farm animals will make you win or lose small amounts of points. </p>","","0","instructions","","","","","","","","","","",""
"learning-instructions","68","392303","0.0-9.0-1.0-0.8","6292","1","21","Female","approach_avoid_spark_v1","""event"",""trial"",""time""
""fullscreenenter"",""1"",""3293""
","
","
","""event"",""trial"",""time""
""fullscreenenter"",""1"",""3293""
","
","","","","","","732.9000000059605","<p> If you choose to leave the farm animal alone, you will not win or lose any points. </p><p>  However, in the center of the screen, you will see the number of points you WOULD HAVE won or lost if you had fed the farm animal. </p>","","0","instructions","","","","","","","","","","",""
"learning-instructions","69","404660","0.0-9.0-1.0-0.9","6292","1","21","Female","approach_avoid_spark_v1","""event"",""trial"",""time""
""fullscreenenter"",""1"",""3293""
","
","
","""event"",""trial"",""time""
""fullscreenenter"",""1"",""3293""
","
","","","","","","960","<p> Here is what you might see if you did not feed the farm animal but the animal was hungry: </p><p style=""color:grey; font-size:50px; display: inline-block; border-spacing: 15px; border-width:3px; border-style:solid; border-color:red"">  &nbsp; 6 &nbsp; </p><p> Remember, in this case, you would not win or lose ANY points because you did not feed the farm animal.  </p>","","0","instructions","","","","","","","","","","",""
"learning-instructions","70","412874","0.0-9.0-1.0-0.10","6292","1","21","Female","approach_avoid_spark_v1","""event"",""trial"",""time""
""fullscreenenter"",""1"",""3293""
","
","
","""event"",""trial"",""time""
""fullscreenenter"",""1"",""3293""
","
","","","","","","614.8000000119209","<p> Try to make the best choice for each farm animal because </p><p> at the end of the game, you will earn bonus money based on how many points you earned. </p>","","0","instructions","","","","","","","","","","",""
"learning-instructions","71","421730","0.0-9.0-1.0-0.11","6292","1","21","Female","approach_avoid_spark_v1","""event"",""trial"",""time""
""fullscreenenter"",""1"",""3293""
","
","
","""event"",""trial"",""time""
""fullscreenenter"",""1"",""3293""
","
","","","","","","660.5","<p> You will have 3 seconds to make each choice. Try to respond before time runs out! </p><p> You will lose 5 points each time you do not make a response. </p>","","0","instructions","","","","","","","","","","",""
"html-keyboard-response","72","422352","0.0-9.0-2.0-0.0","6292","1","21","Female","approach_avoid_spark_v1","""event"",""trial"",""time""
""fullscreenenter"",""1"",""3293""
","
","
","""event"",""trial"",""time""
""fullscreenenter"",""1"",""3293""
","
","","","","","","null","<div style=""font-size:60px;"">+</div>","null","","fixation","","","","","","","","","","",""
"aa-learning-trial","73","425374","0.0-9.0-2.0-1.0","6292","1","21","Female","approach_avoid_spark_v1","""event"",""trial"",""time""
""fullscreenenter"",""1"",""3293""
","
","
","""event"",""trial"",""time""
""fullscreenenter"",""1"",""3293""
","
","","","","","","1555.0999999940395","images/horse1.png","","","learning","-1","0","0","0","horse","animals","1","0","","neutral","0"
"html-keyboard-response","74","425882","0.0-9.0-2.0-0.1","6292","1","21","Female","approach_avoid_spark_v1","""event"",""trial"",""time""
""fullscreenenter"",""1"",""3293""
","
","
","""event"",""trial"",""time""
""fullscreenenter"",""1"",""3293""
","
","","","","","","null","<div style=""font-size:60px;"">+</div>","null","","fixation","","","","","","","","","","",""
"aa-learning-trial","75","428890","0.0-9.0-2.0-1.1","6292","1","21","Female","approach_avoid_spark_v1","""event"",""trial"",""time""
""fullscreenenter"",""1"",""3293""
","
","
","""event"",""trial"",""time""
""fullscreenenter"",""1"",""3293""
","
","","","","","","959.2999999821186","images/horse1.png","","","learning","3","0","0","0","horse","animals","1","0","","neutral","0"
"html-keyboard-response","76","429393","0.0-9.0-2.0-0.2","6292","1","21","Female","approach_avoid_spark_v1","""event"",""trial"",""time""
""fullscreenenter"",""1"",""3293""
","
","
","""event"",""trial"",""time""
""fullscreenenter"",""1"",""3293""
","
","","","","","","null","<div style=""font-size:60px;"">+</div>","null","","fixation","","","","","","","","","","",""
"aa-learning-trial","77","432404","0.0-9.0-2.0-1.2","6292","1","21","Female","approach_avoid_spark_v1","""event"",""trial"",""time""
""fullscreenenter"",""1"",""3293""
","
","
","""event"",""trial"",""time""
""fullscreenenter"",""1"",""3293""
","
","","","","","","720.0999999940395","images/goat5.png","","","learning","2","2","1","1","goat","animals","1","0","","good","[5]"
"html-keyboard-response","78","432923","0.0-9.0-2.0-0.3","6292","1","21","Female","approach_avoid_spark_v1","""event"",""trial"",""time""
""fullscreenenter"",""1"",""3293""
","
","
","""event"",""trial"",""time""
""fullscreenenter"",""1"",""3293""
","
","","","","","","null","<div style=""font-size:60px;"">+</div>","null","","fixation","","","","","","","","","","",""
"aa-learning-trial","79","435932","0.0-9.0-2.0-1.3","6292","1","21","Female","approach_avoid_spark_v1","""event"",""trial"",""time""
""fullscreenenter"",""1"",""3293""
","
","
","""event"",""trial"",""time""
""fullscreenenter"",""1"",""3293""
","
","","","","","","556.9000000059605","images/sheep7.png","","","learning","-6","-6","1","1","sheep","animals","1","0","","bad","[-6]"
"html-keyboard-response","80","436442","0.0-9.0-2.0-0.4","6292","1","21","Female","approach_avoid_spark_v1","""event"",""trial"",""time""
""fullscreenenter"",""1"",""3293""
","
","
","""event"",""trial"",""time""
""fullscreenenter"",""1"",""3293""
","
","","","","","","null","<div style=""font-size:60px;"">+</div>","null","","fixation","","","","","","","","","","",""
"aa-learning-trial","81","439458","0.0-9.0-2.0-1.4","6292","1","21","Female","approach_avoid_spark_v1","""event"",""trial"",""time""
""fullscreenenter"",""1"",""3293""
","
","
","""event"",""trial"",""time""
""fullscreenenter"",""1"",""3293""
","
","","","","","","746.6999999880791","images/sheep6.png","","","learning","-4","0","0","0","sheep","animals","1","0","","bad","[-6]"
"html-keyboard-response","82","439972","0.0-9.0-2.0-0.5","6292","1","21","Female","approach_avoid_spark_v1","""event"",""trial"",""time""
""fullscreenenter"",""1"",""3293""
","
","
","""event"",""trial"",""time""
""fullscreenenter"",""1"",""3293""
","
","","","","","","null","<div style=""font-size:60px;"">+</div>","null","","fixation","","","","","","","","","","",""
"aa-learning-trial","83","442982","0.0-9.0-2.0-1.5","6292","1","21","Female","approach_avoid_spark_v1","""event"",""trial"",""time""
""fullscreenenter"",""1"",""3293""
","
","
","""event"",""trial"",""time""
""fullscreenenter"",""1"",""3293""
","
","","","","","","685.5999999940395","images/goat5.png","","","learning","6","6","1","1","goat","animals","1","0","","good","[5]"
"html-keyboard-response","84","443492","0.0-9.0-2.0-0.6","6292","1","21","Female","approach_avoid_spark_v1","""event"",""trial"",""time""
""fullscreenenter"",""1"",""3293""
","
","
","""event"",""trial"",""time""
""fullscreenenter"",""1"",""3293""
","
","","","","","","null","<div style=""font-size:60px;"">+</div>","null","","fixation","","","","","","","","","","",""
"aa-learning-trial","85","446503","0.0-9.0-2.0-1.6","6292","1","21","Female","approach_avoid_spark_v1","""event"",""trial"",""time""
""fullscreenenter"",""1"",""3293""
","
","
","""event"",""trial"",""time""
""fullscreenenter"",""1"",""3293""
","
","","","","","","1039.800000011921","images/goat3.png","","","learning","6","6","1","1","goat","animals","1","0","","good","[5]"
"html-keyboard-response","86","447023","0.0-9.0-2.0-0.7","6292","1","21","Female","approach_avoid_spark_v1","""event"",""trial"",""time""
""fullscreenenter"",""1"",""3293""
","
","
","""event"",""trial"",""time""
""fullscreenenter"",""1"",""3293""
","
","","","","","","null","<div style=""font-size:60px;"">+</div>","null","","fixation","","","","","","","","","","",""
"aa-learning-trial","87","450032","0.0-9.0-2.0-1.7","6292","1","21","Female","approach_avoid_spark_v1","""event"",""trial"",""time""
""fullscreenenter"",""1"",""3293""
","
","
","""event"",""trial"",""time""
""fullscreenenter"",""1"",""3293""
","
","","","","","","1090.5","images/horse2.png","","","learning","3","0","0","0","horse","animals","1","0","","neutral","0"
"html-keyboard-response","88","450542","0.0-9.0-2.0-0.8","6292","1","21","Female","approach_avoid_spark_v1","""event"",""trial"",""time""
""fullscreenenter"",""1"",""3293""
","
","
","""event"",""trial"",""time""
""fullscreenenter"",""1"",""3293""
","
","","","","","","null","<div style=""font-size:60px;"">+</div>","null","","fixation","","","","","","","","","","",""
"aa-learning-trial","89","453559","0.0-9.0-2.0-1.8","6292","1","21","Female","approach_avoid_spark_v1","""event"",""trial"",""time""
""fullscreenenter"",""1"",""3293""
","
","
","""event"",""trial"",""time""
""fullscreenenter"",""1"",""3293""
","
","","","","","","929.5999999940395","images/goat2.png","","","learning","5","5","1","1","goat","animals","1","0","","good","[5]"
"html-keyboard-response","90","454063","0.0-9.0-2.0-0.9","6292","1","21","Female","approach_avoid_spark_v1","""event"",""trial"",""time""
""fullscreenenter"",""1"",""3293""
","
","
","""event"",""trial"",""time""
""fullscreenenter"",""1"",""3293""
","
","","","","","","null","<div style=""font-size:60px;"">+</div>","null","","fixation","","","","","","","","","","",""
"aa-learning-trial","91","457071","0.0-9.0-2.0-1.9","6292","1","21","Female","approach_avoid_spark_v1","""event"",""trial"",""time""
""fullscreenenter"",""1"",""3293""
","
","
","""event"",""trial"",""time""
""fullscreenenter"",""1"",""3293""
","
","","","","","","911.1000000238419","images/horse2.png","","","learning","2","2","1","1","horse","animals","1","0","","neutral","0"
"html-keyboard-response","92","457573","0.0-9.0-2.0-0.10","6292","1","21","Female","approach_avoid_spark_v1","""event"",""trial"",""time""
""fullscreenenter"",""1"",""3293""
","
","
","""event"",""trial"",""time""
""fullscreenenter"",""1"",""3293""
","
","","","","","","null","<div style=""font-size:60px;"">+</div>","null","","fixation","","","","","","","","","","",""
"aa-learning-trial","93","460584","0.0-9.0-2.0-1.10","6292","1","21","Female","approach_avoid_spark_v1","""event"",""trial"",""time""
""fullscreenenter"",""1"",""3293""
","
","
","""event"",""trial"",""time""
""fullscreenenter"",""1"",""3293""
","
","","","","","","1028.2000000178814","images/sheep7.png","","","learning","-4","0","0","0","sheep","animals","1","0","","bad","[-6]"
"html-keyboard-response","94","461094","0.0-9.0-2.0-0.11","6292","1","21","Female","approach_avoid_spark_v1","""event"",""trial"",""time""
""fullscreenenter"",""1"",""3293""
","
","
","""event"",""trial"",""time""
""fullscreenenter"",""1"",""3293""
","
","","","","","","null","<div style=""font-size:60px;"">+</div>","null","","fixation","","","","","","","","","","",""
"aa-learning-trial","95","464103","0.0-9.0-2.0-1.11","6292","1","21","Female","approach_avoid_spark_v1","""event"",""trial"",""time""
""fullscreenenter"",""1"",""3293""
","
","
","""event"",""trial"",""time""
""fullscreenenter"",""1"",""3293""
","
","","","","","","1013.6999999880791","images/sheep4.png","","","learning","-5","-5","1","1","sheep","animals","1","0","","bad","[-6]"
"html-keyboard-response","96","464608","0.0-9.0-2.0-0.12","6292","1","21","Female","approach_avoid_spark_v1","""event"",""trial"",""time""
""fullscreenenter"",""1"",""3293""
","
","
","""event"",""trial"",""time""
""fullscreenenter"",""1"",""3293""
","
","","","","","","null","<div style=""font-size:60px;"">+</div>","null","","fixation","","","","","","","","","","",""
"aa-learning-trial","97","467616","0.0-9.0-2.0-1.12","6292","1","21","Female","approach_avoid_spark_v1","""event"",""trial"",""time""
""fullscreenenter"",""1"",""3293""
","
","
","""event"",""trial"",""time""
""fullscreenenter"",""1"",""3293""
","
","","","","","","1276.800000011921","images/sheep6.png","","","learning","-7","0","0","0","sheep","animals","1","0","","bad","[-6]"
"html-keyboard-response","98","468118","0.0-9.0-2.0-0.13","6292","1","21","Female","approach_avoid_spark_v1","""event"",""trial"",""time""
""fullscreenenter"",""1"",""3293""
","
","
","""event"",""trial"",""time""
""fullscreenenter"",""1"",""3293""
","
","","","","","","null","<div style=""font-size:60px;"">+</div>","null","","fixation","","","","","","","","","","",""
"aa-learning-trial","99","471129","0.0-9.0-2.0-1.13","6292","1","21","Female","approach_avoid_spark_v1","""event"",""trial"",""time""
""fullscreenenter"",""1"",""3293""
","
","
","""event"",""trial"",""time""
""fullscreenenter"",""1"",""3293""
","
","","","","","","764.2999999821186","images/horse3.png","","","learning","-2","-2","1","1","horse","animals","1","0","","neutral","0"
"html-keyboard-response","100","471634","0.0-9.0-2.0-0.14","6292","1","21","Female","approach_avoid_spark_v1","""event"",""trial"",""time""
""fullscreenenter"",""1"",""3293""
","
","
","""event"",""trial"",""time""
""fullscreenenter"",""1"",""3293""
","
","","","","","","null","<div style=""font-size:60px;"">+</div>","null","","fixation","","","","","","","","","","",""
"aa-learning-trial","101","474642","0.0-9.0-2.0-1.14","6292","1","21","Female","approach_avoid_spark_v1","""event"",""trial"",""time""
""fullscreenenter"",""1"",""3293""
","
","
","""event"",""trial"",""time""
""fullscreenenter"",""1"",""3293""
","
","","","","","","1091.300000011921","images/goat3.png","","","learning","6","6","1","1","goat","animals","1","0","","good","[5]"
"html-keyboard-response","102","475144","0.0-9.0-2.0-0.15","6292","1","21","Female","approach_avoid_spark_v1","""event"",""trial"",""time""
""fullscreenenter"",""1"",""3293""
","
","
","""event"",""trial"",""time""
""fullscreenenter"",""1"",""3293""
","
","","","","","","null","<div style=""font-size:60px;"">+</div>","null","","fixation","","","","","","","","","","",""
"aa-learning-trial","103","478156","0.0-9.0-2.0-1.15","6292","1","21","Female","approach_avoid_spark_v1","""event"",""trial"",""time""
""fullscreenenter"",""1"",""3293""
","
","
","""event"",""trial"",""time""
""fullscreenenter"",""1"",""3293""
","
","","","","","","854.7000000178814","images/goat1.png","","","learning","6","6","1","1","goat","animals","1","0","","good","[5]"
"html-keyboard-response","104","478661","0.0-9.0-2.0-0.16","6292","1","21","Female","approach_avoid_spark_v1","""event"",""trial"",""time""
""fullscreenenter"",""1"",""3293""
","
","
","""event"",""trial"",""time""
""fullscreenenter"",""1"",""3293""
","
","","","","","","null","<div style=""font-size:60px;"">+</div>","null","","fixation","","","","","","","","","","",""
"aa-learning-trial","105","481663","0.0-9.0-2.0-1.16","6292","1","21","Female","approach_avoid_spark_v1","""event"",""trial"",""time""
""fullscreenenter"",""1"",""3293""
","
","
","""event"",""trial"",""time""
""fullscreenenter"",""1"",""3293""
","
","","","","","","657.0999999940395","images/horse3.png","","","learning","2","0","0","0","horse","animals","1","0","","neutral","0"
"html-keyboard-response","106","482164","0.0-9.0-2.0-0.17","6292","1","21","Female","approach_avoid_spark_v1","""event"",""trial"",""time""
""fullscreenenter"",""1"",""3293""
","
","
","""event"",""trial"",""time""
""fullscreenenter"",""1"",""3293""
","
","","","","","","null","<div style=""font-size:60px;"">+</div>","null","","fixation","","","","","","","","","","",""
"aa-learning-trial","107","485180","0.0-9.0-2.0-1.17","6292","1","21","Female","approach_avoid_spark_v1","""event"",""trial"",""time""
""fullscreenenter"",""1"",""3293""
","
","
","""event"",""trial"",""time""
""fullscreenenter"",""1"",""3293""
","
","","","","","","995.1999999880791","images/sheep7.png","","","learning","-7","-7","1","1","sheep","animals","1","0","","bad","[-6]"
"html-keyboard-response","108","485685","0.0-9.0-2.0-0.18","6292","1","21","Female","approach_avoid_spark_v1","""event"",""trial"",""time""
""fullscreenenter"",""1"",""3293""
","
","
","""event"",""trial"",""time""
""fullscreenenter"",""1"",""3293""
","
","","","","","","null","<div style=""font-size:60px;"">+</div>","null","","fixation","","","","","","","","","","",""
"aa-learning-trial","109","488693","0.0-9.0-2.0-1.18","6292","1","21","Female","approach_avoid_spark_v1","""event"",""trial"",""time""
""fullscreenenter"",""1"",""3293""
","
","
","""event"",""trial"",""time""
""fullscreenenter"",""1"",""3293""
","
","","","","","","1537.3999999761581","images/sheep4.png","","","learning","-5","-5","1","1","sheep","animals","1","0","","bad","[-6]"
"html-keyboard-response","110","489201","0.0-9.0-2.0-0.19","6292","1","21","Female","approach_avoid_spark_v1","""event"",""trial"",""time""
""fullscreenenter"",""1"",""3293""
","
","
","""event"",""trial"",""time""
""fullscreenenter"",""1"",""3293""
","
","","","","","","null","<div style=""font-size:60px;"">+</div>","null","","fixation","","","","","","","","","","",""
"aa-learning-trial","111","492209","0.0-9.0-2.0-1.19","6292","1","21","Female","approach_avoid_spark_v1","""event"",""trial"",""time""
""fullscreenenter"",""1"",""3293""
","
","
","""event"",""trial"",""time""
""fullscreenenter"",""1"",""3293""
","
","","","","","","755","images/sheep6.png","","","learning","-7","0","0","0","sheep","animals","1","0","","bad","[-6]"
"html-keyboard-response","112","492724","0.0-9.0-2.0-0.20","6292","1","21","Female","approach_avoid_spark_v1","""event"",""trial"",""time""
""fullscreenenter"",""1"",""3293""
","
","
","""event"",""trial"",""time""
""fullscreenenter"",""1"",""3293""
","
","","","","","","null","<div style=""font-size:60px;"">+</div>","null","","fixation","","","","","","","","","","",""
"aa-learning-trial","113","495734","0.0-9.0-2.0-1.20","6292","1","21","Female","approach_avoid_spark_v1","""event"",""trial"",""time""
""fullscreenenter"",""1"",""3293""
","
","
","""event"",""trial"",""time""
""fullscreenenter"",""1"",""3293""
","
","","","","","","839.5","images/horse1.png","","","learning","[-1]","-1","1","1","horse","animals","1","0","","neutral","0"
"html-keyboard-response","114","496239","0.0-9.0-2.0-0.21","6292","1","21","Female","approach_avoid_spark_v1","""event"",""trial"",""time""
""fullscreenenter"",""1"",""3293""
","
","
","""event"",""trial"",""time""
""fullscreenenter"",""1"",""3293""
","
","","","","","","null","<div style=""font-size:60px;"">+</div>","null","","fixation","","","","","","","","","","",""
"aa-learning-trial","115","499247","0.0-9.0-2.0-1.21","6292","1","21","Female","approach_avoid_spark_v1","""event"",""trial"",""time""
""fullscreenenter"",""1"",""3293""
","
","
","""event"",""trial"",""time""
""fullscreenenter"",""1"",""3293""
","
","","","","","","1091.9000000059605","images/horse7.png","","","learning","[-1]","-1","1","1","horse","animals","1","0","","neutral","0"
"html-keyboard-response","116","499754","0.0-9.0-2.0-0.22","6292","1","21","Female","approach_avoid_spark_v1","""event"",""trial"",""time""
""fullscreenenter"",""1"",""3293""
","
","
","""event"",""trial"",""time""
""fullscreenenter"",""1"",""3293""
","
","","","","","","null","<div style=""font-size:60px;"">+</div>","null","","fixation","","","","","","","","","","",""
"aa-learning-trial","117","502758","0.0-9.0-2.0-1.22","6292","1","21","Female","approach_avoid_spark_v1","""event"",""trial"",""time""
""fullscreenenter"",""1"",""3293""
","
","
","""event"",""trial"",""time""
""fullscreenenter"",""1"",""3293""
","
","","","","","","815.7000000178814","images/sheep6.png","","","learning","-3","-3","1","1","sheep","animals","1","0","","bad","[-6]"
"html-keyboard-response","118","503265","0.0-9.0-2.0-0.23","6292","1","21","Female","approach_avoid_spark_v1","""event"",""trial"",""time""
""fullscreenenter"",""1"",""3293""
","
","
","""event"",""trial"",""time""
""fullscreenenter"",""1"",""3293""
","
","","","","","","null","<div style=""font-size:60px;"">+</div>","null","","fixation","","","","","","","","","","",""
"aa-learning-trial","119","506269","0.0-9.0-2.0-1.23","6292","1","21","Female","approach_avoid_spark_v1","""event"",""trial"",""time""
""fullscreenenter"",""1"",""3293""
","
","
","""event"",""trial"",""time""
""fullscreenenter"",""1"",""3293""
","
","","","","","","740.7999999821186","images/goat4.png","","","learning","5","5","1","1","goat","animals","1","0","","good","[5]"
"html-keyboard-response","120","506778","0.0-9.0-2.0-0.24","6292","1","21","Female","approach_avoid_spark_v1","""event"",""trial"",""time""
""fullscreenenter"",""1"",""3293""
","
","
","""event"",""trial"",""time""
""fullscreenenter"",""1"",""3293""
","
","","","","","","null","<div style=""font-size:60px;"">+</div>","null","","fixation","","","","","","","","","","",""
"aa-learning-trial","121","509781","0.0-9.0-2.0-1.24","6292","1","21","Female","approach_avoid_spark_v1","""event"",""trial"",""time""
""fullscreenenter"",""1"",""3293""
","
","
","""event"",""trial"",""time""
""fullscreenenter"",""1"",""3293""
","
","","","","","","783.7999999821186","images/sheep7.png","","","learning","-4","0","0","0","sheep","animals","1","0","","bad","[-6]"
"html-keyboard-response","122","510283","0.0-9.0-2.0-0.25","6292","1","21","Female","approach_avoid_spark_v1","""event"",""trial"",""time""
""fullscreenenter"",""1"",""3293""
","
","
","""event"",""trial"",""time""
""fullscreenenter"",""1"",""3293""
","
","","","","","","null","<div style=""font-size:60px;"">+</div>","null","","fixation","","","","","","","","","","",""
"aa-learning-trial","123","513292","0.0-9.0-2.0-1.25","6292","1","21","Female","approach_avoid_spark_v1","""event"",""trial"",""time""
""fullscreenenter"",""1"",""3293""
","
","
","""event"",""trial"",""time""
""fullscreenenter"",""1"",""3293""
","
","","","","","","1071.199999988079","images/horse2.png","","","learning","[1]","0","0","0","horse","animals","1","0","","neutral","0"
"html-keyboard-response","124","513809","0.0-9.0-2.0-0.26","6292","1","21","Female","approach_avoid_spark_v1","""event"",""trial"",""time""
""fullscreenenter"",""1"",""3293""
","
","
","""event"",""trial"",""time""
""fullscreenenter"",""1"",""3293""
","
","","","","","","null","<div style=""font-size:60px;"">+</div>","null","","fixation","","","","","","","","","","",""
"aa-learning-trial","125","516819","0.0-9.0-2.0-1.26","6292","1","21","Female","approach_avoid_spark_v1","""event"",""trial"",""time""
""fullscreenenter"",""1"",""3293""
","
","
","""event"",""trial"",""time""
""fullscreenenter"",""1"",""3293""
","
","","","","","","717.5","images/horse2.png","","","learning","1","1","1","1","horse","animals","1","0","","neutral","0"
"html-keyboard-response","126","517328","0.0-9.0-2.0-0.27","6292","1","21","Female","approach_avoid_spark_v1","""event"",""trial"",""time""
""fullscreenenter"",""1"",""3293""
","
","
","""event"",""trial"",""time""
""fullscreenenter"",""1"",""3293""
","
","","","","","","null","<div style=""font-size:60px;"">+</div>","null","","fixation","","","","","","","","","","",""
"aa-learning-trial","127","520335","0.0-9.0-2.0-1.27","6292","1","21","Female","approach_avoid_spark_v1","""event"",""trial"",""time""
""fullscreenenter"",""1"",""3293""
","
","
","""event"",""trial"",""time""
""fullscreenenter"",""1"",""3293""
","
","","","","","","903.7999999821186","images/goat2.png","","","learning","4","0","0","0","goat","animals","1","0","","good","[5]"
"html-keyboard-response","128","520845","0.0-9.0-2.0-0.28","6292","1","21","Female","approach_avoid_spark_v1","""event"",""trial"",""time""
""fullscreenenter"",""1"",""3293""
","
","
","""event"",""trial"",""time""
""fullscreenenter"",""1"",""3293""
","
","","","","","","null","<div style=""font-size:60px;"">+</div>","null","","fixation","","","","","","","","","","",""
"aa-learning-trial","129","523851","0.0-9.0-2.0-1.28","6292","1","21","Female","approach_avoid_spark_v1","""event"",""trial"",""time""
""fullscreenenter"",""1"",""3293""
","
","
","""event"",""trial"",""time""
""fullscreenenter"",""1"",""3293""
","
","","","","","","831.8000000119209","images/sheep6.png","","","learning","-5","0","0","0","sheep","animals","1","0","","bad","[-6]"
"html-keyboard-response","130","524359","0.0-9.0-2.0-0.29","6292","1","21","Female","approach_avoid_spark_v1","""event"",""trial"",""time""
""fullscreenenter"",""1"",""3293""
","
","
","""event"",""trial"",""time""
""fullscreenenter"",""1"",""3293""
","
","","","","","","null","<div style=""font-size:60px;"">+</div>","null","","fixation","","","","","","","","","","",""
"aa-learning-trial","131","527363","0.0-9.0-2.0-1.29","6292","1","21","Female","approach_avoid_spark_v1","""event"",""trial"",""time""
""fullscreenenter"",""1"",""3293""
","
","
","""event"",""trial"",""time""
""fullscreenenter"",""1"",""3293""
","
","","","","","","771.7000000178814","images/sheep7.png","","","learning","-7","0","0","0","sheep","animals","1","0","","bad","[-6]"
"html-keyboard-response","132","527865","0.0-9.0-2.0-0.30","6292","1","21","Female","approach_avoid_spark_v1","""event"",""trial"",""time""
""fullscreenenter"",""1"",""3293""
","
","
","""event"",""trial"",""time""
""fullscreenenter"",""1"",""3293""
","
","","","","","","null","<div style=""font-size:60px;"">+</div>","null","","fixation","","","","","","","","","","",""
"aa-learning-trial","133","530870","0.0-9.0-2.0-1.30","6292","1","21","Female","approach_avoid_spark_v1","""event"",""trial"",""time""
""fullscreenenter"",""1"",""3293""
","
","
","""event"",""trial"",""time""
""fullscreenenter"",""1"",""3293""
","
","","","","","","961.1000000238419","images/horse2.png","","","learning","[1]","1","1","1","horse","animals","1","0","","neutral","0"
"html-keyboard-response","134","531373","0.0-9.0-2.0-0.31","6292","1","21","Female","approach_avoid_spark_v1","""event"",""trial"",""time""
""fullscreenenter"",""1"",""3293""
","
","
","""event"",""trial"",""time""
""fullscreenenter"",""1"",""3293""
","
","","","","","","null","<div style=""font-size:60px;"">+</div>","null","","fixation","","","","","","","","","","",""
"aa-learning-trial","135","534380","0.0-9.0-2.0-1.31","6292","1","21","Female","approach_avoid_spark_v1","""event"",""trial"",""time""
""fullscreenenter"",""1"",""3293""
","
","
","""event"",""trial"",""time""
""fullscreenenter"",""1"",""3293""
","
","","","","","","816","images/goat5.png","","","learning","5","5","1","1","goat","animals","1","0","","good","[5]"
"html-keyboard-response","136","534883","0.0-9.0-2.0-0.32","6292","1","21","Female","approach_avoid_spark_v1","""event"",""trial"",""time""
""fullscreenenter"",""1"",""3293""
","
","
","""event"",""trial"",""time""
""fullscreenenter"",""1"",""3293""
","
","","","","","","null","<div style=""font-size:60px;"">+</div>","null","","fixation","","","","","","","","","","",""
"aa-learning-trial","137","537890","0.0-9.0-2.0-1.32","6292","1","21","Female","approach_avoid_spark_v1","""event"",""trial"",""time""
""fullscreenenter"",""1"",""3293""
","
","
","""event"",""trial"",""time""
""fullscreenenter"",""1"",""3293""
","
","","","","","","896.0999999940395","images/horse1.png","","","learning","-1","-1","1","1","horse","animals","1","0","","neutral","0"
"html-keyboard-response","138","538400","0.0-9.0-2.0-0.33","6292","1","21","Female","approach_avoid_spark_v1","""event"",""trial"",""time""
""fullscreenenter"",""1"",""3293""
","
","
","""event"",""trial"",""time""
""fullscreenenter"",""1"",""3293""
","
","","","","","","null","<div style=""font-size:60px;"">+</div>","null","","fixation","","","","","","","","","","",""
"aa-learning-trial","139","541409","0.0-9.0-2.0-1.33","6292","1","21","Female","approach_avoid_spark_v1","""event"",""trial"",""time""
""fullscreenenter"",""1"",""3293""
","
","
","""event"",""trial"",""time""
""fullscreenenter"",""1"",""3293""
","
","","","","","","1158.9000000059605","images/goat3.png","","","learning","6","0","0","0","goat","animals","1","0","","good","[5]"
"html-keyboard-response","140","541913","0.0-9.0-2.0-0.34","6292","1","21","Female","approach_avoid_spark_v1","""event"",""trial"",""time""
""fullscreenenter"",""1"",""3293""
","
","
","""event"",""trial"",""time""
""fullscreenenter"",""1"",""3293""
","
","","","","","","null","<div style=""font-size:60px;"">+</div>","null","","fixation","","","","","","","","","","",""
"aa-learning-trial","141","544924","0.0-9.0-2.0-1.34","6292","1","21","Female","approach_avoid_spark_v1","""event"",""trial"",""time""
""fullscreenenter"",""1"",""3293""
","
","
","""event"",""trial"",""time""
""fullscreenenter"",""1"",""3293""
","
","","","","","","699","images/goat2.png","","","learning","5","5","1","1","goat","animals","1","0","","good","[5]"
"html-keyboard-response","142","545434","0.0-9.0-2.0-0.35","6292","1","21","Female","approach_avoid_spark_v1","""event"",""trial"",""time""
""fullscreenenter"",""1"",""3293""
","
","
","""event"",""trial"",""time""
""fullscreenenter"",""1"",""3293""
","
","","","","","","null","<div style=""font-size:60px;"">+</div>","null","","fixation","","","","","","","","","","",""
"aa-learning-trial","143","548437","0.0-9.0-2.0-1.35","6292","1","21","Female","approach_avoid_spark_v1","""event"",""trial"",""time""
""fullscreenenter"",""1"",""3293""
","
","
","""event"",""trial"",""time""
""fullscreenenter"",""1"",""3293""
","
","","","","","","918","images/horse2.png","","","learning","1","1","1","1","horse","animals","1","0","","neutral","0"
"html-keyboard-response","144","548941","0.0-9.0-2.0-0.36","6292","1","21","Female","approach_avoid_spark_v1","""event"",""trial"",""time""
""fullscreenenter"",""1"",""3293""
","
","
","""event"",""trial"",""time""
""fullscreenenter"",""1"",""3293""
","
","","","","","","null","<div style=""font-size:60px;"">+</div>","null","","fixation","","","","","","","","","","",""
"aa-learning-trial","145","551949","0.0-9.0-2.0-1.36","6292","1","21","Female","approach_avoid_spark_v1","""event"",""trial"",""time""
""fullscreenenter"",""1"",""3293""
","
","
","""event"",""trial"",""time""
""fullscreenenter"",""1"",""3293""
","
","","","","","","565.3000000119209","images/sheep6.png","","","learning","-6","0","0","0","sheep","animals","1","0","","bad","[-6]"
"html-keyboard-response","146","552454","0.0-9.0-2.0-0.37","6292","1","21","Female","approach_avoid_spark_v1","""event"",""trial"",""time""
""fullscreenenter"",""1"",""3293""
","
","
","""event"",""trial"",""time""
""fullscreenenter"",""1"",""3293""
","
","","","","","","null","<div style=""font-size:60px;"">+</div>","null","","fixation","","","","","","","","","","",""
"aa-learning-trial","147","555470","0.0-9.0-2.0-1.37","6292","1","21","Female","approach_avoid_spark_v1","""event"",""trial"",""time""
""fullscreenenter"",""1"",""3293""
","
","
","""event"",""trial"",""time""
""fullscreenenter"",""1"",""3293""
","
","","","","","","440.5","images/sheep4.png","","","learning","-6","0","0","0","sheep","animals","1","0","","bad","[-6]"
"html-keyboard-response","148","555978","0.0-9.0-2.0-0.38","6292","1","21","Female","approach_avoid_spark_v1","""event"",""trial"",""time""
""fullscreenenter"",""1"",""3293""
","
","
","""event"",""trial"",""time""
""fullscreenenter"",""1"",""3293""
","
","","","","","","null","<div style=""font-size:60px;"">+</div>","null","","fixation","","","","","","","","","","",""
"aa-learning-trial","149","558982","0.0-9.0-2.0-1.38","6292","1","21","Female","approach_avoid_spark_v1","""event"",""trial"",""time""
""fullscreenenter"",""1"",""3293""
","
","
","""event"",""trial"",""time""
""fullscreenenter"",""1"",""3293""
","
","","","","","","1117.0999999940395","images/goat3.png","","","learning","4","4","1","1","goat","animals","1","0","","good","[5]"
"html-keyboard-response","150","559487","0.0-9.0-2.0-0.39","6292","1","21","Female","approach_avoid_spark_v1","""event"",""trial"",""time""
""fullscreenenter"",""1"",""3293""
","
","
","""event"",""trial"",""time""
""fullscreenenter"",""1"",""3293""
","
","","","","","","null","<div style=""font-size:60px;"">+</div>","null","","fixation","","","","","","","","","","",""
"aa-learning-trial","151","562491","0.0-9.0-2.0-1.39","6292","1","21","Female","approach_avoid_spark_v1","""event"",""trial"",""time""
""fullscreenenter"",""1"",""3293""
","
","
","""event"",""trial"",""time""
""fullscreenenter"",""1"",""3293""
","
","","","","","","1282.9000000059605","images/goat5.png","","","learning","2","2","1","1","goat","animals","1","0","","good","[5]"
"html-keyboard-response","152","563003","0.0-9.0-2.0-0.40","6292","1","21","Female","approach_avoid_spark_v1","""event"",""trial"",""time""
""fullscreenenter"",""1"",""3293""
","
","
","""event"",""trial"",""time""
""fullscreenenter"",""1"",""3293""
","
","","","","","","null","<div style=""font-size:60px;"">+</div>","null","","fixation","","","","","","","","","","",""
"aa-learning-trial","153","566012","0.0-9.0-2.0-1.40","6292","1","21","Female","approach_avoid_spark_v1","""event"",""trial"",""time""
""fullscreenenter"",""1"",""3293""
","
","
","""event"",""trial"",""time""
""fullscreenenter"",""1"",""3293""
","
","","","","","","745.2000000178814","images/sheep7.png","","","learning","-4","0","0","0","sheep","animals","1","0","","bad","[-6]"
"html-keyboard-response","154","566517","0.0-9.0-2.0-0.41","6292","1","21","Female","approach_avoid_spark_v1","""event"",""trial"",""time""
""fullscreenenter"",""1"",""3293""
","
","
","""event"",""trial"",""time""
""fullscreenenter"",""1"",""3293""
","
","","","","","","null","<div style=""font-size:60px;"">+</div>","null","","fixation","","","","","","","","","","",""
"aa-learning-trial","155","569525","0.0-9.0-2.0-1.41","6292","1","21","Female","approach_avoid_spark_v1","""event"",""trial"",""time""
""fullscreenenter"",""1"",""3293""
","
","
","""event"",""trial"",""time""
""fullscreenenter"",""1"",""3293""
","
","","","","","","1246.1000000238419","images/sheep5.png","","","learning","-7","0","0","0","sheep","animals","1","0","","bad","[-6]"
"html-keyboard-response","156","570033","0.0-9.0-2.0-0.42","6292","1","21","Female","approach_avoid_spark_v1","""event"",""trial"",""time""
""fullscreenenter"",""1"",""3293""
","
","
","""event"",""trial"",""time""
""fullscreenenter"",""1"",""3293""
","
","","","","","","null","<div style=""font-size:60px;"">+</div>","null","","fixation","","","","","","","","","","",""
"aa-learning-trial","157","573041","0.0-9.0-2.0-1.42","6292","1","21","Female","approach_avoid_spark_v1","""event"",""trial"",""time""
""fullscreenenter"",""1"",""3293""
","
","
","""event"",""trial"",""time""
""fullscreenenter"",""1"",""3293""
","
","","","","","","787.9000000059605","images/goat3.png","","","learning","6","6","1","1","goat","animals","1","0","","good","[5]"
"html-keyboard-response","158","573555","0.0-9.0-2.0-0.43","6292","1","21","Female","approach_avoid_spark_v1","""event"",""trial"",""time""
""fullscreenenter"",""1"",""3293""
","
","
","""event"",""trial"",""time""
""fullscreenenter"",""1"",""3293""
","
","","","","","","null","<div style=""font-size:60px;"">+</div>","null","","fixation","","","","","","","","","","",""
"aa-learning-trial","159","576559","0.0-9.0-2.0-1.43","6292","1","21","Female","approach_avoid_spark_v1","""event"",""trial"",""time""
""fullscreenenter"",""1"",""3293""
","
","
","""event"",""trial"",""time""
""fullscreenenter"",""1"",""3293""
","
","","","","","","1098.800000011921","images/goat5.png","","","learning","6","6","1","1","goat","animals","1","0","","good","[5]"
"html-keyboard-response","160","577067","0.0-9.0-2.0-0.44","6292","1","21","Female","approach_avoid_spark_v1","""event"",""trial"",""time""
""fullscreenenter"",""1"",""3293""
","
","
","""event"",""trial"",""time""
""fullscreenenter"",""1"",""3293""
","
","","","","","","null","<div style=""font-size:60px;"">+</div>","null","","fixation","","","","","","","","","","",""
"aa-learning-trial","161","580074","0.0-9.0-2.0-1.44","6292","1","21","Female","approach_avoid_spark_v1","""event"",""trial"",""time""
""fullscreenenter"",""1"",""3293""
","
","
","""event"",""trial"",""time""
""fullscreenenter"",""1"",""3293""
","
","","","","","","552","images/goat5.png","","","learning","5","5","1","1","goat","animals","1","0","","good","[5]"
"html-keyboard-response","162","580583","0.0-9.0-2.0-0.45","6292","1","21","Female","approach_avoid_spark_v1","""event"",""trial"",""time""
""fullscreenenter"",""1"",""3293""
","
","
","""event"",""trial"",""time""
""fullscreenenter"",""1"",""3293""
","
","","","","","","null","<div style=""font-size:60px;"">+</div>","null","","fixation","","","","","","","","","","",""
"aa-learning-trial","163","583590","0.0-9.0-2.0-1.45","6292","1","21","Female","approach_avoid_spark_v1","""event"",""trial"",""time""
""fullscreenenter"",""1"",""3293""
","
","
","""event"",""trial"",""time""
""fullscreenenter"",""1"",""3293""
","
","","","","","","880","images/sheep2.png","","","learning","-5","0","0","0","sheep","animals","1","0","","bad","[-6]"
"html-keyboard-response","164","584092","0.0-9.0-2.0-0.46","6292","1","21","Female","approach_avoid_spark_v1","""event"",""trial"",""time""
""fullscreenenter"",""1"",""3293""
","
","
","""event"",""trial"",""time""
""fullscreenenter"",""1"",""3293""
","
","","","","","","null","<div style=""font-size:60px;"">+</div>","null","","fixation","","","","","","","","","","",""
"aa-learning-trial","165","587103","0.0-9.0-2.0-1.46","6292","1","21","Female","approach_avoid_spark_v1","""event"",""trial"",""time""
""fullscreenenter"",""1"",""3293""
","
","
","""event"",""trial"",""time""
""fullscreenenter"",""1"",""3293""
","
","","","","","","1009.2999999821186","images/horse3.png","","","learning","-3","-3","1","1","horse","animals","1","0","","neutral","0"
"html-keyboard-response","166","587612","0.0-9.0-2.0-0.47","6292","1","21","Female","approach_avoid_spark_v1","""event"",""trial"",""time""
""fullscreenenter"",""1"",""3293""
","
","
","""event"",""trial"",""time""
""fullscreenenter"",""1"",""3293""
","
","","","","","","null","<div style=""font-size:60px;"">+</div>","null","","fixation","","","","","","","","","","",""
"aa-learning-trial","167","590618","0.0-9.0-2.0-1.47","6292","1","21","Female","approach_avoid_spark_v1","""event"",""trial"",""time""
""fullscreenenter"",""1"",""3293""
","
","
","""event"",""trial"",""time""
""fullscreenenter"",""1"",""3293""
","
","","","","","","680","images/horse1.png","","","learning","1","1","1","1","horse","animals","1","0","","neutral","0"
"html-keyboard-response","168","591126","0.0-9.0-2.0-0.48","6292","1","21","Female","approach_avoid_spark_v1","""event"",""trial"",""time""
""fullscreenenter"",""1"",""3293""
","
","
","""event"",""trial"",""time""
""fullscreenenter"",""1"",""3293""
","
","","","","","","null","<div style=""font-size:60px;"">+</div>","null","","fixation","","","","","","","","","","",""
"aa-learning-trial","169","594131","0.0-9.0-2.0-1.48","6292","1","21","Female","approach_avoid_spark_v1","""event"",""trial"",""time""
""fullscreenenter"",""1"",""3293""
","
","
","""event"",""trial"",""time""
""fullscreenenter"",""1"",""3293""
","
","","","","","","776.0999999940395","images/horse1.png","","","learning","1","1","1","1","horse","animals","1","0","","neutral","0"
"html-keyboard-response","170","594644","0.0-9.0-2.0-0.49","6292","1","21","Female","approach_avoid_spark_v1","""event"",""trial"",""time""
""fullscreenenter"",""1"",""3293""
","
","
","""event"",""trial"",""time""
""fullscreenenter"",""1"",""3293""
","
","","","","","","null","<div style=""font-size:60px;"">+</div>","null","","fixation","","","","","","","","","","",""
"aa-learning-trial","171","597652","0.0-9.0-2.0-1.49","6292","1","21","Female","approach_avoid_spark_v1","""event"",""trial"",""time""
""fullscreenenter"",""1"",""3293""
","
","
","""event"",""trial"",""time""
""fullscreenenter"",""1"",""3293""
","
","","","","","","1605.0999999940395","images/horse8.png","","","learning","1","1","1","1","horse","animals","1","0","","neutral","0"
"html-keyboard-response","172","598161","0.0-9.0-2.0-0.50","6292","1","21","Female","approach_avoid_spark_v1","""event"",""trial"",""time""
""fullscreenenter"",""1"",""3293""
","
","
","""event"",""trial"",""time""
""fullscreenenter"",""1"",""3293""
","
","","","","","","null","<div style=""font-size:60px;"">+</div>","null","","fixation","","","","","","","","","","",""
"aa-learning-trial","173","601171","0.0-9.0-2.0-1.50","6292","1","21","Female","approach_avoid_spark_v1","""event"",""trial"",""time""
""fullscreenenter"",""1"",""3293""
","
","
","""event"",""trial"",""time""
""fullscreenenter"",""1"",""3293""
","
","","","","","","768.6999999880791","images/goat3.png","","","learning","5","5","1","1","goat","animals","1","0","","good","[5]"
"html-button-response","174","603461","0.0-9.0-3.0","6292","1","21","Female","approach_avoid_spark_v1","""event"",""trial"",""time""
""fullscreenenter"",""1"",""3293""
","
","
","""event"",""trial"",""time""
""fullscreenenter"",""1"",""3293""
","
","","","","","","2288.699999988079","<p> You have completed the round! <p> In this round, you earned 48 points! </p>","0","","break","","","","","","","","","","",""
"html-button-response","175","604848","0.0-10.0","6292","1","21","Female","approach_avoid_spark_v1","""event"",""trial"",""time""
""fullscreenenter"",""1"",""3293""
","
","
","""event"",""trial"",""time""
""fullscreenenter"",""1"",""3293""
","
","","","","","","1385.2999999821186","<p> Now it's time to play another round. </p>","0","","transition_screen","","","","","","","","","","",""
"preload","176","604978","0.0-11.0-0.0","6292","1","21","Female","approach_avoid_spark_v1","""event"",""trial"",""time""
""fullscreenenter"",""1"",""3293""
","
","
","""event"",""trial"",""time""
""fullscreenenter"",""1"",""3293""
","
","true","false","[]","[]","[]","","","","","","","","","","","","","","","",""
"learning-instructions","177","610863","0.0-11.0-1.0-0.0","6292","1","21","Female","approach_avoid_spark_v1","""event"",""trial"",""time""
""fullscreenenter"",""1"",""3293""
","
","
","""event"",""trial"",""time""
""fullscreenenter"",""1"",""3293""
","
","","","","","","2270.4000000059605","<p> Your goal in this round is to eat tasty fruit. </p></div>","","0","instructions","","","","","","","","","","",""
"learning-instructions","178","620964","0.0-11.0-1.0-0.1","6292","1","21","Female","approach_avoid_spark_v1","""event"",""trial"",""time""
""fullscreenenter"",""1"",""3293""
","
","
","""event"",""trial"",""time""
""fullscreenenter"",""1"",""3293""
","
","","","","","","781.3000000119209","<p> Some of the fruits you will see are tasty. Others are rotten on the inside.  </p><p> On each turn, you will see a fruit.   </p><p> You need to decide whether to eat it or not.  </p>","","0","instructions","","","","","","","","","","",""
"learning-instructions","179","626372","0.0-11.0-1.0-0.2","6292","1","21","Female","approach_avoid_spark_v1","""event"",""trial"",""time""
""fullscreenenter"",""1"",""3293""
","
","
","""event"",""trial"",""time""
""fullscreenenter"",""1"",""3293""
","
","","","","","","799.5","<p> You can eat the fruit by pressing 1 and choose not to eat it by pressing 0. </p><br><div class=""choice-instructions-grid""> <div class=""choice-option""><img src=""images/approach.png"" class=""choice-option-img"" stage=""instructions"" position=""0"" ><div class=""choice-option-text""> Press ""1."" </div></div><div class=""choice-option""><img src=""images/avoid.png"" class=""choice-option-img"" stage=""instructions"" position=""1"" ><div class=""choice-option-text""> Press ""0."" </div></div>","","0","instructions","","","","","","","","","","",""
"learning-instructions","180","633991","0.0-11.0-1.0-0.3","6292","1","21","Female","approach_avoid_spark_v1","""event"",""trial"",""time""
""fullscreenenter"",""1"",""3293""
","
","
","""event"",""trial"",""time""
""fullscreenenter"",""1"",""3293""
","
","","","","","","607.8000000119209","<p> If you eat the fruit and it was tasty, you will win points! </p><p> But if you eat the fruit and it was rotten, you will lose points. </p>","","0","instructions","","","","","","","","","","",""
"learning-instructions","181","645404","0.0-11.0-1.0-0.4","6292","1","21","Female","approach_avoid_spark_v1","""event"",""trial"",""time""
""fullscreenenter"",""1"",""3293""
","
","
","""event"",""trial"",""time""
""fullscreenenter"",""1"",""3293""
","
","","","","","","571","<p> You will earn points based on how tasty or rotten the fruit was. </p><p> If it was tasty, you will WIN anywhere from 1 - 9 points, </p><p> but if it was rotten, you will LOSE anywhere from 1 - 9 points. </p>","","0","instructions","","","","","","","","","","",""
"learning-instructions","182","653223","0.0-11.0-1.0-0.5","6292","1","21","Female","approach_avoid_spark_v1","""event"",""trial"",""time""
""fullscreenenter"",""1"",""3293""
","
","
","""event"",""trial"",""time""
""fullscreenenter"",""1"",""3293""
","
","","","","","","1150.300000011921","<p> You will see how many points you won or lost in the center of the screen. </p><p> Here is what you would see if you earned 5 points: </p><p style=""color:green;font-size:50px;font-weight:bolder"">5</p>","","0","instructions","","","","","","","","","","",""
"learning-instructions","183","656731","0.0-11.0-1.0-0.6","6292","1","21","Female","approach_avoid_spark_v1","""event"",""trial"",""time""
""fullscreenenter"",""1"",""3293""
","
","
","""event"",""trial"",""time""
""fullscreenenter"",""1"",""3293""
","
","","","","","","658.5","<p> And here is what you would see if you lost 3 points: </p><p style=""color:red;font-size:50px;font-weight:bolder"">-3</p>","","0","instructions","","","","","","","","","","",""
"learning-instructions","184","670721","0.0-11.0-1.0-0.7","6292","1","21","Female","approach_avoid_spark_v1","""event"",""trial"",""time""
""fullscreenenter"",""1"",""3293""
","
","
","""event"",""trial"",""time""
""fullscreenenter"",""1"",""3293""
","
","","","","","","609.8000000119209","<p> Some fruit is very tasty or very rotten. </p><p> These fruits will make you win or lose LOTS of points. </p><p> Other fruits are only kind of tasty or kind of rotten. </p><p> These fruits will make you win or lose small amounts of points. </p>","","0","instructions","","","","","","","","","","",""
"learning-instructions","185","681442","0.0-11.0-1.0-0.8","6292","1","21","Female","approach_avoid_spark_v1","""event"",""trial"",""time""
""fullscreenenter"",""1"",""3293""
","
","
","""event"",""trial"",""time""
""fullscreenenter"",""1"",""3293""
","
","","","","","","700.6999999880791","<p> If you choose to not eat the fruit, you will not win or lose any points. </p><p>  However, in the center of the screen, you will see the number of points you WOULD HAVE earned if you had eaten the fruit. </p>","","0","instructions","","","","","","","","","","",""
"learning-instructions","186","691543","0.0-11.0-1.0-0.9","6292","1","21","Female","approach_avoid_spark_v1","""event"",""trial"",""time""
""fullscreenenter"",""1"",""3293""
","
","
","""event"",""trial"",""time""
""fullscreenenter"",""1"",""3293""
","
","","","","","","660.7000000178814","<p> Here is what you might see if you did not eat the fruit but the fruit was tasty: </p><p style=""color:grey; font-size:50px; display: inline-block; border-spacing: 15px; border-width:3px; border-style:solid; border-color:red"">  &nbsp; 6 &nbsp; </p><p> Remember, in this case, you would not win or lose ANY points because you did not eat the fruit.  </p>","","0","instructions","","","","","","","","","","",""
"learning-instructions","187","699772","0.0-11.0-1.0-0.10","6292","1","21","Female","approach_avoid_spark_v1","""event"",""trial"",""time""
""fullscreenenter"",""1"",""3293""
","
","
","""event"",""trial"",""time""
""fullscreenenter"",""1"",""3293""
","
","","","","","","630.1999999880791","<p> Try to make the best choice for each fruit because </p><p> at the end of the game, you will earn bonus money based on how many points you earned. </p>","","0","instructions","","","","","","","","","","",""
"learning-instructions","188","708632","0.0-11.0-1.0-0.11","6292","1","21","Female","approach_avoid_spark_v1","""event"",""trial"",""time""
""fullscreenenter"",""1"",""3293""
","
","
","""event"",""trial"",""time""
""fullscreenenter"",""1"",""3293""
","
","","","","","","660.2000000178814","<p> You will have 3 seconds to make each choice. Try to respond before time runs out! </p><p> You will lose 5 points each time you do not make a response. </p>","","0","instructions","","","","","","","","","","",""
"html-keyboard-response","189","709260","0.0-11.0-2.0-0.0","6292","1","21","Female","approach_avoid_spark_v1","""event"",""trial"",""time""
""fullscreenenter"",""1"",""3293""
","
","
","""event"",""trial"",""time""
""fullscreenenter"",""1"",""3293""
","
","","","","","","null","<div style=""font-size:60px;"">+</div>","null","","fixation","","","","","","","","","","",""
"aa-learning-trial","190","712270","0.0-11.0-2.0-1.0","6292","1","21","Female","approach_avoid_spark_v1","""event"",""trial"",""time""
""fullscreenenter"",""1"",""3293""
","
","
","""event"",""trial"",""time""
""fullscreenenter"",""1"",""3293""
","
","","","","","","1059.300000011921","images/banana4.png","","","learning","6","6","1","1","banana","fruit","2","1","","bad","[-6]"
"html-keyboard-response","191","712790","0.0-11.0-2.0-0.1","6292","1","21","Female","approach_avoid_spark_v1","""event"",""trial"",""time""
""fullscreenenter"",""1"",""3293""
","
","
","""event"",""trial"",""time""
""fullscreenenter"",""1"",""3293""
","
","","","","","","null","<div style=""font-size:60px;"">+</div>","null","","fixation","","","","","","","","","","",""
"aa-learning-trial","192","715800","0.0-11.0-2.0-1.1","6292","1","21","Female","approach_avoid_spark_v1","""event"",""trial"",""time""
""fullscreenenter"",""1"",""3293""
","
","
","""event"",""trial"",""time""
""fullscreenenter"",""1"",""3293""
","
","","","","","","986.5999999940395","images/banana2.png","","","learning","-3","0","0","0","banana","fruit","2","1","","bad","[-6]"
"html-keyboard-response","193","716306","0.0-11.0-2.0-0.2","6292","1","21","Female","approach_avoid_spark_v1","""event"",""trial"",""time""
""fullscreenenter"",""1"",""3293""
","
","
","""event"",""trial"",""time""
""fullscreenenter"",""1"",""3293""
","
","","","","","","null","<div style=""font-size:60px;"">+</div>","null","","fixation","","","","","","","","","","",""
"aa-learning-trial","194","719320","0.0-11.0-2.0-1.2","6292","1","21","Female","approach_avoid_spark_v1","""event"",""trial"",""time""
""fullscreenenter"",""1"",""3293""
","
","
","""event"",""trial"",""time""
""fullscreenenter"",""1"",""3293""
","
","","","","","","543.9000000059605","images/banana4.png","","","learning","6","6","1","1","banana","fruit","2","1","","bad","[-6]"
"html-keyboard-response","195","719840","0.0-11.0-2.0-0.3","6292","1","21","Female","approach_avoid_spark_v1","""event"",""trial"",""time""
""fullscreenenter"",""1"",""3293""
","
","
","""event"",""trial"",""time""
""fullscreenenter"",""1"",""3293""
","
","","","","","","null","<div style=""font-size:60px;"">+</div>","null","","fixation","","","","","","","","","","",""
"aa-learning-trial","196","722850","0.0-11.0-2.0-1.3","6292","1","21","Female","approach_avoid_spark_v1","""event"",""trial"",""time""
""fullscreenenter"",""1"",""3293""
","
","
","""event"",""trial"",""time""
""fullscreenenter"",""1"",""3293""
","
","","","","","","1123.5","images/orange8.png","","","learning","2","0","0","0","orange","fruit","2","1","","neutral","0"
"html-keyboard-response","197","723364","0.0-11.0-2.0-0.4","6292","1","21","Female","approach_avoid_spark_v1","""event"",""trial"",""time""
""fullscreenenter"",""1"",""3293""
","
","
","""event"",""trial"",""time""
""fullscreenenter"",""1"",""3293""
","
","","","","","","null","<div style=""font-size:60px;"">+</div>","null","","fixation","","","","","","","","","","",""
"aa-learning-trial","198","726370","0.0-11.0-2.0-1.4","6292","1","21","Female","approach_avoid_spark_v1","""event"",""trial"",""time""
""fullscreenenter"",""1"",""3293""
","
","
","""event"",""trial"",""time""
""fullscreenenter"",""1"",""3293""
","
","","","","","","728.8000000119209","images/straw1.png","","","learning","3","3","1","1","straw","fruit","2","1","","good","[6]"
"html-keyboard-response","199","726890","0.0-11.0-2.0-0.5","6292","1","21","Female","approach_avoid_spark_v1","""event"",""trial"",""time""
""fullscreenenter"",""1"",""3293""
","
","
","""event"",""trial"",""time""
""fullscreenenter"",""1"",""3293""
","
","","","","","","null","<div style=""font-size:60px;"">+</div>","null","","fixation","","","","","","","","","","",""
"aa-learning-trial","200","729900","0.0-11.0-2.0-1.5","6292","1","21","Female","approach_avoid_spark_v1","""event"",""trial"",""time""
""fullscreenenter"",""1"",""3293""
","
","
","""event"",""trial"",""time""
""fullscreenenter"",""1"",""3293""
","
","","","","","","574.2999999821186","images/banana7.png","","","learning","-2","0","0","0","banana","fruit","2","1","","bad","[-6]"
"html-keyboard-response","201","730412","0.0-11.0-2.0-0.6","6292","1","21","Female","approach_avoid_spark_v1","""event"",""trial"",""time""
""fullscreenenter"",""1"",""3293""
","
","
","""event"",""trial"",""time""
""fullscreenenter"",""1"",""3293""
","
","","","","","","null","<div style=""font-size:60px;"">+</div>","null","","fixation","","","","","","","","","","",""
"aa-learning-trial","202","733423","0.0-11.0-2.0-1.6","6292","1","21","Female","approach_avoid_spark_v1","""event"",""trial"",""time""
""fullscreenenter"",""1"",""3293""
","
","
","""event"",""trial"",""time""
""fullscreenenter"",""1"",""3293""
","
","","","","","","852.6999999880791","images/straw6.png","","","learning","-4","-4","1","1","straw","fruit","2","1","","good","[6]"
"html-keyboard-response","203","733939","0.0-11.0-2.0-0.7","6292","1","21","Female","approach_avoid_spark_v1","""event"",""trial"",""time""
""fullscreenenter"",""1"",""3293""
","
","
","""event"",""trial"",""time""
""fullscreenenter"",""1"",""3293""
","
","","","","","","null","<div style=""font-size:60px;"">+</div>","null","","fixation","","","","","","","","","","",""
"aa-learning-trial","204","736952","0.0-11.0-2.0-1.7","6292","1","21","Female","approach_avoid_spark_v1","""event"",""trial"",""time""
""fullscreenenter"",""1"",""3293""
","
","
","""event"",""trial"",""time""
""fullscreenenter"",""1"",""3293""
","
","","","","","","944.0999999940395","images/straw6.png","","","learning","-4","0","0","0","straw","fruit","2","1","","good","[6]"
"html-keyboard-response","205","737470","0.0-11.0-2.0-0.8","6292","1","21","Female","approach_avoid_spark_v1","""event"",""trial"",""time""
""fullscreenenter"",""1"",""3293""
","
","
","""event"",""trial"",""time""
""fullscreenenter"",""1"",""3293""
","
","","","","","","null","<div style=""font-size:60px;"">+</div>","null","","fixation","","","","","","","","","","",""
"aa-learning-trial","206","740473","0.0-11.0-2.0-1.8","6292","1","21","Female","approach_avoid_spark_v1","""event"",""trial"",""time""
""fullscreenenter"",""1"",""3293""
","
","
","""event"",""trial"",""time""
""fullscreenenter"",""1"",""3293""
","
","","","","","","930.0999999940395","images/orange5.png","","","learning","5","0","0","0","orange","fruit","2","1","","neutral","0"
"html-keyboard-response","207","740982","0.0-11.0-2.0-0.9","6292","1","21","Female","approach_avoid_spark_v1","""event"",""trial"",""time""
""fullscreenenter"",""1"",""3293""
","
","
","""event"",""trial"",""time""
""fullscreenenter"",""1"",""3293""
","
","","","","","","null","<div style=""font-size:60px;"">+</div>","null","","fixation","","","","","","","","","","",""
"aa-learning-trial","208","743993","0.0-11.0-2.0-1.9","6292","1","21","Female","approach_avoid_spark_v1","""event"",""trial"",""time""
""fullscreenenter"",""1"",""3293""
","
","
","""event"",""trial"",""time""
""fullscreenenter"",""1"",""3293""
","
","","","","","","1058.8999999761581","images/orange7.png","","","learning","-9","0","0","0","orange","fruit","2","1","","neutral","0"
"html-keyboard-response","209","744500","0.0-11.0-2.0-0.10","6292","1","21","Female","approach_avoid_spark_v1","""event"",""trial"",""time""
""fullscreenenter"",""1"",""3293""
","
","
","""event"",""trial"",""time""
""fullscreenenter"",""1"",""3293""
","
","","","","","","null","<div style=""font-size:60px;"">+</div>","null","","fixation","","","","","","","","","","",""
"aa-learning-trial","210","747509","0.0-11.0-2.0-1.10","6292","1","21","Female","approach_avoid_spark_v1","""event"",""trial"",""time""
""fullscreenenter"",""1"",""3293""
","
","
","""event"",""trial"",""time""
""fullscreenenter"",""1"",""3293""
","
","","","","","","790.2999999821186","images/straw1.png","","","learning","3","3","1","1","straw","fruit","2","1","","good","[6]"
"html-keyboard-response","211","748015","0.0-11.0-2.0-0.11","6292","1","21","Female","approach_avoid_spark_v1","""event"",""trial"",""time""
""fullscreenenter"",""1"",""3293""
","
","
","""event"",""trial"",""time""
""fullscreenenter"",""1"",""3293""
","
","","","","","","null","<div style=""font-size:60px;"">+</div>","null","","fixation","","","","","","","","","","",""
"aa-learning-trial","212","751025","0.0-11.0-2.0-1.11","6292","1","21","Female","approach_avoid_spark_v1","""event"",""trial"",""time""
""fullscreenenter"",""1"",""3293""
","
","
","""event"",""trial"",""time""
""fullscreenenter"",""1"",""3293""
","
","","","","","","595.5","images/banana7.png","","","learning","-2","0","0","0","banana","fruit","2","1","","bad","[-6]"
"html-keyboard-response","213","751533","0.0-11.0-2.0-0.12","6292","1","21","Female","approach_avoid_spark_v1","""event"",""trial"",""time""
""fullscreenenter"",""1"",""3293""
","
","
","""event"",""trial"",""time""
""fullscreenenter"",""1"",""3293""
","
","","","","","","null","<div style=""font-size:60px;"">+</div>","null","","fixation","","","","","","","","","","",""
"aa-learning-trial","214","754547","0.0-11.0-2.0-1.12","6292","1","21","Female","approach_avoid_spark_v1","""event"",""trial"",""time""
""fullscreenenter"",""1"",""3293""
","
","
","""event"",""trial"",""time""
""fullscreenenter"",""1"",""3293""
","
","","","","","","831.8999999761581","images/orange8.png","","","learning","2","2","1","1","orange","fruit","2","1","","neutral","0"
"html-keyboard-response","215","755059","0.0-11.0-2.0-0.13","6292","1","21","Female","approach_avoid_spark_v1","""event"",""trial"",""time""
""fullscreenenter"",""1"",""3293""
","
","
","""event"",""trial"",""time""
""fullscreenenter"",""1"",""3293""
","
","","","","","","null","<div style=""font-size:60px;"">+</div>","null","","fixation","","","","","","","","","","",""
"aa-learning-trial","216","758073","0.0-11.0-2.0-1.13","6292","1","21","Female","approach_avoid_spark_v1","""event"",""trial"",""time""
""fullscreenenter"",""1"",""3293""
","
","
","""event"",""trial"",""time""
""fullscreenenter"",""1"",""3293""
","
","","","","","","381","images/orange5.png","","","learning","5","0","0","0","orange","fruit","2","1","","neutral","0"
"html-keyboard-response","217","758577","0.0-11.0-2.0-0.14","6292","1","21","Female","approach_avoid_spark_v1","""event"",""trial"",""time""
""fullscreenenter"",""1"",""3293""
","
","
","""event"",""trial"",""time""
""fullscreenenter"",""1"",""3293""
","
","","","","","","null","<div style=""font-size:60px;"">+</div>","null","","fixation","","","","","","","","","","",""
"aa-learning-trial","218","761585","0.0-11.0-2.0-1.14","6292","1","21","Female","approach_avoid_spark_v1","""event"",""trial"",""time""
""fullscreenenter"",""1"",""3293""
","
","
","""event"",""trial"",""time""
""fullscreenenter"",""1"",""3293""
","
","","","","","","964.5","images/straw7.png","","","learning","1","1","1","1","straw","fruit","2","1","","good","[6]"
"html-keyboard-response","219","762090","0.0-11.0-2.0-0.15","6292","1","21","Female","approach_avoid_spark_v1","""event"",""trial"",""time""
""fullscreenenter"",""1"",""3293""
","
","
","""event"",""trial"",""time""
""fullscreenenter"",""1"",""3293""
","
","","","","","","null","<div style=""font-size:60px;"">+</div>","null","","fixation","","","","","","","","","","",""
"aa-learning-trial","220","765101","0.0-11.0-2.0-1.15","6292","1","21","Female","approach_avoid_spark_v1","""event"",""trial"",""time""
""fullscreenenter"",""1"",""3293""
","
","
","""event"",""trial"",""time""
""fullscreenenter"",""1"",""3293""
","
","","","","","","790.5","images/orange5.png","","","learning","5","0","0","0","orange","fruit","2","1","","neutral","0"
"html-keyboard-response","221","765608","0.0-11.0-2.0-0.16","6292","1","21","Female","approach_avoid_spark_v1","""event"",""trial"",""time""
""fullscreenenter"",""1"",""3293""
","
","
","""event"",""trial"",""time""
""fullscreenenter"",""1"",""3293""
","
","","","","","","null","<div style=""font-size:60px;"">+</div>","null","","fixation","","","","","","","","","","",""
"aa-learning-trial","222","768620","0.0-11.0-2.0-1.16","6292","1","21","Female","approach_avoid_spark_v1","""event"",""trial"",""time""
""fullscreenenter"",""1"",""3293""
","
","
","""event"",""trial"",""time""
""fullscreenenter"",""1"",""3293""
","
","","","","","","736.3000000119209","images/straw1.png","","","learning","3","3","1","1","straw","fruit","2","1","","good","[6]"
"html-keyboard-response","223","769137","0.0-11.0-2.0-0.17","6292","1","21","Female","approach_avoid_spark_v1","""event"",""trial"",""time""
""fullscreenenter"",""1"",""3293""
","
","
","""event"",""trial"",""time""
""fullscreenenter"",""1"",""3293""
","
","","","","","","null","<div style=""font-size:60px;"">+</div>","null","","fixation","","","","","","","","","","",""
"aa-learning-trial","224","772143","0.0-11.0-2.0-1.17","6292","1","21","Female","approach_avoid_spark_v1","""event"",""trial"",""time""
""fullscreenenter"",""1"",""3293""
","
","
","""event"",""trial"",""time""
""fullscreenenter"",""1"",""3293""
","
","","","","","","835","images/straw7.png","","","learning","1","0","0","0","straw","fruit","2","1","","good","[6]"
"html-keyboard-response","225","772651","0.0-11.0-2.0-0.18","6292","1","21","Female","approach_avoid_spark_v1","""event"",""trial"",""time""
""fullscreenenter"",""1"",""3293""
","
","
","""event"",""trial"",""time""
""fullscreenenter"",""1"",""3293""
","
","","","","","","null","<div style=""font-size:60px;"">+</div>","null","","fixation","","","","","","","","","","",""
"aa-learning-trial","226","775655","0.0-11.0-2.0-1.18","6292","1","21","Female","approach_avoid_spark_v1","""event"",""trial"",""time""
""fullscreenenter"",""1"",""3293""
","
","
","""event"",""trial"",""time""
""fullscreenenter"",""1"",""3293""
","
","","","","","","1192.2000000178814","images/orange8.png","","","learning","2","2","1","1","orange","fruit","2","1","","neutral","0"
"html-keyboard-response","227","776164","0.0-11.0-2.0-0.19","6292","1","21","Female","approach_avoid_spark_v1","""event"",""trial"",""time""
""fullscreenenter"",""1"",""3293""
","
","
","""event"",""trial"",""time""
""fullscreenenter"",""1"",""3293""
","
","","","","","","null","<div style=""font-size:60px;"">+</div>","null","","fixation","","","","","","","","","","",""
"aa-learning-trial","228","779171","0.0-11.0-2.0-1.19","6292","1","21","Female","approach_avoid_spark_v1","""event"",""trial"",""time""
""fullscreenenter"",""1"",""3293""
","
","
","""event"",""trial"",""time""
""fullscreenenter"",""1"",""3293""
","
","","","","","","634.4000000059605","images/straw1.png","","","learning","3","3","1","1","straw","fruit","2","1","","good","[6]"
"html-keyboard-response","229","779680","0.0-11.0-2.0-0.20","6292","1","21","Female","approach_avoid_spark_v1","""event"",""trial"",""time""
""fullscreenenter"",""1"",""3293""
","
","
","""event"",""trial"",""time""
""fullscreenenter"",""1"",""3293""
","
","","","","","","null","<div style=""font-size:60px;"">+</div>","null","","fixation","","","","","","","","","","",""
"aa-learning-trial","230","782682","0.0-11.0-2.0-1.20","6292","1","21","Female","approach_avoid_spark_v1","""event"",""trial"",""time""
""fullscreenenter"",""1"",""3293""
","
","
","""event"",""trial"",""time""
""fullscreenenter"",""1"",""3293""
","
","","","","","","598.4000000059605","images/banana4.png","","","learning","6","6","1","1","banana","fruit","2","1","","bad","[-6]"
"html-keyboard-response","231","783185","0.0-11.0-2.0-0.21","6292","1","21","Female","approach_avoid_spark_v1","""event"",""trial"",""time""
""fullscreenenter"",""1"",""3293""
","
","
","""event"",""trial"",""time""
""fullscreenenter"",""1"",""3293""
","
","","","","","","null","<div style=""font-size:60px;"">+</div>","null","","fixation","","","","","","","","","","",""
"aa-learning-trial","232","786195","0.0-11.0-2.0-1.21","6292","1","21","Female","approach_avoid_spark_v1","""event"",""trial"",""time""
""fullscreenenter"",""1"",""3293""
","
","
","""event"",""trial"",""time""
""fullscreenenter"",""1"",""3293""
","
","","","","","","1251.0999999940395","images/straw6.png","","","learning","-4","-4","1","1","straw","fruit","2","1","","good","[6]"
"html-keyboard-response","233","786701","0.0-11.0-2.0-0.22","6292","1","21","Female","approach_avoid_spark_v1","""event"",""trial"",""time""
""fullscreenenter"",""1"",""3293""
","
","
","""event"",""trial"",""time""
""fullscreenenter"",""1"",""3293""
","
","","","","","","null","<div style=""font-size:60px;"">+</div>","null","","fixation","","","","","","","","","","",""
"aa-learning-trial","234","789710","0.0-11.0-2.0-1.22","6292","1","21","Female","approach_avoid_spark_v1","""event"",""trial"",""time""
""fullscreenenter"",""1"",""3293""
","
","
","""event"",""trial"",""time""
""fullscreenenter"",""1"",""3293""
","
","","","","","","886.5999999940395","images/straw7.png","","","learning","1","1","1","1","straw","fruit","2","1","","good","[6]"
"html-keyboard-response","235","790215","0.0-11.0-2.0-0.23","6292","1","21","Female","approach_avoid_spark_v1","""event"",""trial"",""time""
""fullscreenenter"",""1"",""3293""
","
","
","""event"",""trial"",""time""
""fullscreenenter"",""1"",""3293""
","
","","","","","","null","<div style=""font-size:60px;"">+</div>","null","","fixation","","","","","","","","","","",""
"aa-learning-trial","236","793218","0.0-11.0-2.0-1.23","6292","1","21","Female","approach_avoid_spark_v1","""event"",""trial"",""time""
""fullscreenenter"",""1"",""3293""
","
","
","""event"",""trial"",""time""
""fullscreenenter"",""1"",""3293""
","
","","","","","","494.40000000596046","images/banana4.png","","","learning","6","6","1","1","banana","fruit","2","1","","bad","[-6]"
