"trial_type","trial_index","time_elapsed","internal_node_id","subject_id","task_condition","age","gender","task_version","interactions","blur_events","focus_events","fullscreenenter_events","fullscreenexit_events","success","timeout","failed_images","failed_audio","failed_video","rt","stimulus","response","button_pressed","task_part","approach_reward","points","key_press","option_selected","stim_cat","task_block","block_condition","block_number","correct","cat_type","mean_cat_reward"
"pavlovia","0","2","0.0-0.0","6285","1","8","Male","approach_avoid_spark_v1","""event"",""trial"",""time""
""fullscreenenter"",""1"",""3378""
","
","
","""event"",""trial"",""time""
""fullscreenenter"",""1"",""3378""
","
","","","","","","","","","","","","","","","","","","","","",""
"fullscreen","1","4378","0.0-1.0","6285","1","8","Male","approach_avoid_spark_v1","""event"",""trial"",""time""
""fullscreenenter"",""1"",""3378""
","
","
","""event"",""trial"",""time""
""fullscreenenter"",""1"",""3378""
","
","true","","","","","","","","","","","","","","","","","","","",""
"preload","2","27803","0.0-2.0","6285","1","8","Male","approach_avoid_spark_v1","""event"",""trial"",""time""
""fullscreenenter"",""1"",""3378""
","
","
","""event"",""trial"",""time""
""fullscreenenter"",""1"",""3378""
","
","true","false","[]","[]","[]","","","","","","","","","","","","","","","",""
"audio-keyboard-response","3","31337","0.0-3.0","6285","1","8","Male","approach_avoid_spark_v1","""event"",""trial"",""time""
""fullscreenenter"",""1"",""3378""
","
","
","""event"",""trial"",""time""
""fullscreenenter"",""1"",""3378""
","
","","","","","","3530.666666666669","audio/beep_loop.wav"," ","","","","","","","","","","","","",""
"audio-button-response","4","34271","0.0-4.0","6285","1","8","Male","approach_avoid_spark_v1","""event"",""trial"",""time""
""fullscreenenter"",""1"",""3378""
","
","
","""event"",""trial"",""time""
""fullscreenenter"",""1"",""3378""
","
","","","","","","2939","audio/shark.wav","4","","","","","","","","","","","","",""
"audio-button-response","5","37463","0.0-5.0","6285","1","8","Male","approach_avoid_spark_v1","""event"",""trial"",""time""
""fullscreenenter"",""1"",""3378""
","
","
","""event"",""trial"",""time""
""fullscreenenter"",""1"",""3378""
","
","","","","","","2189","audio/turtle.wav","1","","","","","","","","","","","","",""
"preload","6","46891","0.0-6.0","6285","1","8","Male","approach_avoid_spark_v1","""event"",""trial"",""time""
""fullscreenenter"",""1"",""3378""
","
","
","""event"",""trial"",""time""
""fullscreenenter"",""1"",""3378""
","
","true","false","[]","[]","[]","","","","","","","","","","","","","","","",""
"html-keyboard-response","7","49832","0.0-7.0","6285","1","8","Male","approach_avoid_spark_v1","""event"",""trial"",""time""
""fullscreenenter"",""1"",""3378""
","
","
","""event"",""trial"",""time""
""fullscreenenter"",""1"",""3378""
","
","","","","","","2940","Welcome to the experiment. Press any key to begin and to advance the instructions.","g","","","","","","","","","","","","",""
"learning-instructions","8","59103","0.0-8.0-0.0-0.0","6285","1","8","Male","approach_avoid_spark_v1","""event"",""trial"",""time""
""fullscreenenter"",""1"",""3378""
","
","
","""event"",""trial"",""time""
""fullscreenenter"",""1"",""3378""
","
","","","","","","2311","<p> Welcome! Today you are going to play 6 different rounds of a decision-making game. </p><p> Use the mouse to click next to continue. </p>","","0","instructions","","","","","","","","","","",""
"learning-instructions","9","64431","0.0-8.0-0.0-0.1","6285","1","8","Male","approach_avoid_spark_v1","""event"",""trial"",""time""
""fullscreenenter"",""1"",""3378""
","
","
","""event"",""trial"",""time""
""fullscreenenter"",""1"",""3378""
","
","","","","","","2599","<p> You will start with a practice round to learn the rules. </p>","","0","instructions","","","","","","","","","","",""
"learning-instructions","10","69263","0.0-8.0-0.0-0.2","6285","1","8","Male","approach_avoid_spark_v1","""event"",""trial"",""time""
""fullscreenenter"",""1"",""3378""
","
","
","""event"",""trial"",""time""
""fullscreenenter"",""1"",""3378""
","
","","","","","","1371.2000000029802","<p> Your goal in this round is to give out sports equipment to kids. </p></div>","","0","instructions","","","","","","","","","","",""
"learning-instructions","11","77519","0.0-8.0-0.0-0.3","6285","1","8","Male","approach_avoid_spark_v1","""event"",""trial"",""time""
""fullscreenenter"",""1"",""3378""
","
","
","""event"",""trial"",""time""
""fullscreenenter"",""1"",""3378""
","
","","","","","","696.8999999985099","<p> The kids only like some of the equipment.  </p><p> On each turn, you will see a piece of sports equipment.   </p><p> You need to decide whether to give it to the kids or not.  </p>","","0","instructions","","","","","","","","","","",""
"learning-instructions","12","83159","0.0-8.0-0.0-0.4","6285","1","8","Male","approach_avoid_spark_v1","""event"",""trial"",""time""
""fullscreenenter"",""1"",""3378""
","
","
","""event"",""trial"",""time""
""fullscreenenter"",""1"",""3378""
","
","","","","","","887.0999999940395","<p> You can give them the equipment by pressing 1 and choose not to give it to them by pressing 0. </p><br><div class=""choice-instructions-grid""> <div class=""choice-option""><img src=""images/approach.png"" class=""choice-option-img"" stage=""instructions"" position=""0"" ><div class=""choice-option-text""> Press ""1."" </div></div><div class=""choice-option""><img src=""images/avoid.png"" class=""choice-option-img"" stage=""instructions"" position=""1"" ><div class=""choice-option-text""> Press ""0."" </div></div>","","0","instructions","","","","","","","","","","",""
"learning-instructions","13","92023","0.0-8.0-0.0-0.5","6285","1","8","Male","approach_avoid_spark_v1","""event"",""trial"",""time""
""fullscreenenter"",""1"",""3378""
","
","
","""event"",""trial"",""time""
""fullscreenenter"",""1"",""3378""
","
","","","","","","1481.8000000044703","<p> If you give them a piece of equipment they like, they will be happy! </p><p> But if you give them a piece of equipment they do not like, they will be sad. </p>","","0","instructions","","","","","","","","","","",""
"learning-instructions","14","103103","0.0-8.0-0.0-0.6","6285","1","8","Male","approach_avoid_spark_v1","""event"",""trial"",""time""
""fullscreenenter"",""1"",""3378""
","
","
","""event"",""trial"",""time""
""fullscreenenter"",""1"",""3378""
","
","","","","","","570.6000000014901","<p> You will earn points based on how you make kids feel. </p><p> If you make them happy, you will WIN anywhere from 1 - 9 points, </p><p> but if you make them sad, you will LOSE anywhere from 1 - 9 points. </p>","","0","instructions","","","","","","","","","","",""
"learning-instructions","15","113447","0.0-8.0-0.0-0.7","6285","1","8","Male","approach_avoid_spark_v1","""event"",""trial"",""time""
""fullscreenenter"",""1"",""3378""
","
","
","""event"",""trial"",""time""
""fullscreenenter"",""1"",""3378""
","
","","","","","","776.1000000014901","<p> You will see how many points you won or lost in the center of the screen. </p><p> Here is what you would see if you won 6 points: </p><p style=""color:green;font-size:50px;font-weight:bolder"">6</p><p style=""color:green"">The text is GREEN because you WON points.</p>","","0","instructions","","","","","","","","","","",""
"learning-instructions","16","119919","0.0-8.0-0.0-0.8","6285","1","8","Male","approach_avoid_spark_v1","""event"",""trial"",""time""
""fullscreenenter"",""1"",""3378""
","
","
","""event"",""trial"",""time""
""fullscreenenter"",""1"",""3378""
","
","","","","","","956.5999999940395","<p> And here is what you would see if you lost 4 points: </p><p style=""color:red;font-size:50px;font-weight:bolder"">-4</p><p style=""color:red"">The text is RED because you LOST points. </p>","","0","instructions","","","","","","","","","","",""
"learning-instructions","17","134871","0.0-8.0-0.0-0.9","6285","1","8","Male","approach_avoid_spark_v1","""event"",""trial"",""time""
""fullscreenenter"",""1"",""3378""
","
","
","""event"",""trial"",""time""
""fullscreenenter"",""1"",""3378""
","
","","","","","","239.40000000596046","<p> Some of the equipment will make the kids VERY happy or sad. </p><p> These pieces of equipment will make you win or lose LOTS of points. </p><p> Other pieces of equipment will only make the kids a little happy or sad. </p><p> These pieces of equipment will make you win or lose small amounts of points. </p>","","0","instructions","","","","","","","","","","",""
"learning-instructions","18","145999","0.0-8.0-0.0-0.10","6285","1","8","Male","approach_avoid_spark_v1","""event"",""trial"",""time""
""fullscreenenter"",""1"",""3378""
","
","
","""event"",""trial"",""time""
""fullscreenenter"",""1"",""3378""
","
","","","","","","507.20000000298023","<p> If you choose not to give them the equipment, you will not win or lose any points. </p><p>  However, in the center of the screen, you will see the number of points you WOULD HAVE won or lost if you had given them the equipment. </p>","","0","instructions","","","","","","","","","","",""
"learning-instructions","19","168335","0.0-8.0-0.0-0.11","6285","1","8","Male","approach_avoid_spark_v1","""event"",""trial"",""time""
""fullscreenenter"",""1"",""3378""
","
","
","""event"",""trial"",""time""
""fullscreenenter"",""1"",""3378""
","
","","","","","","803","<p> Here is what you might see if you did not give the equipment to the kids but it would have made them happy: </p><p style=""color:grey; font-size:50px; display: inline-block; border-spacing: 15px; border-width:3px; border-style:solid; border-color:red"">  &nbsp; 7 &nbsp; </p><p> Remember, in this case, you would not win or lose ANY points because you did not give them the equipment.  </p><p style=""color:grey"">The text is GREY because you earned ZERO points. </p><p style=""color:red"">However, choosing to give the kids the equipment would have made you win points. The box around the text is RED because you chose the worse option. </p>","","0","instructions","","","","","","","","","","",""
"learning-instructions","20","190535","0.0-8.0-0.0-0.12","6285","1","8","Male","approach_avoid_spark_v1","""event"",""trial"",""time""
""fullscreenenter"",""1"",""3378""
","
","
","""event"",""trial"",""time""
""fullscreenenter"",""1"",""3378""
","
","","","","","","1122.6000000014901","<p> Here is what you might see if you did not give the equipment to the kids but it would have made them sad: </p><p style=""color:grey;font-size:50px; display: inline-block; border-spacing: 15px; border-width:3px; border-style:solid; border-color:green"">  &nbsp; -8 &nbsp; </p><p> Remember, in this case, you would not win or lose ANY points because you did not give them the equipment.  </p><p style=""color:grey"">The text is GREY because you earned ZERO points. </p><p  style=""color:green""> Choosing to give the kids the equipment would have made you lose points. The box around the text is GREEN because you chose the better option.</p>","","0","instructions","","","","","","","","","","",""
"learning-instructions","21","207351","0.0-8.0-0.0-0.13","6285","1","8","Male","approach_avoid_spark_v1","""event"",""trial"",""time""
""fullscreenenter"",""1"",""3378""
","
","
","""event"",""trial"",""time""
""fullscreenenter"",""1"",""3378""
","
","","","","","","7289","<p> You will have 3 seconds to make each choice. Try to respond before time runs out! </p><p> You will lose 5 points each time you do not make a response. </p>","","0","instructions","","","","","","","","","","",""
"learning-instructions","22","218719","0.0-8.0-0.0-0.14","6285","1","8","Male","approach_avoid_spark_v1","""event"",""trial"",""time""
""fullscreenenter"",""1"",""3378""
","
","
","""event"",""trial"",""time""
""fullscreenenter"",""1"",""3378""
","
","","","","","","5958.20000000298","<p> This is just a practice round, but in the real game, your bonus payment will depend on your total number of points.","","0","instructions","","","","","","","","","","",""
"learning-instructions","23","227695","0.0-8.0-0.0-0.15","6285","1","8","Male","approach_avoid_spark_v1","""event"",""trial"",""time""
""fullscreenenter"",""1"",""3378""
","
","
","""event"",""trial"",""time""
""fullscreenenter"",""1"",""3378""
","
","","","","","","3213.7000000029802","<p> Remember, you can give them the equipment by pressing 1 and choose not to give it to them by pressing 0. </p><br><div class=""choice-instructions-grid""> <div class=""choice-option""><img src=""images/approach.png"" class=""choice-option-img"" stage=""instructions"" position=""0"" ><div class=""choice-option-text""> Press ""1."" </div></div><div class=""choice-option""><img src=""images/avoid.png"" class=""choice-option-img"" stage=""instructions"" position=""1"" ><div class=""choice-option-text""> Press ""0."" </div></div>","","0","instructions","","","","","","","","","","",""
"html-button-response","24","234351","0.0-8.0-1.0","6285","1","8","Male","approach_avoid_spark_v1","""event"",""trial"",""time""
""fullscreenenter"",""1"",""3378""
","
","
","""event"",""trial"",""time""
""fullscreenenter"",""1"",""3378""
","
","","","","","","6538.70000000298","<p> Ready to practice? </p>","0","","","","","","","","","","","","",""
"html-keyboard-response","25","234970","0.0-8.0-2.0-0.0","6285","1","8","Male","approach_avoid_spark_v1","""event"",""trial"",""time""
""fullscreenenter"",""1"",""3378""
","
","
","""event"",""trial"",""time""
""fullscreenenter"",""1"",""3378""
","
","","","","","","null","<div style=""font-size:60px;"">+</div>","null","","fixation","","","","","","","","","","",""
"aa-learning-trial","26","237978","0.0-8.0-2.0-1.0","6285","1","8","Male","approach_avoid_spark_v1","""event"",""trial"",""time""
""fullscreenenter"",""1"",""3378""
","
","
","""event"",""trial"",""time""
""fullscreenenter"",""1"",""3378""
","
","","","","","","null","images/racket4.png","","","learning","-5","-5","","null","practice","practice","practice","-1","","",""
"html-keyboard-response","27","238495","0.0-8.0-2.0-0.1","6285","1","8","Male","approach_avoid_spark_v1","""event"",""trial"",""time""
""fullscreenenter"",""1"",""3378""
","
","
","""event"",""trial"",""time""
""fullscreenenter"",""1"",""3378""
","
","","","","","","null","<div style=""font-size:60px;"">+</div>","null","","fixation","","","","","","","","","","",""
"aa-learning-trial","28","241510","0.0-8.0-2.0-1.1","6285","1","8","Male","approach_avoid_spark_v1","""event"",""trial"",""time""
""fullscreenenter"",""1"",""3378""
","
","
","""event"",""trial"",""time""
""fullscreenenter"",""1"",""3378""
","
","","","","","","86.10000000149012","images/ball2.png","","","learning","1","1","1","1","practice","practice","practice","-1","","",""
"html-keyboard-response","29","242028","0.0-8.0-2.0-0.2","6285","1","8","Male","approach_avoid_spark_v1","""event"",""trial"",""time""
""fullscreenenter"",""1"",""3378""
","
","
","""event"",""trial"",""time""
""fullscreenenter"",""1"",""3378""
","
","","","","","","null","<div style=""font-size:60px;"">+</div>","null","","fixation","","","","","","","","","","",""
"aa-learning-trial","30","245044","0.0-8.0-2.0-1.2","6285","1","8","Male","approach_avoid_spark_v1","""event"",""trial"",""time""
""fullscreenenter"",""1"",""3378""
","
","
","""event"",""trial"",""time""
""fullscreenenter"",""1"",""3378""
","
","","","","","","2889.6999999955297","images/racket2.png","","","learning","-4","0","0","0","practice","practice","practice","-1","","",""
"html-keyboard-response","31","245559","0.0-8.0-2.0-0.3","6285","1","8","Male","approach_avoid_spark_v1","""event"",""trial"",""time""
""fullscreenenter"",""1"",""3378""
","
","
","""event"",""trial"",""time""
""fullscreenenter"",""1"",""3378""
","
","","","","","","null","<div style=""font-size:60px;"">+</div>","null","","fixation","","","","","","","","","","",""
"aa-learning-trial","32","248578","0.0-8.0-2.0-1.3","6285","1","8","Male","approach_avoid_spark_v1","""event"",""trial"",""time""
""fullscreenenter"",""1"",""3378""
","
","
","""event"",""trial"",""time""
""fullscreenenter"",""1"",""3378""
","
","","","","","","1837.2999999970198","images/racket2.png","","","learning","-1","-1","1","1","practice","practice","practice","-1","","",""
"html-keyboard-response","33","249094","0.0-8.0-2.0-0.4","6285","1","8","Male","approach_avoid_spark_v1","""event"",""trial"",""time""
""fullscreenenter"",""1"",""3378""
","
","
","""event"",""trial"",""time""
""fullscreenenter"",""1"",""3378""
","
","","","","","","null","<div style=""font-size:60px;"">+</div>","null","","fixation","","","","","","","","","","",""
"aa-learning-trial","34","252111","0.0-8.0-2.0-1.4","6285","1","8","Male","approach_avoid_spark_v1","""event"",""trial"",""time""
""fullscreenenter"",""1"",""3378""
","
","
","""event"",""trial"",""time""
""fullscreenenter"",""1"",""3378""
","
","","","","","","2173.89999999851","images/ball4.png","","","learning","1","1","1","1","practice","practice","practice","-1","","",""
"html-keyboard-response","35","252628","0.0-8.0-2.0-0.5","6285","1","8","Male","approach_avoid_spark_v1","""event"",""trial"",""time""
""fullscreenenter"",""1"",""3378""
","
","
","""event"",""trial"",""time""
""fullscreenenter"",""1"",""3378""
","
","","","","","","null","<div style=""font-size:60px;"">+</div>","null","","fixation","","","","","","","","","","",""
"aa-learning-trial","36","255630","0.0-8.0-2.0-1.5","6285","1","8","Male","approach_avoid_spark_v1","""event"",""trial"",""time""
""fullscreenenter"",""1"",""3378""
","
","
","""event"",""trial"",""time""
""fullscreenenter"",""1"",""3378""
","
","","","","","","2161.3000000044703","images/racket1.png","","","learning","7","7","1","1","practice","practice","practice","-1","","",""
"html-keyboard-response","37","256134","0.0-8.0-2.0-0.6","6285","1","8","Male","approach_avoid_spark_v1","""event"",""trial"",""time""
""fullscreenenter"",""1"",""3378""
","
","
","""event"",""trial"",""time""
""fullscreenenter"",""1"",""3378""
","
","","","","","","null","<div style=""font-size:60px;"">+</div>","null","","fixation","","","","","","","","","","",""
"aa-learning-trial","38","259142","0.0-8.0-2.0-1.6","6285","1","8","Male","approach_avoid_spark_v1","""event"",""trial"",""time""
""fullscreenenter"",""1"",""3378""
","
","
","""event"",""trial"",""time""
""fullscreenenter"",""1"",""3378""
","
","","","","","","1681.1999999955297","images/racket2.png","","","learning","-6","-6","1","1","practice","practice","practice","-1","","",""
"html-keyboard-response","39","259646","0.0-8.0-2.0-0.7","6285","1","8","Male","approach_avoid_spark_v1","""event"",""trial"",""time""
""fullscreenenter"",""1"",""3378""
","
","
","""event"",""trial"",""time""
""fullscreenenter"",""1"",""3378""
","
","","","","","","null","<div style=""font-size:60px;"">+</div>","null","","fixation","","","","","","","","","","",""
"aa-learning-trial","40","262655","0.0-8.0-2.0-1.7","6285","1","8","Male","approach_avoid_spark_v1","""event"",""trial"",""time""
""fullscreenenter"",""1"",""3378""
","
","
","""event"",""trial"",""time""
""fullscreenenter"",""1"",""3378""
","
","","","","","","918.1000000014901","images/ball2.png","","","learning","5","0","0","0","practice","practice","practice","-1","","",""
"html-keyboard-response","41","263159","0.0-8.0-2.0-0.8","6285","1","8","Male","approach_avoid_spark_v1","""event"",""trial"",""time""
""fullscreenenter"",""1"",""3378""
","
","
","""event"",""trial"",""time""
""fullscreenenter"",""1"",""3378""
","
","","","","","","null","<div style=""font-size:60px;"">+</div>","null","","fixation","","","","","","","","","","",""
"aa-learning-trial","42","266166","0.0-8.0-2.0-1.8","6285","1","8","Male","approach_avoid_spark_v1","""event"",""trial"",""time""
""fullscreenenter"",""1"",""3378""
","
","
","""event"",""trial"",""time""
""fullscreenenter"",""1"",""3378""
","
","","","","","","1740.7999999970198","images/ball3.png","","","learning","9","0","0","0","practice","practice","practice","-1","","",""
"html-keyboard-response","43","266670","0.0-8.0-2.0-0.9","6285","1","8","Male","approach_avoid_spark_v1","""event"",""trial"",""time""
""fullscreenenter"",""1"",""3378""
","
","
","""event"",""trial"",""time""
""fullscreenenter"",""1"",""3378""
","
","","","","","","null","<div style=""font-size:60px;"">+</div>","null","","fixation","","","","","","","","","","",""
"aa-learning-trial","44","269678","0.0-8.0-2.0-1.9","6285","1","8","Male","approach_avoid_spark_v1","""event"",""trial"",""time""
""fullscreenenter"",""1"",""3378""
","
","
","""event"",""trial"",""time""
""fullscreenenter"",""1"",""3378""
","
","","","","","","1703.8999999985099","images/racket1.png","","","learning","-9","-9","1","1","practice","practice","practice","-1","","",""
"html-keyboard-response","45","270182","0.0-8.0-2.0-0.10","6285","1","8","Male","approach_avoid_spark_v1","""event"",""trial"",""time""
""fullscreenenter"",""1"",""3378""
","
","
","""event"",""trial"",""time""
""fullscreenenter"",""1"",""3378""
","
","","","","","","null","<div style=""font-size:60px;"">+</div>","null","","fixation","","","","","","","","","","",""
"aa-learning-trial","46","273190","0.0-8.0-2.0-1.10","6285","1","8","Male","approach_avoid_spark_v1","""event"",""trial"",""time""
""fullscreenenter"",""1"",""3378""
","
","
","""event"",""trial"",""time""
""fullscreenenter"",""1"",""3378""
","
","","","","","","1086.2999999970198","images/racket4.png","","","learning","-7","0","0","0","practice","practice","practice","-1","","",""
"html-keyboard-response","47","273694","0.0-8.0-2.0-0.11","6285","1","8","Male","approach_avoid_spark_v1","""event"",""trial"",""time""
""fullscreenenter"",""1"",""3378""
","
","
","""event"",""trial"",""time""
""fullscreenenter"",""1"",""3378""
","
","","","","","","null","<div style=""font-size:60px;"">+</div>","null","","fixation","","","","","","","","","","",""
"aa-learning-trial","48","276702","0.0-8.0-2.0-1.11","6285","1","8","Male","approach_avoid_spark_v1","""event"",""trial"",""time""
""fullscreenenter"",""1"",""3378""
","
","
","""event"",""trial"",""time""
""fullscreenenter"",""1"",""3378""
","
","","","","","","646.8999999985099","images/ball3.png","","","learning","-3","-3","1","1","practice","practice","practice","-1","","",""
"html-button-response","49","279527","0.0-8.0-3.0","6285","1","8","Male","approach_avoid_spark_v1","""event"",""trial"",""time""
""fullscreenenter"",""1"",""3378""
","
","
","""event"",""trial"",""time""
""fullscreenenter"",""1"",""3378""
","
","","","","","","2822.10000000149","<p> You earned -15 points in the practice round! </p>","0","","break","","","","","","","","","","",""
"learning-instructions","50","298631","0.0-8.0-4.0-0.0","6285","1","8","Male","approach_avoid_spark_v1","""event"",""trial"",""time""
""fullscreenenter"",""1"",""3378""
","
","
","""event"",""trial"",""time""
""fullscreenenter"",""1"",""3378""
","
","","","","","","13081.29999999702","<p> It's almost time to start the real game. </p><p> Before you start, we're going to ask you a few questions about how the game works. </p>","","0","instructions","","","","","","","","","","",""
"preload","51","303202","0.0-8.0-5.0","6285","1","8","Male","approach_avoid_spark_v1","""event"",""trial"",""time""
""fullscreenenter"",""1"",""3378""
","
","
","""event"",""trial"",""time""
""fullscreenenter"",""1"",""3378""
","
","true","false","[]","[]","[]","","","","","","","","","","","","","","","",""
"comp-q","52","310599","0.0-8.0-6.0-0.0","6285","1","8","Male","approach_avoid_spark_v1","""event"",""trial"",""time""
""fullscreenenter"",""1"",""3378""
","
","
","""event"",""trial"",""time""
""fullscreenenter"",""1"",""3378""
","
","","","","","","2399.7999999970198","<p> <b> True or False? </b> </p><p> If you see a number in GREY, that means you earned that many points. </p>","","1","comp_question","","","","","","","","","true","",""
"comp-q","53","326447","0.0-8.0-6.0-1.0","6285","1","8","Male","approach_avoid_spark_v1","""event"",""trial"",""time""
""fullscreenenter"",""1"",""3378""
","
","
","""event"",""trial"",""time""
""fullscreenenter"",""1"",""3378""
","
","","","","","","7477","<p><b> That's right! </b> If you see a grey number, it means you earned ZERO points. <br> The grey numbers show the points you WOULD HAVE earned if you had made the other choice. </p>","","0","comp_answer","","","","","","","","","","",""
"comp-q","54","332007","0.0-8.0-7.0-0.0","6285","1","8","Male","approach_avoid_spark_v1","""event"",""trial"",""time""
""fullscreenenter"",""1"",""3378""
","
","
","""event"",""trial"",""time""
""fullscreenenter"",""1"",""3378""
","
","","","","","","857.6000000014901","<p> <b> True or False? </b> </p><p> You will have as much time as you want to make each choice. </p>","","1","comp_question","","","","","","","","","true","",""
"comp-q","55","337975","0.0-8.0-7.0-1.0","6285","1","8","Male","approach_avoid_spark_v1","""event"",""trial"",""time""
""fullscreenenter"",""1"",""3378""
","
","
","""event"",""trial"",""time""
""fullscreenenter"",""1"",""3378""
","
","","","","","","1925.8000000044703","<p> <b> That's right! </b> You will only have 3 seconds to make each choice. </p>","","0","comp_answer","","","","","","","","","","",""
"comp-q","56","343183","0.0-8.0-8.0-0.0","6285","1","8","Male","approach_avoid_spark_v1","""event"",""trial"",""time""
""fullscreenenter"",""1"",""3378""
","
","
","""event"",""trial"",""time""
""fullscreenenter"",""1"",""3378""
","
","","","","","","533.3999999985099","<p> <b> True or False? </b> </p><p> You should use the '1' and '0' keys to make your choices. </p>","","0","comp_question","","","","","","","","","true","",""
"comp-q","57","348983","0.0-8.0-8.0-1.0","6285","1","8","Male","approach_avoid_spark_v1","""event"",""trial"",""time""
""fullscreenenter"",""1"",""3378""
","
","
","""event"",""trial"",""time""
""fullscreenenter"",""1"",""3378""
","
","","","","","","1183.3000000044703","<p> <b> That's right! </b> You should use the '1' and '0' keys to make each choice. </p>","","0","comp_answer","","","","","","","","","","",""
"learning-instructions","58","357679","0.0-8.0-9.0-0.0","6285","1","8","Male","approach_avoid_spark_v1","""event"",""trial"",""time""
""fullscreenenter"",""1"",""3378""
","
","
","""event"",""trial"",""time""
""fullscreenenter"",""1"",""3378""
","
","","","","","","2419.7000000029802","<p> It's now time to start the real game. </p>Do your best, because the points you earn in the next rounds will influence your bonus payment. </p>","","0","instructions","","","","","","","","","","",""
"preload","59","357805","0.0-9.0-0.0","6285","1","8","Male","approach_avoid_spark_v1","""event"",""trial"",""time""
""fullscreenenter"",""1"",""3378""
","
","
","""event"",""trial"",""time""
""fullscreenenter"",""1"",""3378""
","
","true","false","[]","[]","[]","","","","","","","","","","","","","","","",""
"learning-instructions","60","363182","0.0-9.0-1.0-0.0","6285","1","8","Male","approach_avoid_spark_v1","""event"",""trial"",""time""
""fullscreenenter"",""1"",""3378""
","
","
","""event"",""trial"",""time""
""fullscreenenter"",""1"",""3378""
","
","","","","","","1933.5","<p> Your goal in this round is to eat tasty fruit. </p></div>","","0","instructions","","","","","","","","","","",""
"learning-instructions","61","378142","0.0-9.0-1.0-0.1","6285","1","8","Male","approach_avoid_spark_v1","""event"",""trial"",""time""
""fullscreenenter"",""1"",""3378""
","
","
","""event"",""trial"",""time""
""fullscreenenter"",""1"",""3378""
","
","","","","","","4854.20000000298","<p> Some of the fruits you will see are tasty. Others are rotten on the inside.  </p><p> On each turn, you will see a fruit.   </p><p> You need to decide whether to eat it or not.  </p>","","0","instructions","","","","","","","","","","",""
"learning-instructions","62","386262","0.0-9.0-1.0-0.2","6285","1","8","Male","approach_avoid_spark_v1","""event"",""trial"",""time""
""fullscreenenter"",""1"",""3378""
","
","
","""event"",""trial"",""time""
""fullscreenenter"",""1"",""3378""
","
","","","","","","2973","<p> You can eat the fruit by pressing 1 and choose not to eat it by pressing 0. </p><br><div class=""choice-instructions-grid""> <div class=""choice-option""><img src=""images/approach.png"" class=""choice-option-img"" stage=""instructions"" position=""0"" ><div class=""choice-option-text""> Press ""1."" </div></div><div class=""choice-option""><img src=""images/avoid.png"" class=""choice-option-img"" stage=""instructions"" position=""1"" ><div class=""choice-option-text""> Press ""0."" </div></div>","","0","instructions","","","","","","","","","","",""
"learning-instructions","63","394862","0.0-9.0-1.0-0.3","6285","1","8","Male","approach_avoid_spark_v1","""event"",""trial"",""time""
""fullscreenenter"",""1"",""3378""
","
","
","""event"",""trial"",""time""
""fullscreenenter"",""1"",""3378""
","
","","","","","","953.3999999985099","<p> If you eat the fruit and it was tasty, you will win points! </p><p> But if you eat the fruit and it was rotten, you will lose points. </p>","","0","instructions","","","","","","","","","","",""
"learning-instructions","64","407054","0.0-9.0-1.0-0.4","6285","1","8","Male","approach_avoid_spark_v1","""event"",""trial"",""time""
""fullscreenenter"",""1"",""3378""
","
","
","""event"",""trial"",""time""
""fullscreenenter"",""1"",""3378""
","
","","","","","","536.2000000029802","<p> You will earn points based on how tasty or rotten the fruit was. </p><p> If it was tasty, you will WIN anywhere from 1 - 9 points, </p><p> but if it was rotten, you will LOSE anywhere from 1 - 9 points. </p>","","0","instructions","","","","","","","","","","",""
"learning-instructions","65","415311","0.0-9.0-1.0-0.5","6285","1","8","Male","approach_avoid_spark_v1","""event"",""trial"",""time""
""fullscreenenter"",""1"",""3378""
","
","
","""event"",""trial"",""time""
""fullscreenenter"",""1"",""3378""
","
","","","","","","432.20000000298023","<p> You will see how many points you won or lost in the center of the screen. </p><p> Here is what you would see if you earned 5 points: </p><p style=""color:green;font-size:50px;font-weight:bolder"">5</p>","","0","instructions","","","","","","","","","","",""
"learning-instructions","66","419142","0.0-9.0-1.0-0.6","6285","1","8","Male","approach_avoid_spark_v1","""event"",""trial"",""time""
""fullscreenenter"",""1"",""3378""
","
","
","""event"",""trial"",""time""
""fullscreenenter"",""1"",""3378""
","
","","","","","","204.20000000298023","<p> And here is what you would see if you lost 3 points: </p><p style=""color:red;font-size:50px;font-weight:bolder"">-3</p>","","0","instructions","","","","","","","","","","",""
"learning-instructions","67","435175","0.0-9.0-1.0-0.7","6285","1","8","Male","approach_avoid_spark_v1","""event"",""trial"",""time""
""fullscreenenter"",""1"",""3378""
","
","
","""event"",""trial"",""time""
""fullscreenenter"",""1"",""3378""
","
","","","","","","1795.3999999985099","<p> Some fruit is very tasty or very rotten. </p><p> These fruits will make you win or lose LOTS of points. </p><p> Other fruits are only kind of tasty or kind of rotten. </p><p> These fruits will make you win or lose small amounts of points. </p>","","0","instructions","","","","","","","","","","",""
"learning-instructions","68","450559","0.0-9.0-1.0-0.8","6285","1","8","Male","approach_avoid_spark_v1","""event"",""trial"",""time""
""fullscreenenter"",""1"",""3378""
","
","
","""event"",""trial"",""time""
""fullscreenenter"",""1"",""3378""
","
","","","","","","4599.10000000149","<p> If you choose to not eat the fruit, you will not win or lose any points. </p><p>  However, in the center of the screen, you will see the number of points you WOULD HAVE earned if you had eaten the fruit. </p>","","0","instructions","","","","","","","","","","",""
"learning-instructions","69","489727","0.0-9.0-1.0-0.9","6285","1","8","Male","approach_avoid_spark_v1","""event"",""trial"",""time""
""fullscreenenter"",""1"",""3378""
","
","
","""event"",""trial"",""time""
""fullscreenenter"",""1"",""3378""
","
","","","","","","28907.89999999851","<p> Here is what you might see if you did not eat the fruit but the fruit was tasty: </p><p style=""color:grey; font-size:50px; display: inline-block; border-spacing: 15px; border-width:3px; border-style:solid; border-color:red"">  &nbsp; 6 &nbsp; </p><p> Remember, in this case, you would not win or lose ANY points because you did not eat the fruit.  </p>","","0","instructions","","","","","","","","","","",""
"learning-instructions","70","498199","0.0-9.0-1.0-0.10","6285","1","8","Male","approach_avoid_spark_v1","""event"",""trial"",""time""
""fullscreenenter"",""1"",""3378""
","
","
","""event"",""trial"",""time""
""fullscreenenter"",""1"",""3378""
","
","","","","","","330.40000000596046","<p> Try to make the best choice for each fruit because </p><p> at the end of the game, you will earn bonus money based on how many points you earned. </p>","","0","instructions","","","","","","","","","","",""
"learning-instructions","71","507487","0.0-9.0-1.0-0.11","6285","1","8","Male","approach_avoid_spark_v1","""event"",""trial"",""time""
""fullscreenenter"",""1"",""3378""
","
","
","""event"",""trial"",""time""
""fullscreenenter"",""1"",""3378""
","
","","","","","","1097.7000000029802","<p> You will have 3 seconds to make each choice. Try to respond before time runs out! </p><p> You will lose 5 points each time you do not make a response. </p>","","0","instructions","","","","","","","","","","",""
"html-keyboard-response","72","508110","0.0-9.0-2.0-0.0","6285","1","8","Male","approach_avoid_spark_v1","""event"",""trial"",""time""
""fullscreenenter"",""1"",""3378""
","
","
","""event"",""trial"",""time""
""fullscreenenter"",""1"",""3378""
","
","","","","","","null","<div style=""font-size:60px;"">+</div>","null","","fixation","","","","","","","","","","",""
"aa-learning-trial","73","511127","0.0-9.0-2.0-1.0","6285","1","8","Male","approach_avoid_spark_v1","""event"",""trial"",""time""
""fullscreenenter"",""1"",""3378""
","
","
","""event"",""trial"",""time""
""fullscreenenter"",""1"",""3378""
","
","","","","","","1864","images/orange7.png","","","learning","1","1","1","1","orange","fruit","1","0","","neutral","0"
"html-keyboard-response","74","511637","0.0-9.0-2.0-0.1","6285","1","8","Male","approach_avoid_spark_v1","""event"",""trial"",""time""
""fullscreenenter"",""1"",""3378""
","
","
","""event"",""trial"",""time""
""fullscreenenter"",""1"",""3378""
","
","","","","","","null","<div style=""font-size:60px;"">+</div>","null","","fixation","","","","","","","","","","",""
"aa-learning-trial","75","514661","0.0-9.0-2.0-1.1","6285","1","8","Male","approach_avoid_spark_v1","""event"",""trial"",""time""
""fullscreenenter"",""1"",""3378""
","
","
","""event"",""trial"",""time""
""fullscreenenter"",""1"",""3378""
","
","","","","","","1312.5","images/orange2.png","","","learning","-2","-2","1","1","orange","fruit","1","0","","neutral","0"
"html-keyboard-response","76","515177","0.0-9.0-2.0-0.2","6285","1","8","Male","approach_avoid_spark_v1","""event"",""trial"",""time""
""fullscreenenter"",""1"",""3378""
","
","
","""event"",""trial"",""time""
""fullscreenenter"",""1"",""3378""
","
","","","","","","null","<div style=""font-size:60px;"">+</div>","null","","fixation","","","","","","","","","","",""
"aa-learning-trial","77","518195","0.0-9.0-2.0-1.2","6285","1","8","Male","approach_avoid_spark_v1","""event"",""trial"",""time""
""fullscreenenter"",""1"",""3378""
","
","
","""event"",""trial"",""time""
""fullscreenenter"",""1"",""3378""
","
","","","","","","1003.8999999985099","images/orange4.png","","","learning","2","2","1","1","orange","fruit","1","0","","neutral","0"
"html-keyboard-response","78","518711","0.0-9.0-2.0-0.3","6285","1","8","Male","approach_avoid_spark_v1","""event"",""trial"",""time""
""fullscreenenter"",""1"",""3378""
","
","
","""event"",""trial"",""time""
""fullscreenenter"",""1"",""3378""
","
","","","","","","null","<div style=""font-size:60px;"">+</div>","null","","fixation","","","","","","","","","","",""
"aa-learning-trial","79","521727","0.0-9.0-2.0-1.3","6285","1","8","Male","approach_avoid_spark_v1","""event"",""trial"",""time""
""fullscreenenter"",""1"",""3378""
","
","
","""event"",""trial"",""time""
""fullscreenenter"",""1"",""3378""
","
","","","","","","1725.5","images/banana8.png","","","learning","8","8","1","1","banana","fruit","1","0","","good","[6]"
"html-keyboard-response","80","522245","0.0-9.0-2.0-0.4","6285","1","8","Male","approach_avoid_spark_v1","""event"",""trial"",""time""
""fullscreenenter"",""1"",""3378""
","
","
","""event"",""trial"",""time""
""fullscreenenter"",""1"",""3378""
","
","","","","","","null","<div style=""font-size:60px;"">+</div>","null","","fixation","","","","","","","","","","",""
"aa-learning-trial","81","525261","0.0-9.0-2.0-1.4","6285","1","8","Male","approach_avoid_spark_v1","""event"",""trial"",""time""
""fullscreenenter"",""1"",""3378""
","
","
","""event"",""trial"",""time""
""fullscreenenter"",""1"",""3378""
","
","","","","","","1151.8999999985099","images/orange2.png","","","learning","2","0","0","0","orange","fruit","1","0","","neutral","0"
"html-keyboard-response","82","525777","0.0-9.0-2.0-0.5","6285","1","8","Male","approach_avoid_spark_v1","""event"",""trial"",""time""
""fullscreenenter"",""1"",""3378""
","
","
","""event"",""trial"",""time""
""fullscreenenter"",""1"",""3378""
","
","","","","","","null","<div style=""font-size:60px;"">+</div>","null","","fixation","","","","","","","","","","",""
"aa-learning-trial","83","528783","0.0-9.0-2.0-1.5","6285","1","8","Male","approach_avoid_spark_v1","""event"",""trial"",""time""
""fullscreenenter"",""1"",""3378""
","
","
","""event"",""trial"",""time""
""fullscreenenter"",""1"",""3378""
","
","","","","","","1187.7000000029802","images/banana2.png","","","learning","6","6","1","1","banana","fruit","1","0","","good","[6]"
"html-keyboard-response","84","529294","0.0-9.0-2.0-0.6","6285","1","8","Male","approach_avoid_spark_v1","""event"",""trial"",""time""
""fullscreenenter"",""1"",""3378""
","
","
","""event"",""trial"",""time""
""fullscreenenter"",""1"",""3378""
","
","","","","","","null","<div style=""font-size:60px;"">+</div>","null","","fixation","","","","","","","","","","",""
"aa-learning-trial","85","532312","0.0-9.0-2.0-1.6","6285","1","8","Male","approach_avoid_spark_v1","""event"",""trial"",""time""
""fullscreenenter"",""1"",""3378""
","
","
","""event"",""trial"",""time""
""fullscreenenter"",""1"",""3378""
","
","","","","","","1015.2999999970198","images/banana3.png","","","learning","6","6","1","1","banana","fruit","1","0","","good","[6]"
"html-keyboard-response","86","532827","0.0-9.0-2.0-0.7","6285","1","8","Male","approach_avoid_spark_v1","""event"",""trial"",""time""
""fullscreenenter"",""1"",""3378""
","
","
","""event"",""trial"",""time""
""fullscreenenter"",""1"",""3378""
","
","","","","","","null","<div style=""font-size:60px;"">+</div>","null","","fixation","","","","","","","","","","",""
"aa-learning-trial","87","535845","0.0-9.0-2.0-1.7","6285","1","8","Male","approach_avoid_spark_v1","""event"",""trial"",""time""
""fullscreenenter"",""1"",""3378""
","
","
","""event"",""trial"",""time""
""fullscreenenter"",""1"",""3378""
","
","","","","","","650.3000000044703","images/banana3.png","","","learning","5","5","1","1","banana","fruit","1","0","","good","[6]"
"html-keyboard-response","88","536361","0.0-9.0-2.0-0.8","6285","1","8","Male","approach_avoid_spark_v1","""event"",""trial"",""time""
""fullscreenenter"",""1"",""3378""
","
","
","""event"",""trial"",""time""
""fullscreenenter"",""1"",""3378""
","
","","","","","","null","<div style=""font-size:60px;"">+</div>","null","","fixation","","","","","","","","","","",""
"aa-learning-trial","89","539368","0.0-9.0-2.0-1.8","6285","1","8","Male","approach_avoid_spark_v1","""event"",""trial"",""time""
""fullscreenenter"",""1"",""3378""
","
","
","""event"",""trial"",""time""
""fullscreenenter"",""1"",""3378""
","
","","","","","","1756.6000000014901","images/apple6.png","","","learning","-3","0","0","0","apple","fruit","1","0","","bad","[-4]"
"html-keyboard-response","90","539871","0.0-9.0-2.0-0.9","6285","1","8","Male","approach_avoid_spark_v1","""event"",""trial"",""time""
""fullscreenenter"",""1"",""3378""
","
","
","""event"",""trial"",""time""
""fullscreenenter"",""1"",""3378""
","
","","","","","","null","<div style=""font-size:60px;"">+</div>","null","","fixation","","","","","","","","","","",""
"aa-learning-trial","91","542880","0.0-9.0-2.0-1.9","6285","1","8","Male","approach_avoid_spark_v1","""event"",""trial"",""time""
""fullscreenenter"",""1"",""3378""
","
","
","""event"",""trial"",""time""
""fullscreenenter"",""1"",""3378""
","
","","","","","","870.7000000029802","images/apple5.png","","","learning","-5","-5","1","1","apple","fruit","1","0","","bad","[-4]"
"html-keyboard-response","92","543383","0.0-9.0-2.0-0.10","6285","1","8","Male","approach_avoid_spark_v1","""event"",""trial"",""time""
""fullscreenenter"",""1"",""3378""
","
","
","""event"",""trial"",""time""
""fullscreenenter"",""1"",""3378""
","
","","","","","","null","<div style=""font-size:60px;"">+</div>","null","","fixation","","","","","","","","","","",""
"aa-learning-trial","93","546391","0.0-9.0-2.0-1.10","6285","1","8","Male","approach_avoid_spark_v1","""event"",""trial"",""time""
""fullscreenenter"",""1"",""3378""
","
","
","""event"",""trial"",""time""
""fullscreenenter"",""1"",""3378""
","
","","","","","","670.8999999985099","images/apple6.png","","","learning","-7","-7","1","1","apple","fruit","1","0","","bad","[-4]"
"html-keyboard-response","94","546894","0.0-9.0-2.0-0.11","6285","1","8","Male","approach_avoid_spark_v1","""event"",""trial"",""time""
""fullscreenenter"",""1"",""3378""
","
","
","""event"",""trial"",""time""
""fullscreenenter"",""1"",""3378""
","
","","","","","","null","<div style=""font-size:60px;"">+</div>","null","","fixation","","","","","","","","","","",""
"aa-learning-trial","95","549903","0.0-9.0-2.0-1.11","6285","1","8","Male","approach_avoid_spark_v1","""event"",""trial"",""time""
""fullscreenenter"",""1"",""3378""
","
","
","""event"",""trial"",""time""
""fullscreenenter"",""1"",""3378""
","
","","","","","","998.9000000059605","images/apple1.png","","","learning","-6","0","0","0","apple","fruit","1","0","","bad","[-4]"
"html-keyboard-response","96","550407","0.0-9.0-2.0-0.12","6285","1","8","Male","approach_avoid_spark_v1","""event"",""trial"",""time""
""fullscreenenter"",""1"",""3378""
","
","
","""event"",""trial"",""time""
""fullscreenenter"",""1"",""3378""
","
","","","","","","null","<div style=""font-size:60px;"">+</div>","null","","fixation","","","","","","","","","","",""
"aa-learning-trial","97","553411","0.0-9.0-2.0-1.12","6285","1","8","Male","approach_avoid_spark_v1","""event"",""trial"",""time""
""fullscreenenter"",""1"",""3378""
","
","
","""event"",""trial"",""time""
""fullscreenenter"",""1"",""3378""
","
","","","","","","2013.8999999985099","images/apple5.png","","","learning","-3","-3","1","1","apple","fruit","1","0","","bad","[-4]"
"html-keyboard-response","98","553918","0.0-9.0-2.0-0.13","6285","1","8","Male","approach_avoid_spark_v1","""event"",""trial"",""time""
""fullscreenenter"",""1"",""3378""
","
","
","""event"",""trial"",""time""
""fullscreenenter"",""1"",""3378""
","
","","","","","","null","<div style=""font-size:60px;"">+</div>","null","","fixation","","","","","","","","","","",""
"aa-learning-trial","99","556926","0.0-9.0-2.0-1.13","6285","1","8","Male","approach_avoid_spark_v1","""event"",""trial"",""time""
""fullscreenenter"",""1"",""3378""
","
","
","""event"",""trial"",""time""
""fullscreenenter"",""1"",""3378""
","
","","","","","","968.2999999970198","images/orange7.png","","","learning","1","0","0","0","orange","fruit","1","0","","neutral","0"
"html-keyboard-response","100","557431","0.0-9.0-2.0-0.14","6285","1","8","Male","approach_avoid_spark_v1","""event"",""trial"",""time""
""fullscreenenter"",""1"",""3378""
","
","
","""event"",""trial"",""time""
""fullscreenenter"",""1"",""3378""
","
","","","","","","null","<div style=""font-size:60px;"">+</div>","null","","fixation","","","","","","","","","","",""
"aa-learning-trial","101","560438","0.0-9.0-2.0-1.14","6285","1","8","Male","approach_avoid_spark_v1","""event"",""trial"",""time""
""fullscreenenter"",""1"",""3378""
","
","
","""event"",""trial"",""time""
""fullscreenenter"",""1"",""3378""
","
","","","","","","829.3999999985099","images/banana2.png","","","learning","6","6","1","1","banana","fruit","1","0","","good","[6]"
"html-keyboard-response","102","560942","0.0-9.0-2.0-0.15","6285","1","8","Male","approach_avoid_spark_v1","""event"",""trial"",""time""
""fullscreenenter"",""1"",""3378""
","
","
","""event"",""trial"",""time""
""fullscreenenter"",""1"",""3378""
","
","","","","","","null","<div style=""font-size:60px;"">+</div>","null","","fixation","","","","","","","","","","",""
"aa-learning-trial","103","563951","0.0-9.0-2.0-1.15","6285","1","8","Male","approach_avoid_spark_v1","""event"",""trial"",""time""
""fullscreenenter"",""1"",""3378""
","
","
","""event"",""trial"",""time""
""fullscreenenter"",""1"",""3378""
","
","","","","","","518.2000000029802","images/orange2.png","","","learning","-1","-1","1","1","orange","fruit","1","0","","neutral","0"
"html-keyboard-response","104","564454","0.0-9.0-2.0-0.16","6285","1","8","Male","approach_avoid_spark_v1","""event"",""trial"",""time""
""fullscreenenter"",""1"",""3378""
","
","
","""event"",""trial"",""time""
""fullscreenenter"",""1"",""3378""
","
","","","","","","null","<div style=""font-size:60px;"">+</div>","null","","fixation","","","","","","","","","","",""
"aa-learning-trial","105","567463","0.0-9.0-2.0-1.16","6285","1","8","Male","approach_avoid_spark_v1","""event"",""trial"",""time""
""fullscreenenter"",""1"",""3378""
","
","
","""event"",""trial"",""time""
""fullscreenenter"",""1"",""3378""
","
","","","","","","1311.2999999970198","images/banana8.png","","","learning","5","5","1","1","banana","fruit","1","0","","good","[6]"
"html-keyboard-response","106","567966","0.0-9.0-2.0-0.17","6285","1","8","Male","approach_avoid_spark_v1","""event"",""trial"",""time""
""fullscreenenter"",""1"",""3378""
","
","
","""event"",""trial"",""time""
""fullscreenenter"",""1"",""3378""
","
","","","","","","null","<div style=""font-size:60px;"">+</div>","null","","fixation","","","","","","","","","","",""
"aa-learning-trial","107","570975","0.0-9.0-2.0-1.17","6285","1","8","Male","approach_avoid_spark_v1","""event"",""trial"",""time""
""fullscreenenter"",""1"",""3378""
","
","
","""event"",""trial"",""time""
""fullscreenenter"",""1"",""3378""
","
","","","","","","1096","images/orange7.png","","","learning","-1","0","0","0","orange","fruit","1","0","","neutral","0"
"html-keyboard-response","108","571478","0.0-9.0-2.0-0.18","6285","1","8","Male","approach_avoid_spark_v1","""event"",""trial"",""time""
""fullscreenenter"",""1"",""3378""
","
","
","""event"",""trial"",""time""
""fullscreenenter"",""1"",""3378""
","
","","","","","","null","<div style=""font-size:60px;"">+</div>","null","","fixation","","","","","","","","","","",""
"aa-learning-trial","109","574487","0.0-9.0-2.0-1.18","6285","1","8","Male","approach_avoid_spark_v1","""event"",""trial"",""time""
""fullscreenenter"",""1"",""3378""
","
","
","""event"",""trial"",""time""
""fullscreenenter"",""1"",""3378""
","
","","","","","","1070.2000000029802","images/orange2.png","","","learning","1","1","1","1","orange","fruit","1","0","","neutral","0"
"html-keyboard-response","110","574990","0.0-9.0-2.0-0.19","6285","1","8","Male","approach_avoid_spark_v1","""event"",""trial"",""time""
""fullscreenenter"",""1"",""3378""
","
","
","""event"",""trial"",""time""
""fullscreenenter"",""1"",""3378""
","
","","","","","","null","<div style=""font-size:60px;"">+</div>","null","","fixation","","","","","","","","","","",""
"aa-learning-trial","111","577999","0.0-9.0-2.0-1.19","6285","1","8","Male","approach_avoid_spark_v1","""event"",""trial"",""time""
""fullscreenenter"",""1"",""3378""
","
","
","""event"",""trial"",""time""
""fullscreenenter"",""1"",""3378""
","
","","","","","","1255.0999999940395","images/orange5.png","","","learning","-1","-1","1","1","orange","fruit","1","0","","neutral","0"
"html-keyboard-response","112","578502","0.0-9.0-2.0-0.20","6285","1","8","Male","approach_avoid_spark_v1","""event"",""trial"",""time""
""fullscreenenter"",""1"",""3378""
","
","
","""event"",""trial"",""time""
""fullscreenenter"",""1"",""3378""
","
","","","","","","null","<div style=""font-size:60px;"">+</div>","null","","fixation","","","","","","","","","","",""
"aa-learning-trial","113","581511","0.0-9.0-2.0-1.20","6285","1","8","Male","approach_avoid_spark_v1","""event"",""trial"",""time""
""fullscreenenter"",""1"",""3378""
","
","
","""event"",""trial"",""time""
""fullscreenenter"",""1"",""3378""
","
","","","","","","1230.7000000029802","images/orange3.png","","","learning","[1]","1","1","1","orange","fruit","1","0","","neutral","0"
"html-keyboard-response","114","582014","0.0-9.0-2.0-0.21","6285","1","8","Male","approach_avoid_spark_v1","""event"",""trial"",""time""
""fullscreenenter"",""1"",""3378""
","
","
","""event"",""trial"",""time""
""fullscreenenter"",""1"",""3378""
","
","","","","","","null","<div style=""font-size:60px;"">+</div>","null","","fixation","","","","","","","","","","",""
"aa-learning-trial","115","585022","0.0-9.0-2.0-1.21","6285","1","8","Male","approach_avoid_spark_v1","""event"",""trial"",""time""
""fullscreenenter"",""1"",""3378""
","
","
","""event"",""trial"",""time""
""fullscreenenter"",""1"",""3378""
","
","","","","","","2007.3999999985099","images/orange2.png","","","learning","-2","0","0","0","orange","fruit","1","0","","neutral","0"
"html-keyboard-response","116","585526","0.0-9.0-2.0-0.22","6285","1","8","Male","approach_avoid_spark_v1","""event"",""trial"",""time""
""fullscreenenter"",""1"",""3378""
","
","
","""event"",""trial"",""time""
""fullscreenenter"",""1"",""3378""
","
","","","","","","null","<div style=""font-size:60px;"">+</div>","null","","fixation","","","","","","","","","","",""
"aa-learning-trial","117","588535","0.0-9.0-2.0-1.22","6285","1","8","Male","approach_avoid_spark_v1","""event"",""trial"",""time""
""fullscreenenter"",""1"",""3378""
","
","
","""event"",""trial"",""time""
""fullscreenenter"",""1"",""3378""
","
","","","","","","1999.7000000029802","images/orange4.png","","","learning","[-1]","0","0","0","orange","fruit","1","0","","neutral","0"
"html-keyboard-response","118","589038","0.0-9.0-2.0-0.23","6285","1","8","Male","approach_avoid_spark_v1","""event"",""trial"",""time""
""fullscreenenter"",""1"",""3378""
","
","
","""event"",""trial"",""time""
""fullscreenenter"",""1"",""3378""
","
","","","","","","null","<div style=""font-size:60px;"">+</div>","null","","fixation","","","","","","","","","","",""
"aa-learning-trial","119","592046","0.0-9.0-2.0-1.23","6285","1","8","Male","approach_avoid_spark_v1","""event"",""trial"",""time""
""fullscreenenter"",""1"",""3378""
","
","
","""event"",""trial"",""time""
""fullscreenenter"",""1"",""3378""
","
","","","","","","1014.7000000029802","images/banana2.png","","","learning","8","8","1","1","banana","fruit","1","0","","good","[6]"
"html-keyboard-response","120","592551","0.0-9.0-2.0-0.24","6285","1","8","Male","approach_avoid_spark_v1","""event"",""trial"",""time""
""fullscreenenter"",""1"",""3378""
","
","
","""event"",""trial"",""time""
""fullscreenenter"",""1"",""3378""
","
","","","","","","null","<div style=""font-size:60px;"">+</div>","null","","fixation","","","","","","","","","","",""
"aa-learning-trial","121","595558","0.0-9.0-2.0-1.24","6285","1","8","Male","approach_avoid_spark_v1","""event"",""trial"",""time""
""fullscreenenter"",""1"",""3378""
","
","
","""event"",""trial"",""time""
""fullscreenenter"",""1"",""3378""
","
","","","","","","942.1000000014901","images/apple6.png","","","learning","-3","0","0","0","apple","fruit","1","0","","bad","[-4]"
"html-keyboard-response","122","596063","0.0-9.0-2.0-0.25","6285","1","8","Male","approach_avoid_spark_v1","""event"",""trial"",""time""
""fullscreenenter"",""1"",""3378""
","
","
","""event"",""trial"",""time""
""fullscreenenter"",""1"",""3378""
","
","","","","","","null","<div style=""font-size:60px;"">+</div>","null","","fixation","","","","","","","","","","",""
"aa-learning-trial","123","599071","0.0-9.0-2.0-1.25","6285","1","8","Male","approach_avoid_spark_v1","""event"",""trial"",""time""
""fullscreenenter"",""1"",""3378""
","
","
","""event"",""trial"",""time""
""fullscreenenter"",""1"",""3378""
","
","","","","","","854.3000000044703","images/banana2.png","","","learning","4","4","1","1","banana","fruit","1","0","","good","[6]"
"html-keyboard-response","124","599574","0.0-9.0-2.0-0.26","6285","1","8","Male","approach_avoid_spark_v1","""event"",""trial"",""time""
""fullscreenenter"",""1"",""3378""
","
","
","""event"",""trial"",""time""
""fullscreenenter"",""1"",""3378""
","
","","","","","","null","<div style=""font-size:60px;"">+</div>","null","","fixation","","","","","","","","","","",""
"aa-learning-trial","125","602583","0.0-9.0-2.0-1.26","6285","1","8","Male","approach_avoid_spark_v1","""event"",""trial"",""time""
""fullscreenenter"",""1"",""3378""
","
","
","""event"",""trial"",""time""
""fullscreenenter"",""1"",""3378""
","
","","","","","","1055.2000000029802","images/apple6.png","","","learning","-5","0","0","0","apple","fruit","1","0","","bad","[-4]"
"html-keyboard-response","126","603086","0.0-9.0-2.0-0.27","6285","1","8","Male","approach_avoid_spark_v1","""event"",""trial"",""time""
""fullscreenenter"",""1"",""3378""
","
","
","""event"",""trial"",""time""
""fullscreenenter"",""1"",""3378""
","
","","","","","","null","<div style=""font-size:60px;"">+</div>","null","","fixation","","","","","","","","","","",""
"aa-learning-trial","127","606094","0.0-9.0-2.0-1.27","6285","1","8","Male","approach_avoid_spark_v1","""event"",""trial"",""time""
""fullscreenenter"",""1"",""3378""
","
","
","""event"",""trial"",""time""
""fullscreenenter"",""1"",""3378""
","
","","","","","","918.2000000029802","images/apple1.png","","","learning","-1","0","0","0","apple","fruit","1","0","","bad","[-4]"
"html-keyboard-response","128","606598","0.0-9.0-2.0-0.28","6285","1","8","Male","approach_avoid_spark_v1","""event"",""trial"",""time""
""fullscreenenter"",""1"",""3378""
","
","
","""event"",""trial"",""time""
""fullscreenenter"",""1"",""3378""
","
","","","","","","null","<div style=""font-size:60px;"">+</div>","null","","fixation","","","","","","","","","","",""
"aa-learning-trial","129","609606","0.0-9.0-2.0-1.28","6285","1","8","Male","approach_avoid_spark_v1","""event"",""trial"",""time""
""fullscreenenter"",""1"",""3378""
","
","
","""event"",""trial"",""time""
""fullscreenenter"",""1"",""3378""
","
","","","","","","782.5","images/banana3.png","","","learning","7","7","1","1","banana","fruit","1","0","","good","[6]"
"html-keyboard-response","130","610111","0.0-9.0-2.0-0.29","6285","1","8","Male","approach_avoid_spark_v1","""event"",""trial"",""time""
""fullscreenenter"",""1"",""3378""
","
","
","""event"",""trial"",""time""
""fullscreenenter"",""1"",""3378""
","
","","","","","","null","<div style=""font-size:60px;"">+</div>","null","","fixation","","","","","","","","","","",""
"aa-learning-trial","131","613119","0.0-9.0-2.0-1.29","6285","1","8","Male","approach_avoid_spark_v1","""event"",""trial"",""time""
""fullscreenenter"",""1"",""3378""
","
","
","""event"",""trial"",""time""
""fullscreenenter"",""1"",""3378""
","
","","","","","","567","images/apple2.png","","","learning","-3","0","0","0","apple","fruit","1","0","","bad","[-4]"
"html-keyboard-response","132","613623","0.0-9.0-2.0-0.30","6285","1","8","Male","approach_avoid_spark_v1","""event"",""trial"",""time""
""fullscreenenter"",""1"",""3378""
","
","
","""event"",""trial"",""time""
""fullscreenenter"",""1"",""3378""
","
","","","","","","null","<div style=""font-size:60px;"">+</div>","null","","fixation","","","","","","","","","","",""
"aa-learning-trial","133","616631","0.0-9.0-2.0-1.30","6285","1","8","Male","approach_avoid_spark_v1","""event"",""trial"",""time""
""fullscreenenter"",""1"",""3378""
","
","
","""event"",""trial"",""time""
""fullscreenenter"",""1"",""3378""
","
","","","","","","653.3000000044703","images/banana3.png","","","learning","7","7","1","1","banana","fruit","1","0","","good","[6]"
"html-keyboard-response","134","617134","0.0-9.0-2.0-0.31","6285","1","8","Male","approach_avoid_spark_v1","""event"",""trial"",""time""
""fullscreenenter"",""1"",""3378""
","
","
","""event"",""trial"",""time""
""fullscreenenter"",""1"",""3378""
","
","","","","","","null","<div style=""font-size:60px;"">+</div>","null","","fixation","","","","","","","","","","",""
"aa-learning-trial","135","620143","0.0-9.0-2.0-1.31","6285","1","8","Male","approach_avoid_spark_v1","""event"",""trial"",""time""
""fullscreenenter"",""1"",""3378""
","
","
","""event"",""trial"",""time""
""fullscreenenter"",""1"",""3378""
","
","","","","","","1126.1000000014901","images/apple5.png","","","learning","-4","-4","1","1","apple","fruit","1","0","","bad","[-4]"
"html-keyboard-response","136","620646","0.0-9.0-2.0-0.32","6285","1","8","Male","approach_avoid_spark_v1","""event"",""trial"",""time""
""fullscreenenter"",""1"",""3378""
","
","
","""event"",""trial"",""time""
""fullscreenenter"",""1"",""3378""
","
","","","","","","null","<div style=""font-size:60px;"">+</div>","null","","fixation","","","","","","","","","","",""
"aa-learning-trial","137","623654","0.0-9.0-2.0-1.32","6285","1","8","Male","approach_avoid_spark_v1","""event"",""trial"",""time""
""fullscreenenter"",""1"",""3378""
","
","
","""event"",""trial"",""time""
""fullscreenenter"",""1"",""3378""
","
","","","","","","1151.1999999955297","images/apple8.png","","","learning","-4","0","0","0","apple","fruit","1","0","","bad","[-4]"
"html-keyboard-response","138","624158","0.0-9.0-2.0-0.33","6285","1","8","Male","approach_avoid_spark_v1","""event"",""trial"",""time""
""fullscreenenter"",""1"",""3378""
","
","
","""event"",""trial"",""time""
""fullscreenenter"",""1"",""3378""
","
","","","","","","null","<div style=""font-size:60px;"">+</div>","null","","fixation","","","","","","","","","","",""
"aa-learning-trial","139","627169","0.0-9.0-2.0-1.33","6285","1","8","Male","approach_avoid_spark_v1","""event"",""trial"",""time""
""fullscreenenter"",""1"",""3378""
","
","
","""event"",""trial"",""time""
""fullscreenenter"",""1"",""3378""
","
","","","","","","806.6000000014901","images/orange7.png","","","learning","[-1]","-1","1","1","orange","fruit","1","0","","neutral","0"
"html-keyboard-response","140","627671","0.0-9.0-2.0-0.34","6285","1","8","Male","approach_avoid_spark_v1","""event"",""trial"",""time""
""fullscreenenter"",""1"",""3378""
","
","
","""event"",""trial"",""time""
""fullscreenenter"",""1"",""3378""
","
","","","","","","null","<div style=""font-size:60px;"">+</div>","null","","fixation","","","","","","","","","","",""
"aa-learning-trial","141","630680","0.0-9.0-2.0-1.34","6285","1","8","Male","approach_avoid_spark_v1","""event"",""trial"",""time""
""fullscreenenter"",""1"",""3378""
","
","
","""event"",""trial"",""time""
""fullscreenenter"",""1"",""3378""
","
","","","","","","1181.7000000029802","images/orange7.png","","","learning","-1","0","0","0","orange","fruit","1","0","","neutral","0"
"html-keyboard-response","142","631182","0.0-9.0-2.0-0.35","6285","1","8","Male","approach_avoid_spark_v1","""event"",""trial"",""time""
""fullscreenenter"",""1"",""3378""
","
","
","""event"",""trial"",""time""
""fullscreenenter"",""1"",""3378""
","
","","","","","","null","<div style=""font-size:60px;"">+</div>","null","","fixation","","","","","","","","","","",""
"aa-learning-trial","143","634191","0.0-9.0-2.0-1.35","6285","1","8","Male","approach_avoid_spark_v1","""event"",""trial"",""time""
""fullscreenenter"",""1"",""3378""
","
","
","""event"",""trial"",""time""
""fullscreenenter"",""1"",""3378""
","
","","","","","","854.8999999985099","images/banana3.png","","","learning","10","10","1","1","banana","fruit","1","0","","good","[6]"
"html-keyboard-response","144","634695","0.0-9.0-2.0-0.36","6285","1","8","Male","approach_avoid_spark_v1","""event"",""trial"",""time""
""fullscreenenter"",""1"",""3378""
","
","
","""event"",""trial"",""time""
""fullscreenenter"",""1"",""3378""
","
","","","","","","null","<div style=""font-size:60px;"">+</div>","null","","fixation","","","","","","","","","","",""
"aa-learning-trial","145","637702","0.0-9.0-2.0-1.36","6285","1","8","Male","approach_avoid_spark_v1","""event"",""trial"",""time""
""fullscreenenter"",""1"",""3378""
","
","
","""event"",""trial"",""time""
""fullscreenenter"",""1"",""3378""
","
","","","","","","1085.2999999970198","images/banana1.png","","","learning","5","5","1","1","banana","fruit","1","0","","good","[6]"
"html-keyboard-response","146","638206","0.0-9.0-2.0-0.37","6285","1","8","Male","approach_avoid_spark_v1","""event"",""trial"",""time""
""fullscreenenter"",""1"",""3378""
","
","
","""event"",""trial"",""time""
""fullscreenenter"",""1"",""3378""
","
","","","","","","null","<div style=""font-size:60px;"">+</div>","null","","fixation","","","","","","","","","","",""
"aa-learning-trial","147","641215","0.0-9.0-2.0-1.37","6285","1","8","Male","approach_avoid_spark_v1","""event"",""trial"",""time""
""fullscreenenter"",""1"",""3378""
","
","
","""event"",""trial"",""time""
""fullscreenenter"",""1"",""3378""
","
","","","","","","982.7999999970198","images/apple1.png","","","learning","-1","-1","1","1","apple","fruit","1","0","","bad","[-4]"
"html-keyboard-response","148","641718","0.0-9.0-2.0-0.38","6285","1","8","Male","approach_avoid_spark_v1","""event"",""trial"",""time""
""fullscreenenter"",""1"",""3378""
","
","
","""event"",""trial"",""time""
""fullscreenenter"",""1"",""3378""
","
","","","","","","null","<div style=""font-size:60px;"">+</div>","null","","fixation","","","","","","","","","","",""
"aa-learning-trial","149","644727","0.0-9.0-2.0-1.38","6285","1","8","Male","approach_avoid_spark_v1","""event"",""trial"",""time""
""fullscreenenter"",""1"",""3378""
","
","
","""event"",""trial"",""time""
""fullscreenenter"",""1"",""3378""
","
","","","","","","655.1999999955297","images/apple6.png","","","learning","-2","0","0","0","apple","fruit","1","0","","bad","[-4]"
"html-keyboard-response","150","645231","0.0-9.0-2.0-0.39","6285","1","8","Male","approach_avoid_spark_v1","""event"",""trial"",""time""
""fullscreenenter"",""1"",""3378""
","
","
","""event"",""trial"",""time""
""fullscreenenter"",""1"",""3378""
","
","","","","","","null","<div style=""font-size:60px;"">+</div>","null","","fixation","","","","","","","","","","",""
"aa-learning-trial","151","648239","0.0-9.0-2.0-1.39","6285","1","8","Male","approach_avoid_spark_v1","""event"",""trial"",""time""
""fullscreenenter"",""1"",""3378""
","
","
","""event"",""trial"",""time""
""fullscreenenter"",""1"",""3378""
","
","","","","","","646.6000000014901","images/apple6.png","","","learning","-5","0","0","0","apple","fruit","1","0","","bad","[-4]"
"html-keyboard-response","152","648743","0.0-9.0-2.0-0.40","6285","1","8","Male","approach_avoid_spark_v1","""event"",""trial"",""time""
""fullscreenenter"",""1"",""3378""
","
","
","""event"",""trial"",""time""
""fullscreenenter"",""1"",""3378""
","
","","","","","","null","<div style=""font-size:60px;"">+</div>","null","","fixation","","","","","","","","","","",""
"aa-learning-trial","153","651751","0.0-9.0-2.0-1.40","6285","1","8","Male","approach_avoid_spark_v1","""event"",""trial"",""time""
""fullscreenenter"",""1"",""3378""
","
","
","""event"",""trial"",""time""
""fullscreenenter"",""1"",""3378""
","
","","","","","","1358.2999999970198","images/apple5.png","","","learning","-4","0","0","0","apple","fruit","1","0","","bad","[-4]"
"html-keyboard-response","154","652255","0.0-9.0-2.0-0.41","6285","1","8","Male","approach_avoid_spark_v1","""event"",""trial"",""time""
""fullscreenenter"",""1"",""3378""
","
","
","""event"",""trial"",""time""
""fullscreenenter"",""1"",""3378""
","
","","","","","","null","<div style=""font-size:60px;"">+</div>","null","","fixation","","","","","","","","","","",""
"aa-learning-trial","155","655263","0.0-9.0-2.0-1.41","6285","1","8","Male","approach_avoid_spark_v1","""event"",""trial"",""time""
""fullscreenenter"",""1"",""3378""
","
","
","""event"",""trial"",""time""
""fullscreenenter"",""1"",""3378""
","
","","","","","","663.0999999940395","images/orange7.png","","","learning","3","3","1","1","orange","fruit","1","0","","neutral","0"
"html-keyboard-response","156","655766","0.0-9.0-2.0-0.42","6285","1","8","Male","approach_avoid_spark_v1","""event"",""trial"",""time""
""fullscreenenter"",""1"",""3378""
","
","
","""event"",""trial"",""time""
""fullscreenenter"",""1"",""3378""
","
","","","","","","null","<div style=""font-size:60px;"">+</div>","null","","fixation","","","","","","","","","","",""
"aa-learning-trial","157","658775","0.0-9.0-2.0-1.42","6285","1","8","Male","approach_avoid_spark_v1","""event"",""trial"",""time""
""fullscreenenter"",""1"",""3378""
","
","
","""event"",""trial"",""time""
""fullscreenenter"",""1"",""3378""
","
","","","","","","814.3000000044703","images/apple5.png","","","learning","-4","0","0","0","apple","fruit","1","0","","bad","[-4]"
"html-keyboard-response","158","659280","0.0-9.0-2.0-0.43","6285","1","8","Male","approach_avoid_spark_v1","""event"",""trial"",""time""
""fullscreenenter"",""1"",""3378""
","
","
","""event"",""trial"",""time""
""fullscreenenter"",""1"",""3378""
","
","","","","","","null","<div style=""font-size:60px;"">+</div>","null","","fixation","","","","","","","","","","",""
"aa-learning-trial","159","662287","0.0-9.0-2.0-1.43","6285","1","8","Male","approach_avoid_spark_v1","""event"",""trial"",""time""
""fullscreenenter"",""1"",""3378""
","
","
","""event"",""trial"",""time""
""fullscreenenter"",""1"",""3378""
","
","","","","","","645.0999999940395","images/orange4.png","","","learning","1","1","1","1","orange","fruit","1","0","","neutral","0"
"html-keyboard-response","160","662791","0.0-9.0-2.0-0.44","6285","1","8","Male","approach_avoid_spark_v1","""event"",""trial"",""time""
""fullscreenenter"",""1"",""3378""
","
","
","""event"",""trial"",""time""
""fullscreenenter"",""1"",""3378""
","
","","","","","","null","<div style=""font-size:60px;"">+</div>","null","","fixation","","","","","","","","","","",""
"aa-learning-trial","161","665798","0.0-9.0-2.0-1.44","6285","1","8","Male","approach_avoid_spark_v1","""event"",""trial"",""time""
""fullscreenenter"",""1"",""3378""
","
","
","""event"",""trial"",""time""
""fullscreenenter"",""1"",""3378""
","
","","","","","","1102.1999999955297","images/orange2.png","","","learning","[-1]","0","0","0","orange","fruit","1","0","","neutral","0"
"html-keyboard-response","162","666302","0.0-9.0-2.0-0.45","6285","1","8","Male","approach_avoid_spark_v1","""event"",""trial"",""time""
""fullscreenenter"",""1"",""3378""
","
","
","""event"",""trial"",""time""
""fullscreenenter"",""1"",""3378""
","
","","","","","","null","<div style=""font-size:60px;"">+</div>","null","","fixation","","","","","","","","","","",""
"aa-learning-trial","163","669311","0.0-9.0-2.0-1.45","6285","1","8","Male","approach_avoid_spark_v1","""event"",""trial"",""time""
""fullscreenenter"",""1"",""3378""
","
","
","""event"",""trial"",""time""
""fullscreenenter"",""1"",""3378""
","
","","","","","","711.2000000029802","images/banana5.png","","","learning","3","3","1","1","banana","fruit","1","0","","good","[6]"
"html-keyboard-response","164","669813","0.0-9.0-2.0-0.46","6285","1","8","Male","approach_avoid_spark_v1","""event"",""trial"",""time""
""fullscreenenter"",""1"",""3378""
","
","
","""event"",""trial"",""time""
""fullscreenenter"",""1"",""3378""
","
","","","","","","null","<div style=""font-size:60px;"">+</div>","null","","fixation","","","","","","","","","","",""
"aa-learning-trial","165","672822","0.0-9.0-2.0-1.46","6285","1","8","Male","approach_avoid_spark_v1","""event"",""trial"",""time""
""fullscreenenter"",""1"",""3378""
","
","
","""event"",""trial"",""time""
""fullscreenenter"",""1"",""3378""
","
","","","","","","975.6999999955297","images/banana2.png","","","learning","4","4","1","1","banana","fruit","1","0","","good","[6]"
"html-keyboard-response","166","673326","0.0-9.0-2.0-0.47","6285","1","8","Male","approach_avoid_spark_v1","""event"",""trial"",""time""
""fullscreenenter"",""1"",""3378""
","
","
","""event"",""trial"",""time""
""fullscreenenter"",""1"",""3378""
","
","","","","","","null","<div style=""font-size:60px;"">+</div>","null","","fixation","","","","","","","","","","",""
"aa-learning-trial","167","676334","0.0-9.0-2.0-1.47","6285","1","8","Male","approach_avoid_spark_v1","""event"",""trial"",""time""
""fullscreenenter"",""1"",""3378""
","
","
","""event"",""trial"",""time""
""fullscreenenter"",""1"",""3378""
","
","","","","","","694.3999999985099","images/banana3.png","","","learning","4","4","1","1","banana","fruit","1","0","","good","[6]"
"html-keyboard-response","168","676838","0.0-9.0-2.0-0.48","6285","1","8","Male","approach_avoid_spark_v1","""event"",""trial"",""time""
""fullscreenenter"",""1"",""3378""
","
","
","""event"",""trial"",""time""
""fullscreenenter"",""1"",""3378""
","
","","","","","","null","<div style=""font-size:60px;"">+</div>","null","","fixation","","","","","","","","","","",""
"aa-learning-trial","169","679847","0.0-9.0-2.0-1.48","6285","1","8","Male","approach_avoid_spark_v1","""event"",""trial"",""time""
""fullscreenenter"",""1"",""3378""
","
","
","""event"",""trial"",""time""
""fullscreenenter"",""1"",""3378""
","
","","","","","","894","images/apple5.png","","","learning","-3","0","0","0","apple","fruit","1","0","","bad","[-4]"
"html-keyboard-response","170","680355","0.0-9.0-2.0-0.49","6285","1","8","Male","approach_avoid_spark_v1","""event"",""trial"",""time""
""fullscreenenter"",""1"",""3378""
","
","
","""event"",""trial"",""time""
""fullscreenenter"",""1"",""3378""
","
","","","","","","null","<div style=""font-size:60px;"">+</div>","null","","fixation","","","","","","","","","","",""
"aa-learning-trial","171","683359","0.0-9.0-2.0-1.49","6285","1","8","Male","approach_avoid_spark_v1","""event"",""trial"",""time""
""fullscreenenter"",""1"",""3378""
","
","
","""event"",""trial"",""time""
""fullscreenenter"",""1"",""3378""
","
","","","","","","786.1000000014901","images/banana8.png","","","learning","6","6","1","1","banana","fruit","1","0","","good","[6]"
"html-keyboard-response","172","683862","0.0-9.0-2.0-0.50","6285","1","8","Male","approach_avoid_spark_v1","""event"",""trial"",""time""
""fullscreenenter"",""1"",""3378""
","
","
","""event"",""trial"",""time""
""fullscreenenter"",""1"",""3378""
","
","","","","","","null","<div style=""font-size:60px;"">+</div>","null","","fixation","","","","","","","","","","",""
"aa-learning-trial","173","686871","0.0-9.0-2.0-1.50","6285","1","8","Male","approach_avoid_spark_v1","""event"",""trial"",""time""
""fullscreenenter"",""1"",""3378""
","
","
","""event"",""trial"",""time""
""fullscreenenter"",""1"",""3378""
","
","","","","","","750.3999999985099","images/banana2.png","","","learning","6","6","1","1","banana","fruit","1","0","","good","[6]"
"html-button-response","174","702558","0.0-9.0-3.0","6285","1","8","Male","approach_avoid_spark_v1","""event"",""trial"",""time""
""fullscreenenter"",""1"",""3378""
","
","
","""event"",""trial"",""time""
""fullscreenenter"",""1"",""3378""
","
","","","","","","15685.69999999553","<p> You have completed the round! <p> In this round, you earned 84 points! </p>","0","","break","","","","","","","","","","",""
"html-button-response","175","703550","0.0-10.0","6285","1","8","Male","approach_avoid_spark_v1","""event"",""trial"",""time""
""fullscreenenter"",""1"",""3378""
","
","
","""event"",""trial"",""time""
""fullscreenenter"",""1"",""3378""
","
","","","","","","991.3000000044703","<p> Now it's time to play another round. </p>","0","","transition_screen","","","","","","","","","","",""
"preload","176","703664","0.0-11.0-0.0","6285","1","8","Male","approach_avoid_spark_v1","""event"",""trial"",""time""
""fullscreenenter"",""1"",""3378""
","
","
","""event"",""trial"",""time""
""fullscreenenter"",""1"",""3378""
","
","true","false","[]","[]","[]","","","","","","","","","","","","","","","",""
"learning-instructions","177","710262","0.0-11.0-1.0-0.0","6285","1","8","Male","approach_avoid_spark_v1","""event"",""trial"",""time""
""fullscreenenter"",""1"",""3378""
","
","
","""event"",""trial"",""time""
""fullscreenenter"",""1"",""3378""
","
","","","","","","1660.1000000014901","<p> Your goal in this round is to take care of lots of farm animals. </p></div>","","0","instructions","","","","","","","","","","",""
"learning-instructions","178","727062","0.0-11.0-1.0-0.1","6285","1","8","Male","approach_avoid_spark_v1","""event"",""trial"",""time""
""fullscreenenter"",""1"",""3378""
","
","
","""event"",""trial"",""time""
""fullscreenenter"",""1"",""3378""
","
","","","","","","6409.89999999851","<p> Some farm animals are hungry, while other farm animals are already full.  </p><p> On each turn, you will see a farm animal.   </p><p> You need to decide whether to feed it or not.  </p>","","0","instructions","","","","","","","","","","",""
"learning-instructions","179","736055","0.0-11.0-1.0-0.2","6285","1","8","Male","approach_avoid_spark_v1","""event"",""trial"",""time""
""fullscreenenter"",""1"",""3378""
","
","
","""event"",""trial"",""time""
""fullscreenenter"",""1"",""3378""
","
","","","","","","1512.6999999955297","<p> You can feed the farm animal by pressing 1 and leave the farm animal alone by pressing 0. </p><br><div class=""choice-instructions-grid""> <div class=""choice-option""><img src=""images/approach.png"" class=""choice-option-img"" stage=""instructions"" position=""0"" ><div class=""choice-option-text""> Press ""1."" </div></div><div class=""choice-option""><img src=""images/avoid.png"" class=""choice-option-img"" stage=""instructions"" position=""1"" ><div class=""choice-option-text""> Press ""0."" </div></div>","","0","instructions","","","","","","","","","","",""
"learning-instructions","180","746887","0.0-11.0-1.0-0.3","6285","1","8","Male","approach_avoid_spark_v1","""event"",""trial"",""time""
""fullscreenenter"",""1"",""3378""
","
","
","""event"",""trial"",""time""
""fullscreenenter"",""1"",""3378""
","
","","","","","","883.4000000059605","<p> If you feed a hungry farm animal, you will make it feel satisfied! </p><p> But if you feed the farm animal and it was already full, you will make it feel sick. </p>","","0","instructions","","","","","","","","","","",""
"learning-instructions","181","761839","0.0-11.0-1.0-0.4","6285","1","8","Male","approach_avoid_spark_v1","""event"",""trial"",""time""
""fullscreenenter"",""1"",""3378""
","
","
","""event"",""trial"",""time""
""fullscreenenter"",""1"",""3378""
","
","","","","","","946","<p> You will earn points based on how you made the farm animal feel. </p><p> If you made it satisfied, you will WIN anywhere from 1 - 9 points, </p><p> but if you made it sick, you will LOSE anywhere from 1 - 9 points. </p>","","0","instructions","","","","","","","","","","",""
"learning-instructions","182","768982","0.0-11.0-1.0-0.5","6285","1","8","Male","approach_avoid_spark_v1","""event"",""trial"",""time""
""fullscreenenter"",""1"",""3378""
","
","
","""event"",""trial"",""time""
""fullscreenenter"",""1"",""3378""
","
","","","","","","489","<p> You will see how many points you won or lost in the center of the screen. </p><p> Here is what you would see if you won 5 points: </p><p style=""color:green;font-size:50px;font-weight:bolder"">5</p>","","0","instructions","","","","","","","","","","",""
"learning-instructions","183","772231","0.0-11.0-1.0-0.6","6285","1","8","Male","approach_avoid_spark_v1","""event"",""trial"",""time""
""fullscreenenter"",""1"",""3378""
","
","
","""event"",""trial"",""time""
""fullscreenenter"",""1"",""3378""
","
","","","","","","407.69999999552965","<p> And here is what you would see if you lost 3 points: </p><p style=""color:red;font-size:50px;font-weight:bolder"">-3</p>","","0","instructions","","","","","","","","","","",""
"learning-instructions","184","790567","0.0-11.0-1.0-0.7","6285","1","8","Male","approach_avoid_spark_v1","""event"",""trial"",""time""
""fullscreenenter"",""1"",""3378""
","
","
","""event"",""trial"",""time""
""fullscreenenter"",""1"",""3378""
","
","","","","","","1983.6000000014901","<p> Some farm animals will become very satisfied or very sick. </p><p> These farm animals will make you win or lose LOTS of points. </p><p> Other farm animals have less strong feelings. </p><p> These farm animals will make you win or lose small amounts of points. </p>","","0","instructions","","","","","","","","","","",""
"learning-instructions","185","804970","0.0-11.0-1.0-0.8","6285","1","8","Male","approach_avoid_spark_v1","""event"",""trial"",""time""
""fullscreenenter"",""1"",""3378""
","
","
","""event"",""trial"",""time""
""fullscreenenter"",""1"",""3378""
","
","","","","","","1581.8999999985099","<p> If you choose to leave the farm animal alone, you will not win or lose any points. </p><p>  However, in the center of the screen, you will see the number of points you WOULD HAVE won or lost if you had fed the farm animal. </p>","","0","instructions","","","","","","","","","","",""
"learning-instructions","186","824163","0.0-11.0-1.0-0.9","6285","1","8","Male","approach_avoid_spark_v1","""event"",""trial"",""time""
""fullscreenenter"",""1"",""3378""
","
","
","""event"",""trial"",""time""
""fullscreenenter"",""1"",""3378""
","
","","","","","","7194.0999999940395","<p> Here is what you might see if you did not feed the farm animal but the animal was hungry: </p><p style=""color:grey; font-size:50px; display: inline-block; border-spacing: 15px; border-width:3px; border-style:solid; border-color:red"">  &nbsp; 6 &nbsp; </p><p> Remember, in this case, you would not win or lose ANY points because you did not feed the farm animal.  </p>","","0","instructions","","","","","","","","","","",""
"learning-instructions","187","832802","0.0-11.0-1.0-0.10","6285","1","8","Male","approach_avoid_spark_v1","""event"",""trial"",""time""
""fullscreenenter"",""1"",""3378""
","
","
","""event"",""trial"",""time""
""fullscreenenter"",""1"",""3378""
","
","","","","","","514.3000000044703","<p> Try to make the best choice for each farm animal because </p><p> at the end of the game, you will earn bonus money based on how many points you earned. </p>","","0","instructions","","","","","","","","","","",""
"learning-instructions","188","842970","0.0-11.0-1.0-0.11","6285","1","8","Male","approach_avoid_spark_v1","""event"",""trial"",""time""
""fullscreenenter"",""1"",""3378""
","
","
","""event"",""trial"",""time""
""fullscreenenter"",""1"",""3378""
","
","","","","","","1961.8999999985099","<p> You will have 3 seconds to make each choice. Try to respond before time runs out! </p><p> You will lose 5 points each time you do not make a response. </p>","","0","instructions","","","","","","","","","","",""
"html-keyboard-response","189","843590","0.0-11.0-2.0-0.0","6285","1","8","Male","approach_avoid_spark_v1","""event"",""trial"",""time""
""fullscreenenter"",""1"",""3378""
","
","
","""event"",""trial"",""time""
""fullscreenenter"",""1"",""3378""
","
","","","","","","null","<div style=""font-size:60px;"">+</div>","null","","fixation","","","","","","","","","","",""
"aa-learning-trial","190","846606","0.0-11.0-2.0-1.0","6285","1","8","Male","approach_avoid_spark_v1","""event"",""trial"",""time""
""fullscreenenter"",""1"",""3378""
","
","
","""event"",""trial"",""time""
""fullscreenenter"",""1"",""3378""
","
","","","","","","2314.39999999851","images/cow8.png","","","learning","3","3","1","1","cow","animals","2","1","","neutral","0"
"html-keyboard-response","191","847123","0.0-11.0-2.0-0.1","6285","1","8","Male","approach_avoid_spark_v1","""event"",""trial"",""time""
""fullscreenenter"",""1"",""3378""
","
","
","""event"",""trial"",""time""
""fullscreenenter"",""1"",""3378""
","
","","","","","","null","<div style=""font-size:60px;"">+</div>","null","","fixation","","","","","","","","","","",""
"aa-learning-trial","192","850139","0.0-11.0-2.0-1.1","6285","1","8","Male","approach_avoid_spark_v1","""event"",""trial"",""time""
""fullscreenenter"",""1"",""3378""
","
","
","""event"",""trial"",""time""
""fullscreenenter"",""1"",""3378""
","
","","","","","","1262.2999999970198","images/horse3.png","","","learning","5","5","1","1","horse","animals","2","1","","good","[4]"
"html-keyboard-response","193","850656","0.0-11.0-2.0-0.2","6285","1","8","Male","approach_avoid_spark_v1","""event"",""trial"",""time""
""fullscreenenter"",""1"",""3378""
","
","
","""event"",""trial"",""time""
""fullscreenenter"",""1"",""3378""
","
","","","","","","null","<div style=""font-size:60px;"">+</div>","null","","fixation","","","","","","","","","","",""
"aa-learning-trial","194","853677","0.0-11.0-2.0-1.2","6285","1","8","Male","approach_avoid_spark_v1","""event"",""trial"",""time""
""fullscreenenter"",""1"",""3378""
","
","
","""event"",""trial"",""time""
""fullscreenenter"",""1"",""3378""
","
","","","","","","930.1999999955297","images/horse5.png","","","learning","-3","0","0","0","horse","animals","2","1","","good","[4]"
"html-keyboard-response","195","854194","0.0-11.0-2.0-0.3","6285","1","8","Male","approach_avoid_spark_v1","""event"",""trial"",""time""
""fullscreenenter"",""1"",""3378""
","
","
","""event"",""trial"",""time""
""fullscreenenter"",""1"",""3378""
","
","","","","","","null","<div style=""font-size:60px;"">+</div>","null","","fixation","","","","","","","","","","",""
"aa-learning-trial","196","857200","0.0-11.0-2.0-1.3","6285","1","8","Male","approach_avoid_spark_v1","""event"",""trial"",""time""
""fullscreenenter"",""1"",""3378""
","
","
","""event"",""trial"",""time""
""fullscreenenter"",""1"",""3378""
","
","","","","","","865.5999999940395","images/goat8.png","","","learning","4","4","1","1","goat","animals","2","1","","bad","[-4]"
"html-keyboard-response","197","857710","0.0-11.0-2.0-0.4","6285","1","8","Male","approach_avoid_spark_v1","""event"",""trial"",""time""
""fullscreenenter"",""1"",""3378""
","
","
","""event"",""trial"",""time""
""fullscreenenter"",""1"",""3378""
","
","","","","","","null","<div style=""font-size:60px;"">+</div>","null","","fixation","","","","","","","","","","",""
"aa-learning-trial","198","860728","0.0-11.0-2.0-1.4","6285","1","8","Male","approach_avoid_spark_v1","""event"",""trial"",""time""
""fullscreenenter"",""1"",""3378""
","
","
","""event"",""trial"",""time""
""fullscreenenter"",""1"",""3378""
","
","","","","","","758.1000000014901","images/cow4.png","","","learning","1","0","0","0","cow","animals","2","1","","neutral","0"
"html-keyboard-response","199","861243","0.0-11.0-2.0-0.5","6285","1","8","Male","approach_avoid_spark_v1","""event"",""trial"",""time""
""fullscreenenter"",""1"",""3378""
","
","
","""event"",""trial"",""time""
""fullscreenenter"",""1"",""3378""
","
","","","","","","null","<div style=""font-size:60px;"">+</div>","null","","fixation","","","","","","","","","","",""
"aa-learning-trial","200","864260","0.0-11.0-2.0-1.5","6285","1","8","Male","approach_avoid_spark_v1","""event"",""trial"",""time""
""fullscreenenter"",""1"",""3378""
","
","
","""event"",""trial"",""time""
""fullscreenenter"",""1"",""3378""
","
","","","","","","969.7999999970198","images/cow6.png","","","learning","-5","-5","1","1","cow","animals","2","1","","neutral","0"
"html-keyboard-response","201","864777","0.0-11.0-2.0-0.6","6285","1","8","Male","approach_avoid_spark_v1","""event"",""trial"",""time""
""fullscreenenter"",""1"",""3378""
","
","
","""event"",""trial"",""time""
""fullscreenenter"",""1"",""3378""
","
","","","","","","null","<div style=""font-size:60px;"">+</div>","null","","fixation","","","","","","","","","","",""
"aa-learning-trial","202","867793","0.0-11.0-2.0-1.6","6285","1","8","Male","approach_avoid_spark_v1","""event"",""trial"",""time""
""fullscreenenter"",""1"",""3378""
","
","
","""event"",""trial"",""time""
""fullscreenenter"",""1"",""3378""
","
","","","","","","795.6000000014901","images/goat5.png","","","learning","-2","-2","1","1","goat","animals","2","1","","bad","[-4]"
"html-keyboard-response","203","868310","0.0-11.0-2.0-0.7","6285","1","8","Male","approach_avoid_spark_v1","""event"",""trial"",""time""
""fullscreenenter"",""1"",""3378""
","
","
","""event"",""trial"",""time""
""fullscreenenter"",""1"",""3378""
","
","","","","","","null","<div style=""font-size:60px;"">+</div>","null","","fixation","","","","","","","","","","",""
"aa-learning-trial","204","871318","0.0-11.0-2.0-1.7","6285","1","8","Male","approach_avoid_spark_v1","""event"",""trial"",""time""
""fullscreenenter"",""1"",""3378""
","
","
","""event"",""trial"",""time""
""fullscreenenter"",""1"",""3378""
","
","","","","","","718.3999999985099","images/horse5.png","","","learning","-3","-3","1","1","horse","animals","2","1","","good","[4]"
"html-keyboard-response","205","871822","0.0-11.0-2.0-0.8","6285","1","8","Male","approach_avoid_spark_v1","""event"",""trial"",""time""
""fullscreenenter"",""1"",""3378""
","
","
","""event"",""trial"",""time""
""fullscreenenter"",""1"",""3378""
","
","","","","","","null","<div style=""font-size:60px;"">+</div>","null","","fixation","","","","","","","","","","",""
"aa-learning-trial","206","874830","0.0-11.0-2.0-1.8","6285","1","8","Male","approach_avoid_spark_v1","""event"",""trial"",""time""
""fullscreenenter"",""1"",""3378""
","
","
","""event"",""trial"",""time""
""fullscreenenter"",""1"",""3378""
","
","","","","","","1045.6999999955297","images/horse7.png","","","learning","-1","0","0","0","horse","animals","2","1","","good","[4]"
"html-keyboard-response","207","875334","0.0-11.0-2.0-0.9","6285","1","8","Male","approach_avoid_spark_v1","""event"",""trial"",""time""
""fullscreenenter"",""1"",""3378""
","
","
","""event"",""trial"",""time""
""fullscreenenter"",""1"",""3378""
","
","","","","","","null","<div style=""font-size:60px;"">+</div>","null","","fixation","","","","","","","","","","",""
"aa-learning-trial","208","878342","0.0-11.0-2.0-1.9","6285","1","8","Male","approach_avoid_spark_v1","""event"",""trial"",""time""
""fullscreenenter"",""1"",""3378""
","
","
","""event"",""trial"",""time""
""fullscreenenter"",""1"",""3378""
","
","","","","","","847.2000000029802","images/cow8.png","","","learning","3","3","1","1","cow","animals","2","1","","neutral","0"
"html-keyboard-response","209","878852","0.0-11.0-2.0-0.10","6285","1","8","Male","approach_avoid_spark_v1","""event"",""trial"",""time""
""fullscreenenter"",""1"",""3378""
","
","
","""event"",""trial"",""time""
""fullscreenenter"",""1"",""3378""
","
","","","","","","null","<div style=""font-size:60px;"">+</div>","null","","fixation","","","","","","","","","","",""
"aa-learning-trial","210","881863","0.0-11.0-2.0-1.10","6285","1","8","Male","approach_avoid_spark_v1","""event"",""trial"",""time""
""fullscreenenter"",""1"",""3378""
","
","
","""event"",""trial"",""time""
""fullscreenenter"",""1"",""3378""
","
","","","","","","1201","images/goat5.png","","","learning","-2","0","0","0","goat","animals","2","1","","bad","[-4]"
"html-keyboard-response","211","882380","0.0-11.0-2.0-0.11","6285","1","8","Male","approach_avoid_spark_v1","""event"",""trial"",""time""
""fullscreenenter"",""1"",""3378""
","
","
","""event"",""trial"",""time""
""fullscreenenter"",""1"",""3378""
","
","","","","","","null","<div style=""font-size:60px;"">+</div>","null","","fixation","","","","","","","","","","",""
"aa-learning-trial","212","885391","0.0-11.0-2.0-1.11","6285","1","8","Male","approach_avoid_spark_v1","""event"",""trial"",""time""
""fullscreenenter"",""1"",""3378""
","
","
","""event"",""trial"",""time""
""fullscreenenter"",""1"",""3378""
","
","","","","","","824.8999999985099","images/cow6.png","","","learning","-5","0","0","0","cow","animals","2","1","","neutral","0"
"html-keyboard-response","213","885894","0.0-11.0-2.0-0.12","6285","1","8","Male","approach_avoid_spark_v1","""event"",""trial"",""time""
""fullscreenenter"",""1"",""3378""
","
","
","""event"",""trial"",""time""
""fullscreenenter"",""1"",""3378""
","
","","","","","","null","<div style=""font-size:60px;"">+</div>","null","","fixation","","","","","","","","","","",""
"aa-learning-trial","214","888902","0.0-11.0-2.0-1.12","6285","1","8","Male","approach_avoid_spark_v1","""event"",""trial"",""time""
""fullscreenenter"",""1"",""3378""
","
","
","""event"",""trial"",""time""
""fullscreenenter"",""1"",""3378""
","
","","","","","","607","images/goat3.png","","","learning","6","0","0","0","goat","animals","2","1","","bad","[-4]"
"html-keyboard-response","215","889413","0.0-11.0-2.0-0.13","6285","1","8","Male","approach_avoid_spark_v1","""event"",""trial"",""time""
""fullscreenenter"",""1"",""3378""
","
","
","""event"",""trial"",""time""
""fullscreenenter"",""1"",""3378""
","
","","","","","","null","<div style=""font-size:60px;"">+</div>","null","","fixation","","","","","","","","","","",""
"aa-learning-trial","216","892422","0.0-11.0-2.0-1.13","6285","1","8","Male","approach_avoid_spark_v1","""event"",""trial"",""time""
""fullscreenenter"",""1"",""3378""
","
","
","""event"",""trial"",""time""
""fullscreenenter"",""1"",""3378""
","
","","","","","","800.1000000014901","images/horse7.png","","","learning","-1","-1","1","1","horse","animals","2","1","","good","[4]"
"html-keyboard-response","217","892927","0.0-11.0-2.0-0.14","6285","1","8","Male","approach_avoid_spark_v1","""event"",""trial"",""time""
""fullscreenenter"",""1"",""3378""
","
","
","""event"",""trial"",""time""
""fullscreenenter"",""1"",""3378""
","
","","","","","","null","<div style=""font-size:60px;"">+</div>","null","","fixation","","","","","","","","","","",""
"aa-learning-trial","218","895934","0.0-11.0-2.0-1.14","6285","1","8","Male","approach_avoid_spark_v1","""event"",""trial"",""time""
""fullscreenenter"",""1"",""3378""
","
","
","""event"",""trial"",""time""
""fullscreenenter"",""1"",""3378""
","
","","","","","","773.1000000014901","images/goat3.png","","","learning","6","0","0","0","goat","animals","2","1","","bad","[-4]"
"html-keyboard-response","219","896438","0.0-11.0-2.0-0.15","6285","1","8","Male","approach_avoid_spark_v1","""event"",""trial"",""time""
""fullscreenenter"",""1"",""3378""
","
","
","""event"",""trial"",""time""
""fullscreenenter"",""1"",""3378""
","
","","","","","","null","<div style=""font-size:60px;"">+</div>","null","","fixation","","","","","","","","","","",""
"aa-learning-trial","220","899446","0.0-11.0-2.0-1.15","6285","1","8","Male","approach_avoid_spark_v1","""event"",""trial"",""time""
""fullscreenenter"",""1"",""3378""
","
","
","""event"",""trial"",""time""
""fullscreenenter"",""1"",""3378""
","
","","","","","","750.3000000044703","images/goat8.png","","","learning","4","4","1","1","goat","animals","2","1","","bad","[-4]"
"html-keyboard-response","221","899951","0.0-11.0-2.0-0.16","6285","1","8","Male","approach_avoid_spark_v1","""event"",""trial"",""time""
""fullscreenenter"",""1"",""3378""
","
","
","""event"",""trial"",""time""
""fullscreenenter"",""1"",""3378""
","
","","","","","","null","<div style=""font-size:60px;"">+</div>","null","","fixation","","","","","","","","","","",""
"aa-learning-trial","222","902959","0.0-11.0-2.0-1.16","6285","1","8","Male","approach_avoid_spark_v1","""event"",""trial"",""time""
""fullscreenenter"",""1"",""3378""
","
","
","""event"",""trial"",""time""
""fullscreenenter"",""1"",""3378""
","
","","","","","","1013.7000000029802","images/horse5.png","","","learning","-3","-3","1","1","horse","animals","2","1","","good","[4]"
"html-keyboard-response","223","903462","0.0-11.0-2.0-0.17","6285","1","8","Male","approach_avoid_spark_v1","""event"",""trial"",""time""
""fullscreenenter"",""1"",""3378""
","
","
","""event"",""trial"",""time""
""fullscreenenter"",""1"",""3378""
","
","","","","","","null","<div style=""font-size:60px;"">+</div>","null","","fixation","","","","","","","","","","",""
"aa-learning-trial","224","906471","0.0-11.0-2.0-1.17","6285","1","8","Male","approach_avoid_spark_v1","""event"",""trial"",""time""
""fullscreenenter"",""1"",""3378""
","
","
","""event"",""trial"",""time""
""fullscreenenter"",""1"",""3378""
","
","","","","","","1102.6000000014901","images/cow8.png","","","learning","3","3","1","1","cow","animals","2","1","","neutral","0"
"html-keyboard-response","225","906974","0.0-11.0-2.0-0.18","6285","1","8","Male","approach_avoid_spark_v1","""event"",""trial"",""time""
""fullscreenenter"",""1"",""3378""
","
","
","""event"",""trial"",""time""
""fullscreenenter"",""1"",""3378""
","
","","","","","","null","<div style=""font-size:60px;"">+</div>","null","","fixation","","","","","","","","","","",""
"aa-learning-trial","226","909994","0.0-11.0-2.0-1.18","6285","1","8","Male","approach_avoid_spark_v1","""event"",""trial"",""time""
""fullscreenenter"",""1"",""3378""
","
","
","""event"",""trial"",""time""
""fullscreenenter"",""1"",""3378""
","
","","","","","","1030.9000000059605","images/horse4.png","","","learning","-6","-6","1","1","horse","animals","2","1","","good","[4]"
"html-keyboard-response","227","910503","0.0-11.0-2.0-0.19","6285","1","8","Male","approach_avoid_spark_v1","""event"",""trial"",""time""
""fullscreenenter"",""1"",""3378""
","
","
","""event"",""trial"",""time""
""fullscreenenter"",""1"",""3378""
","
","","","","","","null","<div style=""font-size:60px;"">+</div>","null","","fixation","","","","","","","","","","",""
"aa-learning-trial","228","913511","0.0-11.0-2.0-1.19","6285","1","8","Male","approach_avoid_spark_v1","""event"",""trial"",""time""
""fullscreenenter"",""1"",""3378""
","
","
","""event"",""trial"",""time""
""fullscreenenter"",""1"",""3378""
","
","","","","","","1500.3000000044703","images/goat2.png","","","learning","-4","-4","1","1","goat","animals","2","1","","bad","[-4]"
"html-keyboard-response","229","914015","0.0-11.0-2.0-0.20","6285","1","8","Male","approach_avoid_spark_v1","""event"",""trial"",""time""
""fullscreenenter"",""1"",""3378""
","
","
","""event"",""trial"",""time""
""fullscreenenter"",""1"",""3378""
","
","","","","","","null","<div style=""font-size:60px;"">+</div>","null","","fixation","","","","","","","","","","",""
"aa-learning-trial","230","917024","0.0-11.0-2.0-1.20","6285","1","8","Male","approach_avoid_spark_v1","""event"",""trial"",""time""
""fullscreenenter"",""1"",""3378""
","
","
","""event"",""trial"",""time""
""fullscreenenter"",""1"",""3378""
","
","","","","","","917.2000000029802","images/goat1.png","","","learning","-7","-7","1","1","goat","animals","2","1","","bad","[-4]"
"html-keyboard-response","231","917527","0.0-11.0-2.0-0.21","6285","1","8","Male","approach_avoid_spark_v1","""event"",""trial"",""time""
""fullscreenenter"",""1"",""3378""
","
","
","""event"",""trial"",""time""
""fullscreenenter"",""1"",""3378""
","
","","","","","","null","<div style=""font-size:60px;"">+</div>","null","","fixation","","","","","","","","","","",""
"aa-learning-trial","232","920536","0.0-11.0-2.0-1.21","6285","1","8","Male","approach_avoid_spark_v1","""event"",""trial"",""time""
""fullscreenenter"",""1"",""3378""
","
","
","""event"",""trial"",""time""
""fullscreenenter"",""1"",""3378""
","
","","","","","","654.6000000014901","images/horse5.png","","","learning","-3","0","0","0","horse","animals","2","1","","good","[4]"
"html-keyboard-response","233","921039","0.0-11.0-2.0-0.22","6285","1","8","Male","approach_avoid_spark_v1","""event"",""trial"",""time""
""fullscreenenter"",""1"",""3378""
","
","
","""event"",""trial"",""time""
""fullscreenenter"",""1"",""3378""
","
","","","","","","null","<div style=""font-size:60px;"">+</div>","null","","fixation","","","","","","","","","","",""
"aa-learning-trial","234","924047","0.0-11.0-2.0-1.22","6285","1","8","Male","approach_avoid_spark_v1","""event"",""trial"",""time""
""fullscreenenter"",""1"",""3378""
","
","
","""event"",""trial"",""time""
""fullscreenenter"",""1"",""3378""
","
","","","","","","677.8000000044703","images/cow8.png","","","learning","3","0","0","0","cow","animals","2","1","","neutral","0"
"html-keyboard-response","235","924551","0.0-11.0-2.0-0.23","6285","1","8","Male","approach_avoid_spark_v1","""event"",""trial"",""time""
""fullscreenenter"",""1"",""3378""
","
","
","""event"",""trial"",""time""
""fullscreenenter"",""1"",""3378""
","
","","","","","","null","<div style=""font-size:60px;"">+</div>","null","","fixation","","","","","","","","","","",""
"aa-learning-trial","236","927559","0.0-11.0-2.0-1.23","6285","1","8","Male","approach_avoid_spark_v1","""event"",""trial"",""time""
""fullscreenenter"",""1"",""3378""
","
","
","""event"",""trial"",""time""
""fullscreenenter"",""1"",""3378""
","
","","","","","","733","images/goat5.png","","","learning","-2","-2","1","1","goat","animals","2","1","","bad","[-4]"
"html-keyboard-response","237","928063","0.0-11.0-2.0-0.24","6285","1","8","Male","approach_avoid_spark_v1","""event"",""trial"",""time""
""fullscreenenter"",""1"",""3378""
","
","
","""event"",""trial"",""time""
""fullscreenenter"",""1"",""3378""
","
","","","","","","null","<div style=""font-size:60px;"">+</div>","null","","fixation","","","","","","","","","","",""
"aa-learning-trial","238","931072","0.0-11.0-2.0-1.24","6285","1","8","Male","approach_avoid_spark_v1","""event"",""trial"",""time""
""fullscreenenter"",""1"",""3378""
","
","
","""event"",""trial"",""time""
