"trial_type","trial_index","time_elapsed","internal_node_id","subject_id","task_condition","age","gender","task_version","interactions","blur_events","focus_events","fullscreenenter_events","fullscreenexit_events","success","timeout","failed_images","failed_audio","failed_video","rt","stimulus","response","button_pressed","task_part","approach_reward","points","key_press","option_selected","stim_cat","task_block","block_condition","block_number","correct","cat_type","mean_cat_reward"
"pavlovia","0","38","0.0-0.0","7253","1","16","Female","approach_avoid_spark_v1","""event"",""trial"",""time""
""fullscreenenter"",""1"",""7899""
","
","
","""event"",""trial"",""time""
""fullscreenenter"",""1"",""7899""
","
","","","","","","","","","","","","","","","","","","","","",""
"fullscreen","1","8460","0.0-1.0","7253","1","16","Female","approach_avoid_spark_v1","""event"",""trial"",""time""
""fullscreenenter"",""1"",""7899""
","
","
","""event"",""trial"",""time""
""fullscreenenter"",""1"",""7899""
","
","true","","","","","","","","","","","","","","","","","","","",""
"preload","2","23377","0.0-2.0","7253","1","16","Female","approach_avoid_spark_v1","""event"",""trial"",""time""
""fullscreenenter"",""1"",""7899""
","
","
","""event"",""trial"",""time""
""fullscreenenter"",""1"",""7899""
","
","true","false","[]","[]","[]","","","","","","","","","","","","","","","",""
"audio-keyboard-response","3","26445","0.0-3.0","7253","1","16","Female","approach_avoid_spark_v1","""event"",""trial"",""time""
""fullscreenenter"",""1"",""7899""
","
","
","""event"",""trial"",""time""
""fullscreenenter"",""1"",""7899""
","
","","","","","","3050.6666666666665","audio/beep_loop.wav","audiovolumedown","","","","","","","","","","","","",""
"audio-button-response","4","28551","0.0-4.0","7253","1","16","Female","approach_avoid_spark_v1","""event"",""trial"",""time""
""fullscreenenter"",""1"",""7899""
","
","
","""event"",""trial"",""time""
""fullscreenenter"",""1"",""7899""
","
","","","","","","2091","audio/shark.wav","4","","","","","","","","","","","","",""
"audio-button-response","5","33580","0.0-5.0","7253","1","16","Female","approach_avoid_spark_v1","""event"",""trial"",""time""
""fullscreenenter"",""1"",""7899""
","
","
","""event"",""trial"",""time""
""fullscreenenter"",""1"",""7899""
","
","","","","","","4021","audio/turtle.wav","1","","","","","","","","","","","","",""
"preload","6","39084","0.0-6.0","7253","1","16","Female","approach_avoid_spark_v1","""event"",""trial"",""time""
""fullscreenenter"",""1"",""7899""
","
","
","""event"",""trial"",""time""
""fullscreenenter"",""1"",""7899""
","
","true","false","[]","[]","[]","","","","","","","","","","","","","","","",""
"html-keyboard-response","7","111258","0.0-7.0","7253","1","16","Female","approach_avoid_spark_v1","""event"",""trial"",""time""
""fullscreenenter"",""1"",""7899""
","
","
","""event"",""trial"",""time""
""fullscreenenter"",""1"",""7899""
","
","","","","","","71940.59999990463","Welcome to the experiment. Press any key to begin and to advance the instructions."," ","","","","","","","","","","","","",""
"learning-instructions","8","121266","0.0-8.0-0.0-0.0","7253","1","16","Female","approach_avoid_spark_v1","""event"",""trial"",""time""
""fullscreenenter"",""1"",""7899""
","
","
","""event"",""trial"",""time""
""fullscreenenter"",""1"",""7899""
","
","","","","","","2604.6000003814697","<p> Welcome! Today you are going to play 6 different rounds of a decision-making game. </p><p> Use the mouse to click next to continue. </p>","","0","instructions","","","","","","","","","","",""
"learning-instructions","9","127333","0.0-8.0-0.0-0.1","7253","1","16","Female","approach_avoid_spark_v1","""event"",""trial"",""time""
""fullscreenenter"",""1"",""7899""
","
","
","""event"",""trial"",""time""
""fullscreenenter"",""1"",""7899""
","
","","","","","","3322.4000000953674","<p> You will start with a practice round to learn the rules. </p>","","0","instructions","","","","","","","","","","",""
"learning-instructions","10","131439","0.0-8.0-0.0-0.2","7253","1","16","Female","approach_avoid_spark_v1","""event"",""trial"",""time""
""fullscreenenter"",""1"",""7899""
","
","
","""event"",""trial"",""time""
""fullscreenenter"",""1"",""7899""
","
","","","","","","610.0999999046326","<p> Your goal in this round is to give out sports equipment to kids. </p></div>","","0","instructions","","","","","","","","","","",""
"learning-instructions","11","139817","0.0-8.0-0.0-0.3","7253","1","16","Female","approach_avoid_spark_v1","""event"",""trial"",""time""
""fullscreenenter"",""1"",""7899""
""blur"",""12"",""143720""
""focus"",""12"",""144515""
","""event"",""trial"",""time""
""blur"",""12"",""143720""
","""event"",""trial"",""time""
""focus"",""12"",""144515""
","""event"",""trial"",""time""
""fullscreenenter"",""1"",""7899""
","
","","","","","","829.3000001907349","<p> The kids only like some of the equipment.  </p><p> On each turn, you will see a piece of sports equipment.   </p><p> You need to decide whether to give it to the kids or not.  </p>","","0","instructions","","","","","","","","","","",""
"learning-instructions","12","147782","0.0-8.0-0.0-0.4","7253","1","16","Female","approach_avoid_spark_v1","""event"",""trial"",""time""
""fullscreenenter"",""1"",""7899""
""blur"",""12"",""143720""
""focus"",""12"",""144515""
","""event"",""trial"",""time""
""blur"",""12"",""143720""
","""event"",""trial"",""time""
""focus"",""12"",""144515""
","""event"",""trial"",""time""
""fullscreenenter"",""1"",""7899""
","
","","","","","","3020","<p> You can give them the equipment by pressing 1 and choose not to give it to them by pressing 0. </p><br><div class=""choice-instructions-grid""> <div class=""choice-option""><img src=""images/approach.png"" class=""choice-option-img"" stage=""instructions"" position=""0"" ><div class=""choice-option-text""> Press ""1."" </div></div><div class=""choice-option""><img src=""images/avoid.png"" class=""choice-option-img"" stage=""instructions"" position=""1"" ><div class=""choice-option-text""> Press ""0."" </div></div>","","0","instructions","","","","","","","","","","",""
"learning-instructions","13","155619","0.0-8.0-0.0-0.5","7253","1","16","Female","approach_avoid_spark_v1","""event"",""trial"",""time""
""fullscreenenter"",""1"",""7899""
""blur"",""12"",""143720""
""focus"",""12"",""144515""
","""event"",""trial"",""time""
""blur"",""12"",""143720""
","""event"",""trial"",""time""
""focus"",""12"",""144515""
","""event"",""trial"",""time""
""fullscreenenter"",""1"",""7899""
","
","","","","","","407.7999997138977","<p> If you give them a piece of equipment they like, they will be happy! </p><p> But if you give them a piece of equipment they do not like, they will be sad. </p>","","0","instructions","","","","","","","","","","",""
"learning-instructions","14","166541","0.0-8.0-0.0-0.6","7253","1","16","Female","approach_avoid_spark_v1","""event"",""trial"",""time""
""fullscreenenter"",""1"",""7899""
""blur"",""12"",""143720""
""focus"",""12"",""144515""
","""event"",""trial"",""time""
""blur"",""12"",""143720""
","""event"",""trial"",""time""
""focus"",""12"",""144515""
","""event"",""trial"",""time""
""fullscreenenter"",""1"",""7899""
","
","","","","","","397","<p> You will earn points based on how you make kids feel. </p><p> If you make them happy, you will WIN anywhere from 1 - 9 points, </p><p> but if you make them sad, you will LOSE anywhere from 1 - 9 points. </p>","","0","instructions","","","","","","","","","","",""
"learning-instructions","15","180638","0.0-8.0-0.0-0.7","7253","1","16","Female","approach_avoid_spark_v1","""event"",""trial"",""time""
""fullscreenenter"",""1"",""7899""
""blur"",""12"",""143720""
""focus"",""12"",""144515""
","""event"",""trial"",""time""
""blur"",""12"",""143720""
","""event"",""trial"",""time""
""focus"",""12"",""144515""
","""event"",""trial"",""time""
""fullscreenenter"",""1"",""7899""
","
","","","","","","4531","<p> You will see how many points you won or lost in the center of the screen. </p><p> Here is what you would see if you won 6 points: </p><p style=""color:green;font-size:50px;font-weight:bolder"">6</p><p style=""color:green"">The text is GREEN because you WON points.</p>","","0","instructions","","","","","","","","","","",""
"learning-instructions","16","187419","0.0-8.0-0.0-0.8","7253","1","16","Female","approach_avoid_spark_v1","""event"",""trial"",""time""
""fullscreenenter"",""1"",""7899""
""blur"",""12"",""143720""
""focus"",""12"",""144515""
","""event"",""trial"",""time""
""blur"",""12"",""143720""
","""event"",""trial"",""time""
""focus"",""12"",""144515""
","""event"",""trial"",""time""
""fullscreenenter"",""1"",""7899""
","
","","","","","","1250.1000003814697","<p> And here is what you would see if you lost 4 points: </p><p style=""color:red;font-size:50px;font-weight:bolder"">-4</p><p style=""color:red"">The text is RED because you LOST points. </p>","","0","instructions","","","","","","","","","","",""
"learning-instructions","17","202707","0.0-8.0-0.0-0.9","7253","1","16","Female","approach_avoid_spark_v1","""event"",""trial"",""time""
""fullscreenenter"",""1"",""7899""
""blur"",""12"",""143720""
""focus"",""12"",""144515""
","""event"",""trial"",""time""
""blur"",""12"",""143720""
","""event"",""trial"",""time""
""focus"",""12"",""144515""
","""event"",""trial"",""time""
""fullscreenenter"",""1"",""7899""
","
","","","","","","561","<p> Some of the equipment will make the kids VERY happy or sad. </p><p> These pieces of equipment will make you win or lose LOTS of points. </p><p> Other pieces of equipment will only make the kids a little happy or sad. </p><p> These pieces of equipment will make you win or lose small amounts of points. </p>","","0","instructions","","","","","","","","","","",""
"learning-instructions","18","214800","0.0-8.0-0.0-0.10","7253","1","16","Female","approach_avoid_spark_v1","""event"",""trial"",""time""
""fullscreenenter"",""1"",""7899""
""blur"",""12"",""143720""
""focus"",""12"",""144515""
","""event"",""trial"",""time""
""blur"",""12"",""143720""
","""event"",""trial"",""time""
""focus"",""12"",""144515""
","""event"",""trial"",""time""
""fullscreenenter"",""1"",""7899""
","
","","","","","","1454.1999998092651","<p> If you choose not to give them the equipment, you will not win or lose any points. </p><p>  However, in the center of the screen, you will see the number of points you WOULD HAVE won or lost if you had given them the equipment. </p>","","0","instructions","","","","","","","","","","",""
"learning-instructions","19","277606","0.0-8.0-0.0-0.11","7253","1","16","Female","approach_avoid_spark_v1","""event"",""trial"",""time""
""fullscreenenter"",""1"",""7899""
""blur"",""12"",""143720""
""focus"",""12"",""144515""
","""event"",""trial"",""time""
""blur"",""12"",""143720""
","""event"",""trial"",""time""
""focus"",""12"",""144515""
","""event"",""trial"",""time""
""fullscreenenter"",""1"",""7899""
","
","","","","","","41264.59999990463","<p> Here is what you might see if you did not give the equipment to the kids but it would have made them happy: </p><p style=""color:grey; font-size:50px; display: inline-block; border-spacing: 15px; border-width:3px; border-style:solid; border-color:red"">  &nbsp; 7 &nbsp; </p><p> Remember, in this case, you would not win or lose ANY points because you did not give them the equipment.  </p><p style=""color:grey"">The text is GREY because you earned ZERO points. </p><p style=""color:red"">However, choosing to give the kids the equipment would have made you win points. The box around the text is RED because you chose the worse option. </p>","","0","instructions","","","","","","","","","","",""
"learning-instructions","20","305119","0.0-8.0-0.0-0.12","7253","1","16","Female","approach_avoid_spark_v1","""event"",""trial"",""time""
""fullscreenenter"",""1"",""7899""
""blur"",""12"",""143720""
""focus"",""12"",""144515""
","""event"",""trial"",""time""
""blur"",""12"",""143720""
","""event"",""trial"",""time""
""focus"",""12"",""144515""
","""event"",""trial"",""time""
""fullscreenenter"",""1"",""7899""
","
","","","","","","6302.799999713898","<p> Here is what you might see if you did not give the equipment to the kids but it would have made them sad: </p><p style=""color:grey;font-size:50px; display: inline-block; border-spacing: 15px; border-width:3px; border-style:solid; border-color:green"">  &nbsp; -8 &nbsp; </p><p> Remember, in this case, you would not win or lose ANY points because you did not give them the equipment.  </p><p style=""color:grey"">The text is GREY because you earned ZERO points. </p><p  style=""color:green""> Choosing to give the kids the equipment would have made you lose points. The box around the text is GREEN because you chose the better option.</p>","","0","instructions","","","","","","","","","","",""
"learning-instructions","21","316344","0.0-8.0-0.0-0.13","7253","1","16","Female","approach_avoid_spark_v1","""event"",""trial"",""time""
""fullscreenenter"",""1"",""7899""
""blur"",""12"",""143720""
""focus"",""12"",""144515""
","""event"",""trial"",""time""
""blur"",""12"",""143720""
","""event"",""trial"",""time""
""focus"",""12"",""144515""
","""event"",""trial"",""time""
""fullscreenenter"",""1"",""7899""
","
","","","","","","652.3000001907349","<p> You will have 3 seconds to make each choice. Try to respond before time runs out! </p><p> You will lose 5 points each time you do not make a response. </p>","","0","instructions","","","","","","","","","","",""
"learning-instructions","22","330203","0.0-8.0-0.0-0.14","7253","1","16","Female","approach_avoid_spark_v1","""event"",""trial"",""time""
""fullscreenenter"",""1"",""7899""
""blur"",""12"",""143720""
""focus"",""12"",""144515""
","""event"",""trial"",""time""
""blur"",""12"",""143720""
","""event"",""trial"",""time""
""focus"",""12"",""144515""
","""event"",""trial"",""time""
""fullscreenenter"",""1"",""7899""
","
","","","","","","8389.5","<p> This is just a practice round, but in the real game, your bonus payment will depend on your total number of points.","","0","instructions","","","","","","","","","","",""
"learning-instructions","23","337114","0.0-8.0-0.0-0.15","7253","1","16","Female","approach_avoid_spark_v1","""event"",""trial"",""time""
""fullscreenenter"",""1"",""7899""
""blur"",""12"",""143720""
""focus"",""12"",""144515""
","""event"",""trial"",""time""
""blur"",""12"",""143720""
","""event"",""trial"",""time""
""focus"",""12"",""144515""
","""event"",""trial"",""time""
""fullscreenenter"",""1"",""7899""
","
","","","","","","1122.3000001907349","<p> Remember, you can give them the equipment by pressing 1 and choose not to give it to them by pressing 0. </p><br><div class=""choice-instructions-grid""> <div class=""choice-option""><img src=""images/approach.png"" class=""choice-option-img"" stage=""instructions"" position=""0"" ><div class=""choice-option-text""> Press ""1."" </div></div><div class=""choice-option""><img src=""images/avoid.png"" class=""choice-option-img"" stage=""instructions"" position=""1"" ><div class=""choice-option-text""> Press ""0."" </div></div>","","0","instructions","","","","","","","","","","",""
"html-button-response","24","339073","0.0-8.0-1.0","7253","1","16","Female","approach_avoid_spark_v1","""event"",""trial"",""time""
""fullscreenenter"",""1"",""7899""
""blur"",""12"",""143720""
""focus"",""12"",""144515""
","""event"",""trial"",""time""
""blur"",""12"",""143720""
","""event"",""trial"",""time""
""focus"",""12"",""144515""
","""event"",""trial"",""time""
""fullscreenenter"",""1"",""7899""
","
","","","","","","1829.3999996185303","<p> Ready to practice? </p>","0","","","","","","","","","","","","",""
"html-keyboard-response","25","339713","0.0-8.0-2.0-0.0","7253","1","16","Female","approach_avoid_spark_v1","""event"",""trial"",""time""
""fullscreenenter"",""1"",""7899""
""blur"",""12"",""143720""
""focus"",""12"",""144515""
","""event"",""trial"",""time""
""blur"",""12"",""143720""
","""event"",""trial"",""time""
""focus"",""12"",""144515""
","""event"",""trial"",""time""
""fullscreenenter"",""1"",""7899""
","
","","","","","","null","<div style=""font-size:60px;"">+</div>","null","","fixation","","","","","","","","","","",""
"aa-learning-trial","26","342762","0.0-8.0-2.0-1.0","7253","1","16","Female","approach_avoid_spark_v1","""event"",""trial"",""time""
""fullscreenenter"",""1"",""7899""
""blur"",""12"",""143720""
""focus"",""12"",""144515""
","""event"",""trial"",""time""
""blur"",""12"",""143720""
","""event"",""trial"",""time""
""focus"",""12"",""144515""
","""event"",""trial"",""time""
""fullscreenenter"",""1"",""7899""
","
","","","","","","1188.1999998092651","images/ball1.png","","","learning","-3","-3","1","1","practice","practice","practice","-1","","",""
"html-keyboard-response","27","343279","0.0-8.0-2.0-0.1","7253","1","16","Female","approach_avoid_spark_v1","""event"",""trial"",""time""
""fullscreenenter"",""1"",""7899""
""blur"",""12"",""143720""
""focus"",""12"",""144515""
","""event"",""trial"",""time""
""blur"",""12"",""143720""
","""event"",""trial"",""time""
""focus"",""12"",""144515""
","""event"",""trial"",""time""
""fullscreenenter"",""1"",""7899""
","
","","","","","","null","<div style=""font-size:60px;"">+</div>","null","","fixation","","","","","","","","","","",""
"aa-learning-trial","28","346304","0.0-8.0-2.0-1.1","7253","1","16","Female","approach_avoid_spark_v1","""event"",""trial"",""time""
""fullscreenenter"",""1"",""7899""
""blur"",""12"",""143720""
""focus"",""12"",""144515""
","""event"",""trial"",""time""
""blur"",""12"",""143720""
","""event"",""trial"",""time""
""focus"",""12"",""144515""
","""event"",""trial"",""time""
""fullscreenenter"",""1"",""7899""
","
","","","","","","789.5","images/racket1.png","","","learning","-7","0","0","0","practice","practice","practice","-1","","",""
"html-keyboard-response","29","346844","0.0-8.0-2.0-0.2","7253","1","16","Female","approach_avoid_spark_v1","""event"",""trial"",""time""
""fullscreenenter"",""1"",""7899""
""blur"",""12"",""143720""
""focus"",""12"",""144515""
","""event"",""trial"",""time""
""blur"",""12"",""143720""
","""event"",""trial"",""time""
""focus"",""12"",""144515""
","""event"",""trial"",""time""
""fullscreenenter"",""1"",""7899""
","
","","","","","","null","<div style=""font-size:60px;"">+</div>","null","","fixation","","","","","","","","","","",""
"aa-learning-trial","30","349851","0.0-8.0-2.0-1.2","7253","1","16","Female","approach_avoid_spark_v1","""event"",""trial"",""time""
""fullscreenenter"",""1"",""7899""
""blur"",""12"",""143720""
""focus"",""12"",""144515""
","""event"",""trial"",""time""
""blur"",""12"",""143720""
","""event"",""trial"",""time""
""focus"",""12"",""144515""
","""event"",""trial"",""time""
""fullscreenenter"",""1"",""7899""
","
","","","","","","533.0999999046326","images/racket4.png","","","learning","7","7","1","1","practice","practice","practice","-1","","",""
"html-keyboard-response","31","350359","0.0-8.0-2.0-0.3","7253","1","16","Female","approach_avoid_spark_v1","""event"",""trial"",""time""
""fullscreenenter"",""1"",""7899""
""blur"",""12"",""143720""
""focus"",""12"",""144515""
","""event"",""trial"",""time""
""blur"",""12"",""143720""
","""event"",""trial"",""time""
""focus"",""12"",""144515""
","""event"",""trial"",""time""
""fullscreenenter"",""1"",""7899""
","
","","","","","","null","<div style=""font-size:60px;"">+</div>","null","","fixation","","","","","","","","","","",""
"aa-learning-trial","32","353430","0.0-8.0-2.0-1.3","7253","1","16","Female","approach_avoid_spark_v1","""event"",""trial"",""time""
""fullscreenenter"",""1"",""7899""
""blur"",""12"",""143720""
""focus"",""12"",""144515""
","""event"",""trial"",""time""
""blur"",""12"",""143720""
","""event"",""trial"",""time""
""focus"",""12"",""144515""
","""event"",""trial"",""time""
""fullscreenenter"",""1"",""7899""
","
","","","","","","661.9000000953674","images/ball4.png","","","learning","-7","-7","1","1","practice","practice","practice","-1","","",""
"html-keyboard-response","33","354019","0.0-8.0-2.0-0.4","7253","1","16","Female","approach_avoid_spark_v1","""event"",""trial"",""time""
""fullscreenenter"",""1"",""7899""
""blur"",""12"",""143720""
""focus"",""12"",""144515""
","""event"",""trial"",""time""
""blur"",""12"",""143720""
","""event"",""trial"",""time""
""focus"",""12"",""144515""
","""event"",""trial"",""time""
""fullscreenenter"",""1"",""7899""
","
","","","","","","null","<div style=""font-size:60px;"">+</div>","null","","fixation","","","","","","","","","","",""
"aa-learning-trial","34","357083","0.0-8.0-2.0-1.4","7253","1","16","Female","approach_avoid_spark_v1","""event"",""trial"",""time""
""fullscreenenter"",""1"",""7899""
""blur"",""12"",""143720""
""focus"",""12"",""144515""
","""event"",""trial"",""time""
""blur"",""12"",""143720""
","""event"",""trial"",""time""
""focus"",""12"",""144515""
","""event"",""trial"",""time""
""fullscreenenter"",""1"",""7899""
","
","","","","","","1023.0999999046326","images/ball2.png","","","learning","2","0","0","0","practice","practice","practice","-1","","",""
"html-keyboard-response","35","357618","0.0-8.0-2.0-0.5","7253","1","16","Female","approach_avoid_spark_v1","""event"",""trial"",""time""
""fullscreenenter"",""1"",""7899""
""blur"",""12"",""143720""
""focus"",""12"",""144515""
","""event"",""trial"",""time""
""blur"",""12"",""143720""
","""event"",""trial"",""time""
""focus"",""12"",""144515""
","""event"",""trial"",""time""
""fullscreenenter"",""1"",""7899""
","
","","","","","","null","<div style=""font-size:60px;"">+</div>","null","","fixation","","","","","","","","","","",""
"aa-learning-trial","36","360632","0.0-8.0-2.0-1.5","7253","1","16","Female","approach_avoid_spark_v1","""event"",""trial"",""time""
""fullscreenenter"",""1"",""7899""
""blur"",""12"",""143720""
""focus"",""12"",""144515""
","""event"",""trial"",""time""
""blur"",""12"",""143720""
","""event"",""trial"",""time""
""focus"",""12"",""144515""
","""event"",""trial"",""time""
""fullscreenenter"",""1"",""7899""
","
","","","","","","806.6000003814697","images/ball3.png","","","learning","-6","0","0","0","practice","practice","practice","-1","","",""
"html-keyboard-response","37","361157","0.0-8.0-2.0-0.6","7253","1","16","Female","approach_avoid_spark_v1","""event"",""trial"",""time""
""fullscreenenter"",""1"",""7899""
""blur"",""12"",""143720""
""focus"",""12"",""144515""
","""event"",""trial"",""time""
""blur"",""12"",""143720""
","""event"",""trial"",""time""
""focus"",""12"",""144515""
","""event"",""trial"",""time""
""fullscreenenter"",""1"",""7899""
","
","","","","","","null","<div style=""font-size:60px;"">+</div>","null","","fixation","","","","","","","","","","",""
"aa-learning-trial","38","364175","0.0-8.0-2.0-1.6","7253","1","16","Female","approach_avoid_spark_v1","""event"",""trial"",""time""
""fullscreenenter"",""1"",""7899""
""blur"",""12"",""143720""
""focus"",""12"",""144515""
","""event"",""trial"",""time""
""blur"",""12"",""143720""
","""event"",""trial"",""time""
""focus"",""12"",""144515""
","""event"",""trial"",""time""
""fullscreenenter"",""1"",""7899""
","
","","","","","","333.90000009536743","images/racket1.png","","","learning","8","8","1","1","practice","practice","practice","-1","","",""
"html-keyboard-response","39","364679","0.0-8.0-2.0-0.7","7253","1","16","Female","approach_avoid_spark_v1","""event"",""trial"",""time""
""fullscreenenter"",""1"",""7899""
""blur"",""12"",""143720""
""focus"",""12"",""144515""
","""event"",""trial"",""time""
""blur"",""12"",""143720""
","""event"",""trial"",""time""
""focus"",""12"",""144515""
","""event"",""trial"",""time""
""fullscreenenter"",""1"",""7899""
","
","","","","","","null","<div style=""font-size:60px;"">+</div>","null","","fixation","","","","","","","","","","",""
"aa-learning-trial","40","367693","0.0-8.0-2.0-1.7","7253","1","16","Female","approach_avoid_spark_v1","""event"",""trial"",""time""
""fullscreenenter"",""1"",""7899""
""blur"",""12"",""143720""
""focus"",""12"",""144515""
","""event"",""trial"",""time""
""blur"",""12"",""143720""
","""event"",""trial"",""time""
""focus"",""12"",""144515""
","""event"",""trial"",""time""
""fullscreenenter"",""1"",""7899""
","
","","","","","","307.2000002861023","images/racket1.png","","","learning","1","1","1","1","practice","practice","practice","-1","","",""
"html-keyboard-response","41","368222","0.0-8.0-2.0-0.8","7253","1","16","Female","approach_avoid_spark_v1","""event"",""trial"",""time""
""fullscreenenter"",""1"",""7899""
""blur"",""12"",""143720""
""focus"",""12"",""144515""
","""event"",""trial"",""time""
""blur"",""12"",""143720""
","""event"",""trial"",""time""
""focus"",""12"",""144515""
","""event"",""trial"",""time""
""fullscreenenter"",""1"",""7899""
","
","","","","","","null","<div style=""font-size:60px;"">+</div>","null","","fixation","","","","","","","","","","",""
"aa-learning-trial","42","371229","0.0-8.0-2.0-1.8","7253","1","16","Female","approach_avoid_spark_v1","""event"",""trial"",""time""
""fullscreenenter"",""1"",""7899""
""blur"",""12"",""143720""
""focus"",""12"",""144515""
","""event"",""trial"",""time""
""blur"",""12"",""143720""
","""event"",""trial"",""time""
""focus"",""12"",""144515""
","""event"",""trial"",""time""
""fullscreenenter"",""1"",""7899""
","
","","","","","","460.09999990463257","images/racket2.png","","","learning","-4","-4","1","1","practice","practice","practice","-1","","",""
"html-keyboard-response","43","371732","0.0-8.0-2.0-0.9","7253","1","16","Female","approach_avoid_spark_v1","""event"",""trial"",""time""
""fullscreenenter"",""1"",""7899""
""blur"",""12"",""143720""
""focus"",""12"",""144515""
","""event"",""trial"",""time""
""blur"",""12"",""143720""
","""event"",""trial"",""time""
""focus"",""12"",""144515""
","""event"",""trial"",""time""
""fullscreenenter"",""1"",""7899""
","
","","","","","","null","<div style=""font-size:60px;"">+</div>","null","","fixation","","","","","","","","","","",""
"aa-learning-trial","44","374742","0.0-8.0-2.0-1.9","7253","1","16","Female","approach_avoid_spark_v1","""event"",""trial"",""time""
""fullscreenenter"",""1"",""7899""
""blur"",""12"",""143720""
""focus"",""12"",""144515""
","""event"",""trial"",""time""
""blur"",""12"",""143720""
","""event"",""trial"",""time""
""focus"",""12"",""144515""
","""event"",""trial"",""time""
""fullscreenenter"",""1"",""7899""
","
","","","","","","313.90000009536743","images/ball3.png","","","learning","-2","0","0","0","practice","practice","practice","-1","","",""
"html-keyboard-response","45","375275","0.0-8.0-2.0-0.10","7253","1","16","Female","approach_avoid_spark_v1","""event"",""trial"",""time""
""fullscreenenter"",""1"",""7899""
""blur"",""12"",""143720""
""focus"",""12"",""144515""
","""event"",""trial"",""time""
""blur"",""12"",""143720""
","""event"",""trial"",""time""
""focus"",""12"",""144515""
","""event"",""trial"",""time""
""fullscreenenter"",""1"",""7899""
","
","","","","","","null","<div style=""font-size:60px;"">+</div>","null","","fixation","","","","","","","","","","",""
"aa-learning-trial","46","378288","0.0-8.0-2.0-1.10","7253","1","16","Female","approach_avoid_spark_v1","""event"",""trial"",""time""
""fullscreenenter"",""1"",""7899""
""blur"",""12"",""143720""
""focus"",""12"",""144515""
","""event"",""trial"",""time""
""blur"",""12"",""143720""
","""event"",""trial"",""time""
""focus"",""12"",""144515""
","""event"",""trial"",""time""
""fullscreenenter"",""1"",""7899""
","
","","","","","","672.1999998092651","images/ball1.png","","","learning","2","2","1","1","practice","practice","practice","-1","","",""
"html-keyboard-response","47","378821","0.0-8.0-2.0-0.11","7253","1","16","Female","approach_avoid_spark_v1","""event"",""trial"",""time""
""fullscreenenter"",""1"",""7899""
""blur"",""12"",""143720""
""focus"",""12"",""144515""
","""event"",""trial"",""time""
""blur"",""12"",""143720""
","""event"",""trial"",""time""
""focus"",""12"",""144515""
","""event"",""trial"",""time""
""fullscreenenter"",""1"",""7899""
","
","","","","","","null","<div style=""font-size:60px;"">+</div>","null","","fixation","","","","","","","","","","",""
"aa-learning-trial","48","381828","0.0-8.0-2.0-1.11","7253","1","16","Female","approach_avoid_spark_v1","""event"",""trial"",""time""
""fullscreenenter"",""1"",""7899""
""blur"",""12"",""143720""
""focus"",""12"",""144515""
","""event"",""trial"",""time""
""blur"",""12"",""143720""
","""event"",""trial"",""time""
""focus"",""12"",""144515""
","""event"",""trial"",""time""
""fullscreenenter"",""1"",""7899""
","
","","","","","","262","images/ball1.png","","","learning","-7","-7","1","1","practice","practice","practice","-1","","",""
"html-button-response","49","385082","0.0-8.0-3.0","7253","1","16","Female","approach_avoid_spark_v1","""event"",""trial"",""time""
""fullscreenenter"",""1"",""7899""
""blur"",""12"",""143720""
""focus"",""12"",""144515""
","""event"",""trial"",""time""
""blur"",""12"",""143720""
","""event"",""trial"",""time""
""focus"",""12"",""144515""
","""event"",""trial"",""time""
""fullscreenenter"",""1"",""7899""
","
","","","","","","3242.199999809265","<p> You earned -3 points in the practice round! </p>","0","","break","","","","","","","","","","",""
"learning-instructions","50","392190","0.0-8.0-4.0-0.0","7253","1","16","Female","approach_avoid_spark_v1","""event"",""trial"",""time""
""fullscreenenter"",""1"",""7899""
""blur"",""12"",""143720""
""focus"",""12"",""144515""
","""event"",""trial"",""time""
""blur"",""12"",""143720""
","""event"",""trial"",""time""
""focus"",""12"",""144515""
","""event"",""trial"",""time""
""fullscreenenter"",""1"",""7899""
","
","","","","","","1053.1000003814697","<p> It's almost time to start the real game. </p><p> Before you start, we're going to ask you a few questions about how the game works. </p>","","0","instructions","","","","","","","","","","",""
"preload","51","395974","0.0-8.0-5.0","7253","1","16","Female","approach_avoid_spark_v1","""event"",""trial"",""time""
""fullscreenenter"",""1"",""7899""
""blur"",""12"",""143720""
""focus"",""12"",""144515""
","""event"",""trial"",""time""
""blur"",""12"",""143720""
","""event"",""trial"",""time""
""focus"",""12"",""144515""
","""event"",""trial"",""time""
""fullscreenenter"",""1"",""7899""
","
","true","false","[]","[]","[]","","","","","","","","","","","","","","","",""
"comp-q","52","402282","0.0-8.0-6.0-0.0","7253","1","16","Female","approach_avoid_spark_v1","""event"",""trial"",""time""
""fullscreenenter"",""1"",""7899""
""blur"",""12"",""143720""
""focus"",""12"",""144515""
","""event"",""trial"",""time""
""blur"",""12"",""143720""
","""event"",""trial"",""time""
""focus"",""12"",""144515""
","""event"",""trial"",""time""
""fullscreenenter"",""1"",""7899""
","
","","","","","","1241.6999998092651","<p> <b> True or False? </b> </p><p> If you see a number in GREY, that means you earned that many points. </p>","","1","comp_question","","","","","","","","","true","",""
"comp-q","53","412686","0.0-8.0-6.0-1.0","7253","1","16","Female","approach_avoid_spark_v1","""event"",""trial"",""time""
""fullscreenenter"",""1"",""7899""
""blur"",""12"",""143720""
""focus"",""12"",""144515""
","""event"",""trial"",""time""
""blur"",""12"",""143720""
","""event"",""trial"",""time""
""focus"",""12"",""144515""
","""event"",""trial"",""time""
""fullscreenenter"",""1"",""7899""
","
","","","","","","2007.3000001907349","<p><b> That's right! </b> If you see a grey number, it means you earned ZERO points. <br> The grey numbers show the points you WOULD HAVE earned if you had made the other choice. </p>","","0","comp_answer","","","","","","","","","","",""
"comp-q","54","418463","0.0-8.0-7.0-0.0","7253","1","16","Female","approach_avoid_spark_v1","""event"",""trial"",""time""
""fullscreenenter"",""1"",""7899""
""blur"",""12"",""143720""
""focus"",""12"",""144515""
","""event"",""trial"",""time""
""blur"",""12"",""143720""
","""event"",""trial"",""time""
""focus"",""12"",""144515""
","""event"",""trial"",""time""
""fullscreenenter"",""1"",""7899""
","
","","","","","","1064.1000003814697","<p> <b> True or False? </b> </p><p> You will have as much time as you want to make each choice. </p>","","1","comp_question","","","","","","","","","true","",""
"comp-q","55","424737","0.0-8.0-7.0-1.0","7253","1","16","Female","approach_avoid_spark_v1","""event"",""trial"",""time""
""fullscreenenter"",""1"",""7899""
""blur"",""12"",""143720""
""focus"",""12"",""144515""
","""event"",""trial"",""time""
""blur"",""12"",""143720""
","""event"",""trial"",""time""
""focus"",""12"",""144515""
","""event"",""trial"",""time""
""fullscreenenter"",""1"",""7899""
","
","","","","","","2177.4000000953674","<p> <b> That's right! </b> You will only have 3 seconds to make each choice. </p>","","0","comp_answer","","","","","","","","","","",""
"comp-q","56","431993","0.0-8.0-8.0-0.0","7253","1","16","Female","approach_avoid_spark_v1","""event"",""trial"",""time""
""fullscreenenter"",""1"",""7899""
""blur"",""12"",""143720""
""focus"",""12"",""144515""
","""event"",""trial"",""time""
""blur"",""12"",""143720""
","""event"",""trial"",""time""
""focus"",""12"",""144515""
","""event"",""trial"",""time""
""fullscreenenter"",""1"",""7899""
","
","","","","","","2595.0999999046326","<p> <b> True or False? </b> </p><p> You should use the '1' and '0' keys to make your choices. </p>","","0","comp_question","","","","","","","","","true","",""
"comp-q","57","437447","0.0-8.0-8.0-1.0","7253","1","16","Female","approach_avoid_spark_v1","""event"",""trial"",""time""
""fullscreenenter"",""1"",""7899""
""blur"",""12"",""143720""
""focus"",""12"",""144515""
","""event"",""trial"",""time""
""blur"",""12"",""143720""
","""event"",""trial"",""time""
""focus"",""12"",""144515""
","""event"",""trial"",""time""
""fullscreenenter"",""1"",""7899""
","
","","","","","","838.6999998092651","<p> <b> That's right! </b> You should use the '1' and '0' keys to make each choice. </p>","","0","comp_answer","","","","","","","","","","",""
"learning-instructions","58","445277","0.0-8.0-9.0-0.0","7253","1","16","Female","approach_avoid_spark_v1","""event"",""trial"",""time""
""fullscreenenter"",""1"",""7899""
""blur"",""12"",""143720""
""focus"",""12"",""144515""
","""event"",""trial"",""time""
""blur"",""12"",""143720""
","""event"",""trial"",""time""
""focus"",""12"",""144515""
","""event"",""trial"",""time""
""fullscreenenter"",""1"",""7899""
","
","","","","","","1551.0999999046326","<p> It's now time to start the real game. </p>Do your best, because the points you earn in the next rounds will influence your bonus payment. </p>","","0","instructions","","","","","","","","","","",""
"preload","59","445421","0.0-9.0-0.0","7253","1","16","Female","approach_avoid_spark_v1","""event"",""trial"",""time""
""fullscreenenter"",""1"",""7899""
""blur"",""12"",""143720""
""focus"",""12"",""144515""
","""event"",""trial"",""time""
""blur"",""12"",""143720""
","""event"",""trial"",""time""
""focus"",""12"",""144515""
","""event"",""trial"",""time""
""fullscreenenter"",""1"",""7899""
","
","true","false","[]","[]","[]","","","","","","","","","","","","","","","",""
"learning-instructions","60","451849","0.0-9.0-1.0-0.0","7253","1","16","Female","approach_avoid_spark_v1","""event"",""trial"",""time""
""fullscreenenter"",""1"",""7899""
""blur"",""12"",""143720""
""focus"",""12"",""144515""
","""event"",""trial"",""time""
""blur"",""12"",""143720""
","""event"",""trial"",""time""
""focus"",""12"",""144515""
","""event"",""trial"",""time""
""fullscreenenter"",""1"",""7899""
","
","","","","","","701.6999998092651","<p> Your goal in this round is to take care of lots of farm animals. </p></div>","","0","instructions","","","","","","","","","","",""
"learning-instructions","61","464137","0.0-9.0-1.0-0.1","7253","1","16","Female","approach_avoid_spark_v1","""event"",""trial"",""time""
""fullscreenenter"",""1"",""7899""
""blur"",""12"",""143720""
""focus"",""12"",""144515""
","""event"",""trial"",""time""
""blur"",""12"",""143720""
","""event"",""trial"",""time""
""focus"",""12"",""144515""
","""event"",""trial"",""time""
""fullscreenenter"",""1"",""7899""
","
","","","","","","669.1000003814697","<p> Some farm animals are hungry, while other farm animals are already full.  </p><p> On each turn, you will see a farm animal.   </p><p> You need to decide whether to feed it or not.  </p>","","0","instructions","","","","","","","","","","",""
"learning-instructions","62","472971","0.0-9.0-1.0-0.2","7253","1","16","Female","approach_avoid_spark_v1","""event"",""trial"",""time""
""fullscreenenter"",""1"",""7899""
""blur"",""12"",""143720""
""focus"",""12"",""144515""
","""event"",""trial"",""time""
""blur"",""12"",""143720""
","""event"",""trial"",""time""
""focus"",""12"",""144515""
","""event"",""trial"",""time""
""fullscreenenter"",""1"",""7899""
","
","","","","","","1321.4000000953674","<p> You can feed the farm animal by pressing 1 and leave the farm animal alone by pressing 0. </p><br><div class=""choice-instructions-grid""> <div class=""choice-option""><img src=""images/approach.png"" class=""choice-option-img"" stage=""instructions"" position=""0"" ><div class=""choice-option-text""> Press ""1."" </div></div><div class=""choice-option""><img src=""images/avoid.png"" class=""choice-option-img"" stage=""instructions"" position=""1"" ><div class=""choice-option-text""> Press ""0."" </div></div>","","0","instructions","","","","","","","","","","",""
"learning-instructions","63","606933","0.0-9.0-1.0-0.3","7253","1","16","Female","approach_avoid_spark_v1","""event"",""trial"",""time""
""fullscreenenter"",""1"",""7899""
""blur"",""12"",""143720""
""focus"",""12"",""144515""
","""event"",""trial"",""time""
""blur"",""12"",""143720""
","""event"",""trial"",""time""
""focus"",""12"",""144515""
","""event"",""trial"",""time""
""fullscreenenter"",""1"",""7899""
","
","","","","","","122771.89999961853","<p> If you feed a hungry farm animal, you will make it feel satisfied! </p><p> But if you feed the farm animal and it was already full, you will make it feel sick. </p>","","0","instructions","","","","","","","","","","",""
"learning-instructions","64","623519","0.0-9.0-1.0-0.4","7253","1","16","Female","approach_avoid_spark_v1","""event"",""trial"",""time""
""fullscreenenter"",""1"",""7899""
""blur"",""12"",""143720""
""focus"",""12"",""144515""
","""event"",""trial"",""time""
""blur"",""12"",""143720""
","""event"",""trial"",""time""
""focus"",""12"",""144515""
","""event"",""trial"",""time""
""fullscreenenter"",""1"",""7899""
","
","","","","","","978.6999998092651","<p> You will earn points based on how you made the farm animal feel. </p><p> If you made it satisfied, you will WIN anywhere from 1 - 9 points, </p><p> but if you made it sick, you will LOSE anywhere from 1 - 9 points. </p>","","0","instructions","","","","","","","","","","",""
"learning-instructions","65","635097","0.0-9.0-1.0-0.5","7253","1","16","Female","approach_avoid_spark_v1","""event"",""trial"",""time""
""fullscreenenter"",""1"",""7899""
""blur"",""12"",""143720""
""focus"",""12"",""144515""
","""event"",""trial"",""time""
""blur"",""12"",""143720""
","""event"",""trial"",""time""
""focus"",""12"",""144515""
","""event"",""trial"",""time""
""fullscreenenter"",""1"",""7899""
","
","","","","","","1793.5999999046326","<p> You will see how many points you won or lost in the center of the screen. </p><p> Here is what you would see if you won 5 points: </p><p style=""color:green;font-size:50px;font-weight:bolder"">5</p>","","0","instructions","","","","","","","","","","",""
"learning-instructions","66","644878","0.0-9.0-1.0-0.6","7253","1","16","Female","approach_avoid_spark_v1","""event"",""trial"",""time""
""fullscreenenter"",""1"",""7899""
""blur"",""12"",""143720""
""focus"",""12"",""144515""
","""event"",""trial"",""time""
""blur"",""12"",""143720""
","""event"",""trial"",""time""
""focus"",""12"",""144515""
","""event"",""trial"",""time""
""fullscreenenter"",""1"",""7899""
","
","","","","","","493.19999980926514","<p> And here is what you would see if you lost 3 points: </p><p style=""color:red;font-size:50px;font-weight:bolder"">-3</p>","","0","instructions","","","","","","","","","","",""
"learning-instructions","67","671175","0.0-9.0-1.0-0.7","7253","1","16","Female","approach_avoid_spark_v1","""event"",""trial"",""time""
""fullscreenenter"",""1"",""7899""
""blur"",""12"",""143720""
""focus"",""12"",""144515""
","""event"",""trial"",""time""
""blur"",""12"",""143720""
","""event"",""trial"",""time""
""focus"",""12"",""144515""
","""event"",""trial"",""time""
""fullscreenenter"",""1"",""7899""
","
","","","","","","805","<p> Some farm animals will become very satisfied or very sick. </p><p> These farm animals will make you win or lose LOTS of points. </p><p> Other farm animals have less strong feelings. </p><p> These farm animals will make you win or lose small amounts of points. </p>","","0","instructions","","","","","","","","","","",""
"learning-instructions","68","689389","0.0-9.0-1.0-0.8","7253","1","16","Female","approach_avoid_spark_v1","""event"",""trial"",""time""
""fullscreenenter"",""1"",""7899""
""blur"",""12"",""143720""
""focus"",""12"",""144515""
","""event"",""trial"",""time""
""blur"",""12"",""143720""
","""event"",""trial"",""time""
""focus"",""12"",""144515""
","""event"",""trial"",""time""
""fullscreenenter"",""1"",""7899""
","
","","","","","","5077.300000190735","<p> If you choose to leave the farm animal alone, you will not win or lose any points. </p><p>  However, in the center of the screen, you will see the number of points you WOULD HAVE won or lost if you had fed the farm animal. </p>","","0","instructions","","","","","","","","","","",""
"learning-instructions","69","704121","0.0-9.0-1.0-0.9","7253","1","16","Female","approach_avoid_spark_v1","""event"",""trial"",""time""
""fullscreenenter"",""1"",""7899""
""blur"",""12"",""143720""
""focus"",""12"",""144515""
","""event"",""trial"",""time""
""blur"",""12"",""143720""
","""event"",""trial"",""time""
""focus"",""12"",""144515""
","""event"",""trial"",""time""
""fullscreenenter"",""1"",""7899""
","
","","","","","","1868.8999996185303","<p> Here is what you might see if you did not feed the farm animal but the animal was hungry: </p><p style=""color:grey; font-size:50px; display: inline-block; border-spacing: 15px; border-width:3px; border-style:solid; border-color:red"">  &nbsp; 6 &nbsp; </p><p> Remember, in this case, you would not win or lose ANY points because you did not feed the farm animal.  </p>","","0","instructions","","","","","","","","","","",""
"learning-instructions","70","715360","0.0-9.0-1.0-0.10","7253","1","16","Female","approach_avoid_spark_v1","""event"",""trial"",""time""
""fullscreenenter"",""1"",""7899""
""blur"",""12"",""143720""
""focus"",""12"",""144515""
","""event"",""trial"",""time""
""blur"",""12"",""143720""
","""event"",""trial"",""time""
""focus"",""12"",""144515""
","""event"",""trial"",""time""
""fullscreenenter"",""1"",""7899""
","
","","","","","","1940.2999997138977","<p> Try to make the best choice for each farm animal because </p><p> at the end of the game, you will earn bonus money based on how many points you earned. </p>","","0","instructions","","","","","","","","","","",""
"learning-instructions","71","730461","0.0-9.0-1.0-0.11","7253","1","16","Female","approach_avoid_spark_v1","""event"",""trial"",""time""
""fullscreenenter"",""1"",""7899""
""blur"",""12"",""143720""
""focus"",""12"",""144515""
","""event"",""trial"",""time""
""blur"",""12"",""143720""
","""event"",""trial"",""time""
""focus"",""12"",""144515""
","""event"",""trial"",""time""
""fullscreenenter"",""1"",""7899""
","
","","","","","","6491.699999809265","<p> You will have 3 seconds to make each choice. Try to respond before time runs out! </p><p> You will lose 5 points each time you do not make a response. </p>","","0","instructions","","","","","","","","","","",""
"html-keyboard-response","72","731092","0.0-9.0-2.0-0.0","7253","1","16","Female","approach_avoid_spark_v1","""event"",""trial"",""time""
""fullscreenenter"",""1"",""7899""
""blur"",""12"",""143720""
""focus"",""12"",""144515""
","""event"",""trial"",""time""
""blur"",""12"",""143720""
","""event"",""trial"",""time""
""focus"",""12"",""144515""
","""event"",""trial"",""time""
""fullscreenenter"",""1"",""7899""
","
","","","","","","null","<div style=""font-size:60px;"">+</div>","null","","fixation","","","","","","","","","","",""
"aa-learning-trial","73","734103","0.0-9.0-2.0-1.0","7253","1","16","Female","approach_avoid_spark_v1","""event"",""trial"",""time""
""fullscreenenter"",""1"",""7899""
""blur"",""12"",""143720""
""focus"",""12"",""144515""
","""event"",""trial"",""time""
""blur"",""12"",""143720""
","""event"",""trial"",""time""
""focus"",""12"",""144515""
","""event"",""trial"",""time""
""fullscreenenter"",""1"",""7899""
","
","","","","","","null","images/sheep4.png","","","learning","-2","-5","","null","sheep","animals","1","0","","bad","[-4]"
"html-keyboard-response","74","734628","0.0-9.0-2.0-0.1","7253","1","16","Female","approach_avoid_spark_v1","""event"",""trial"",""time""
""fullscreenenter"",""1"",""7899""
""blur"",""12"",""143720""
""focus"",""12"",""144515""
","""event"",""trial"",""time""
""blur"",""12"",""143720""
","""event"",""trial"",""time""
""focus"",""12"",""144515""
","""event"",""trial"",""time""
""fullscreenenter"",""1"",""7899""
","
","","","","","","null","<div style=""font-size:60px;"">+</div>","null","","fixation","","","","","","","","","","",""
"aa-learning-trial","75","737636","0.0-9.0-2.0-1.1","7253","1","16","Female","approach_avoid_spark_v1","""event"",""trial"",""time""
""fullscreenenter"",""1"",""7899""
""blur"",""12"",""143720""
""focus"",""12"",""144515""
","""event"",""trial"",""time""
""blur"",""12"",""143720""
","""event"",""trial"",""time""
""focus"",""12"",""144515""
","""event"",""trial"",""time""
""fullscreenenter"",""1"",""7899""
","
","","","","","","1500.9000000953674","images/goat7.png","","","learning","7","7","1","1","goat","animals","1","0","","good","[6]"
"html-keyboard-response","76","738145","0.0-9.0-2.0-0.2","7253","1","16","Female","approach_avoid_spark_v1","""event"",""trial"",""time""
""fullscreenenter"",""1"",""7899""
""blur"",""12"",""143720""
""focus"",""12"",""144515""
","""event"",""trial"",""time""
""blur"",""12"",""143720""
","""event"",""trial"",""time""
""focus"",""12"",""144515""
","""event"",""trial"",""time""
""fullscreenenter"",""1"",""7899""
","
","","","","","","null","<div style=""font-size:60px;"">+</div>","null","","fixation","","","","","","","","","","",""
"aa-learning-trial","77","741154","0.0-9.0-2.0-1.2","7253","1","16","Female","approach_avoid_spark_v1","""event"",""trial"",""time""
""fullscreenenter"",""1"",""7899""
""blur"",""12"",""143720""
""focus"",""12"",""144515""
","""event"",""trial"",""time""
""blur"",""12"",""143720""
","""event"",""trial"",""time""
""focus"",""12"",""144515""
","""event"",""trial"",""time""
""fullscreenenter"",""1"",""7899""
","
","","","","","","427.90000009536743","images/sheep5.png","","","learning","-5","0","0","0","sheep","animals","1","0","","bad","[-4]"
"html-keyboard-response","78","741665","0.0-9.0-2.0-0.3","7253","1","16","Female","approach_avoid_spark_v1","""event"",""trial"",""time""
""fullscreenenter"",""1"",""7899""
""blur"",""12"",""143720""
""focus"",""12"",""144515""
","""event"",""trial"",""time""
""blur"",""12"",""143720""
","""event"",""trial"",""time""
""focus"",""12"",""144515""
","""event"",""trial"",""time""
""fullscreenenter"",""1"",""7899""
","
","","","","","","null","<div style=""font-size:60px;"">+</div>","null","","fixation","","","","","","","","","","",""
"aa-learning-trial","79","744685","0.0-9.0-2.0-1.3","7253","1","16","Female","approach_avoid_spark_v1","""event"",""trial"",""time""
""fullscreenenter"",""1"",""7899""
""blur"",""12"",""143720""
""focus"",""12"",""144515""
","""event"",""trial"",""time""
""blur"",""12"",""143720""
","""event"",""trial"",""time""
""focus"",""12"",""144515""
","""event"",""trial"",""time""
""fullscreenenter"",""1"",""7899""
","
","","","","","","344.09999990463257","images/horse8.png","","","learning","2","2","1","1","horse","animals","1","0","","neutral","0"
"html-keyboard-response","80","745195","0.0-9.0-2.0-0.4","7253","1","16","Female","approach_avoid_spark_v1","""event"",""trial"",""time""
""fullscreenenter"",""1"",""7899""
""blur"",""12"",""143720""
""focus"",""12"",""144515""
","""event"",""trial"",""time""
""blur"",""12"",""143720""
","""event"",""trial"",""time""
""focus"",""12"",""144515""
","""event"",""trial"",""time""
""fullscreenenter"",""1"",""7899""
","
","","","","","","null","<div style=""font-size:60px;"">+</div>","null","","fixation","","","","","","","","","","",""
"aa-learning-trial","81","748219","0.0-9.0-2.0-1.4","7253","1","16","Female","approach_avoid_spark_v1","""event"",""trial"",""time""
""fullscreenenter"",""1"",""7899""
""blur"",""12"",""143720""
""focus"",""12"",""144515""
","""event"",""trial"",""time""
""blur"",""12"",""143720""
","""event"",""trial"",""time""
""focus"",""12"",""144515""
","""event"",""trial"",""time""
""fullscreenenter"",""1"",""7899""
","
","","","","","","777.2999997138977","images/horse2.png","","","learning","1","1","1","1","horse","animals","1","0","","neutral","0"
"html-keyboard-response","82","748741","0.0-9.0-2.0-0.5","7253","1","16","Female","approach_avoid_spark_v1","""event"",""trial"",""time""
""fullscreenenter"",""1"",""7899""
""blur"",""12"",""143720""
""focus"",""12"",""144515""
","""event"",""trial"",""time""
""blur"",""12"",""143720""
","""event"",""trial"",""time""
""focus"",""12"",""144515""
","""event"",""trial"",""time""
""fullscreenenter"",""1"",""7899""
","
","","","","","","null","<div style=""font-size:60px;"">+</div>","null","","fixation","","","","","","","","","","",""
"aa-learning-trial","83","751779","0.0-9.0-2.0-1.5","7253","1","16","Female","approach_avoid_spark_v1","""event"",""trial"",""time""
""fullscreenenter"",""1"",""7899""
""blur"",""12"",""143720""
""focus"",""12"",""144515""
","""event"",""trial"",""time""
""blur"",""12"",""143720""
","""event"",""trial"",""time""
""focus"",""12"",""144515""
","""event"",""trial"",""time""
""fullscreenenter"",""1"",""7899""
","
","","","","","","683.7999997138977","images/horse5.png","","","learning","-1","-1","1","1","horse","animals","1","0","","neutral","0"
"html-keyboard-response","84","752290","0.0-9.0-2.0-0.6","7253","1","16","Female","approach_avoid_spark_v1","""event"",""trial"",""time""
""fullscreenenter"",""1"",""7899""
""blur"",""12"",""143720""
""focus"",""12"",""144515""
","""event"",""trial"",""time""
""blur"",""12"",""143720""
","""event"",""trial"",""time""
""focus"",""12"",""144515""
","""event"",""trial"",""time""
""fullscreenenter"",""1"",""7899""
","
","","","","","","null","<div style=""font-size:60px;"">+</div>","null","","fixation","","","","","","","","","","",""
"aa-learning-trial","85","755302","0.0-9.0-2.0-1.6","7253","1","16","Female","approach_avoid_spark_v1","""event"",""trial"",""time""
""fullscreenenter"",""1"",""7899""
""blur"",""12"",""143720""
""focus"",""12"",""144515""
","""event"",""trial"",""time""
""blur"",""12"",""143720""
","""event"",""trial"",""time""
""focus"",""12"",""144515""
","""event"",""trial"",""time""
""fullscreenenter"",""1"",""7899""
","
","","","","","","507.09999990463257","images/goat7.png","","","learning","7","0","0","0","goat","animals","1","0","","good","[6]"
"html-keyboard-response","86","755812","0.0-9.0-2.0-0.7","7253","1","16","Female","approach_avoid_spark_v1","""event"",""trial"",""time""
""fullscreenenter"",""1"",""7899""
""blur"",""12"",""143720""
""focus"",""12"",""144515""
","""event"",""trial"",""time""
""blur"",""12"",""143720""
","""event"",""trial"",""time""
""focus"",""12"",""144515""
","""event"",""trial"",""time""
""fullscreenenter"",""1"",""7899""
","
","","","","","","null","<div style=""font-size:60px;"">+</div>","null","","fixation","","","","","","","","","","",""
"aa-learning-trial","87","758822","0.0-9.0-2.0-1.7","7253","1","16","Female","approach_avoid_spark_v1","""event"",""trial"",""time""
""fullscreenenter"",""1"",""7899""
""blur"",""12"",""143720""
""focus"",""12"",""144515""
","""event"",""trial"",""time""
""blur"",""12"",""143720""
","""event"",""trial"",""time""
""focus"",""12"",""144515""
","""event"",""trial"",""time""
""fullscreenenter"",""1"",""7899""
","
","","","","","","480.69999980926514","images/horse8.png","","","learning","[1]","1","1","1","horse","animals","1","0","","neutral","0"
"html-keyboard-response","88","759325","0.0-9.0-2.0-0.8","7253","1","16","Female","approach_avoid_spark_v1","""event"",""trial"",""time""
""fullscreenenter"",""1"",""7899""
""blur"",""12"",""143720""
""focus"",""12"",""144515""
","""event"",""trial"",""time""
""blur"",""12"",""143720""
","""event"",""trial"",""time""
""focus"",""12"",""144515""
","""event"",""trial"",""time""
""fullscreenenter"",""1"",""7899""
","
","","","","","","null","<div style=""font-size:60px;"">+</div>","null","","fixation","","","","","","","","","","",""
"aa-learning-trial","89","762332","0.0-9.0-2.0-1.8","7253","1","16","Female","approach_avoid_spark_v1","""event"",""trial"",""time""
""fullscreenenter"",""1"",""7899""
""blur"",""12"",""143720""
""focus"",""12"",""144515""
","""event"",""trial"",""time""
""blur"",""12"",""143720""
","""event"",""trial"",""time""
""focus"",""12"",""144515""
","""event"",""trial"",""time""
""fullscreenenter"",""1"",""7899""
","
","","","","","","776.5","images/sheep5.png","","","learning","-5","0","0","0","sheep","animals","1","0","","bad","[-4]"
"html-keyboard-response","90","762838","0.0-9.0-2.0-0.9","7253","1","16","Female","approach_avoid_spark_v1","""event"",""trial"",""time""
""fullscreenenter"",""1"",""7899""
""blur"",""12"",""143720""
""focus"",""12"",""144515""
","""event"",""trial"",""time""
""blur"",""12"",""143720""
","""event"",""trial"",""time""
""focus"",""12"",""144515""
","""event"",""trial"",""time""
""fullscreenenter"",""1"",""7899""
","
","","","","","","null","<div style=""font-size:60px;"">+</div>","null","","fixation","","","","","","","","","","",""
"aa-learning-trial","91","765845","0.0-9.0-2.0-1.9","7253","1","16","Female","approach_avoid_spark_v1","""event"",""trial"",""time""
""fullscreenenter"",""1"",""7899""
""blur"",""12"",""143720""
""focus"",""12"",""144515""
","""event"",""trial"",""time""
""blur"",""12"",""143720""
","""event"",""trial"",""time""
""focus"",""12"",""144515""
","""event"",""trial"",""time""
""fullscreenenter"",""1"",""7899""
","
","","","","","","264.90000009536743","images/goat3.png","","","learning","5","5","1","1","goat","animals","1","0","","good","[6]"
"html-keyboard-response","92","766349","0.0-9.0-2.0-0.10","7253","1","16","Female","approach_avoid_spark_v1","""event"",""trial"",""time""
""fullscreenenter"",""1"",""7899""
""blur"",""12"",""143720""
""focus"",""12"",""144515""
","""event"",""trial"",""time""
""blur"",""12"",""143720""
","""event"",""trial"",""time""
""focus"",""12"",""144515""
","""event"",""trial"",""time""
""fullscreenenter"",""1"",""7899""
","
","","","","","","null","<div style=""font-size:60px;"">+</div>","null","","fixation","","","","","","","","","","",""
"aa-learning-trial","93","769357","0.0-9.0-2.0-1.10","7253","1","16","Female","approach_avoid_spark_v1","""event"",""trial"",""time""
""fullscreenenter"",""1"",""7899""
""blur"",""12"",""143720""
""focus"",""12"",""144515""
","""event"",""trial"",""time""
""blur"",""12"",""143720""
","""event"",""trial"",""time""
""focus"",""12"",""144515""
","""event"",""trial"",""time""
""fullscreenenter"",""1"",""7899""
","
","","","","","","594.3999996185303","images/goat3.png","","","learning","6","0","0","0","goat","animals","1","0","","good","[6]"
"html-keyboard-response","94","769860","0.0-9.0-2.0-0.11","7253","1","16","Female","approach_avoid_spark_v1","""event"",""trial"",""time""
""fullscreenenter"",""1"",""7899""
""blur"",""12"",""143720""
""focus"",""12"",""144515""
","""event"",""trial"",""time""
""blur"",""12"",""143720""
","""event"",""trial"",""time""
""focus"",""12"",""144515""
","""event"",""trial"",""time""
""fullscreenenter"",""1"",""7899""
","
","","","","","","null","<div style=""font-size:60px;"">+</div>","null","","fixation","","","","","","","","","","",""
"aa-learning-trial","95","772869","0.0-9.0-2.0-1.11","7253","1","16","Female","approach_avoid_spark_v1","""event"",""trial"",""time""
""fullscreenenter"",""1"",""7899""
""blur"",""12"",""143720""
""focus"",""12"",""144515""
","""event"",""trial"",""time""
""blur"",""12"",""143720""
","""event"",""trial"",""time""
""focus"",""12"",""144515""
","""event"",""trial"",""time""
""fullscreenenter"",""1"",""7899""
","
","","","","","","295.80000019073486","images/sheep4.png","","","learning","-3","-3","1","1","sheep","animals","1","0","","bad","[-4]"
"html-keyboard-response","96","773376","0.0-9.0-2.0-0.12","7253","1","16","Female","approach_avoid_spark_v1","""event"",""trial"",""time""
""fullscreenenter"",""1"",""7899""
""blur"",""12"",""143720""
""focus"",""12"",""144515""
","""event"",""trial"",""time""
""blur"",""12"",""143720""
","""event"",""trial"",""time""
""focus"",""12"",""144515""
","""event"",""trial"",""time""
""fullscreenenter"",""1"",""7899""
","
","","","","","","null","<div style=""font-size:60px;"">+</div>","null","","fixation","","","","","","","","","","",""
"aa-learning-trial","97","776384","0.0-9.0-2.0-1.12","7253","1","16","Female","approach_avoid_spark_v1","""event"",""trial"",""time""
""fullscreenenter"",""1"",""7899""
""blur"",""12"",""143720""
""focus"",""12"",""144515""
","""event"",""trial"",""time""
""blur"",""12"",""143720""
","""event"",""trial"",""time""
""focus"",""12"",""144515""
","""event"",""trial"",""time""
""fullscreenenter"",""1"",""7899""
","
","","","","","","526.4000000953674","images/goat5.png","","","learning","6","6","1","1","goat","animals","1","0","","good","[6]"
"html-keyboard-response","98","776892","0.0-9.0-2.0-0.13","7253","1","16","Female","approach_avoid_spark_v1","""event"",""trial"",""time""
""fullscreenenter"",""1"",""7899""
""blur"",""12"",""143720""
""focus"",""12"",""144515""
","""event"",""trial"",""time""
""blur"",""12"",""143720""
","""event"",""trial"",""time""
""focus"",""12"",""144515""
","""event"",""trial"",""time""
""fullscreenenter"",""1"",""7899""
","
","","","","","","null","<div style=""font-size:60px;"">+</div>","null","","fixation","","","","","","","","","","",""
"aa-learning-trial","99","779900","0.0-9.0-2.0-1.13","7253","1","16","Female","approach_avoid_spark_v1","""event"",""trial"",""time""
""fullscreenenter"",""1"",""7899""
""blur"",""12"",""143720""
""focus"",""12"",""144515""
","""event"",""trial"",""time""
""blur"",""12"",""143720""
","""event"",""trial"",""time""
""focus"",""12"",""144515""
","""event"",""trial"",""time""
""fullscreenenter"",""1"",""7899""
","
","","","","","","1111.7999997138977","images/sheep7.png","","","learning","-4","-4","1","1","sheep","animals","1","0","","bad","[-4]"
"html-keyboard-response","100","780405","0.0-9.0-2.0-0.14","7253","1","16","Female","approach_avoid_spark_v1","""event"",""trial"",""time""
""fullscreenenter"",""1"",""7899""
""blur"",""12"",""143720""
""focus"",""12"",""144515""
","""event"",""trial"",""time""
""blur"",""12"",""143720""
","""event"",""trial"",""time""
""focus"",""12"",""144515""
","""event"",""trial"",""time""
""fullscreenenter"",""1"",""7899""
","
","","","","","","null","<div style=""font-size:60px;"">+</div>","null","","fixation","","","","","","","","","","",""
"aa-learning-trial","101","783414","0.0-9.0-2.0-1.14","7253","1","16","Female","approach_avoid_spark_v1","""event"",""trial"",""time""
""fullscreenenter"",""1"",""7899""
""blur"",""12"",""143720""
""focus"",""12"",""144515""
","""event"",""trial"",""time""
""blur"",""12"",""143720""
","""event"",""trial"",""time""
""focus"",""12"",""144515""
","""event"",""trial"",""time""
""fullscreenenter"",""1"",""7899""
","
","","","","","","1012.8999996185303","images/horse2.png","","","learning","[-1]","0","0","0","horse","animals","1","0","","neutral","0"
"html-keyboard-response","102","783924","0.0-9.0-2.0-0.15","7253","1","16","Female","approach_avoid_spark_v1","""event"",""trial"",""time""
""fullscreenenter"",""1"",""7899""
""blur"",""12"",""143720""
""focus"",""12"",""144515""
","""event"",""trial"",""time""
""blur"",""12"",""143720""
","""event"",""trial"",""time""
""focus"",""12"",""144515""
","""event"",""trial"",""time""
""fullscreenenter"",""1"",""7899""
","
","","","","","","null","<div style=""font-size:60px;"">+</div>","null","","fixation","","","","","","","","","","",""
"aa-learning-trial","103","786933","0.0-9.0-2.0-1.15","7253","1","16","Female","approach_avoid_spark_v1","""event"",""trial"",""time""
""fullscreenenter"",""1"",""7899""
""blur"",""12"",""143720""
""focus"",""12"",""144515""
","""event"",""trial"",""time""
""blur"",""12"",""143720""
","""event"",""trial"",""time""
""focus"",""12"",""144515""
","""event"",""trial"",""time""
""fullscreenenter"",""1"",""7899""
","
","","","","","","296","images/horse5.png","","","learning","-2","-2","1","1","horse","animals","1","0","","neutral","0"
"html-keyboard-response","104","787438","0.0-9.0-2.0-0.16","7253","1","16","Female","approach_avoid_spark_v1","""event"",""trial"",""time""
""fullscreenenter"",""1"",""7899""
""blur"",""12"",""143720""
""focus"",""12"",""144515""
","""event"",""trial"",""time""
""blur"",""12"",""143720""
","""event"",""trial"",""time""
""focus"",""12"",""144515""
","""event"",""trial"",""time""
""fullscreenenter"",""1"",""7899""
","
","","","","","","null","<div style=""font-size:60px;"">+</div>","null","","fixation","","","","","","","","","","",""
"aa-learning-trial","105","790445","0.0-9.0-2.0-1.16","7253","1","16","Female","approach_avoid_spark_v1","""event"",""trial"",""time""
""fullscreenenter"",""1"",""7899""
""blur"",""12"",""143720""
""focus"",""12"",""144515""
","""event"",""trial"",""time""
""blur"",""12"",""143720""
","""event"",""trial"",""time""
""focus"",""12"",""144515""
","""event"",""trial"",""time""
""fullscreenenter"",""1"",""7899""
","
","","","","","","458.1000003814697","images/goat3.png","","","learning","6","0","0","0","goat","animals","1","0","","good","[6]"
"html-keyboard-response","106","790949","0.0-9.0-2.0-0.17","7253","1","16","Female","approach_avoid_spark_v1","""event"",""trial"",""time""
""fullscreenenter"",""1"",""7899""
""blur"",""12"",""143720""
""focus"",""12"",""144515""
","""event"",""trial"",""time""
""blur"",""12"",""143720""
","""event"",""trial"",""time""
""focus"",""12"",""144515""
","""event"",""trial"",""time""
""fullscreenenter"",""1"",""7899""
","
","","","","","","null","<div style=""font-size:60px;"">+</div>","null","","fixation","","","","","","","","","","",""
"aa-learning-trial","107","793957","0.0-9.0-2.0-1.17","7253","1","16","Female","approach_avoid_spark_v1","""event"",""trial"",""time""
""fullscreenenter"",""1"",""7899""
""blur"",""12"",""143720""
""focus"",""12"",""144515""
","""event"",""trial"",""time""
""blur"",""12"",""143720""
","""event"",""trial"",""time""
""focus"",""12"",""144515""
","""event"",""trial"",""time""
""fullscreenenter"",""1"",""7899""
","
","","","","","","286.7000002861023","images/goat3.png","","","learning","7","7","1","1","goat","animals","1","0","","good","[6]"
"html-keyboard-response","108","794461","0.0-9.0-2.0-0.18","7253","1","16","Female","approach_avoid_spark_v1","""event"",""trial"",""time""
""fullscreenenter"",""1"",""7899""
""blur"",""12"",""143720""
""focus"",""12"",""144515""
","""event"",""trial"",""time""
""blur"",""12"",""143720""
","""event"",""trial"",""time""
""focus"",""12"",""144515""
","""event"",""trial"",""time""
""fullscreenenter"",""1"",""7899""
","
","","","","","","null","<div style=""font-size:60px;"">+</div>","null","","fixation","","","","","","","","","","",""
"aa-learning-trial","109","797474","0.0-9.0-2.0-1.18","7253","1","16","Female","approach_avoid_spark_v1","""event"",""trial"",""time""
""fullscreenenter"",""1"",""7899""
""blur"",""12"",""143720""
""focus"",""12"",""144515""
","""event"",""trial"",""time""
""blur"",""12"",""143720""
","""event"",""trial"",""time""
""focus"",""12"",""144515""
","""event"",""trial"",""time""
""fullscreenenter"",""1"",""7899""
","
","","","","","","278.69999980926514","images/sheep7.png","","","learning","-3","-3","1","1","sheep","animals","1","0","","bad","[-4]"
"html-keyboard-response","110","797980","0.0-9.0-2.0-0.19","7253","1","16","Female","approach_avoid_spark_v1","""event"",""trial"",""time""
""fullscreenenter"",""1"",""7899""
""blur"",""12"",""143720""
""focus"",""12"",""144515""
","""event"",""trial"",""time""
""blur"",""12"",""143720""
","""event"",""trial"",""time""
""focus"",""12"",""144515""
","""event"",""trial"",""time""
""fullscreenenter"",""1"",""7899""
","
","","","","","","null","<div style=""font-size:60px;"">+</div>","null","","fixation","","","","","","","","","","",""
"aa-learning-trial","111","800989","0.0-9.0-2.0-1.19","7253","1","16","Female","approach_avoid_spark_v1","""event"",""trial"",""time""
""fullscreenenter"",""1"",""7899""
""blur"",""12"",""143720""
""focus"",""12"",""144515""
","""event"",""trial"",""time""
""blur"",""12"",""143720""
","""event"",""trial"",""time""
""focus"",""12"",""144515""
","""event"",""trial"",""time""
""fullscreenenter"",""1"",""7899""
","
","","","","","","459.7000002861023","images/goat5.png","","","learning","6","0","0","0","goat","animals","1","0","","good","[6]"
"html-keyboard-response","112","801493","0.0-9.0-2.0-0.20","7253","1","16","Female","approach_avoid_spark_v1","""event"",""trial"",""time""
""fullscreenenter"",""1"",""7899""
""blur"",""12"",""143720""
""focus"",""12"",""144515""
","""event"",""trial"",""time""
""blur"",""12"",""143720""
","""event"",""trial"",""time""
""focus"",""12"",""144515""
","""event"",""trial"",""time""
""fullscreenenter"",""1"",""7899""
","
","","","","","","null","<div style=""font-size:60px;"">+</div>","null","","fixation","","","","","","","","","","",""
"aa-learning-trial","113","804511","0.0-9.0-2.0-1.20","7253","1","16","Female","approach_avoid_spark_v1","""event"",""trial"",""time""
""fullscreenenter"",""1"",""7899""
""blur"",""12"",""143720""
""focus"",""12"",""144515""
","""event"",""trial"",""time""
""blur"",""12"",""143720""
","""event"",""trial"",""time""
""focus"",""12"",""144515""
","""event"",""trial"",""time""
""fullscreenenter"",""1"",""7899""
","
","","","","","","418.30000019073486","images/horse8.png","","","learning","[1]","0","0","0","horse","animals","1","0","","neutral","0"
"html-keyboard-response","114","805021","0.0-9.0-2.0-0.21","7253","1","16","Female","approach_avoid_spark_v1","""event"",""trial"",""time""
""fullscreenenter"",""1"",""7899""
""blur"",""12"",""143720""
""focus"",""12"",""144515""
","""event"",""trial"",""time""
""blur"",""12"",""143720""
","""event"",""trial"",""time""
""focus"",""12"",""144515""
","""event"",""trial"",""time""
""fullscreenenter"",""1"",""7899""
","
","","","","","","null","<div style=""font-size:60px;"">+</div>","null","","fixation","","","","","","","","","","",""
"aa-learning-trial","115","808029","0.0-9.0-2.0-1.21","7253","1","16","Female","approach_avoid_spark_v1","""event"",""trial"",""time""
""fullscreenenter"",""1"",""7899""
""blur"",""12"",""143720""
""focus"",""12"",""144515""
","""event"",""trial"",""time""
""blur"",""12"",""143720""
","""event"",""trial"",""time""
""focus"",""12"",""144515""
","""event"",""trial"",""time""
""fullscreenenter"",""1"",""7899""
","
","","","","","","295.5","images/goat7.png","","","learning","7","7","1","1","goat","animals","1","0","","good","[6]"
"html-keyboard-response","116","808533","0.0-9.0-2.0-0.22","7253","1","16","Female","approach_avoid_spark_v1","""event"",""trial"",""time""
""fullscreenenter"",""1"",""7899""
""blur"",""12"",""143720""
""focus"",""12"",""144515""
","""event"",""trial"",""time""
""blur"",""12"",""143720""
","""event"",""trial"",""time""
""focus"",""12"",""144515""
","""event"",""trial"",""time""
""fullscreenenter"",""1"",""7899""
","
","","","","","","null","<div style=""font-size:60px;"">+</div>","null","","fixation","","","","","","","","","","",""
"aa-learning-trial","117","811540","0.0-9.0-2.0-1.22","7253","1","16","Female","approach_avoid_spark_v1","""event"",""trial"",""time""
""fullscreenenter"",""1"",""7899""
""blur"",""12"",""143720""
""focus"",""12"",""144515""
","""event"",""trial"",""time""
""blur"",""12"",""143720""
","""event"",""trial"",""time""
""focus"",""12"",""144515""
","""event"",""trial"",""time""
""fullscreenenter"",""1"",""7899""
","
","","","","","","281","images/horse3.png","","","learning","3","0","0","0","horse","animals","1","0","","neutral","0"
"html-keyboard-response","118","812045","0.0-9.0-2.0-0.23","7253","1","16","Female","approach_avoid_spark_v1","""event"",""trial"",""time""
""fullscreenenter"",""1"",""7899""
""blur"",""12"",""143720""
""focus"",""12"",""144515""
","""event"",""trial"",""time""
""blur"",""12"",""143720""
","""event"",""trial"",""time""
""focus"",""12"",""144515""
","""event"",""trial"",""time""
""fullscreenenter"",""1"",""7899""
","
","","","","","","null","<div style=""font-size:60px;"">+</div>","null","","fixation","","","","","","","","","","",""
"aa-learning-trial","119","815053","0.0-9.0-2.0-1.23","7253","1","16","Female","approach_avoid_spark_v1","""event"",""trial"",""time""
""fullscreenenter"",""1"",""7899""
""blur"",""12"",""143720""
""focus"",""12"",""144515""
","""event"",""trial"",""time""
""blur"",""12"",""143720""
","""event"",""trial"",""time""
""focus"",""12"",""144515""
","""event"",""trial"",""time""
""fullscreenenter"",""1"",""7899""
","
","","","","","","300.5","images/sheep4.png","","","learning","-6","0","0","0","sheep","animals","1","0","","bad","[-4]"
"html-keyboard-response","120","815557","0.0-9.0-2.0-0.24","7253","1","16","Female","approach_avoid_spark_v1","""event"",""trial"",""time""
""fullscreenenter"",""1"",""7899""
""blur"",""12"",""143720""
""focus"",""12"",""144515""
","""event"",""trial"",""time""
""blur"",""12"",""143720""
","""event"",""trial"",""time""
""focus"",""12"",""144515""
","""event"",""trial"",""time""
""fullscreenenter"",""1"",""7899""
","
","","","","","","null","<div style=""font-size:60px;"">+</div>","null","","fixation","","","","","","","","","","",""
"aa-learning-trial","121","818566","0.0-9.0-2.0-1.24","7253","1","16","Female","approach_avoid_spark_v1","""event"",""trial"",""time""
""fullscreenenter"",""1"",""7899""
""blur"",""12"",""143720""
""focus"",""12"",""144515""
","""event"",""trial"",""time""
""blur"",""12"",""143720""
","""event"",""trial"",""time""
""focus"",""12"",""144515""
","""event"",""trial"",""time""
""fullscreenenter"",""1"",""7899""
","
","","","","","","549.0999999046326","images/sheep4.png","","","learning","-3","-3","1","1","sheep","animals","1","0","","bad","[-4]"
"html-keyboard-response","122","819076","0.0-9.0-2.0-0.25","7253","1","16","Female","approach_avoid_spark_v1","""event"",""trial"",""time""
""fullscreenenter"",""1"",""7899""
""blur"",""12"",""143720""
""focus"",""12"",""144515""
","""event"",""trial"",""time""
""blur"",""12"",""143720""
","""event"",""trial"",""time""
""focus"",""12"",""144515""
","""event"",""trial"",""time""
""fullscreenenter"",""1"",""7899""
","
","","","","","","null","<div style=""font-size:60px;"">+</div>","null","","fixation","","","","","","","","","","",""
"aa-learning-trial","123","822085","0.0-9.0-2.0-1.25","7253","1","16","Female","approach_avoid_spark_v1","""event"",""trial"",""time""
""fullscreenenter"",""1"",""7899""
""blur"",""12"",""143720""
""focus"",""12"",""144515""
","""event"",""trial"",""time""
""blur"",""12"",""143720""
","""event"",""trial"",""time""
""focus"",""12"",""144515""
","""event"",""trial"",""time""
""fullscreenenter"",""1"",""7899""
","
","","","","","","193.7000002861023","images/horse8.png","","","learning","-1","-1","1","1","horse","animals","1","0","","neutral","0"
"html-keyboard-response","124","822588","0.0-9.0-2.0-0.26","7253","1","16","Female","approach_avoid_spark_v1","""event"",""trial"",""time""
""fullscreenenter"",""1"",""7899""
""blur"",""12"",""143720""
""focus"",""12"",""144515""
","""event"",""trial"",""time""
""blur"",""12"",""143720""
","""event"",""trial"",""time""
""focus"",""12"",""144515""
","""event"",""trial"",""time""
""fullscreenenter"",""1"",""7899""
","
","","","","","","null","<div style=""font-size:60px;"">+</div>","null","","fixation","","","","","","","","","","",""
"aa-learning-trial","125","825597","0.0-9.0-2.0-1.26","7253","1","16","Female","approach_avoid_spark_v1","""event"",""trial"",""time""
""fullscreenenter"",""1"",""7899""
""blur"",""12"",""143720""
""focus"",""12"",""144515""
","""event"",""trial"",""time""
""blur"",""12"",""143720""
","""event"",""trial"",""time""
""focus"",""12"",""144515""
","""event"",""trial"",""time""
""fullscreenenter"",""1"",""7899""
","
","","","","","","382.2999997138977","images/horse5.png","","","learning","1","1","1","1","horse","animals","1","0","","neutral","0"
"html-keyboard-response","126","826102","0.0-9.0-2.0-0.27","7253","1","16","Female","approach_avoid_spark_v1","""event"",""trial"",""time""
""fullscreenenter"",""1"",""7899""
""blur"",""12"",""143720""
""focus"",""12"",""144515""
","""event"",""trial"",""time""
""blur"",""12"",""143720""
","""event"",""trial"",""time""
""focus"",""12"",""144515""
","""event"",""trial"",""time""
""fullscreenenter"",""1"",""7899""
","
","","","","","","null","<div style=""font-size:60px;"">+</div>","null","","fixation","","","","","","","","","","",""
"aa-learning-trial","127","829109","0.0-9.0-2.0-1.27","7253","1","16","Female","approach_avoid_spark_v1","""event"",""trial"",""time""
""fullscreenenter"",""1"",""7899""
""blur"",""12"",""143720""
""focus"",""12"",""144515""
","""event"",""trial"",""time""
""blur"",""12"",""143720""
","""event"",""trial"",""time""
""focus"",""12"",""144515""
","""event"",""trial"",""time""
""fullscreenenter"",""1"",""7899""
","
","","","","","","593.7000002861023","images/sheep5.png","","","learning","-5","0","0","0","sheep","animals","1","0","","bad","[-4]"
"html-keyboard-response","128","829614","0.0-9.0-2.0-0.28","7253","1","16","Female","approach_avoid_spark_v1","""event"",""trial"",""time""
""fullscreenenter"",""1"",""7899""
""blur"",""12"",""143720""
""focus"",""12"",""144515""
","""event"",""trial"",""time""
""blur"",""12"",""143720""
","""event"",""trial"",""time""
""focus"",""12"",""144515""
","""event"",""trial"",""time""
""fullscreenenter"",""1"",""7899""
","
","","","","","","null","<div style=""font-size:60px;"">+</div>","null","","fixation","","","","","","","","","","",""
"aa-learning-trial","129","832621","0.0-9.0-2.0-1.28","7253","1","16","Female","approach_avoid_spark_v1","""event"",""trial"",""time""
""fullscreenenter"",""1"",""7899""
""blur"",""12"",""143720""
""focus"",""12"",""144515""
","""event"",""trial"",""time""
""blur"",""12"",""143720""
","""event"",""trial"",""time""
""focus"",""12"",""144515""
","""event"",""trial"",""time""
""fullscreenenter"",""1"",""7899""
","
","","","","","","302.59999990463257","images/sheep3.png","","","learning","-5","-5","1","1","sheep","animals","1","0","","bad","[-4]"
"html-keyboard-response","130","833124","0.0-9.0-2.0-0.29","7253","1","16","Female","approach_avoid_spark_v1","""event"",""trial"",""time""
""fullscreenenter"",""1"",""7899""
""blur"",""12"",""143720""
""focus"",""12"",""144515""
","""event"",""trial"",""time""
""blur"",""12"",""143720""
","""event"",""trial"",""time""
""focus"",""12"",""144515""
","""event"",""trial"",""time""
""fullscreenenter"",""1"",""7899""
","
","","","","","","null","<div style=""font-size:60px;"">+</div>","null","","fixation","","","","","","","","","","",""
"aa-learning-trial","131","836133","0.0-9.0-2.0-1.29","7253","1","16","Female","approach_avoid_spark_v1","""event"",""trial"",""time""
""fullscreenenter"",""1"",""7899""
""blur"",""12"",""143720""
""focus"",""12"",""144515""
","""event"",""trial"",""time""
""blur"",""12"",""143720""
","""event"",""trial"",""time""
""focus"",""12"",""144515""
","""event"",""trial"",""time""
""fullscreenenter"",""1"",""7899""
","
","","","","","","263.90000009536743","images/sheep5.png","","","learning","-2","0","0","0","sheep","animals","1","0","","bad","[-4]"
"html-keyboard-response","132","836636","0.0-9.0-2.0-0.30","7253","1","16","Female","approach_avoid_spark_v1","""event"",""trial"",""time""
""fullscreenenter"",""1"",""7899""
""blur"",""12"",""143720""
""focus"",""12"",""144515""
","""event"",""trial"",""time""
""blur"",""12"",""143720""
","""event"",""trial"",""time""
""focus"",""12"",""144515""
","""event"",""trial"",""time""
""fullscreenenter"",""1"",""7899""
","
","","","","","","null","<div style=""font-size:60px;"">+</div>","null","","fixation","","","","","","","","","","",""
"aa-learning-trial","133","839645","0.0-9.0-2.0-1.30","7253","1","16","Female","approach_avoid_spark_v1","""event"",""trial"",""time""
""fullscreenenter"",""1"",""7899""
""blur"",""12"",""143720""
""focus"",""12"",""144515""
","""event"",""trial"",""time""
""blur"",""12"",""143720""
","""event"",""trial"",""time""
""focus"",""12"",""144515""
","""event"",""trial"",""time""
""fullscreenenter"",""1"",""7899""
","
","","","","","","392.09999990463257","images/horse8.png","","","learning","-1","-1","1","1","horse","animals","1","0","","neutral","0"
"html-keyboard-response","134","840148","0.0-9.0-2.0-0.31","7253","1","16","Female","approach_avoid_spark_v1","""event"",""trial"",""time""
""fullscreenenter"",""1"",""7899""
""blur"",""12"",""143720""
""focus"",""12"",""144515""
","""event"",""trial"",""time""
""blur"",""12"",""143720""
","""event"",""trial"",""time""
""focus"",""12"",""144515""
","""event"",""trial"",""time""
""fullscreenenter"",""1"",""7899""
","
","","","","","","null","<div style=""font-size:60px;"">+</div>","null","","fixation","","","","","","","","","","",""
"aa-learning-trial","135","843159","0.0-9.0-2.0-1.31","7253","1","16","Female","approach_avoid_spark_v1","""event"",""trial"",""time""
""fullscreenenter"",""1"",""7899""
""blur"",""12"",""143720""
""focus"",""12"",""144515""
","""event"",""trial"",""time""
""blur"",""12"",""143720""
","""event"",""trial"",""time""
""focus"",""12"",""144515""
","""event"",""trial"",""time""
""fullscreenenter"",""1"",""7899""
","
","","","","","","472.90000009536743","images/goat3.png","","","learning","3","3","1","1","goat","animals","1","0","","good","[6]"
"html-keyboard-response","136","843669","0.0-9.0-2.0-0.32","7253","1","16","Female","approach_avoid_spark_v1","""event"",""trial"",""time""
""fullscreenenter"",""1"",""7899""
""blur"",""12"",""143720""
""focus"",""12"",""144515""
","""event"",""trial"",""time""
""blur"",""12"",""143720""
","""event"",""trial"",""time""
""focus"",""12"",""144515""
","""event"",""trial"",""time""
""fullscreenenter"",""1"",""7899""
","
","","","","","","null","<div style=""font-size:60px;"">+</div>","null","","fixation","","","","","","","","","","",""
"aa-learning-trial","137","846678","0.0-9.0-2.0-1.32","7253","1","16","Female","approach_avoid_spark_v1","""event"",""trial"",""time""
""fullscreenenter"",""1"",""7899""
""blur"",""12"",""143720""
""focus"",""12"",""144515""
","""event"",""trial"",""time""
""blur"",""12"",""143720""
","""event"",""trial"",""time""
""focus"",""12"",""144515""
","""event"",""trial"",""time""
""fullscreenenter"",""1"",""7899""
","
","","","","","","326.40000009536743","images/goat1.png","","","learning","7","7","1","1","goat","animals","1","0","","good","[6]"
"html-keyboard-response","138","847182","0.0-9.0-2.0-0.33","7253","1","16","Female","approach_avoid_spark_v1","""event"",""trial"",""time""
""fullscreenenter"",""1"",""7899""
""blur"",""12"",""143720""
""focus"",""12"",""144515""
","""event"",""trial"",""time""
""blur"",""12"",""143720""
","""event"",""trial"",""time""
""focus"",""12"",""144515""
","""event"",""trial"",""time""
""fullscreenenter"",""1"",""7899""
","
","","","","","","null","<div style=""font-size:60px;"">+</div>","null","","fixation","","","","","","","","","","",""
"aa-learning-trial","139","850189","0.0-9.0-2.0-1.33","7253","1","16","Female","approach_avoid_spark_v1","""event"",""trial"",""time""
""fullscreenenter"",""1"",""7899""
""blur"",""12"",""143720""
""focus"",""12"",""144515""
","""event"",""trial"",""time""
""blur"",""12"",""143720""
","""event"",""trial"",""time""
""focus"",""12"",""144515""
","""event"",""trial"",""time""
""fullscreenenter"",""1"",""7899""
","
","","","","","","315.30000019073486","images/goat7.png","","","learning","6","0","0","0","goat","animals","1","0","","good","[6]"
"html-keyboard-response","140","850692","0.0-9.0-2.0-0.34","7253","1","16","Female","approach_avoid_spark_v1","""event"",""trial"",""time""
""fullscreenenter"",""1"",""7899""
""blur"",""12"",""143720""
""focus"",""12"",""144515""
","""event"",""trial"",""time""
""blur"",""12"",""143720""
","""event"",""trial"",""time""
""focus"",""12"",""144515""
","""event"",""trial"",""time""
""fullscreenenter"",""1"",""7899""
","
","","","","","","null","<div style=""font-size:60px;"">+</div>","null","","fixation","","","","","","","","","","",""
"aa-learning-trial","141","853700","0.0-9.0-2.0-1.34","7253","1","16","Female","approach_avoid_spark_v1","""event"",""trial"",""time""
""fullscreenenter"",""1"",""7899""
""blur"",""12"",""143720""
""focus"",""12"",""144515""
","""event"",""trial"",""time""
""blur"",""12"",""143720""
","""event"",""trial"",""time""
""focus"",""12"",""144515""
","""event"",""trial"",""time""
""fullscreenenter"",""1"",""7899""
","
","","","","","","360.7000002861023","images/sheep5.png","","","learning","-4","-4","1","1","sheep","animals","1","0","","bad","[-4]"
"html-keyboard-response","142","854205","0.0-9.0-2.0-0.35","7253","1","16","Female","approach_avoid_spark_v1","""event"",""trial"",""time""
""fullscreenenter"",""1"",""7899""
""blur"",""12"",""143720""
""focus"",""12"",""144515""
","""event"",""trial"",""time""
""blur"",""12"",""143720""
","""event"",""trial"",""time""
""focus"",""12"",""144515""
","""event"",""trial"",""time""
""fullscreenenter"",""1"",""7899""
","
","","","","","","null","<div style=""font-size:60px;"">+</div>","null","","fixation","","","","","","","","","","",""
"aa-learning-trial","143","857213","0.0-9.0-2.0-1.35","7253","1","16","Female","approach_avoid_spark_v1","""event"",""trial"",""time""
""fullscreenenter"",""1"",""7899""
""blur"",""12"",""143720""
""focus"",""12"",""144515""
","""event"",""trial"",""time""
""blur"",""12"",""143720""
","""event"",""trial"",""time""
""focus"",""12"",""144515""
","""event"",""trial"",""time""
""fullscreenenter"",""1"",""7899""
","
","","","","","","324.69999980926514","images/horse8.png","","","learning","-2","0","0","0","horse","animals","1","0","","neutral","0"
"html-keyboard-response","144","857716","0.0-9.0-2.0-0.36","7253","1","16","Female","approach_avoid_spark_v1","""event"",""trial"",""time""
""fullscreenenter"",""1"",""7899""
""blur"",""12"",""143720""
""focus"",""12"",""144515""
","""event"",""trial"",""time""
""blur"",""12"",""143720""
","""event"",""trial"",""time""
""focus"",""12"",""144515""
","""event"",""trial"",""time""
""fullscreenenter"",""1"",""7899""
","
","","","","","","null","<div style=""font-size:60px;"">+</div>","null","","fixation","","","","","","","","","","",""
"aa-learning-trial","145","860725","0.0-9.0-2.0-1.36","7253","1","16","Female","approach_avoid_spark_v1","""event"",""trial"",""time""
""fullscreenenter"",""1"",""7899""
""blur"",""12"",""143720""
""focus"",""12"",""144515""
","""event"",""trial"",""time""
""blur"",""12"",""143720""
","""event"",""trial"",""time""
""focus"",""12"",""144515""
","""event"",""trial"",""time""
""fullscreenenter"",""1"",""7899""
","
","","","","","","286.7999997138977","images/sheep4.png","","","learning","-5","-5","1","1","sheep","animals","1","0","","bad","[-4]"
"html-keyboard-response","146","861228","0.0-9.0-2.0-0.37","7253","1","16","Female","approach_avoid_spark_v1","""event"",""trial"",""time""
""fullscreenenter"",""1"",""7899""
""blur"",""12"",""143720""
""focus"",""12"",""144515""
","""event"",""trial"",""time""
""blur"",""12"",""143720""
","""event"",""trial"",""time""
""focus"",""12"",""144515""
","""event"",""trial"",""time""
""fullscreenenter"",""1"",""7899""
","
","","","","","","null","<div style=""font-size:60px;"">+</div>","null","","fixation","","","","","","","","","","",""
"aa-learning-trial","147","864238","0.0-9.0-2.0-1.37","7253","1","16","Female","approach_avoid_spark_v1","""event"",""trial"",""time""
""fullscreenenter"",""1"",""7899""
""blur"",""12"",""143720""
""focus"",""12"",""144515""
","""event"",""trial"",""time""
""blur"",""12"",""143720""
","""event"",""trial"",""time""
""focus"",""12"",""144515""
","""event"",""trial"",""time""
""fullscreenenter"",""1"",""7899""
","
","","","","","","288","images/horse2.png","","","learning","1","0","0","0","horse","animals","1","0","","neutral","0"
"html-keyboard-response","148","864750","0.0-9.0-2.0-0.38","7253","1","16","Female","approach_avoid_spark_v1","""event"",""trial"",""time""
""fullscreenenter"",""1"",""7899""
""blur"",""12"",""143720""
""focus"",""12"",""144515""
","""event"",""trial"",""time""
""blur"",""12"",""143720""
","""event"",""trial"",""time""
""focus"",""12"",""144515""
","""event"",""trial"",""time""
""fullscreenenter"",""1"",""7899""
","
","","","","","","null","<div style=""font-size:60px;"">+</div>","null","","fixation","","","","","","","","","","",""
"aa-learning-trial","149","867766","0.0-9.0-2.0-1.38","7253","1","16","Female","approach_avoid_spark_v1","""event"",""trial"",""time""
""fullscreenenter"",""1"",""7899""
""blur"",""12"",""143720""
""focus"",""12"",""144515""
","""event"",""trial"",""time""
""blur"",""12"",""143720""
","""event"",""trial"",""time""
""focus"",""12"",""144515""
","""event"",""trial"",""time""
""fullscreenenter"",""1"",""7899""
","
","","","","","","284.90000009536743","images/horse1.png","","","learning","1","1","1","1","horse","animals","1","0","","neutral","0"
"html-keyboard-response","150","868269","0.0-9.0-2.0-0.39","7253","1","16","Female","approach_avoid_spark_v1","""event"",""trial"",""time""
""fullscreenenter"",""1"",""7899""
""blur"",""12"",""143720""
""focus"",""12"",""144515""
","""event"",""trial"",""time""
""blur"",""12"",""143720""
","""event"",""trial"",""time""
""focus"",""12"",""144515""
","""event"",""trial"",""time""
""fullscreenenter"",""1"",""7899""
","
","","","","","","null","<div style=""font-size:60px;"">+</div>","null","","fixation","","","","","","","","","","",""
"aa-learning-trial","151","871276","0.0-9.0-2.0-1.39","7253","1","16","Female","approach_avoid_spark_v1","""event"",""trial"",""time""
""fullscreenenter"",""1"",""7899""
""blur"",""12"",""143720""
""focus"",""12"",""144515""
","""event"",""trial"",""time""
""blur"",""12"",""143720""
","""event"",""trial"",""time""
""focus"",""12"",""144515""
","""event"",""trial"",""time""
""fullscreenenter"",""1"",""7899""
","
","","","","","","512.1999998092651","images/horse2.png","","","learning","1","1","1","1","horse","animals","1","0","","neutral","0"
"html-keyboard-response","152","871780","0.0-9.0-2.0-0.40","7253","1","16","Female","approach_avoid_spark_v1","""event"",""trial"",""time""
""fullscreenenter"",""1"",""7899""
""blur"",""12"",""143720""
""focus"",""12"",""144515""
","""event"",""trial"",""time""
""blur"",""12"",""143720""
","""event"",""trial"",""time""
""focus"",""12"",""144515""
","""event"",""trial"",""time""
""fullscreenenter"",""1"",""7899""
","
","","","","","","null","<div style=""font-size:60px;"">+</div>","null","","fixation","","","","","","","","","","",""
"aa-learning-trial","153","874789","0.0-9.0-2.0-1.40","7253","1","16","Female","approach_avoid_spark_v1","""event"",""trial"",""time""
""fullscreenenter"",""1"",""7899""
""blur"",""12"",""143720""
""focus"",""12"",""144515""
","""event"",""trial"",""time""
""blur"",""12"",""143720""
","""event"",""trial"",""time""
""focus"",""12"",""144515""
","""event"",""trial"",""time""
""fullscreenenter"",""1"",""7899""
","
","","","","","","860.4000000953674","images/goat6.png","","","learning","4","4","1","1","goat","animals","1","0","","good","[6]"
"html-keyboard-response","154","875291","0.0-9.0-2.0-0.41","7253","1","16","Female","approach_avoid_spark_v1","""event"",""trial"",""time""
""fullscreenenter"",""1"",""7899""
""blur"",""12"",""143720""
""focus"",""12"",""144515""
","""event"",""trial"",""time""
""blur"",""12"",""143720""
","""event"",""trial"",""time""
""focus"",""12"",""144515""
","""event"",""trial"",""time""
""fullscreenenter"",""1"",""7899""
","
","","","","","","null","<div style=""font-size:60px;"">+</div>","null","","fixation","","","","","","","","","","",""
"aa-learning-trial","155","878299","0.0-9.0-2.0-1.41","7253","1","16","Female","approach_avoid_spark_v1","""event"",""trial"",""time""
""fullscreenenter"",""1"",""7899""
""blur"",""12"",""143720""
""focus"",""12"",""144515""
","""event"",""trial"",""time""
""blur"",""12"",""143720""
","""event"",""trial"",""time""
""focus"",""12"",""144515""
","""event"",""trial"",""time""
""fullscreenenter"",""1"",""7899""
","
","","","","","","371.90000009536743","images/goat7.png","","","learning","6","0","0","0","goat","animals","1","0","","good","[6]"
"html-keyboard-response","156","878803","0.0-9.0-2.0-0.42","7253","1","16","Female","approach_avoid_spark_v1","""event"",""trial"",""time""
""fullscreenenter"",""1"",""7899""
""blur"",""12"",""143720""
""focus"",""12"",""144515""
","""event"",""trial"",""time""
""blur"",""12"",""143720""
","""event"",""trial"",""time""
""focus"",""12"",""144515""
","""event"",""trial"",""time""
""fullscreenenter"",""1"",""7899""
","
","","","","","","null","<div style=""font-size:60px;"">+</div>","null","","fixation","","","","","","","","","","",""
"aa-learning-trial","157","881812","0.0-9.0-2.0-1.42","7253","1","16","Female","approach_avoid_spark_v1","""event"",""trial"",""time""
""fullscreenenter"",""1"",""7899""
""blur"",""12"",""143720""
""focus"",""12"",""144515""
","""event"",""trial"",""time""
""blur"",""12"",""143720""
","""event"",""trial"",""time""
""focus"",""12"",""144515""
","""event"",""trial"",""time""
""fullscreenenter"",""1"",""7899""
","
","","","","","","315.09999990463257","images/goat5.png","","","learning","7","7","1","1","goat","animals","1","0","","good","[6]"
"html-keyboard-response","158","882315","0.0-9.0-2.0-0.43","7253","1","16","Female","approach_avoid_spark_v1","""event"",""trial"",""time""
""fullscreenenter"",""1"",""7899""
""blur"",""12"",""143720""
""focus"",""12"",""144515""
","""event"",""trial"",""time""
""blur"",""12"",""143720""
","""event"",""trial"",""time""
""focus"",""12"",""144515""
","""event"",""trial"",""time""
""fullscreenenter"",""1"",""7899""
","
","","","","","","null","<div style=""font-size:60px;"">+</div>","null","","fixation","","","","","","","","","","",""
"aa-learning-trial","159","885325","0.0-9.0-2.0-1.43","7253","1","16","Female","approach_avoid_spark_v1","""event"",""trial"",""time""
""fullscreenenter"",""1"",""7899""
""blur"",""12"",""143720""
""focus"",""12"",""144515""
","""event"",""trial"",""time""
""blur"",""12"",""143720""
","""event"",""trial"",""time""
""focus"",""12"",""144515""
","""event"",""trial"",""time""
""fullscreenenter"",""1"",""7899""
","
","","","","","","510.30000019073486","images/sheep5.png","","","learning","-2","0","0","0","sheep","animals","1","0","","bad","[-4]"
"html-keyboard-response","160","885828","0.0-9.0-2.0-0.44","7253","1","16","Female","approach_avoid_spark_v1","""event"",""trial"",""time""
""fullscreenenter"",""1"",""7899""
""blur"",""12"",""143720""
""focus"",""12"",""144515""
","""event"",""trial"",""time""
""blur"",""12"",""143720""
","""event"",""trial"",""time""
""focus"",""12"",""144515""
","""event"",""trial"",""time""
""fullscreenenter"",""1"",""7899""
","
","","","","","","null","<div style=""font-size:60px;"">+</div>","null","","fixation","","","","","","","","","","",""
"aa-learning-trial","161","888836","0.0-9.0-2.0-1.44","7253","1","16","Female","approach_avoid_spark_v1","""event"",""trial"",""time""
""fullscreenenter"",""1"",""7899""
""blur"",""12"",""143720""
""focus"",""12"",""144515""
","""event"",""trial"",""time""
""blur"",""12"",""143720""
","""event"",""trial"",""time""
""focus"",""12"",""144515""
","""event"",""trial"",""time""
""fullscreenenter"",""1"",""7899""
","
","","","","","","268.09999990463257","images/goat7.png","","","learning","9","9","1","1","goat","animals","1","0","","good","[6]"
"html-keyboard-response","162","889346","0.0-9.0-2.0-0.45","7253","1","16","Female","approach_avoid_spark_v1","""event"",""trial"",""time""
""fullscreenenter"",""1"",""7899""
""blur"",""12"",""143720""
""focus"",""12"",""144515""
","""event"",""trial"",""time""
""blur"",""12"",""143720""
","""event"",""trial"",""time""
""focus"",""12"",""144515""
","""event"",""trial"",""time""
""fullscreenenter"",""1"",""7899""
","
","","","","","","null","<div style=""font-size:60px;"">+</div>","null","","fixation","","","","","","","","","","",""
"aa-learning-trial","163","892357","0.0-9.0-2.0-1.45","7253","1","16","Female","approach_avoid_spark_v1","""event"",""trial"",""time""
""fullscreenenter"",""1"",""7899""
""blur"",""12"",""143720""
""focus"",""12"",""144515""
","""event"",""trial"",""time""
""blur"",""12"",""143720""
","""event"",""trial"",""time""
""focus"",""12"",""144515""
","""event"",""trial"",""time""
""fullscreenenter"",""1"",""7899""
","
","","","","","","373.2000002861023","images/horse2.png","","","learning","[-1]","0","0","0","horse","animals","1","0","","neutral","0"
"html-keyboard-response","164","892860","0.0-9.0-2.0-0.46","7253","1","16","Female","approach_avoid_spark_v1","""event"",""trial"",""time""
""fullscreenenter"",""1"",""7899""
""blur"",""12"",""143720""
""focus"",""12"",""144515""
","""event"",""trial"",""time""
""blur"",""12"",""143720""
","""event"",""trial"",""time""
""focus"",""12"",""144515""
","""event"",""trial"",""time""
""fullscreenenter"",""1"",""7899""
","
","","","","","","null","<div style=""font-size:60px;"">+</div>","null","","fixation","","","","","","","","","","",""
"aa-learning-trial","165","895868","0.0-9.0-2.0-1.46","7253","1","16","Female","approach_avoid_spark_v1","""event"",""trial"",""time""
""fullscreenenter"",""1"",""7899""
""blur"",""12"",""143720""
""focus"",""12"",""144515""
","""event"",""trial"",""time""
""blur"",""12"",""143720""
","""event"",""trial"",""time""
""focus"",""12"",""144515""
","""event"",""trial"",""time""
""fullscreenenter"",""1"",""7899""
","
","","","","","","777.9000000953674","images/sheep8.png","","","learning","-4","-4","1","1","sheep","animals","1","0","","bad","[-4]"
"html-keyboard-response","166","896372","0.0-9.0-2.0-0.47","7253","1","16","Female","approach_avoid_spark_v1","""event"",""trial"",""time""
""fullscreenenter"",""1"",""7899""
""blur"",""12"",""143720""
""focus"",""12"",""144515""
","""event"",""trial"",""time""
""blur"",""12"",""143720""
","""event"",""trial"",""time""
""focus"",""12"",""144515""
","""event"",""trial"",""time""
""fullscreenenter"",""1"",""7899""
","
","","","","","","null","<div style=""font-size:60px;"">+</div>","null","","fixation","","","","","","","","","","",""
"aa-learning-trial","167","899380","0.0-9.0-2.0-1.47","7253","1","16","Female","approach_avoid_spark_v1","""event"",""trial"",""time""
""fullscreenenter"",""1"",""7899""
""blur"",""12"",""143720""
""focus"",""12"",""144515""
","""event"",""trial"",""time""
""blur"",""12"",""143720""
","""event"",""trial"",""time""
""focus"",""12"",""144515""
","""event"",""trial"",""time""
""fullscreenenter"",""1"",""7899""
","
","","","","","","516","images/horse2.png","","","learning","2","0","0","0","horse","animals","1","0","","neutral","0"
"html-keyboard-response","168","899883","0.0-9.0-2.0-0.48","7253","1","16","Female","approach_avoid_spark_v1","""event"",""trial"",""time""
""fullscreenenter"",""1"",""7899""
""blur"",""12"",""143720""
""focus"",""12"",""144515""
","""event"",""trial"",""time""
""blur"",""12"",""143720""
","""event"",""trial"",""time""
""focus"",""12"",""144515""
","""event"",""trial"",""time""
""fullscreenenter"",""1"",""7899""
","
","","","","","","null","<div style=""font-size:60px;"">+</div>","null","","fixation","","","","","","","","","","",""
"aa-learning-trial","169","902892","0.0-9.0-2.0-1.48","7253","1","16","Female","approach_avoid_spark_v1","""event"",""trial"",""time""
""fullscreenenter"",""1"",""7899""
""blur"",""12"",""143720""
""focus"",""12"",""144515""
","""event"",""trial"",""time""
""blur"",""12"",""143720""
","""event"",""trial"",""time""
""focus"",""12"",""144515""
","""event"",""trial"",""time""
""fullscreenenter"",""1"",""7899""
","
","","","","","","252.19999980926514","images/sheep4.png","","","learning","-4","-4","1","1","sheep","animals","1","0","","bad","[-4]"
"html-keyboard-response","170","903397","0.0-9.0-2.0-0.49","7253","1","16","Female","approach_avoid_spark_v1","""event"",""trial"",""time""
""fullscreenenter"",""1"",""7899""
""blur"",""12"",""143720""
""focus"",""12"",""144515""
","""event"",""trial"",""time""
""blur"",""12"",""143720""
","""event"",""trial"",""time""
""focus"",""12"",""144515""
","""event"",""trial"",""time""
""fullscreenenter"",""1"",""7899""
","
","","","","","","null","<div style=""font-size:60px;"">+</div>","null","","fixation","","","","","","","","","","",""
"aa-learning-trial","171","906404","0.0-9.0-2.0-1.49","7253","1","16","Female","approach_avoid_spark_v1","""event"",""trial"",""time""
""fullscreenenter"",""1"",""7899""
""blur"",""12"",""143720""
""focus"",""12"",""144515""
