"trial_type","trial_index","time_elapsed","internal_node_id","subject_id","task_condition","age","gender","task_version","interactions","blur_events","focus_events","fullscreenenter_events","fullscreenexit_events","success","timeout","failed_images","failed_audio","failed_video","rt","stimulus","response","button_pressed","task_part","approach_reward","points","key_press","option_selected","stim_cat","task_block","block_condition","block_number","correct","cat_type","mean_cat_reward"
"pavlovia","0","8","0.0-0.0","6416","1","12","Female","approach_avoid_spark_v1","""event"",""trial"",""time""
""fullscreenenter"",""1"",""12089""
","
","
","""event"",""trial"",""time""
""fullscreenenter"",""1"",""12089""
","
","","","","","","","","","","","","","","","","","","","","",""
"fullscreen","1","13086","0.0-1.0","6416","1","12","Female","approach_avoid_spark_v1","""event"",""trial"",""time""
""fullscreenenter"",""1"",""12089""
","
","
","""event"",""trial"",""time""
""fullscreenenter"",""1"",""12089""
","
","true","","","","","","","","","","","","","","","","","","","",""
"preload","2","26522","0.0-2.0","6416","1","12","Female","approach_avoid_spark_v1","""event"",""trial"",""time""
""fullscreenenter"",""1"",""12089""
","
","
","""event"",""trial"",""time""
""fullscreenenter"",""1"",""12089""
","
","true","false","[]","[]","[]","","","","","","","","","","","","","","","",""
"audio-keyboard-response","3","32434","0.0-3.0","6416","1","12","Female","approach_avoid_spark_v1","""event"",""trial"",""time""
""fullscreenenter"",""1"",""12089""
","
","
","""event"",""trial"",""time""
""fullscreenenter"",""1"",""12089""
","
","","","","","","5909.333333333335","audio/beep_loop.wav","audiovolumeup","","","","","","","","","","","","",""
"audio-button-response","4","34862","0.0-4.0","6416","1","12","Female","approach_avoid_spark_v1","""event"",""trial"",""time""
""fullscreenenter"",""1"",""12089""
","
","
","""event"",""trial"",""time""
""fullscreenenter"",""1"",""12089""
","
","","","","","","2432","audio/shark.wav","4","","","","","","","","","","","","",""
"audio-button-response","5","37901","0.0-5.0","6416","1","12","Female","approach_avoid_spark_v1","""event"",""trial"",""time""
""fullscreenenter"",""1"",""12089""
","
","
","""event"",""trial"",""time""
""fullscreenenter"",""1"",""12089""
","
","","","","","","2021","audio/turtle.wav","1","","","","","","","","","","","","",""
"preload","6","43086","0.0-6.0","6416","1","12","Female","approach_avoid_spark_v1","""event"",""trial"",""time""
""fullscreenenter"",""1"",""12089""
","
","
","""event"",""trial"",""time""
""fullscreenenter"",""1"",""12089""
","
","true","false","[]","[]","[]","","","","","","","","","","","","","","","",""
"html-keyboard-response","7","46817","0.0-7.0","6416","1","12","Female","approach_avoid_spark_v1","""event"",""trial"",""time""
""fullscreenenter"",""1"",""12089""
","
","
","""event"",""trial"",""time""
""fullscreenenter"",""1"",""12089""
","
","","","","","","3730.2999999523163","Welcome to the experiment. Press any key to begin and to advance the instructions."," ","","","","","","","","","","","","",""
"learning-instructions","8","55630","0.0-8.0-0.0-0.0","6416","1","12","Female","approach_avoid_spark_v1","""event"",""trial"",""time""
""fullscreenenter"",""1"",""12089""
","
","
","""event"",""trial"",""time""
""fullscreenenter"",""1"",""12089""
","
","","","","","","1858","<p> Welcome! Today you are going to play 6 different rounds of a decision-making game. </p><p> Use the mouse to click next to continue. </p>","","0","instructions","","","","","","","","","","",""
"learning-instructions","9","60513","0.0-8.0-0.0-0.1","6416","1","12","Female","approach_avoid_spark_v1","""event"",""trial"",""time""
""fullscreenenter"",""1"",""12089""
","
","
","""event"",""trial"",""time""
""fullscreenenter"",""1"",""12089""
","
","","","","","","2136","<p> You will start with a practice round to learn the rules. </p>","","0","instructions","","","","","","","","","","",""
"learning-instructions","10","64618","0.0-8.0-0.0-0.2","6416","1","12","Female","approach_avoid_spark_v1","""event"",""trial"",""time""
""fullscreenenter"",""1"",""12089""
","
","
","""event"",""trial"",""time""
""fullscreenenter"",""1"",""12089""
","
","","","","","","651.5","<p> Your goal in this round is to give out sports equipment to kids. </p></div>","","0","instructions","","","","","","","","","","",""
"learning-instructions","11","72693","0.0-8.0-0.0-0.3","6416","1","12","Female","approach_avoid_spark_v1","""event"",""trial"",""time""
""fullscreenenter"",""1"",""12089""
","
","
","""event"",""trial"",""time""
""fullscreenenter"",""1"",""12089""
","
","","","","","","516","<p> The kids only like some of the equipment.  </p><p> On each turn, you will see a piece of sports equipment.   </p><p> You need to decide whether to give it to the kids or not.  </p>","","0","instructions","","","","","","","","","","",""
"learning-instructions","12","79183","0.0-8.0-0.0-0.4","6416","1","12","Female","approach_avoid_spark_v1","""event"",""trial"",""time""
""fullscreenenter"",""1"",""12089""
","
","
","""event"",""trial"",""time""
""fullscreenenter"",""1"",""12089""
","
","","","","","","1716.5","<p> You can give them the equipment by pressing 1 and choose not to give it to them by pressing 0. </p><br><div class=""choice-instructions-grid""> <div class=""choice-option""><img src=""images/approach.png"" class=""choice-option-img"" stage=""instructions"" position=""0"" ><div class=""choice-option-text""> Press ""1."" </div></div><div class=""choice-option""><img src=""images/avoid.png"" class=""choice-option-img"" stage=""instructions"" position=""1"" ><div class=""choice-option-text""> Press ""0."" </div></div>","","0","instructions","","","","","","","","","","",""
"learning-instructions","13","87188","0.0-8.0-0.0-0.5","6416","1","12","Female","approach_avoid_spark_v1","""event"",""trial"",""time""
""fullscreenenter"",""1"",""12089""
","
","
","""event"",""trial"",""time""
""fullscreenenter"",""1"",""12089""
","
","","","","","","610.9000000953674","<p> If you give them a piece of equipment they like, they will be happy! </p><p> But if you give them a piece of equipment they do not like, they will be sad. </p>","","0","instructions","","","","","","","","","","",""
"learning-instructions","14","98398","0.0-8.0-0.0-0.6","6416","1","12","Female","approach_avoid_spark_v1","""event"",""trial"",""time""
""fullscreenenter"",""1"",""12089""
","
","
","""event"",""trial"",""time""
""fullscreenenter"",""1"",""12089""
","
","","","","","","691","<p> You will earn points based on how you make kids feel. </p><p> If you make them happy, you will WIN anywhere from 1 - 9 points, </p><p> but if you make them sad, you will LOSE anywhere from 1 - 9 points. </p>","","0","instructions","","","","","","","","","","",""
"learning-instructions","15","109218","0.0-8.0-0.0-0.7","6416","1","12","Female","approach_avoid_spark_v1","""event"",""trial"",""time""
""fullscreenenter"",""1"",""12089""
","
","
","""event"",""trial"",""time""
""fullscreenenter"",""1"",""12089""
","
","","","","","","1251","<p> You will see how many points you won or lost in the center of the screen. </p><p> Here is what you would see if you won 6 points: </p><p style=""color:green;font-size:50px;font-weight:bolder"">6</p><p style=""color:green"">The text is GREEN because you WON points.</p>","","0","instructions","","","","","","","","","","",""
"learning-instructions","16","115748","0.0-8.0-0.0-0.8","6416","1","12","Female","approach_avoid_spark_v1","""event"",""trial"",""time""
""fullscreenenter"",""1"",""12089""
","
","
","""event"",""trial"",""time""
""fullscreenenter"",""1"",""12089""
","
","","","","","","1020.0999999046326","<p> And here is what you would see if you lost 4 points: </p><p style=""color:red;font-size:50px;font-weight:bolder"">-4</p><p style=""color:red"">The text is RED because you LOST points. </p>","","0","instructions","","","","","","","","","","",""
"learning-instructions","17","131147","0.0-8.0-0.0-0.9","6416","1","12","Female","approach_avoid_spark_v1","""event"",""trial"",""time""
""fullscreenenter"",""1"",""12089""
","
","
","""event"",""trial"",""time""
""fullscreenenter"",""1"",""12089""
","
","","","","","","681.2000000476837","<p> Some of the equipment will make the kids VERY happy or sad. </p><p> These pieces of equipment will make you win or lose LOTS of points. </p><p> Other pieces of equipment will only make the kids a little happy or sad. </p><p> These pieces of equipment will make you win or lose small amounts of points. </p>","","0","instructions","","","","","","","","","","",""
"learning-instructions","18","142476","0.0-8.0-0.0-0.10","6416","1","12","Female","approach_avoid_spark_v1","""event"",""trial"",""time""
""fullscreenenter"",""1"",""12089""
","
","
","""event"",""trial"",""time""
""fullscreenenter"",""1"",""12089""
","
","","","","","","710.3000001907349","<p> If you choose not to give them the equipment, you will not win or lose any points. </p><p>  However, in the center of the screen, you will see the number of points you WOULD HAVE won or lost if you had given them the equipment. </p>","","0","instructions","","","","","","","","","","",""
"learning-instructions","19","165697","0.0-8.0-0.0-0.11","6416","1","12","Female","approach_avoid_spark_v1","""event"",""trial"",""time""
""fullscreenenter"",""1"",""12089""
","
","
","""event"",""trial"",""time""
""fullscreenenter"",""1"",""12089""
","
","","","","","","1680.9000000953674","<p> Here is what you might see if you did not give the equipment to the kids but it would have made them happy: </p><p style=""color:grey; font-size:50px; display: inline-block; border-spacing: 15px; border-width:3px; border-style:solid; border-color:red"">  &nbsp; 7 &nbsp; </p><p> Remember, in this case, you would not win or lose ANY points because you did not give them the equipment.  </p><p style=""color:grey"">The text is GREY because you earned ZERO points. </p><p style=""color:red"">However, choosing to give the kids the equipment would have made you win points. The box around the text is RED because you chose the worse option. </p>","","0","instructions","","","","","","","","","","",""
"learning-instructions","20","187437","0.0-8.0-0.0-0.12","6416","1","12","Female","approach_avoid_spark_v1","""event"",""trial"",""time""
""fullscreenenter"",""1"",""12089""
","
","
","""event"",""trial"",""time""
""fullscreenenter"",""1"",""12089""
","
","","","","","","660.7999999523163","<p> Here is what you might see if you did not give the equipment to the kids but it would have made them sad: </p><p style=""color:grey;font-size:50px; display: inline-block; border-spacing: 15px; border-width:3px; border-style:solid; border-color:green"">  &nbsp; -8 &nbsp; </p><p> Remember, in this case, you would not win or lose ANY points because you did not give them the equipment.  </p><p style=""color:grey"">The text is GREY because you earned ZERO points. </p><p  style=""color:green""> Choosing to give the kids the equipment would have made you lose points. The box around the text is GREEN because you chose the better option.</p>","","0","instructions","","","","","","","","","","",""
"learning-instructions","21","198447","0.0-8.0-0.0-0.13","6416","1","12","Female","approach_avoid_spark_v1","""event"",""trial"",""time""
""fullscreenenter"",""1"",""12089""
","
","
","""event"",""trial"",""time""
""fullscreenenter"",""1"",""12089""
","
","","","","","","1840.9000000953674","<p> You will have 3 seconds to make each choice. Try to respond before time runs out! </p><p> You will lose 5 points each time you do not make a response. </p>","","0","instructions","","","","","","","","","","",""
"learning-instructions","22","204617","0.0-8.0-0.0-0.14","6416","1","12","Female","approach_avoid_spark_v1","""event"",""trial"",""time""
""fullscreenenter"",""1"",""12089""
","
","
","""event"",""trial"",""time""
""fullscreenenter"",""1"",""12089""
","
","","","","","","740.2000000476837","<p> This is just a practice round, but in the real game, your bonus payment will depend on your total number of points.","","0","instructions","","","","","","","","","","",""
"learning-instructions","23","211191","0.0-8.0-0.0-0.15","6416","1","12","Female","approach_avoid_spark_v1","""event"",""trial"",""time""
""fullscreenenter"",""1"",""12089""
","
","
","""event"",""trial"",""time""
""fullscreenenter"",""1"",""12089""
","
","","","","","","804.7000000476837","<p> Remember, you can give them the equipment by pressing 1 and choose not to give it to them by pressing 0. </p><br><div class=""choice-instructions-grid""> <div class=""choice-option""><img src=""images/approach.png"" class=""choice-option-img"" stage=""instructions"" position=""0"" ><div class=""choice-option-text""> Press ""1."" </div></div><div class=""choice-option""><img src=""images/avoid.png"" class=""choice-option-img"" stage=""instructions"" position=""1"" ><div class=""choice-option-text""> Press ""0."" </div></div>","","0","instructions","","","","","","","","","","",""
"html-button-response","24","212874","0.0-8.0-1.0","6416","1","12","Female","approach_avoid_spark_v1","""event"",""trial"",""time""
""fullscreenenter"",""1"",""12089""
","
","
","""event"",""trial"",""time""
""fullscreenenter"",""1"",""12089""
","
","","","","","","1567.2000000476837","<p> Ready to practice? </p>","0","","","","","","","","","","","","",""
"html-keyboard-response","25","213495","0.0-8.0-2.0-0.0","6416","1","12","Female","approach_avoid_spark_v1","""event"",""trial"",""time""
""fullscreenenter"",""1"",""12089""
","
","
","""event"",""trial"",""time""
""fullscreenenter"",""1"",""12089""
","
","","","","","","null","<div style=""font-size:60px;"">+</div>","null","","fixation","","","","","","","","","","",""
"aa-learning-trial","26","216505","0.0-8.0-2.0-1.0","6416","1","12","Female","approach_avoid_spark_v1","""event"",""trial"",""time""
""fullscreenenter"",""1"",""12089""
","
","
","""event"",""trial"",""time""
""fullscreenenter"",""1"",""12089""
","
","","","","","","1442.0999999046326","images/ball2.png","","","learning","-6","-6","1","1","practice","practice","practice","-1","","",""
"html-keyboard-response","27","217015","0.0-8.0-2.0-0.1","6416","1","12","Female","approach_avoid_spark_v1","""event"",""trial"",""time""
""fullscreenenter"",""1"",""12089""
","
","
","""event"",""trial"",""time""
""fullscreenenter"",""1"",""12089""
","
","","","","","","null","<div style=""font-size:60px;"">+</div>","null","","fixation","","","","","","","","","","",""
"aa-learning-trial","28","220030","0.0-8.0-2.0-1.1","6416","1","12","Female","approach_avoid_spark_v1","""event"",""trial"",""time""
""fullscreenenter"",""1"",""12089""
","
","
","""event"",""trial"",""time""
""fullscreenenter"",""1"",""12089""
","
","","","","","","2593.2999999523163","images/ball3.png","","","learning","8","0","0","0","practice","practice","practice","-1","","",""
"html-keyboard-response","29","220534","0.0-8.0-2.0-0.2","6416","1","12","Female","approach_avoid_spark_v1","""event"",""trial"",""time""
""fullscreenenter"",""1"",""12089""
","
","
","""event"",""trial"",""time""
""fullscreenenter"",""1"",""12089""
","
","","","","","","null","<div style=""font-size:60px;"">+</div>","null","","fixation","","","","","","","","","","",""
"aa-learning-trial","30","223554","0.0-8.0-2.0-1.2","6416","1","12","Female","approach_avoid_spark_v1","""event"",""trial"",""time""
""fullscreenenter"",""1"",""12089""
","
","
","""event"",""trial"",""time""
""fullscreenenter"",""1"",""12089""
","
","","","","","","null","images/racket1.png","","","learning","-7","-5","","null","practice","practice","practice","-1","","",""
"html-keyboard-response","31","224075","0.0-8.0-2.0-0.3","6416","1","12","Female","approach_avoid_spark_v1","""event"",""trial"",""time""
""fullscreenenter"",""1"",""12089""
","
","
","""event"",""trial"",""time""
""fullscreenenter"",""1"",""12089""
","
","","","","","","null","<div style=""font-size:60px;"">+</div>","null","","fixation","","","","","","","","","","",""
"aa-learning-trial","32","227095","0.0-8.0-2.0-1.3","6416","1","12","Female","approach_avoid_spark_v1","""event"",""trial"",""time""
""fullscreenenter"",""1"",""12089""
","
","
","""event"",""trial"",""time""
""fullscreenenter"",""1"",""12089""
","
","","","","","","1027.1999998092651","images/ball2.png","","","learning","-1","-1","1","1","practice","practice","practice","-1","","",""
"html-keyboard-response","33","227605","0.0-8.0-2.0-0.4","6416","1","12","Female","approach_avoid_spark_v1","""event"",""trial"",""time""
""fullscreenenter"",""1"",""12089""
","
","
","""event"",""trial"",""time""
""fullscreenenter"",""1"",""12089""
","
","","","","","","null","<div style=""font-size:60px;"">+</div>","null","","fixation","","","","","","","","","","",""
"aa-learning-trial","34","230624","0.0-8.0-2.0-1.4","6416","1","12","Female","approach_avoid_spark_v1","""event"",""trial"",""time""
""fullscreenenter"",""1"",""12089""
","
","
","""event"",""trial"",""time""
""fullscreenenter"",""1"",""12089""
","
","","","","","","487.90000009536743","images/ball2.png","","","learning","7","0","0","0","practice","practice","practice","-1","","",""
"html-keyboard-response","35","231144","0.0-8.0-2.0-0.5","6416","1","12","Female","approach_avoid_spark_v1","""event"",""trial"",""time""
""fullscreenenter"",""1"",""12089""
","
","
","""event"",""trial"",""time""
""fullscreenenter"",""1"",""12089""
","
","","","","","","null","<div style=""font-size:60px;"">+</div>","null","","fixation","","","","","","","","","","",""
"aa-learning-trial","36","234165","0.0-8.0-2.0-1.5","6416","1","12","Female","approach_avoid_spark_v1","""event"",""trial"",""time""
""fullscreenenter"",""1"",""12089""
","
","
","""event"",""trial"",""time""
""fullscreenenter"",""1"",""12089""
","
","","","","","","1564.7000000476837","images/racket3.png","","","learning","7","0","0","0","practice","practice","practice","-1","","",""
"html-keyboard-response","37","234675","0.0-8.0-2.0-0.6","6416","1","12","Female","approach_avoid_spark_v1","""event"",""trial"",""time""
""fullscreenenter"",""1"",""12089""
","
","
","""event"",""trial"",""time""
""fullscreenenter"",""1"",""12089""
","
","","","","","","null","<div style=""font-size:60px;"">+</div>","null","","fixation","","","","","","","","","","",""
"aa-learning-trial","38","237685","0.0-8.0-2.0-1.6","6416","1","12","Female","approach_avoid_spark_v1","""event"",""trial"",""time""
""fullscreenenter"",""1"",""12089""
","
","
","""event"",""trial"",""time""
""fullscreenenter"",""1"",""12089""
","
","","","","","","989.9000000953674","images/ball4.png","","","learning","-2","-2","1","1","practice","practice","practice","-1","","",""
"html-keyboard-response","39","238195","0.0-8.0-2.0-0.7","6416","1","12","Female","approach_avoid_spark_v1","""event"",""trial"",""time""
""fullscreenenter"",""1"",""12089""
","
","
","""event"",""trial"",""time""
""fullscreenenter"",""1"",""12089""
","
","","","","","","null","<div style=""font-size:60px;"">+</div>","null","","fixation","","","","","","","","","","",""
"aa-learning-trial","40","241202","0.0-8.0-2.0-1.7","6416","1","12","Female","approach_avoid_spark_v1","""event"",""trial"",""time""
""fullscreenenter"",""1"",""12089""
","
","
","""event"",""trial"",""time""
""fullscreenenter"",""1"",""12089""
","
","","","","","","503.7000000476837","images/racket1.png","","","learning","-4","0","0","0","practice","practice","practice","-1","","",""
"html-keyboard-response","41","241711","0.0-8.0-2.0-0.8","6416","1","12","Female","approach_avoid_spark_v1","""event"",""trial"",""time""
""fullscreenenter"",""1"",""12089""
","
","
","""event"",""trial"",""time""
""fullscreenenter"",""1"",""12089""
","
","","","","","","null","<div style=""font-size:60px;"">+</div>","null","","fixation","","","","","","","","","","",""
"aa-learning-trial","42","244719","0.0-8.0-2.0-1.8","6416","1","12","Female","approach_avoid_spark_v1","""event"",""trial"",""time""
""fullscreenenter"",""1"",""12089""
","
","
","""event"",""trial"",""time""
""fullscreenenter"",""1"",""12089""
","
","","","","","","581.5999999046326","images/ball3.png","","","learning","2","2","1","1","practice","practice","practice","-1","","",""
"html-keyboard-response","43","245229","0.0-8.0-2.0-0.9","6416","1","12","Female","approach_avoid_spark_v1","""event"",""trial"",""time""
""fullscreenenter"",""1"",""12089""
","
","
","""event"",""trial"",""time""
""fullscreenenter"",""1"",""12089""
","
","","","","","","null","<div style=""font-size:60px;"">+</div>","null","","fixation","","","","","","","","","","",""
"aa-learning-trial","44","248235","0.0-8.0-2.0-1.9","6416","1","12","Female","approach_avoid_spark_v1","""event"",""trial"",""time""
""fullscreenenter"",""1"",""12089""
","
","
","""event"",""trial"",""time""
""fullscreenenter"",""1"",""12089""
","
","","","","","","649.2999999523163","images/racket1.png","","","learning","-4","0","0","0","practice","practice","practice","-1","","",""
"html-keyboard-response","45","248737","0.0-8.0-2.0-0.10","6416","1","12","Female","approach_avoid_spark_v1","""event"",""trial"",""time""
""fullscreenenter"",""1"",""12089""
","
","
","""event"",""trial"",""time""
""fullscreenenter"",""1"",""12089""
","
","","","","","","null","<div style=""font-size:60px;"">+</div>","null","","fixation","","","","","","","","","","",""
"aa-learning-trial","46","251741","0.0-8.0-2.0-1.10","6416","1","12","Female","approach_avoid_spark_v1","""event"",""trial"",""time""
""fullscreenenter"",""1"",""12089""
","
","
","""event"",""trial"",""time""
""fullscreenenter"",""1"",""12089""
","
","","","","","","458.5","images/racket1.png","","","learning","-9","-9","1","1","practice","practice","practice","-1","","",""
"html-keyboard-response","47","252254","0.0-8.0-2.0-0.11","6416","1","12","Female","approach_avoid_spark_v1","""event"",""trial"",""time""
""fullscreenenter"",""1"",""12089""
","
","
","""event"",""trial"",""time""
""fullscreenenter"",""1"",""12089""
","
","","","","","","null","<div style=""font-size:60px;"">+</div>","null","","fixation","","","","","","","","","","",""
"aa-learning-trial","48","255259","0.0-8.0-2.0-1.11","6416","1","12","Female","approach_avoid_spark_v1","""event"",""trial"",""time""
""fullscreenenter"",""1"",""12089""
","
","
","""event"",""trial"",""time""
""fullscreenenter"",""1"",""12089""
","
","","","","","","795.4000000953674","images/ball1.png","","","learning","1","0","0","0","practice","practice","practice","-1","","",""
"html-button-response","49","257926","0.0-8.0-3.0","6416","1","12","Female","approach_avoid_spark_v1","""event"",""trial"",""time""
""fullscreenenter"",""1"",""12089""
","
","
","""event"",""trial"",""time""
""fullscreenenter"",""1"",""12089""
","
","","","","","","2665.5","<p> You earned -21 points in the practice round! </p>","0","","break","","","","","","","","","","",""
"learning-instructions","50","265457","0.0-8.0-4.0-0.0","6416","1","12","Female","approach_avoid_spark_v1","""event"",""trial"",""time""
""fullscreenenter"",""1"",""12089""
","
","
","""event"",""trial"",""time""
""fullscreenenter"",""1"",""12089""
","
","","","","","","1013.5999999046326","<p> It's almost time to start the real game. </p><p> Before you start, we're going to ask you a few questions about how the game works. </p>","","0","instructions","","","","","","","","","","",""
"preload","51","267429","0.0-8.0-5.0","6416","1","12","Female","approach_avoid_spark_v1","""event"",""trial"",""time""
""fullscreenenter"",""1"",""12089""
","
","
","""event"",""trial"",""time""
""fullscreenenter"",""1"",""12089""
","
","true","false","[]","[]","[]","","","","","","","","","","","","","","","",""
"comp-q","52","273851","0.0-8.0-6.0-0.0","6416","1","12","Female","approach_avoid_spark_v1","""event"",""trial"",""time""
""fullscreenenter"",""1"",""12089""
","
","
","""event"",""trial"",""time""
""fullscreenenter"",""1"",""12089""
","
","","","","","","1426","<p> <b> True or False? </b> </p><p> If you see a number in GREY, that means you earned that many points. </p>","","1","comp_question","","","","","","","","","true","",""
"comp-q","53","283303","0.0-8.0-6.0-1.0","6416","1","12","Female","approach_avoid_spark_v1","""event"",""trial"",""time""
""fullscreenenter"",""1"",""12089""
","
","
","""event"",""trial"",""time""
""fullscreenenter"",""1"",""12089""
","
","","","","","","1078.5","<p><b> That's right! </b> If you see a grey number, it means you earned ZERO points. <br> The grey numbers show the points you WOULD HAVE earned if you had made the other choice. </p>","","0","comp_answer","","","","","","","","","","",""
"comp-q","54","288635","0.0-8.0-7.0-0.0","6416","1","12","Female","approach_avoid_spark_v1","""event"",""trial"",""time""
""fullscreenenter"",""1"",""12089""
","
","
","""event"",""trial"",""time""
""fullscreenenter"",""1"",""12089""
","
","","","","","","630.5999999046326","<p> <b> True or False? </b> </p><p> You will have as much time as you want to make each choice. </p>","","1","comp_question","","","","","","","","","true","",""
"comp-q","55","294336","0.0-8.0-7.0-1.0","6416","1","12","Female","approach_avoid_spark_v1","""event"",""trial"",""time""
""fullscreenenter"",""1"",""12089""
","
","
","""event"",""trial"",""time""
""fullscreenenter"",""1"",""12089""
","
","","","","","","1641.4000000953674","<p> <b> That's right! </b> You will only have 3 seconds to make each choice. </p>","","0","comp_answer","","","","","","","","","","",""
"comp-q","56","299705","0.0-8.0-8.0-0.0","6416","1","12","Female","approach_avoid_spark_v1","""event"",""trial"",""time""
""fullscreenenter"",""1"",""12089""
","
","
","""event"",""trial"",""time""
""fullscreenenter"",""1"",""12089""
","
","","","","","","711","<p> <b> True or False? </b> </p><p> You should use the '1' and '0' keys to make your choices. </p>","","0","comp_question","","","","","","","","","true","",""
"comp-q","57","305323","0.0-8.0-8.0-1.0","6416","1","12","Female","approach_avoid_spark_v1","""event"",""trial"",""time""
""fullscreenenter"",""1"",""12089""
","
","
","""event"",""trial"",""time""
""fullscreenenter"",""1"",""12089""
","
","","","","","","998.8999998569489","<p> <b> That's right! </b> You should use the '1' and '0' keys to make each choice. </p>","","0","comp_answer","","","","","","","","","","",""
"learning-instructions","58","314096","0.0-8.0-9.0-0.0","6416","1","12","Female","approach_avoid_spark_v1","""event"",""trial"",""time""
""fullscreenenter"",""1"",""12089""
","
","
","""event"",""trial"",""time""
""fullscreenenter"",""1"",""12089""
","
","","","","","","2492.100000143051","<p> It's now time to start the real game. </p>Do your best, because the points you earn in the next rounds will influence your bonus payment. </p>","","0","instructions","","","","","","","","","","",""
"preload","59","314238","0.0-9.0-0.0","6416","1","12","Female","approach_avoid_spark_v1","""event"",""trial"",""time""
""fullscreenenter"",""1"",""12089""
","
","
","""event"",""trial"",""time""
""fullscreenenter"",""1"",""12089""
","
","true","false","[]","[]","[]","","","","","","","","","","","","","","","",""
"learning-instructions","60","318917","0.0-9.0-1.0-0.0","6416","1","12","Female","approach_avoid_spark_v1","""event"",""trial"",""time""
""fullscreenenter"",""1"",""12089""
","
","
","""event"",""trial"",""time""
""fullscreenenter"",""1"",""12089""
","
","","","","","","1410.4000000953674","<p> Your goal in this round is to eat tasty fruit. </p></div>","","0","instructions","","","","","","","","","","",""
"learning-instructions","61","332278","0.0-9.0-1.0-0.1","6416","1","12","Female","approach_avoid_spark_v1","""event"",""trial"",""time""
""fullscreenenter"",""1"",""12089""
","
","
","""event"",""trial"",""time""
""fullscreenenter"",""1"",""12089""
","
","","","","","","3651.2000000476837","<p> Some of the fruits you will see are tasty. Others are rotten on the inside.  </p><p> On each turn, you will see a fruit.   </p><p> You need to decide whether to eat it or not.  </p>","","0","instructions","","","","","","","","","","",""
"learning-instructions","62","337908","0.0-9.0-1.0-0.2","6416","1","12","Female","approach_avoid_spark_v1","""event"",""trial"",""time""
""fullscreenenter"",""1"",""12089""
","
","
","""event"",""trial"",""time""
""fullscreenenter"",""1"",""12089""
","
","","","","","","730.1000001430511","<p> You can eat the fruit by pressing 1 and choose not to eat it by pressing 0. </p><br><div class=""choice-instructions-grid""> <div class=""choice-option""><img src=""images/approach.png"" class=""choice-option-img"" stage=""instructions"" position=""0"" ><div class=""choice-option-text""> Press ""1."" </div></div><div class=""choice-option""><img src=""images/avoid.png"" class=""choice-option-img"" stage=""instructions"" position=""1"" ><div class=""choice-option-text""> Press ""0."" </div></div>","","0","instructions","","","","","","","","","","",""
"learning-instructions","63","347949","0.0-9.0-1.0-0.3","6416","1","12","Female","approach_avoid_spark_v1","""event"",""trial"",""time""
""fullscreenenter"",""1"",""12089""
","
","
","""event"",""trial"",""time""
""fullscreenenter"",""1"",""12089""
","
","","","","","","1082","<p> If you eat the fruit and it was tasty, you will win points! </p><p> But if you eat the fruit and it was rotten, you will lose points. </p>","","0","instructions","","","","","","","","","","",""
"learning-instructions","64","363056","0.0-9.0-1.0-0.4","6416","1","12","Female","approach_avoid_spark_v1","""event"",""trial"",""time""
""fullscreenenter"",""1"",""12089""
","
","
","""event"",""trial"",""time""
""fullscreenenter"",""1"",""12089""
","
","","","","","","1519.5999999046326","<p> You will earn points based on how tasty or rotten the fruit was. </p><p> If it was tasty, you will WIN anywhere from 1 - 9 points, </p><p> but if it was rotten, you will LOSE anywhere from 1 - 9 points. </p>","","0","instructions","","","","","","","","","","",""
"learning-instructions","65","374740","0.0-9.0-1.0-0.5","6416","1","12","Female","approach_avoid_spark_v1","""event"",""trial"",""time""
""fullscreenenter"",""1"",""12089""
","
","
","""event"",""trial"",""time""
""fullscreenenter"",""1"",""12089""
","
","","","","","","3182.7999999523163","<p> You will see how many points you won or lost in the center of the screen. </p><p> Here is what you would see if you earned 5 points: </p><p style=""color:green;font-size:50px;font-weight:bolder"">5</p>","","0","instructions","","","","","","","","","","",""
"learning-instructions","66","379048","0.0-9.0-1.0-0.6","6416","1","12","Female","approach_avoid_spark_v1","""event"",""trial"",""time""
""fullscreenenter"",""1"",""12089""
","
","
","""event"",""trial"",""time""
""fullscreenenter"",""1"",""12089""
","
","","","","","","560.5","<p> And here is what you would see if you lost 3 points: </p><p style=""color:red;font-size:50px;font-weight:bolder"">-3</p>","","0","instructions","","","","","","","","","","",""
"learning-instructions","67","396501","0.0-9.0-1.0-0.7","6416","1","12","Female","approach_avoid_spark_v1","""event"",""trial"",""time""
""fullscreenenter"",""1"",""12089""
","
","
","""event"",""trial"",""time""
""fullscreenenter"",""1"",""12089""
","
","","","","","","2613.899999856949","<p> Some fruit is very tasty or very rotten. </p><p> These fruits will make you win or lose LOTS of points. </p><p> Other fruits are only kind of tasty or kind of rotten. </p><p> These fruits will make you win or lose small amounts of points. </p>","","0","instructions","","","","","","","","","","",""
"learning-instructions","68","408437","0.0-9.0-1.0-0.8","6416","1","12","Female","approach_avoid_spark_v1","""event"",""trial"",""time""
""fullscreenenter"",""1"",""12089""
","
","
","""event"",""trial"",""time""
""fullscreenenter"",""1"",""12089""
","
","","","","","","1279.5","<p> If you choose to not eat the fruit, you will not win or lose any points. </p><p>  However, in the center of the screen, you will see the number of points you WOULD HAVE earned if you had eaten the fruit. </p>","","0","instructions","","","","","","","","","","",""
"learning-instructions","69","419370","0.0-9.0-1.0-0.9","6416","1","12","Female","approach_avoid_spark_v1","""event"",""trial"",""time""
""fullscreenenter"",""1"",""12089""
","
","
","""event"",""trial"",""time""
""fullscreenenter"",""1"",""12089""
","
","","","","","","943.2000000476837","<p> Here is what you might see if you did not eat the fruit but the fruit was tasty: </p><p style=""color:grey; font-size:50px; display: inline-block; border-spacing: 15px; border-width:3px; border-style:solid; border-color:red"">  &nbsp; 6 &nbsp; </p><p> Remember, in this case, you would not win or lose ANY points because you did not eat the fruit.  </p>","","0","instructions","","","","","","","","","","",""
"learning-instructions","70","428043","0.0-9.0-1.0-0.10","6416","1","12","Female","approach_avoid_spark_v1","""event"",""trial"",""time""
""fullscreenenter"",""1"",""12089""
","
","
","""event"",""trial"",""time""
""fullscreenenter"",""1"",""12089""
","
","","","","","","616","<p> Try to make the best choice for each fruit because </p><p> at the end of the game, you will earn bonus money based on how many points you earned. </p>","","0","instructions","","","","","","","","","","",""
"learning-instructions","71","436784","0.0-9.0-1.0-0.11","6416","1","12","Female","approach_avoid_spark_v1","""event"",""trial"",""time""
""fullscreenenter"",""1"",""12089""
","
","
","""event"",""trial"",""time""
""fullscreenenter"",""1"",""12089""
","
","","","","","","537.2000000476837","<p> You will have 3 seconds to make each choice. Try to respond before time runs out! </p><p> You will lose 5 points each time you do not make a response. </p>","","0","instructions","","","","","","","","","","",""
"html-keyboard-response","72","437405","0.0-9.0-2.0-0.0","6416","1","12","Female","approach_avoid_spark_v1","""event"",""trial"",""time""
""fullscreenenter"",""1"",""12089""
","
","
","""event"",""trial"",""time""
""fullscreenenter"",""1"",""12089""
","
","","","","","","null","<div style=""font-size:60px;"">+</div>","null","","fixation","","","","","","","","","","",""
"aa-learning-trial","73","440414","0.0-9.0-2.0-1.0","6416","1","12","Female","approach_avoid_spark_v1","""event"",""trial"",""time""
""fullscreenenter"",""1"",""12089""
","
","
","""event"",""trial"",""time""
""fullscreenenter"",""1"",""12089""
","
","","","","","","1668.8000001907349","images/apple4.png","","","learning","-3","-3","1","1","apple","fruit","1","0","","bad","[-3]"
"html-keyboard-response","74","440934","0.0-9.0-2.0-0.1","6416","1","12","Female","approach_avoid_spark_v1","""event"",""trial"",""time""
""fullscreenenter"",""1"",""12089""
","
","
","""event"",""trial"",""time""
""fullscreenenter"",""1"",""12089""
","
","","","","","","null","<div style=""font-size:60px;"">+</div>","null","","fixation","","","","","","","","","","",""
"aa-learning-trial","75","443944","0.0-9.0-2.0-1.1","6416","1","12","Female","approach_avoid_spark_v1","""event"",""trial"",""time""
""fullscreenenter"",""1"",""12089""
","
","
","""event"",""trial"",""time""
""fullscreenenter"",""1"",""12089""
","
","","","","","","1302.4000000953674","images/straw2.png","","","learning","2","2","1","1","straw","fruit","1","0","","neutral","0"
"html-keyboard-response","76","444454","0.0-9.0-2.0-0.2","6416","1","12","Female","approach_avoid_spark_v1","""event"",""trial"",""time""
""fullscreenenter"",""1"",""12089""
","
","
","""event"",""trial"",""time""
""fullscreenenter"",""1"",""12089""
","
","","","","","","null","<div style=""font-size:60px;"">+</div>","null","","fixation","","","","","","","","","","",""
"aa-learning-trial","77","447470","0.0-9.0-2.0-1.2","6416","1","12","Female","approach_avoid_spark_v1","""event"",""trial"",""time""
""fullscreenenter"",""1"",""12089""
","
","
","""event"",""trial"",""time""
""fullscreenenter"",""1"",""12089""
","
","","","","","","1362.2000000476837","images/banana7.png","","","learning","6","0","0","0","banana","fruit","1","0","","good","[5]"
"html-keyboard-response","78","447984","0.0-9.0-2.0-0.3","6416","1","12","Female","approach_avoid_spark_v1","""event"",""trial"",""time""
""fullscreenenter"",""1"",""12089""
","
","
","""event"",""trial"",""time""
""fullscreenenter"",""1"",""12089""
","
","","","","","","null","<div style=""font-size:60px;"">+</div>","null","","fixation","","","","","","","","","","",""
"aa-learning-trial","79","451004","0.0-9.0-2.0-1.3","6416","1","12","Female","approach_avoid_spark_v1","""event"",""trial"",""time""
""fullscreenenter"",""1"",""12089""
","
","
","""event"",""trial"",""time""
""fullscreenenter"",""1"",""12089""
","
","","","","","","964.4000000953674","images/banana7.png","","","learning","7","7","1","1","banana","fruit","1","0","","good","[5]"
"html-keyboard-response","80","451517","0.0-9.0-2.0-0.4","6416","1","12","Female","approach_avoid_spark_v1","""event"",""trial"",""time""
""fullscreenenter"",""1"",""12089""
","
","
","""event"",""trial"",""time""
""fullscreenenter"",""1"",""12089""
","
","","","","","","null","<div style=""font-size:60px;"">+</div>","null","","fixation","","","","","","","","","","",""
"aa-learning-trial","81","454525","0.0-9.0-2.0-1.4","6416","1","12","Female","approach_avoid_spark_v1","""event"",""trial"",""time""
""fullscreenenter"",""1"",""12089""
","
","
","""event"",""trial"",""time""
""fullscreenenter"",""1"",""12089""
","
","","","","","","1022.6999998092651","images/apple1.png","","","learning","-2","0","0","0","apple","fruit","1","0","","bad","[-3]"
"html-keyboard-response","82","455034","0.0-9.0-2.0-0.5","6416","1","12","Female","approach_avoid_spark_v1","""event"",""trial"",""time""
""fullscreenenter"",""1"",""12089""
","
","
","""event"",""trial"",""time""
""fullscreenenter"",""1"",""12089""
","
","","","","","","null","<div style=""font-size:60px;"">+</div>","null","","fixation","","","","","","","","","","",""
"aa-learning-trial","83","458045","0.0-9.0-2.0-1.5","6416","1","12","Female","approach_avoid_spark_v1","""event"",""trial"",""time""
""fullscreenenter"",""1"",""12089""
","
","
","""event"",""trial"",""time""
""fullscreenenter"",""1"",""12089""
","
","","","","","","891.8000001907349","images/apple3.png","","","learning","-9","0","0","0","apple","fruit","1","0","","bad","[-3]"
"html-keyboard-response","84","458565","0.0-9.0-2.0-0.6","6416","1","12","Female","approach_avoid_spark_v1","""event"",""trial"",""time""
""fullscreenenter"",""1"",""12089""
","
","
","""event"",""trial"",""time""
""fullscreenenter"",""1"",""12089""
","
","","","","","","null","<div style=""font-size:60px;"">+</div>","null","","fixation","","","","","","","","","","",""
"aa-learning-trial","85","461584","0.0-9.0-2.0-1.6","6416","1","12","Female","approach_avoid_spark_v1","""event"",""trial"",""time""
""fullscreenenter"",""1"",""12089""
","
","
","""event"",""trial"",""time""
""fullscreenenter"",""1"",""12089""
","
","","","","","","963.7999999523163","images/straw2.png","","","learning","-1","-1","1","1","straw","fruit","1","0","","neutral","0"
"html-keyboard-response","86","462094","0.0-9.0-2.0-0.7","6416","1","12","Female","approach_avoid_spark_v1","""event"",""trial"",""time""
""fullscreenenter"",""1"",""12089""
","
","
","""event"",""trial"",""time""
""fullscreenenter"",""1"",""12089""
","
","","","","","","null","<div style=""font-size:60px;"">+</div>","null","","fixation","","","","","","","","","","",""
"aa-learning-trial","87","465104","0.0-9.0-2.0-1.7","6416","1","12","Female","approach_avoid_spark_v1","""event"",""trial"",""time""
""fullscreenenter"",""1"",""12089""
","
","
","""event"",""trial"",""time""
""fullscreenenter"",""1"",""12089""
","
","","","","","","779.5","images/apple3.png","","","learning","-4","0","0","0","apple","fruit","1","0","","bad","[-3]"
"html-keyboard-response","88","465614","0.0-9.0-2.0-0.8","6416","1","12","Female","approach_avoid_spark_v1","""event"",""trial"",""time""
""fullscreenenter"",""1"",""12089""
","
","
","""event"",""trial"",""time""
""fullscreenenter"",""1"",""12089""
","
","","","","","","null","<div style=""font-size:60px;"">+</div>","null","","fixation","","","","","","","","","","",""
"aa-learning-trial","89","468618","0.0-9.0-2.0-1.8","6416","1","12","Female","approach_avoid_spark_v1","""event"",""trial"",""time""
""fullscreenenter"",""1"",""12089""
","
","
","""event"",""trial"",""time""
""fullscreenenter"",""1"",""12089""
","
","","","","","","1487.5","images/banana6.png","","","learning","5","5","1","1","banana","fruit","1","0","","good","[5]"
"html-keyboard-response","90","469124","0.0-9.0-2.0-0.9","6416","1","12","Female","approach_avoid_spark_v1","""event"",""trial"",""time""
""fullscreenenter"",""1"",""12089""
","
","
","""event"",""trial"",""time""
""fullscreenenter"",""1"",""12089""
","
","","","","","","null","<div style=""font-size:60px;"">+</div>","null","","fixation","","","","","","","","","","",""
"aa-learning-trial","91","472127","0.0-9.0-2.0-1.9","6416","1","12","Female","approach_avoid_spark_v1","""event"",""trial"",""time""
""fullscreenenter"",""1"",""12089""
","
","
","""event"",""trial"",""time""
""fullscreenenter"",""1"",""12089""
","
","","","","","","1446.2999999523163","images/banana4.png","","","learning","5","5","1","1","banana","fruit","1","0","","good","[5]"
"html-keyboard-response","92","472639","0.0-9.0-2.0-0.10","6416","1","12","Female","approach_avoid_spark_v1","""event"",""trial"",""time""
""fullscreenenter"",""1"",""12089""
","
","
","""event"",""trial"",""time""
""fullscreenenter"",""1"",""12089""
","
","","","","","","null","<div style=""font-size:60px;"">+</div>","null","","fixation","","","","","","","","","","",""
"aa-learning-trial","93","475650","0.0-9.0-2.0-1.10","6416","1","12","Female","approach_avoid_spark_v1","""event"",""trial"",""time""
""fullscreenenter"",""1"",""12089""
","
","
","""event"",""trial"",""time""
""fullscreenenter"",""1"",""12089""
","
","","","","","","1084","images/straw1.png","","","learning","-2","-2","1","1","straw","fruit","1","0","","neutral","0"
"html-keyboard-response","94","476155","0.0-9.0-2.0-0.11","6416","1","12","Female","approach_avoid_spark_v1","""event"",""trial"",""time""
""fullscreenenter"",""1"",""12089""
","
","
","""event"",""trial"",""time""
""fullscreenenter"",""1"",""12089""
","
","","","","","","null","<div style=""font-size:60px;"">+</div>","null","","fixation","","","","","","","","","","",""
"aa-learning-trial","95","479168","0.0-9.0-2.0-1.11","6416","1","12","Female","approach_avoid_spark_v1","""event"",""trial"",""time""
""fullscreenenter"",""1"",""12089""
","
","
","""event"",""trial"",""time""
""fullscreenenter"",""1"",""12089""
","
","","","","","","1445","images/apple1.png","","","learning","-1","0","0","0","apple","fruit","1","0","","bad","[-3]"
"html-keyboard-response","96","479671","0.0-9.0-2.0-0.12","6416","1","12","Female","approach_avoid_spark_v1","""event"",""trial"",""time""
""fullscreenenter"",""1"",""12089""
","
","
","""event"",""trial"",""time""
""fullscreenenter"",""1"",""12089""
","
","","","","","","null","<div style=""font-size:60px;"">+</div>","null","","fixation","","","","","","","","","","",""
"aa-learning-trial","97","482676","0.0-9.0-2.0-1.12","6416","1","12","Female","approach_avoid_spark_v1","""event"",""trial"",""time""
""fullscreenenter"",""1"",""12089""
","
","
","""event"",""trial"",""time""
""fullscreenenter"",""1"",""12089""
","
","","","","","","727.7000000476837","images/banana6.png","","","learning","5","5","1","1","banana","fruit","1","0","","good","[5]"
"html-keyboard-response","98","483185","0.0-9.0-2.0-0.13","6416","1","12","Female","approach_avoid_spark_v1","""event"",""trial"",""time""
""fullscreenenter"",""1"",""12089""
","
","
","""event"",""trial"",""time""
""fullscreenenter"",""1"",""12089""
","
","","","","","","null","<div style=""font-size:60px;"">+</div>","null","","fixation","","","","","","","","","","",""
"aa-learning-trial","99","486190","0.0-9.0-2.0-1.13","6416","1","12","Female","approach_avoid_spark_v1","""event"",""trial"",""time""
""fullscreenenter"",""1"",""12089""
","
","
","""event"",""trial"",""time""
""fullscreenenter"",""1"",""12089""
","
","","","","","","969.0999999046326","images/straw1.png","","","learning","-1","0","0","0","straw","fruit","1","0","","neutral","0"
"html-keyboard-response","100","486700","0.0-9.0-2.0-0.14","6416","1","12","Female","approach_avoid_spark_v1","""event"",""trial"",""time""
""fullscreenenter"",""1"",""12089""
","
","
","""event"",""trial"",""time""
""fullscreenenter"",""1"",""12089""
","
","","","","","","null","<div style=""font-size:60px;"">+</div>","null","","fixation","","","","","","","","","","",""
"aa-learning-trial","101","489705","0.0-9.0-2.0-1.14","6416","1","12","Female","approach_avoid_spark_v1","""event"",""trial"",""time""
""fullscreenenter"",""1"",""12089""
","
","
","""event"",""trial"",""time""
""fullscreenenter"",""1"",""12089""
","
","","","","","","1333.9000000953674","images/straw6.png","","","learning","[-1]","0","0","0","straw","fruit","1","0","","neutral","0"
"html-keyboard-response","102","490213","0.0-9.0-2.0-0.15","6416","1","12","Female","approach_avoid_spark_v1","""event"",""trial"",""time""
""fullscreenenter"",""1"",""12089""
","
","
","""event"",""trial"",""time""
""fullscreenenter"",""1"",""12089""
","
","","","","","","null","<div style=""font-size:60px;"">+</div>","null","","fixation","","","","","","","","","","",""
"aa-learning-trial","103","493221","0.0-9.0-2.0-1.15","6416","1","12","Female","approach_avoid_spark_v1","""event"",""trial"",""time""
""fullscreenenter"",""1"",""12089""
","
","
","""event"",""trial"",""time""
""fullscreenenter"",""1"",""12089""
","
","","","","","","1091.7999999523163","images/banana1.png","","","learning","6","0","0","0","banana","fruit","1","0","","good","[5]"
"html-keyboard-response","104","493735","0.0-9.0-2.0-0.16","6416","1","12","Female","approach_avoid_spark_v1","""event"",""trial"",""time""
""fullscreenenter"",""1"",""12089""
","
","
","""event"",""trial"",""time""
""fullscreenenter"",""1"",""12089""
","
","","","","","","null","<div style=""font-size:60px;"">+</div>","null","","fixation","","","","","","","","","","",""
"aa-learning-trial","105","496739","0.0-9.0-2.0-1.16","6416","1","12","Female","approach_avoid_spark_v1","""event"",""trial"",""time""
""fullscreenenter"",""1"",""12089""
","
","
","""event"",""trial"",""time""
""fullscreenenter"",""1"",""12089""
","
","","","","","","1053.2999999523163","images/apple1.png","","","learning","-3","0","0","0","apple","fruit","1","0","","bad","[-3]"
"html-keyboard-response","106","497243","0.0-9.0-2.0-0.17","6416","1","12","Female","approach_avoid_spark_v1","""event"",""trial"",""time""
""fullscreenenter"",""1"",""12089""
","
","
","""event"",""trial"",""time""
""fullscreenenter"",""1"",""12089""
","
","","","","","","null","<div style=""font-size:60px;"">+</div>","null","","fixation","","","","","","","","","","",""
"aa-learning-trial","107","500263","0.0-9.0-2.0-1.17","6416","1","12","Female","approach_avoid_spark_v1","""event"",""trial"",""time""
""fullscreenenter"",""1"",""12089""
","
","
","""event"",""trial"",""time""
""fullscreenenter"",""1"",""12089""
","
","","","","","","867.2999999523163","images/apple3.png","","","learning","-2","0","0","0","apple","fruit","1","0","","bad","[-3]"
"html-keyboard-response","108","500767","0.0-9.0-2.0-0.18","6416","1","12","Female","approach_avoid_spark_v1","""event"",""trial"",""time""
""fullscreenenter"",""1"",""12089""
","
","
","""event"",""trial"",""time""
""fullscreenenter"",""1"",""12089""
","
","","","","","","null","<div style=""font-size:60px;"">+</div>","null","","fixation","","","","","","","","","","",""
"aa-learning-trial","109","503777","0.0-9.0-2.0-1.18","6416","1","12","Female","approach_avoid_spark_v1","""event"",""trial"",""time""
""fullscreenenter"",""1"",""12089""
","
","
","""event"",""trial"",""time""
""fullscreenenter"",""1"",""12089""
","
","","","","","","682.7000000476837","images/straw6.png","","","learning","[-1]","-1","1","1","straw","fruit","1","0","","neutral","0"
"html-keyboard-response","110","504284","0.0-9.0-2.0-0.19","6416","1","12","Female","approach_avoid_spark_v1","""event"",""trial"",""time""
""fullscreenenter"",""1"",""12089""
","
","
","""event"",""trial"",""time""
""fullscreenenter"",""1"",""12089""
","
","","","","","","null","<div style=""font-size:60px;"">+</div>","null","","fixation","","","","","","","","","","",""
"aa-learning-trial","111","507287","0.0-9.0-2.0-1.19","6416","1","12","Female","approach_avoid_spark_v1","""event"",""trial"",""time""
""fullscreenenter"",""1"",""12089""
","
","
","""event"",""trial"",""time""
""fullscreenenter"",""1"",""12089""
","
","","","","","","1194.4000000953674","images/apple4.png","","","learning","-4","0","0","0","apple","fruit","1","0","","bad","[-3]"
"html-keyboard-response","112","507790","0.0-9.0-2.0-0.20","6416","1","12","Female","approach_avoid_spark_v1","""event"",""trial"",""time""
""fullscreenenter"",""1"",""12089""
","
","
","""event"",""trial"",""time""
""fullscreenenter"",""1"",""12089""
","
","","","","","","null","<div style=""font-size:60px;"">+</div>","null","","fixation","","","","","","","","","","",""
"aa-learning-trial","113","510797","0.0-9.0-2.0-1.20","6416","1","12","Female","approach_avoid_spark_v1","""event"",""trial"",""time""
""fullscreenenter"",""1"",""12089""
","
","
","""event"",""trial"",""time""
""fullscreenenter"",""1"",""12089""
","
","","","","","","1324.4000000953674","images/straw6.png","","","learning","3","0","0","0","straw","fruit","1","0","","neutral","0"
"html-keyboard-response","114","511303","0.0-9.0-2.0-0.21","6416","1","12","Female","approach_avoid_spark_v1","""event"",""trial"",""time""
""fullscreenenter"",""1"",""12089""
","
","
","""event"",""trial"",""time""
""fullscreenenter"",""1"",""12089""
","
","","","","","","null","<div style=""font-size:60px;"">+</div>","null","","fixation","","","","","","","","","","",""
"aa-learning-trial","115","514313","0.0-9.0-2.0-1.21","6416","1","12","Female","approach_avoid_spark_v1","""event"",""trial"",""time""
""fullscreenenter"",""1"",""12089""
","
","
","""event"",""trial"",""time""
""fullscreenenter"",""1"",""12089""
","
","","","","","","907.7999999523163","images/straw1.png","","","learning","1","1","1","1","straw","fruit","1","0","","neutral","0"
"html-keyboard-response","116","514819","0.0-9.0-2.0-0.22","6416","1","12","Female","approach_avoid_spark_v1","""event"",""trial"",""time""
""fullscreenenter"",""1"",""12089""
","
","
","""event"",""trial"",""time""
""fullscreenenter"",""1"",""12089""
","
","","","","","","null","<div style=""font-size:60px;"">+</div>","null","","fixation","","","","","","","","","","",""
"aa-learning-trial","117","517833","0.0-9.0-2.0-1.22","6416","1","12","Female","approach_avoid_spark_v1","""event"",""trial"",""time""
""fullscreenenter"",""1"",""12089""
","
","
","""event"",""trial"",""time""
""fullscreenenter"",""1"",""12089""
","
","","","","","","940.5","images/straw2.png","","","learning","3","3","1","1","straw","fruit","1","0","","neutral","0"
"html-keyboard-response","118","518336","0.0-9.0-2.0-0.23","6416","1","12","Female","approach_avoid_spark_v1","""event"",""trial"",""time""
""fullscreenenter"",""1"",""12089""
","
","
","""event"",""trial"",""time""
""fullscreenenter"",""1"",""12089""
","
","","","","","","null","<div style=""font-size:60px;"">+</div>","null","","fixation","","","","","","","","","","",""
"aa-learning-trial","119","521343","0.0-9.0-2.0-1.23","6416","1","12","Female","approach_avoid_spark_v1","""event"",""trial"",""time""
""fullscreenenter"",""1"",""12089""
","
","
","""event"",""trial"",""time""
""fullscreenenter"",""1"",""12089""
","
","","","","","","986.7000000476837","images/banana7.png","","","learning","4","4","1","1","banana","fruit","1","0","","good","[5]"
"html-keyboard-response","120","521850","0.0-9.0-2.0-0.24","6416","1","12","Female","approach_avoid_spark_v1","""event"",""trial"",""time""
""fullscreenenter"",""1"",""12089""
","
","
","""event"",""trial"",""time""
""fullscreenenter"",""1"",""12089""
","
","","","","","","null","<div style=""font-size:60px;"">+</div>","null","","fixation","","","","","","","","","","",""
"aa-learning-trial","121","524853","0.0-9.0-2.0-1.24","6416","1","12","Female","approach_avoid_spark_v1","""event"",""trial"",""time""
""fullscreenenter"",""1"",""12089""
","
","
","""event"",""trial"",""time""
""fullscreenenter"",""1"",""12089""
","
","","","","","","1320.7000000476837","images/straw5.png","","","learning","-1","-1","1","1","straw","fruit","1","0","","neutral","0"
"html-keyboard-response","122","525367","0.0-9.0-2.0-0.25","6416","1","12","Female","approach_avoid_spark_v1","""event"",""trial"",""time""
""fullscreenenter"",""1"",""12089""
","
","
","""event"",""trial"",""time""
""fullscreenenter"",""1"",""12089""
","
","","","","","","null","<div style=""font-size:60px;"">+</div>","null","","fixation","","","","","","","","","","",""
"aa-learning-trial","123","528370","0.0-9.0-2.0-1.25","6416","1","12","Female","approach_avoid_spark_v1","""event"",""trial"",""time""
""fullscreenenter"",""1"",""12089""
","
","
","""event"",""trial"",""time""
""fullscreenenter"",""1"",""12089""
","
","","","","","","845.1000001430511","images/banana7.png","","","learning","4","4","1","1","banana","fruit","1","0","","good","[5]"
"html-keyboard-response","124","528880","0.0-9.0-2.0-0.26","6416","1","12","Female","approach_avoid_spark_v1","""event"",""trial"",""time""
""fullscreenenter"",""1"",""12089""
","
","
","""event"",""trial"",""time""
""fullscreenenter"",""1"",""12089""
","
","","","","","","null","<div style=""font-size:60px;"">+</div>","null","","fixation","","","","","","","","","","",""
"aa-learning-trial","125","531893","0.0-9.0-2.0-1.26","6416","1","12","Female","approach_avoid_spark_v1","""event"",""trial"",""time""
""fullscreenenter"",""1"",""12089""
","
","
","""event"",""trial"",""time""
""fullscreenenter"",""1"",""12089""
","
","","","","","","776.1000001430511","images/straw2.png","","","learning","-2","0","0","0","straw","fruit","1","0","","neutral","0"
"html-keyboard-response","126","532404","0.0-9.0-2.0-0.27","6416","1","12","Female","approach_avoid_spark_v1","""event"",""trial"",""time""
""fullscreenenter"",""1"",""12089""
","
","
","""event"",""trial"",""time""
""fullscreenenter"",""1"",""12089""
","
","","","","","","null","<div style=""font-size:60px;"">+</div>","null","","fixation","","","","","","","","","","",""
"aa-learning-trial","127","535411","0.0-9.0-2.0-1.27","6416","1","12","Female","approach_avoid_spark_v1","""event"",""trial"",""time""
""fullscreenenter"",""1"",""12089""
","
","
","""event"",""trial"",""time""
""fullscreenenter"",""1"",""12089""
","
","","","","","","609.2000000476837","images/apple3.png","","","learning","-2","0","0","0","apple","fruit","1","0","","bad","[-3]"
"html-keyboard-response","128","535924","0.0-9.0-2.0-0.28","6416","1","12","Female","approach_avoid_spark_v1","""event"",""trial"",""time""
""fullscreenenter"",""1"",""12089""
","
","
","""event"",""trial"",""time""
""fullscreenenter"",""1"",""12089""
","
","","","","","","null","<div style=""font-size:60px;"">+</div>","null","","fixation","","","","","","","","","","",""
"aa-learning-trial","129","538935","0.0-9.0-2.0-1.28","6416","1","12","Female","approach_avoid_spark_v1","""event"",""trial"",""time""
""fullscreenenter"",""1"",""12089""
","
","
","""event"",""trial"",""time""
""fullscreenenter"",""1"",""12089""
","
","","","","","","715.7999999523163","images/apple3.png","","","learning","-3","0","0","0","apple","fruit","1","0","","bad","[-3]"
"html-keyboard-response","130","539440","0.0-9.0-2.0-0.29","6416","1","12","Female","approach_avoid_spark_v1","""event"",""trial"",""time""
""fullscreenenter"",""1"",""12089""
","
","
","""event"",""trial"",""time""
""fullscreenenter"",""1"",""12089""
","
","","","","","","null","<div style=""font-size:60px;"">+</div>","null","","fixation","","","","","","","","","","",""
"aa-learning-trial","131","542448","0.0-9.0-2.0-1.29","6416","1","12","Female","approach_avoid_spark_v1","""event"",""trial"",""time""
""fullscreenenter"",""1"",""12089""
","
","
","""event"",""trial"",""time""
""fullscreenenter"",""1"",""12089""
","
","","","","","","1433.8999998569489","images/banana4.png","","","learning","5","5","1","1","banana","fruit","1","0","","good","[5]"
"html-keyboard-response","132","542957","0.0-9.0-2.0-0.30","6416","1","12","Female","approach_avoid_spark_v1","""event"",""trial"",""time""
""fullscreenenter"",""1"",""12089""
","
","
","""event"",""trial"",""time""
""fullscreenenter"",""1"",""12089""
","
","","","","","","null","<div style=""font-size:60px;"">+</div>","null","","fixation","","","","","","","","","","",""
"aa-learning-trial","133","545970","0.0-9.0-2.0-1.30","6416","1","12","Female","approach_avoid_spark_v1","""event"",""trial"",""time""
""fullscreenenter"",""1"",""12089""
","
","
","""event"",""trial"",""time""
""fullscreenenter"",""1"",""12089""
","
","","","","","","1505.1000001430511","images/apple1.png","","","learning","-2","0","0","0","apple","fruit","1","0","","bad","[-3]"
"html-keyboard-response","134","546481","0.0-9.0-2.0-0.31","6416","1","12","Female","approach_avoid_spark_v1","""event"",""trial"",""time""
""fullscreenenter"",""1"",""12089""
","
","
","""event"",""trial"",""time""
""fullscreenenter"",""1"",""12089""
","
","","","","","","null","<div style=""font-size:60px;"">+</div>","null","","fixation","","","","","","","","","","",""
"aa-learning-trial","135","549491","0.0-9.0-2.0-1.31","6416","1","12","Female","approach_avoid_spark_v1","""event"",""trial"",""time""
""fullscreenenter"",""1"",""12089""
","
","
","""event"",""trial"",""time""
""fullscreenenter"",""1"",""12089""
","
","","","","","","910.8000001907349","images/banana6.png","","","learning","5","5","1","1","banana","fruit","1","0","","good","[5]"
"html-keyboard-response","136","549999","0.0-9.0-2.0-0.32","6416","1","12","Female","approach_avoid_spark_v1","""event"",""trial"",""time""
""fullscreenenter"",""1"",""12089""
","
","
","""event"",""trial"",""time""
""fullscreenenter"",""1"",""12089""
","
","","","","","","null","<div style=""font-size:60px;"">+</div>","null","","fixation","","","","","","","","","","",""
"aa-learning-trial","137","553002","0.0-9.0-2.0-1.32","6416","1","12","Female","approach_avoid_spark_v1","""event"",""trial"",""time""
""fullscreenenter"",""1"",""12089""
","
","
","""event"",""trial"",""time""
""fullscreenenter"",""1"",""12089""
","
","","","","","","695.0999999046326","images/banana6.png","","","learning","5","5","1","1","banana","fruit","1","0","","good","[5]"
"html-keyboard-response","138","553512","0.0-9.0-2.0-0.33","6416","1","12","Female","approach_avoid_spark_v1","""event"",""trial"",""time""
""fullscreenenter"",""1"",""12089""
","
","
","""event"",""trial"",""time""
""fullscreenenter"",""1"",""12089""
","
","","","","","","null","<div style=""font-size:60px;"">+</div>","null","","fixation","","","","","","","","","","",""
"aa-learning-trial","139","556514","0.0-9.0-2.0-1.33","6416","1","12","Female","approach_avoid_spark_v1","""event"",""trial"",""time""
""fullscreenenter"",""1"",""12089""
","
","
","""event"",""trial"",""time""
""fullscreenenter"",""1"",""12089""
","
","","","","","","1762.3000001907349","images/banana7.png","","","learning","4","4","1","1","banana","fruit","1","0","","good","[5]"
"html-keyboard-response","140","557020","0.0-9.0-2.0-0.34","6416","1","12","Female","approach_avoid_spark_v1","""event"",""trial"",""time""
""fullscreenenter"",""1"",""12089""
","
","
","""event"",""trial"",""time""
""fullscreenenter"",""1"",""12089""
","
","","","","","","null","<div style=""font-size:60px;"">+</div>","null","","fixation","","","","","","","","","","",""
"aa-learning-trial","141","560025","0.0-9.0-2.0-1.34","6416","1","12","Female","approach_avoid_spark_v1","""event"",""trial"",""time""
""fullscreenenter"",""1"",""12089""
","
","
","""event"",""trial"",""time""
""fullscreenenter"",""1"",""12089""
","
","","","","","","895.2999999523163","images/banana7.png","","","learning","6","6","1","1","banana","fruit","1","0","","good","[5]"
"html-keyboard-response","142","560526","0.0-9.0-2.0-0.35","6416","1","12","Female","approach_avoid_spark_v1","""event"",""trial"",""time""
""fullscreenenter"",""1"",""12089""
","
","
","""event"",""trial"",""time""
""fullscreenenter"",""1"",""12089""
","
","","","","","","null","<div style=""font-size:60px;"">+</div>","null","","fixation","","","","","","","","","","",""
"aa-learning-trial","143","563531","0.0-9.0-2.0-1.35","6416","1","12","Female","approach_avoid_spark_v1","""event"",""trial"",""time""
""fullscreenenter"",""1"",""12089""
","
","
","""event"",""trial"",""time""
""fullscreenenter"",""1"",""12089""
","
","","","","","","797.3000001907349","images/apple1.png","","","learning","-3","0","0","0","apple","fruit","1","0","","bad","[-3]"
"html-keyboard-response","144","564046","0.0-9.0-2.0-0.36","6416","1","12","Female","approach_avoid_spark_v1","""event"",""trial"",""time""
""fullscreenenter"",""1"",""12089""
","
","
","""event"",""trial"",""time""
""fullscreenenter"",""1"",""12089""
","
","","","","","","null","<div style=""font-size:60px;"">+</div>","null","","fixation","","","","","","","","","","",""
"aa-learning-trial","145","567057","0.0-9.0-2.0-1.36","6416","1","12","Female","approach_avoid_spark_v1","""event"",""trial"",""time""
""fullscreenenter"",""1"",""12089""
","
","
","""event"",""trial"",""time""
""fullscreenenter"",""1"",""12089""
","
","","","","","","889.9000000953674","images/straw1.png","","","learning","[1]","1","1","1","straw","fruit","1","0","","neutral","0"
"html-keyboard-response","146","567563","0.0-9.0-2.0-0.37","6416","1","12","Female","approach_avoid_spark_v1","""event"",""trial"",""time""
""fullscreenenter"",""1"",""12089""
","
","
","""event"",""trial"",""time""
""fullscreenenter"",""1"",""12089""
","
","","","","","","null","<div style=""font-size:60px;"">+</div>","null","","fixation","","","","","","","","","","",""
"aa-learning-trial","147","570570","0.0-9.0-2.0-1.37","6416","1","12","Female","approach_avoid_spark_v1","""event"",""trial"",""time""
""fullscreenenter"",""1"",""12089""
","
","
","""event"",""trial"",""time""
""fullscreenenter"",""1"",""12089""
","
","","","","","","726.5","images/apple2.png","","","learning","-2","0","0","0","apple","fruit","1","0","","bad","[-3]"
"html-keyboard-response","148","571086","0.0-9.0-2.0-0.38","6416","1","12","Female","approach_avoid_spark_v1","""event"",""trial"",""time""
""fullscreenenter"",""1"",""12089""
","
","
","""event"",""trial"",""time""
""fullscreenenter"",""1"",""12089""
","
","","","","","","null","<div style=""font-size:60px;"">+</div>","null","","fixation","","","","","","","","","","",""
"aa-learning-trial","149","574099","0.0-9.0-2.0-1.38","6416","1","12","Female","approach_avoid_spark_v1","""event"",""trial"",""time""
""fullscreenenter"",""1"",""12089""
","
","
","""event"",""trial"",""time""
""fullscreenenter"",""1"",""12089""
","
","","","","","","1005.7000000476837","images/apple7.png","","","learning","-1","-1","1","1","apple","fruit","1","0","","bad","[-3]"
"html-keyboard-response","150","574606","0.0-9.0-2.0-0.39","6416","1","12","Female","approach_avoid_spark_v1","""event"",""trial"",""time""
""fullscreenenter"",""1"",""12089""
","
","
","""event"",""trial"",""time""
""fullscreenenter"",""1"",""12089""
","
","","","","","","null","<div style=""font-size:60px;"">+</div>","null","","fixation","","","","","","","","","","",""
"aa-learning-trial","151","577611","0.0-9.0-2.0-1.39","6416","1","12","Female","approach_avoid_spark_v1","""event"",""trial"",""time""
""fullscreenenter"",""1"",""12089""
","
","
","""event"",""trial"",""time""
""fullscreenenter"",""1"",""12089""
","
","","","","","","1098.7000000476837","images/straw4.png","","","learning","[-1]","0","0","0","straw","fruit","1","0","","neutral","0"
"html-keyboard-response","152","578123","0.0-9.0-2.0-0.40","6416","1","12","Female","approach_avoid_spark_v1","""event"",""trial"",""time""
""fullscreenenter"",""1"",""12089""
","
","
","""event"",""trial"",""time""
""fullscreenenter"",""1"",""12089""
","
","","","","","","null","<div style=""font-size:60px;"">+</div>","null","","fixation","","","","","","","","","","",""
"aa-learning-trial","153","581130","0.0-9.0-2.0-1.40","6416","1","12","Female","approach_avoid_spark_v1","""event"",""trial"",""time""
""fullscreenenter"",""1"",""12089""
","
","
","""event"",""trial"",""time""
""fullscreenenter"",""1"",""12089""
","
","","","","","","855.3999998569489","images/banana8.png","","","learning","4","4","1","1","banana","fruit","1","0","","good","[5]"
"html-keyboard-response","154","581640","0.0-9.0-2.0-0.41","6416","1","12","Female","approach_avoid_spark_v1","""event"",""trial"",""time""
""fullscreenenter"",""1"",""12089""
","
","
","""event"",""trial"",""time""
""fullscreenenter"",""1"",""12089""
","
","","","","","","null","<div style=""font-size:60px;"">+</div>","null","","fixation","","","","","","","","","","",""
"aa-learning-trial","155","584648","0.0-9.0-2.0-1.41","6416","1","12","Female","approach_avoid_spark_v1","""event"",""trial"",""time""
""fullscreenenter"",""1"",""12089""
","
","
","""event"",""trial"",""time""
""fullscreenenter"",""1"",""12089""
","
","","","","","","865.4000000953674","images/straw1.png","","","learning","1","1","1","1","straw","fruit","1","0","","neutral","0"
"html-keyboard-response","156","585157","0.0-9.0-2.0-0.42","6416","1","12","Female","approach_avoid_spark_v1","""event"",""trial"",""time""
""fullscreenenter"",""1"",""12089""
","
","
","""event"",""trial"",""time""
""fullscreenenter"",""1"",""12089""
","
","","","","","","null","<div style=""font-size:60px;"">+</div>","null","","fixation","","","","","","","","","","",""
"aa-learning-trial","157","588170","0.0-9.0-2.0-1.42","6416","1","12","Female","approach_avoid_spark_v1","""event"",""trial"",""time""
""fullscreenenter"",""1"",""12089""
","
","
","""event"",""trial"",""time""
""fullscreenenter"",""1"",""12089""
","
","","","","","","705.7999999523163","images/banana4.png","","","learning","5","5","1","1","banana","fruit","1","0","","good","[5]"
"html-keyboard-response","158","588673","0.0-9.0-2.0-0.43","6416","1","12","Female","approach_avoid_spark_v1","""event"",""trial"",""time""
""fullscreenenter"",""1"",""12089""
","
","
","""event"",""trial"",""time""
""fullscreenenter"",""1"",""12089""
","
","","","","","","null","<div style=""font-size:60px;"">+</div>","null","","fixation","","","","","","","","","","",""
"aa-learning-trial","159","591680","0.0-9.0-2.0-1.43","6416","1","12","Female","approach_avoid_spark_v1","""event"",""trial"",""time""
""fullscreenenter"",""1"",""12089""
","
","
","""event"",""trial"",""time""
""fullscreenenter"",""1"",""12089""
","
","","","","","","738.7000000476837","images/straw2.png","","","learning","1","0","0","0","straw","fruit","1","0","","neutral","0"
"html-keyboard-response","160","592184","0.0-9.0-2.0-0.44","6416","1","12","Female","approach_avoid_spark_v1","""event"",""trial"",""time""
""fullscreenenter"",""1"",""12089""
","
","
","""event"",""trial"",""time""
""fullscreenenter"",""1"",""12089""
","
","","","","","","null","<div style=""font-size:60px;"">+</div>","null","","fixation","","","","","","","","","","",""
"aa-learning-trial","161","595189","0.0-9.0-2.0-1.44","6416","1","12","Female","approach_avoid_spark_v1","""event"",""trial"",""time""
""fullscreenenter"",""1"",""12089""
","
","
","""event"",""trial"",""time""
""fullscreenenter"",""1"",""12089""
","
","","","","","","1062.5","images/straw2.png","","","learning","2","2","1","1","straw","fruit","1","0","","neutral","0"
"html-keyboard-response","162","595703","0.0-9.0-2.0-0.45","6416","1","12","Female","approach_avoid_spark_v1","""event"",""trial"",""time""
""fullscreenenter"",""1"",""12089""
","
","
","""event"",""trial"",""time""
""fullscreenenter"",""1"",""12089""
","
","","","","","","null","<div style=""font-size:60px;"">+</div>","null","","fixation","","","","","","","","","","",""
"aa-learning-trial","163","598712","0.0-9.0-2.0-1.45","6416","1","12","Female","approach_avoid_spark_v1","""event"",""trial"",""time""
""fullscreenenter"",""1"",""12089""
","
","
","""event"",""trial"",""time""
""fullscreenenter"",""1"",""12089""
","
","","","","","","633","images/banana6.png","","","learning","3","3","1","1","banana","fruit","1","0","","good","[5]"
"html-keyboard-response","164","599220","0.0-9.0-2.0-0.46","6416","1","12","Female","approach_avoid_spark_v1","""event"",""trial"",""time""
""fullscreenenter"",""1"",""12089""
","
","
","""event"",""trial"",""time""
""fullscreenenter"",""1"",""12089""
","
","","","","","","null","<div style=""font-size:60px;"">+</div>","null","","fixation","","","","","","","","","","",""
"aa-learning-trial","165","602233","0.0-9.0-2.0-1.46","6416","1","12","Female","approach_avoid_spark_v1","""event"",""trial"",""time""
""fullscreenenter"",""1"",""12089""
","
","
","""event"",""trial"",""time""
""fullscreenenter"",""1"",""12089""
","
","","","","","","666.8999998569489","images/apple3.png","","","learning","-2","0","0","0","apple","fruit","1","0","","bad","[-3]"
"html-keyboard-response","166","602746","0.0-9.0-2.0-0.47","6416","1","12","Female","approach_avoid_spark_v1","""event"",""trial"",""time""
""fullscreenenter"",""1"",""12089""
","
","
","""event"",""trial"",""time""
""fullscreenenter"",""1"",""12089""
","
","","","","","","null","<div style=""font-size:60px;"">+</div>","null","","fixation","","","","","","","","","","",""
"aa-learning-trial","167","605753","0.0-9.0-2.0-1.47","6416","1","12","Female","approach_avoid_spark_v1","""event"",""trial"",""time""
""fullscreenenter"",""1"",""12089""
","
","
","""event"",""trial"",""time""
""fullscreenenter"",""1"",""12089""
","
","","","","","","1198.6000001430511","images/straw1.png","","","learning","1","1","1","1","straw","fruit","1","0","","neutral","0"
"html-keyboard-response","168","606260","0.0-9.0-2.0-0.48","6416","1","12","Female","approach_avoid_spark_v1","""event"",""trial"",""time""
""fullscreenenter"",""1"",""12089""
","
","
","""event"",""trial"",""time""
""fullscreenenter"",""1"",""12089""
","
","","","","","","null","<div style=""font-size:60px;"">+</div>","null","","fixation","","","","","","","","","","",""
"aa-learning-trial","169","609263","0.0-9.0-2.0-1.48","6416","1","12","Female","approach_avoid_spark_v1","""event"",""trial"",""time""
""fullscreenenter"",""1"",""12089""
","
","
","""event"",""trial"",""time""
""fullscreenenter"",""1"",""12089""
","
","","","","","","1047.7000000476837","images/banana6.png","","","learning","5","5","1","1","banana","fruit","1","0","","good","[5]"
"html-keyboard-response","170","609781","0.0-9.0-2.0-0.49","6416","1","12","Female","approach_avoid_spark_v1","""event"",""trial"",""time""
""fullscreenenter"",""1"",""12089""
","
","
","""event"",""trial"",""time""
""fullscreenenter"",""1"",""12089""
","
","","","","","","null","<div style=""font-size:60px;"">+</div>","null","","fixation","","","","","","","","","","",""
"aa-learning-trial","171","612789","0.0-9.0-2.0-1.49","6416","1","12","Female","approach_avoid_spark_v1","""event"",""trial"",""time""
""fullscreenenter"",""1"",""12089""
","
","
","""event"",""trial"",""time""
""fullscreenenter"",""1"",""12089""
","
","","","","","","819.8000001907349","images/apple4.png","","","learning","-3","0","0","0","apple","fruit","1","0","","bad","[-3]"
"html-keyboard-response","172","613293","0.0-9.0-2.0-0.50","6416","1","12","Female","approach_avoid_spark_v1","""event"",""trial"",""time""
""fullscreenenter"",""1"",""12089""
","
","
","""event"",""trial"",""time""
""fullscreenenter"",""1"",""12089""
","
","","","","","","null","<div style=""font-size:60px;"">+</div>","null","","fixation","","","","","","","","","","",""
"aa-learning-trial","173","616297","0.0-9.0-2.0-1.50","6416","1","12","Female","approach_avoid_spark_v1","""event"",""trial"",""time""
""fullscreenenter"",""1"",""12089""
","
","
","""event"",""trial"",""time""
""fullscreenenter"",""1"",""12089""
","
","","","","","","1303.8999998569489","images/apple1.png","","","learning","-3","0","0","0","apple","fruit","1","0","","bad","[-3]"
"html-button-response","174","620117","0.0-9.0-3.0","6416","1","12","Female","approach_avoid_spark_v1","""event"",""trial"",""time""
""fullscreenenter"",""1"",""12089""
","
","
","""event"",""trial"",""time""
""fullscreenenter"",""1"",""12089""
","
","","","","","","3817.9000000953674","<p> You have completed the round! <p> In this round, you earned 74 points! </p>","0","","break","","","","","","","","","","",""
"html-button-response","175","623309","0.0-10.0","6416","1","12","Female","approach_avoid_spark_v1","""event"",""trial"",""time""
""fullscreenenter"",""1"",""12089""
","
","
","""event"",""trial"",""time""
""fullscreenenter"",""1"",""12089""
","
","","","","","","3198.4000000953674","<p> Now it's time to play another round. </p>","0","","transition_screen","","","","","","","","","","",""
"preload","176","623441","0.0-11.0-0.0","6416","1","12","Female","approach_avoid_spark_v1","""event"",""trial"",""time""
""fullscreenenter"",""1"",""12089""
","
","
","""event"",""trial"",""time""
""fullscreenenter"",""1"",""12089""
","
","true","false","[]","[]","[]","","","","","","","","","","","","","","","",""
"learning-instructions","177","632266","0.0-11.0-1.0-0.0","6416","1","12","Female","approach_avoid_spark_v1","""event"",""trial"",""time""
""fullscreenenter"",""1"",""12089""
","
","
","""event"",""trial"",""time""
""fullscreenenter"",""1"",""12089""
","
","","","","","","1349.7999999523163","<p> Your goal in this round is to take your friend for rides in different vehicles. </p></div>","","0","instructions","","","","","","","","","","",""
"learning-instructions","178","645586","0.0-11.0-1.0-0.1","6416","1","12","Female","approach_avoid_spark_v1","""event"",""trial"",""time""
""fullscreenenter"",""1"",""12089""
","
","
","""event"",""trial"",""time""
""fullscreenenter"",""1"",""12089""
","
","","","","","","1101.0999999046326","<p> Your friend enjoys riding in some vehicles but not in others.  </p><p> On each turn, you will see a vehicle.   </p><p> You need to decide whether to take your friend for a ride or not.  </p>","","0","instructions","","","","","","","","","","",""
"learning-instructions","179","654106","0.0-11.0-1.0-0.2","6416","1","12","Female","approach_avoid_spark_v1","""event"",""trial"",""time""
""fullscreenenter"",""1"",""12089""
","
","
","""event"",""trial"",""time""
""fullscreenenter"",""1"",""12089""
","
","","","","","","979.7000000476837","<p> You can take your friend for a ride in the vehicle by pressing 1 and skip the ride by pressing 0. </p><br><div class=""choice-instructions-grid""> <div class=""choice-option""><img src=""images/approach.png"" class=""choice-option-img"" stage=""instructions"" position=""0"" ><div class=""choice-option-text""> Press ""1."" </div></div><div class=""choice-option""><img src=""images/avoid.png"" class=""choice-option-img"" stage=""instructions"" position=""1"" ><div class=""choice-option-text""> Press ""0."" </div></div>","","0","instructions","","","","","","","","","","",""
"learning-instructions","180","665896","0.0-11.0-1.0-0.3","6416","1","12","Female","approach_avoid_spark_v1","""event"",""trial"",""time""
""fullscreenenter"",""1"",""12089""
","
","
","""event"",""trial"",""time""
""fullscreenenter"",""1"",""12089""
","
","","","","","","2230.0999999046326","<p> If you take them for a ride in a vehicle they like, they will be thrilled! </p><p> But if you take them for a ride in a vehicle they do not like, they will be upset. </p>","","0","instructions","","","","","","","","","","",""
"learning-instructions","181","679046","0.0-11.0-1.0-0.4","6416","1","12","Female","approach_avoid_spark_v1","""event"",""trial"",""time""
""fullscreenenter"",""1"",""12089""
","
","
","""event"",""trial"",""time""
""fullscreenenter"",""1"",""12089""
","
","","","","","","810.8999998569489","<p> You will earn points based on how you made your friend feel. </p><p> If you made him thrilled, you will WIN anywhere from 1 - 9 points, </p><p> but if you made him upset, you will LOSE anywhere from 1 - 9 points. </p>","","0","instructions","","","","","","","","","","",""
"learning-instructions","182","686431","0.0-11.0-1.0-0.5","6416","1","12","Female","approach_avoid_spark_v1","""event"",""trial"",""time""
""fullscreenenter"",""1"",""12089""
","
","
","""event"",""trial"",""time""
""fullscreenenter"",""1"",""12089""
","
","","","","","","710.7000000476837","<p> You will see how many points you won or lost in the center of the screen. </p><p> Here is what you would see if you won 5 points: </p><p style=""color:green;font-size:50px;font-weight:bolder"">5</p>","","0","instructions","","","","","","","","","","",""
"learning-instructions","183","689872","0.0-11.0-1.0-0.6","6416","1","12","Female","approach_avoid_spark_v1","""event"",""trial"",""time""
""fullscreenenter"",""1"",""12089""
","
","
","""event"",""trial"",""time""
""fullscreenenter"",""1"",""12089""
","
","","","","","","601.2000000476837","<p> And here is what you would see if you lost 3 points: </p><p style=""color:red;font-size:50px;font-weight:bolder"">-3</p>","","0","instructions","","","","","","","","","","",""
"learning-instructions","184","707601","0.0-11.0-1.0-0.7","6416","1","12","Female","approach_avoid_spark_v1","""event"",""trial"",""time""
""fullscreenenter"",""1"",""12089""
","
","
","""event"",""trial"",""time""
""fullscreenenter"",""1"",""12089""
","
","","","","","","1400.0999999046326","<p> Some vehicles will make your friend REALLY thrilled or upset. </p><p> These vehicles will make you win or lose LOTS of points. </p><p> Other vehicles will only make him feel a little thrilled or upset. </p><p> These vehicles will make you win or lose small amounts of points. </p>","","0","instructions","","","","","","","","","","",""
"learning-instructions","185","720661","0.0-11.0-1.0-0.8","6416","1","12","Female","approach_avoid_spark_v1","""event"",""trial"",""time""
""fullscreenenter"",""1"",""12089""
","
","
","""event"",""trial"",""time""
""fullscreenenter"",""1"",""12089""
","
","","","","","","861","<p> If you choose to skip the ride, you will not win or lose any points. </p><p>  However, in the center of the screen, you will see the number of points you WOULD HAVE won or lost if you had taken your friend for a ride. </p>","","0","instructions","","","","","","","","","","",""
"learning-instructions","186","732581","0.0-11.0-1.0-0.9","6416","1","12","Female","approach_avoid_spark_v1","""event"",""trial"",""time""
""fullscreenenter"",""1"",""12089""
","
","
","""event"",""trial"",""time""
""fullscreenenter"",""1"",""12089""
","
","","","","","","819.7999999523163","<p> Here is what you might see if you did not take your friend for a ride but he would have enjoyed it: </p><p style=""color:grey; font-size:50px; display: inline-block; border-spacing: 15px; border-width:3px; border-style:solid; border-color:red"">  &nbsp; 6 &nbsp; </p><p> Remember, in this case, you would not win or lose ANY points because you skipped the ride.  </p>","","0","instructions","","","","","","","","","","",""
"learning-instructions","187","741531","0.0-11.0-1.0-0.10","6416","1","12","Female","approach_avoid_spark_v1","""event"",""trial"",""time""
""fullscreenenter"",""1"",""12089""
","
","
","""event"",""trial"",""time""
""fullscreenenter"",""1"",""12089""
","
","","","","","","1170.4000000953674","<p> Try to make the best choice for each vehicle because </p><p> at the end of the game, you will earn bonus money based on how many points you earned. </p>","","0","instructions","","","","","","","","","","",""
"learning-instructions","188","750481","0.0-11.0-1.0-0.11","6416","1","12","Female","approach_avoid_spark_v1","""event"",""trial"",""time""
""fullscreenenter"",""1"",""12089""
","
","
","""event"",""trial"",""time""
""fullscreenenter"",""1"",""12089""
","
","","","","","","750.5","<p> You will have 3 seconds to make each choice. Try to respond before time runs out! </p><p> You will lose 5 points each time you do not make a response. </p>","","0","instructions","","","","","","","","","","",""
"html-keyboard-response","189","751109","0.0-11.0-2.0-0.0","6416","1","12","Female","approach_avoid_spark_v1","""event"",""trial"",""time""
""fullscreenenter"",""1"",""12089""
","
","
","""event"",""trial"",""time""
""fullscreenenter"",""1"",""12089""
","
","","","","","","null","<div style=""font-size:60px;"">+</div>","null","","fixation","","","","","","","","","","",""
"aa-learning-trial","190","754129","0.0-11.0-2.0-1.0","6416","1","12","Female","approach_avoid_spark_v1","""event"",""trial"",""time""
""fullscreenenter"",""1"",""12089""
","
","
","""event"",""trial"",""time""
""fullscreenenter"",""1"",""12089""
","
","","","","","","1699.9000000953674","images/plane5.png","","","learning","8","0","0","0","plane","vehicles","2","1","","good","[6]"
"html-keyboard-response","191","754639","0.0-11.0-2.0-0.1","6416","1","12","Female","approach_avoid_spark_v1","""event"",""trial"",""time""
""fullscreenenter"",""1"",""12089""
","
","
","""event"",""trial"",""time""
""fullscreenenter"",""1"",""12089""
","
","","","","","","null","<div style=""font-size:60px;"">+</div>","null","","fixation","","","","","","","","","","",""
"aa-learning-trial","192","757660","0.0-11.0-2.0-1.1","6416","1","12","Female","approach_avoid_spark_v1","""event"",""trial"",""time""
""fullscreenenter"",""1"",""12089""
","
","
","""event"",""trial"",""time""
""fullscreenenter"",""1"",""12089""
","
","","","","","","770.9000000953674","images/boat6.png","","","learning","2","2","1","1","boat","vehicles","2","1","","neutral","0"
"html-keyboard-response","193","758169","0.0-11.0-2.0-0.2","6416","1","12","Female","approach_avoid_spark_v1","""event"",""trial"",""time""
""fullscreenenter"",""1"",""12089""
","
","
","""event"",""trial"",""time""
""fullscreenenter"",""1"",""12089""
","
","","","","","","null","<div style=""font-size:60px;"">+</div>","null","","fixation","","","","","","","","","","",""
"aa-learning-trial","194","761189","0.0-11.0-2.0-1.2","6416","1","12","Female","approach_avoid_spark_v1","""event"",""trial"",""time""
""fullscreenenter"",""1"",""12089""
","
","
","""event"",""trial"",""time""
""fullscreenenter"",""1"",""12089""
","
","","","","","","748.5999999046326","images/train1.png","","","learning","-6","0","0","0","train","vehicles","2","1","","bad","[-6]"
"html-keyboard-response","195","761709","0.0-11.0-2.0-0.3","6416","1","12","Female","approach_avoid_spark_v1","""event"",""trial"",""time""
""fullscreenenter"",""1"",""12089""
","
","
","""event"",""trial"",""time""
""fullscreenenter"",""1"",""12089""
","
","","","","","","null","<div style=""font-size:60px;"">+</div>","null","","fixation","","","","","","","","","","",""
"aa-learning-trial","196","764729","0.0-11.0-2.0-1.3","6416","1","12","Female","approach_avoid_spark_v1","""event"",""trial"",""time""
""fullscreenenter"",""1"",""12089""
","
","
","""event"",""trial"",""time""
""fullscreenenter"",""1"",""12089""
","
","","","","","","749.8000001907349","images/train4.png","","","learning","-4","-4","1","1","train","vehicles","2","1","","bad","[-6]"
"html-keyboard-response","197","765239","0.0-11.0-2.0-0.4","6416","1","12","Female","approach_avoid_spark_v1","""event"",""trial"",""time""
""fullscreenenter"",""1"",""12089""
","
","
","""event"",""trial"",""time""
""fullscreenenter"",""1"",""12089""
","
","","","","","","null","<div style=""font-size:60px;"">+</div>","null","","fixation","","","","","","","","","","",""
"aa-learning-trial","198","768259","0.0-11.0-2.0-1.4","6416","1","12","Female","approach_avoid_spark_v1","""event"",""trial"",""time""
""fullscreenenter"",""1"",""12089""
","
","
","""event"",""trial"",""time""
""fullscreenenter"",""1"",""12089""
","
","","","","","","957.1000001430511","images/plane5.png","","","learning","8","0","0","0","plane","vehicles","2","1","","good","[6]"
"html-keyboard-response","199","768769","0.0-11.0-2.0-0.5","6416","1","12","Female","approach_avoid_spark_v1","""event"",""trial"",""time""
""fullscreenenter"",""1"",""12089""
","
","
","""event"",""trial"",""time""
""fullscreenenter"",""1"",""12089""
","
","","","","","","null","<div style=""font-size:60px;"">+</div>","null","","fixation","","","","","","","","","","",""
"aa-learning-trial","200","771779","0.0-11.0-2.0-1.5","6416","1","12","Female","approach_avoid_spark_v1","""event"",""trial"",""time""
""fullscreenenter"",""1"",""12089""
","
","
","""event"",""trial"",""time""
""fullscreenenter"",""1"",""12089""
","
","","","","","","885.5","images/plane7.png","","","learning","-1","-1","1","1","plane","vehicles","2","1","","good","[6]"
"html-keyboard-response","201","772299","0.0-11.0-2.0-0.6","6416","1","12","Female","approach_avoid_spark_v1","""event"",""trial"",""time""
""fullscreenenter"",""1"",""12089""
","
","
","""event"",""trial"",""time""
""fullscreenenter"",""1"",""12089""
","
","","","","","","null","<div style=""font-size:60px;"">+</div>","null","","fixation","","","","","","","","","","",""
"aa-learning-trial","202","775309","0.0-11.0-2.0-1.6","6416","1","12","Female","approach_avoid_spark_v1","""event"",""trial"",""time""
""fullscreenenter"",""1"",""12089""
","
","
","""event"",""trial"",""time""
""fullscreenenter"",""1"",""12089""
","
","","","","","","636.2000000476837","images/plane8.png","","","learning","-7","-7","1","1","plane","vehicles","2","1","","good","[6]"
"html-keyboard-response","203","775829","0.0-11.0-2.0-0.7","6416","1","12","Female","approach_avoid_spark_v1","""event"",""trial"",""time""
""fullscreenenter"",""1"",""12089""
","
","
","""event"",""trial"",""time""
""fullscreenenter"",""1"",""12089""
","
","","","","","","null","<div style=""font-size:60px;"">+</div>","null","","fixation","","","","","","","","","","",""
"aa-learning-trial","204","778850","0.0-11.0-2.0-1.7","6416","1","12","Female","approach_avoid_spark_v1","""event"",""trial"",""time""
""fullscreenenter"",""1"",""12089""
","
","
","""event"",""trial"",""time""
""fullscreenenter"",""1"",""12089""
","
","","","","","","1435.8999998569489","images/train6.png","","","learning","3","3","1","1","train","vehicles","2","1","","bad","[-6]"
"html-keyboard-response","205","779369","0.0-11.0-2.0-0.8","6416","1","12","Female","approach_avoid_spark_v1","""event"",""trial"",""time""
""fullscreenenter"",""1"",""12089""
","
","
","""event"",""trial"",""time""
""fullscreenenter"",""1"",""12089""
","
","","","","","","null","<div style=""font-size:60px;"">+</div>","null","","fixation","","","","","","","","","","",""
"aa-learning-trial","206","782380","0.0-11.0-2.0-1.8","6416","1","12","Female","approach_avoid_spark_v1","""event"",""trial"",""time""
""fullscreenenter"",""1"",""12089""
","
","
","""event"",""trial"",""time""
""fullscreenenter"",""1"",""12089""
","
","","","","","","1752.2000000476837","images/plane8.png","","","learning","-7","-7","1","1","plane","vehicles","2","1","","good","[6]"
"html-keyboard-response","207","782882","0.0-11.0-2.0-0.9","6416","1","12","Female","approach_avoid_spark_v1","""event"",""trial"",""time""
""fullscreenenter"",""1"",""12089""
","
","
","""event"",""trial"",""time""
""fullscreenenter"",""1"",""12089""
","
","","","","","","null","<div style=""font-size:60px;"">+</div>","null","","fixation","","","","","","","","","","",""
"aa-learning-trial","208","785891","0.0-11.0-2.0-1.9","6416","1","12","Female","approach_avoid_spark_v1","""event"",""trial"",""time""
""fullscreenenter"",""1"",""12089""
","
","
","""event"",""trial"",""time""
""fullscreenenter"",""1"",""12089""
","
","","","","","","1194.5","images/train6.png","","","learning","3","3","1","1","train","vehicles","2","1","","bad","[-6]"
"html-keyboard-response","209","786406","0.0-11.0-2.0-0.10","6416","1","12","Female","approach_avoid_spark_v1","""event"",""trial"",""time""
""fullscreenenter"",""1"",""12089""
","
","
","""event"",""trial"",""time""
""fullscreenenter"",""1"",""12089""
","
","","","","","","null","<div style=""font-size:60px;"">+</div>","null","","fixation","","","","","","","","","","",""
"aa-learning-trial","210","789409","0.0-11.0-2.0-1.10","6416","1","12","Female","approach_avoid_spark_v1","""event"",""trial"",""time""
""fullscreenenter"",""1"",""12089""
","
","
","""event"",""trial"",""time""
""fullscreenenter"",""1"",""12089""
","
","","","","","","959.8000001907349","images/boat2.png","","","learning","5","0","0","0","boat","vehicles","2","1","","neutral","0"
"html-keyboard-response","211","789913","0.0-11.0-2.0-0.11","6416","1","12","Female","approach_avoid_spark_v1","""event"",""trial"",""time""
""fullscreenenter"",""1"",""12089""
","
","
","""event"",""trial"",""time""
""fullscreenenter"",""1"",""12089""
","
","","","","","","null","<div style=""font-size:60px;"">+</div>","null","","fixation","","","","","","","","","","",""
"aa-learning-trial","212","792921","0.0-11.0-2.0-1.11","6416","1","12","Female","approach_avoid_spark_v1","""event"",""trial"",""time""
""fullscreenenter"",""1"",""12089""
","
","
","""event"",""trial"",""time""
""fullscreenenter"",""1"",""12089""
","
","","","","","","1425.5","images/boat5.png","","","learning","7","7","1","1","boat","vehicles","2","1","","neutral","0"
"html-keyboard-response","213","793427","0.0-11.0-2.0-0.12","6416","1","12","Female","approach_avoid_spark_v1","""event"",""trial"",""time""
""fullscreenenter"",""1"",""12089""
","
","
","""event"",""trial"",""time""
""fullscreenenter"",""1"",""12089""
","
","","","","","","null","<div style=""font-size:60px;"">+</div>","null","","fixation","","","","","","","","","","",""
"aa-learning-trial","214","796431","0.0-11.0-2.0-1.12","6416","1","12","Female","approach_avoid_spark_v1","""event"",""trial"",""time""
""fullscreenenter"",""1"",""12089""
","
","
","""event"",""trial"",""time""
""fullscreenenter"",""1"",""12089""
","
","","","","","","955.8000001907349","images/boat2.png","","","learning","5","5","1","1","boat","vehicles","2","1","","neutral","0"
"html-keyboard-response","215","796936","0.0-11.0-2.0-0.13","6416","1","12","Female","approach_avoid_spark_v1","""event"",""trial"",""time""
""fullscreenenter"",""1"",""12089""
","
","
","""event"",""trial"",""time""
""fullscreenenter"",""1"",""12089""
","
","","","","","","null","<div style=""font-size:60px;"">+</div>","null","","fixation","","","","","","","","","","",""
"aa-learning-trial","216","799946","0.0-11.0-2.0-1.13","6416","1","12","Female","approach_avoid_spark_v1","""event"",""trial"",""time""
""fullscreenenter"",""1"",""12089""
","
","
","""event"",""trial"",""time""
""fullscreenenter"",""1"",""12089""
","
","","","","","","1041.1000001430511","images/boat5.png","","","learning","7","7","1","1","boat","vehicles","2","1","","neutral","0"
"html-keyboard-response","217","800454","0.0-11.0-2.0-0.14","6416","1","12","Female","approach_avoid_spark_v1","""event"",""trial"",""time""
""fullscreenenter"",""1"",""12089""
","
","
","""event"",""trial"",""time""
""fullscreenenter"",""1"",""12089""
","
","","","","","","null","<div style=""font-size:60px;"">+</div>","null","","fixation","","","","","","","","","","",""
"aa-learning-trial","218","803463","0.0-11.0-2.0-1.14","6416","1","12","Female","approach_avoid_spark_v1","""event"",""trial"",""time""
""fullscreenenter"",""1"",""12089""
","
","
","""event"",""trial"",""time""
""fullscreenenter"",""1"",""12089""
","
","","","","","","1458.5999999046326","images/train4.png","","","learning","-4","0","0","0","train","vehicles","2","1","","bad","[-6]"
"html-keyboard-response","219","803967","0.0-11.0-2.0-0.15","6416","1","12","Female","approach_avoid_spark_v1","""event"",""trial"",""time""
""fullscreenenter"",""1"",""12089""
","
","
","""event"",""trial"",""time""
""fullscreenenter"",""1"",""12089""
","
","","","","","","null","<div style=""font-size:60px;"">+</div>","null","","fixation","","","","","","","","","","",""
"aa-learning-trial","220","806986","0.0-11.0-2.0-1.15","6416","1","12","Female","approach_avoid_spark_v1","""event"",""trial"",""time""
""fullscreenenter"",""1"",""12089""
","
","
","""event"",""trial"",""time""
""fullscreenenter"",""1"",""12089""
","
","","","","","","1517.0999999046326","images/plane8.png","","","learning","-7","0","0","0","plane","vehicles","2","1","","good","[6]"
"html-keyboard-response","221","807491","0.0-11.0-2.0-0.16","6416","1","12","Female","approach_avoid_spark_v1","""event"",""trial"",""time""
""fullscreenenter"",""1"",""12089""
","
","
","""event"",""trial"",""time""
""fullscreenenter"",""1"",""12089""
","
","","","","","","null","<div style=""font-size:60px;"">+</div>","null","","fixation","","","","","","","","","","",""
"aa-learning-trial","222","810495","0.0-11.0-2.0-1.16","6416","1","12","Female","approach_avoid_spark_v1","""event"",""trial"",""time""
""fullscreenenter"",""1"",""12089""
","
","
","""event"",""trial"",""time""
""fullscreenenter"",""1"",""12089""
","
","","","","","","864.2999999523163","images/boat5.png","","","learning","7","7","1","1","boat","vehicles","2","1","","neutral","0"
"html-keyboard-response","223","810999","0.0-11.0-2.0-0.17","6416","1","12","Female","approach_avoid_spark_v1","""event"",""trial"",""time""
""fullscreenenter"",""1"",""12089""
","
","
","""event"",""trial"",""time""
""fullscreenenter"",""1"",""12089""
","
","","","","","","null","<div style=""font-size:60px;"">+</div>","null","","fixation","","","","","","","","","","",""
"aa-learning-trial","224","814005","0.0-11.0-2.0-1.17","6416","1","12","Female","approach_avoid_spark_v1","""event"",""trial"",""time""
""fullscreenenter"",""1"",""12089""
","
","
","""event"",""trial"",""time""
""fullscreenenter"",""1"",""12089""
","
","","","","","","1243.4000000953674","images/plane3.png","","","learning","4","4","1","1","plane","vehicles","2","1","","good","[6]"
"html-keyboard-response","225","814511","0.0-11.0-2.0-0.18","6416","1","12","Female","approach_avoid_spark_v1","""event"",""trial"",""time""
""fullscreenenter"",""1"",""12089""
","
","
","""event"",""trial"",""time""
""fullscreenenter"",""1"",""12089""
","
","","","","","","null","<div style=""font-size:60px;"">+</div>","null","","fixation","","","","","","","","","","",""
"aa-learning-trial","226","817519","0.0-11.0-2.0-1.18","6416","1","12","Female","approach_avoid_spark_v1","""event"",""trial"",""time""
""fullscreenenter"",""1"",""12089""
","
","
","""event"",""trial"",""time""
""fullscreenenter"",""1"",""12089""
","
","","","","","","916.6999998092651","images/train6.png","","","learning","3","3","1","1","train","vehicles","2","1","","bad","[-6]"
"html-keyboard-response","227","818021","0.0-11.0-2.0-0.19","6416","1","12","Female","approach_avoid_spark_v1","""event"",""trial"",""time""
""fullscreenenter"",""1"",""12089""
","
","
","""event"",""trial"",""time""
""fullscreenenter"",""1"",""12089""
","
","","","","","","null","<div style=""font-size:60px;"">+</div>","null","","fixation","","","","","","","","","","",""
"aa-learning-trial","228","821036","0.0-11.0-2.0-1.19","6416","1","12","Female","approach_avoid_spark_v1","""event"",""trial"",""time""
""fullscreenenter"",""1"",""12089""
","
","
","""event"",""trial"",""time""
""fullscreenenter"",""1"",""12089""
","
","","","","","","2759.600000143051","images/train1.png","","","learning","-6","0","0","0","train","vehicles","2","1","","bad","[-6]"
"html-keyboard-response","229","821539","0.0-11.0-2.0-0.20","6416","1","12","Female","approach_avoid_spark_v1","""event"",""trial"",""time""
""fullscreenenter"",""1"",""12089""
","
","
","""event"",""trial"",""time""
""fullscreenenter"",""1"",""12089""
","
","","","","","","null","<div style=""font-size:60px;"">+</div>","null","","fixation","","","","","","","","","","",""
"aa-learning-trial","230","824549","0.0-11.0-2.0-1.20","6416","1","12","Female","approach_avoid_spark_v1","""event"",""trial"",""time""
""fullscreenenter"",""1"",""12089""
","
","
","""event"",""trial"",""time""
""fullscreenenter"",""1"",""12089""
","
","","","","","","1760.8999998569489","images/train4.png","","","learning","-4","0","0","0","train","vehicles","2","1","","bad","[-6]"
"html-keyboard-response","231","825058","0.0-11.0-2.0-0.21","6416","1","12","Female","approach_avoid_spark_v1","""event"",""trial"",""time""
""fullscreenenter"",""1"",""12089""
","
","
","""event"",""trial"",""time""
""fullscreenenter"",""1"",""12089""
","
","","","","","","null","<div style=""font-size:60px;"">+</div>","null","","fixation","","","","","","","","","","",""
"aa-learning-trial","232","828068","0.0-11.0-2.0-1.21","6416","1","12","Female","approach_avoid_spark_v1","""event"",""trial"",""time""
""fullscreenenter"",""1"",""12089""
","
","
","""event"",""trial"",""time""
""fullscreenenter"",""1"",""12089""
","
","","","","","","1124.1000001430511","images/plane7.png","","","learning","-1","0","0","0","plane","vehicles","2","1","","good","[6]"
"html-keyboard-response","233","828570","0.0-11.0-2.0-0.22","6416","1","12","Female","approach_avoid_spark_v1","""event"",""trial"",""time""
""fullscreenenter"",""1"",""12089""
","
","
","""event"",""trial"",""time""
""fullscreenenter"",""1"",""12089""
","
","","","","","","null","<div style=""font-size:60px;"">+</div>","null","","fixation","","","","","","","","","","",""
"aa-learning-trial","234","831576","0.0-11.0-2.0-1.22","6416","1","12","Female","approach_avoid_spark_v1","""event"",""trial"",""time""
""fullscreenenter"",""1"",""12089""
","
","
","""event"",""trial"",""time""
""fullscreenenter"",""1"",""12089""
","
","","","","","","836.4000000953674","images/train5.png","","","learning","9","0","0","0","train","vehicles","2","1","","bad","[-6]"
"html-keyboard-response","235","832085","0.0-11.0-2.0-0.23","6416","1","12","Female","approach_avoid_spark_v1","""event"",""trial"",""time""
""fullscreenenter"",""1"",""12089""
","
","
","""event"",""trial"",""time""
