"trial_type","trial_index","time_elapsed","internal_node_id","subject_id","task_condition","age","gender","task_version","interactions","blur_events","focus_events","fullscreenenter_events","fullscreenexit_events","success","timeout","failed_images","failed_audio","failed_video","rt","stimulus","response","button_pressed","task_part","approach_reward","points","key_press","option_selected","stim_cat","task_block","block_condition","block_number","correct","cat_type","mean_cat_reward"
"pavlovia","0","7","0.0-0.0","6131","1","8","Male","approach_avoid_spark_v1","""event"",""trial"",""time""
""fullscreenenter"",""1"",""4238""
","
","
","""event"",""trial"",""time""
""fullscreenenter"",""1"",""4238""
","
","","","","","","","","","","","","","","","","","","","","",""
"fullscreen","1","5193","0.0-1.0","6131","1","8","Male","approach_avoid_spark_v1","""event"",""trial"",""time""
""fullscreenenter"",""1"",""4238""
","
","
","""event"",""trial"",""time""
""fullscreenenter"",""1"",""4238""
","
","true","","","","","","","","","","","","","","","","","","","",""
"preload","2","9953","0.0-2.0","6131","1","8","Male","approach_avoid_spark_v1","""event"",""trial"",""time""
""fullscreenenter"",""1"",""4238""
","
","
","""event"",""trial"",""time""
""fullscreenenter"",""1"",""4238""
","
","true","false","[]","[]","[]","","","","","","","","","","","","","","","",""
"audio-keyboard-response","3","24040","0.0-3.0","6131","1","8","Male","approach_avoid_spark_v1","""event"",""trial"",""time""
""fullscreenenter"",""1"",""4238""
","
","
","""event"",""trial"",""time""
""fullscreenenter"",""1"",""4238""
","
","","","","","","14050.975056689342","audio/beep_loop.wav"," ","","","","","","","","","","","","",""
"audio-button-response","4","45641","0.0-4.0","6131","1","8","Male","approach_avoid_spark_v1","""event"",""trial"",""time""
""fullscreenenter"",""1"",""4238""
","
","
","""event"",""trial"",""time""
""fullscreenenter"",""1"",""4238""
","
","","","","","","21592","audio/shark.wav","0","","","","","","","","","","","","",""
"audio-button-response","5","52584","0.0-5.0","6131","1","8","Male","approach_avoid_spark_v1","""event"",""trial"",""time""
""fullscreenenter"",""1"",""4238""
","
","
","""event"",""trial"",""time""
""fullscreenenter"",""1"",""4238""
","
","","","","","","5918","audio/turtle.wav","1","","","","","","","","","","","","",""
"preload","6","55663","0.0-6.0","6131","1","8","Male","approach_avoid_spark_v1","""event"",""trial"",""time""
""fullscreenenter"",""1"",""4238""
","
","
","""event"",""trial"",""time""
""fullscreenenter"",""1"",""4238""
","
","true","false","[]","[]","[]","","","","","","","","","","","","","","","",""
"html-keyboard-response","7","59407","0.0-7.0","6131","1","8","Male","approach_avoid_spark_v1","""event"",""trial"",""time""
""fullscreenenter"",""1"",""4238""
","
","
","""event"",""trial"",""time""
""fullscreenenter"",""1"",""4238""
","
","","","","","","3742.5","Welcome to the experiment. Press any key to begin and to advance the instructions.","enter","","","","","","","","","","","","",""
"learning-instructions","8","70833","0.0-8.0-0.0-0.0","6131","1","8","Male","approach_avoid_spark_v1","""event"",""trial"",""time""
""fullscreenenter"",""1"",""4238""
","
","
","""event"",""trial"",""time""
""fullscreenenter"",""1"",""4238""
","
","","","","","","4469.600000143051","<p> Welcome! Today you are going to play 6 different rounds of a decision-making game. </p><p> Use the mouse to click next to continue. </p>","","0","instructions","","","","","","","","","","",""
"learning-instructions","9","74402","0.0-8.0-0.0-0.1","6131","1","8","Male","approach_avoid_spark_v1","""event"",""trial"",""time""
""fullscreenenter"",""1"",""4238""
","
","
","""event"",""trial"",""time""
""fullscreenenter"",""1"",""4238""
","
","","","","","","817.7000000476837","<p> You will start with a practice round to learn the rules. </p>","","0","instructions","","","","","","","","","","",""
"learning-instructions","10","79017","0.0-8.0-0.0-0.2","6131","1","8","Male","approach_avoid_spark_v1","""event"",""trial"",""time""
""fullscreenenter"",""1"",""4238""
","
","
","""event"",""trial"",""time""
""fullscreenenter"",""1"",""4238""
","
","","","","","","1153.5","<p> Your goal in this round is to give out sports equipment to kids. </p></div>","","0","instructions","","","","","","","","","","",""
"learning-instructions","11","87513","0.0-8.0-0.0-0.3","6131","1","8","Male","approach_avoid_spark_v1","""event"",""trial"",""time""
""fullscreenenter"",""1"",""4238""
","
","
","""event"",""trial"",""time""
""fullscreenenter"",""1"",""4238""
","
","","","","","","939.2000000476837","<p> The kids only like some of the equipment.  </p><p> On each turn, you will see a piece of sports equipment.   </p><p> You need to decide whether to give it to the kids or not.  </p>","","0","instructions","","","","","","","","","","",""
"learning-instructions","12","94065","0.0-8.0-0.0-0.4","6131","1","8","Male","approach_avoid_spark_v1","""event"",""trial"",""time""
""fullscreenenter"",""1"",""4238""
","
","
","""event"",""trial"",""time""
""fullscreenenter"",""1"",""4238""
","
","","","","","","1790.2999999523163","<p> You can give them the equipment by pressing 1 and choose not to give it to them by pressing 0. </p><br><div class=""choice-instructions-grid""> <div class=""choice-option""><img src=""images/approach.png"" class=""choice-option-img"" stage=""instructions"" position=""0"" ><div class=""choice-option-text""> Press ""1."" </div></div><div class=""choice-option""><img src=""images/avoid.png"" class=""choice-option-img"" stage=""instructions"" position=""1"" ><div class=""choice-option-text""> Press ""0."" </div></div>","","0","instructions","","","","","","","","","","",""
"learning-instructions","13","102129","0.0-8.0-0.0-0.5","6131","1","8","Male","approach_avoid_spark_v1","""event"",""trial"",""time""
""fullscreenenter"",""1"",""4238""
","
","
","""event"",""trial"",""time""
""fullscreenenter"",""1"",""4238""
","
","","","","","","665.2999999523163","<p> If you give them a piece of equipment they like, they will be happy! </p><p> But if you give them a piece of equipment they do not like, they will be sad. </p>","","0","instructions","","","","","","","","","","",""
"learning-instructions","14","113360","0.0-8.0-0.0-0.6","6131","1","8","Male","approach_avoid_spark_v1","""event"",""trial"",""time""
""fullscreenenter"",""1"",""4238""
","
","
","""event"",""trial"",""time""
""fullscreenenter"",""1"",""4238""
","
","","","","","","715.5","<p> You will earn points based on how you make kids feel. </p><p> If you make them happy, you will WIN anywhere from 1 - 9 points, </p><p> but if you make them sad, you will LOSE anywhere from 1 - 9 points. </p>","","0","instructions","","","","","","","","","","",""
"learning-instructions","15","123552","0.0-8.0-0.0-0.7","6131","1","8","Male","approach_avoid_spark_v1","""event"",""trial"",""time""
""fullscreenenter"",""1"",""4238""
","
","
","""event"",""trial"",""time""
""fullscreenenter"",""1"",""4238""
","
","","","","","","628.0999999046326","<p> You will see how many points you won or lost in the center of the screen. </p><p> Here is what you would see if you won 6 points: </p><p style=""color:green;font-size:50px;font-weight:bolder"">6</p><p style=""color:green"">The text is GREEN because you WON points.</p>","","0","instructions","","","","","","","","","","",""
"learning-instructions","16","130680","0.0-8.0-0.0-0.8","6131","1","8","Male","approach_avoid_spark_v1","""event"",""trial"",""time""
""fullscreenenter"",""1"",""4238""
","
","
","""event"",""trial"",""time""
""fullscreenenter"",""1"",""4238""
","
","","","","","","1616.0999999046326","<p> And here is what you would see if you lost 4 points: </p><p style=""color:red;font-size:50px;font-weight:bolder"">-4</p><p style=""color:red"">The text is RED because you LOST points. </p>","","0","instructions","","","","","","","","","","",""
"learning-instructions","17","147704","0.0-8.0-0.0-0.9","6131","1","8","Male","approach_avoid_spark_v1","""event"",""trial"",""time""
""fullscreenenter"",""1"",""4238""
","
","
","""event"",""trial"",""time""
""fullscreenenter"",""1"",""4238""
","
","","","","","","2309.0999999046326","<p> Some of the equipment will make the kids VERY happy or sad. </p><p> These pieces of equipment will make you win or lose LOTS of points. </p><p> Other pieces of equipment will only make the kids a little happy or sad. </p><p> These pieces of equipment will make you win or lose small amounts of points. </p>","","0","instructions","","","","","","","","","","",""
"learning-instructions","18","159744","0.0-8.0-0.0-0.10","6131","1","8","Male","approach_avoid_spark_v1","""event"",""trial"",""time""
""fullscreenenter"",""1"",""4238""
","
","
","""event"",""trial"",""time""
""fullscreenenter"",""1"",""4238""
","
","","","","","","1409.5","<p> If you choose not to give them the equipment, you will not win or lose any points. </p><p>  However, in the center of the screen, you will see the number of points you WOULD HAVE won or lost if you had given them the equipment. </p>","","0","instructions","","","","","","","","","","",""
"learning-instructions","19","182896","0.0-8.0-0.0-0.11","6131","1","8","Male","approach_avoid_spark_v1","""event"",""trial"",""time""
""fullscreenenter"",""1"",""4238""
","
","
","""event"",""trial"",""time""
""fullscreenenter"",""1"",""4238""
","
","","","","","","1619.3000001907349","<p> Here is what you might see if you did not give the equipment to the kids but it would have made them happy: </p><p style=""color:grey; font-size:50px; display: inline-block; border-spacing: 15px; border-width:3px; border-style:solid; border-color:red"">  &nbsp; 7 &nbsp; </p><p> Remember, in this case, you would not win or lose ANY points because you did not give them the equipment.  </p><p style=""color:grey"">The text is GREY because you earned ZERO points. </p><p style=""color:red"">However, choosing to give the kids the equipment would have made you win points. The box around the text is RED because you chose the worse option. </p>","","0","instructions","","","","","","","","","","",""
"learning-instructions","20","204712","0.0-8.0-0.0-0.12","6131","1","8","Male","approach_avoid_spark_v1","""event"",""trial"",""time""
""fullscreenenter"",""1"",""4238""
","
","
","""event"",""trial"",""time""
""fullscreenenter"",""1"",""4238""
","
","","","","","","736.1000001430511","<p> Here is what you might see if you did not give the equipment to the kids but it would have made them sad: </p><p style=""color:grey;font-size:50px; display: inline-block; border-spacing: 15px; border-width:3px; border-style:solid; border-color:green"">  &nbsp; -8 &nbsp; </p><p> Remember, in this case, you would not win or lose ANY points because you did not give them the equipment.  </p><p style=""color:grey"">The text is GREY because you earned ZERO points. </p><p  style=""color:green""> Choosing to give the kids the equipment would have made you lose points. The box around the text is GREEN because you chose the better option.</p>","","0","instructions","","","","","","","","","","",""
"learning-instructions","21","214752","0.0-8.0-0.0-0.13","6131","1","8","Male","approach_avoid_spark_v1","""event"",""trial"",""time""
""fullscreenenter"",""1"",""4238""
","
","
","""event"",""trial"",""time""
""fullscreenenter"",""1"",""4238""
","
","","","","","","825.2999999523163","<p> You will have 3 seconds to make each choice. Try to respond before time runs out! </p><p> You will lose 5 points each time you do not make a response. </p>","","0","instructions","","","","","","","","","","",""
"learning-instructions","22","221440","0.0-8.0-0.0-0.14","6131","1","8","Male","approach_avoid_spark_v1","""event"",""trial"",""time""
""fullscreenenter"",""1"",""4238""
","
","
","""event"",""trial"",""time""
""fullscreenenter"",""1"",""4238""
","
","","","","","","1263.1999998092651","<p> This is just a practice round, but in the real game, your bonus payment will depend on your total number of points.","","0","instructions","","","","","","","","","","",""
"learning-instructions","23","229784","0.0-8.0-0.0-0.15","6131","1","8","Male","approach_avoid_spark_v1","""event"",""trial"",""time""
""fullscreenenter"",""1"",""4238""
","
","
","""event"",""trial"",""time""
""fullscreenenter"",""1"",""4238""
","
","","","","","","2576.7999999523163","<p> Remember, you can give them the equipment by pressing 1 and choose not to give it to them by pressing 0. </p><br><div class=""choice-instructions-grid""> <div class=""choice-option""><img src=""images/approach.png"" class=""choice-option-img"" stage=""instructions"" position=""0"" ><div class=""choice-option-text""> Press ""1."" </div></div><div class=""choice-option""><img src=""images/avoid.png"" class=""choice-option-img"" stage=""instructions"" position=""1"" ><div class=""choice-option-text""> Press ""0."" </div></div>","","0","instructions","","","","","","","","","","",""
"html-button-response","24","234272","0.0-8.0-1.0","6131","1","8","Male","approach_avoid_spark_v1","""event"",""trial"",""time""
""fullscreenenter"",""1"",""4238""
","
","
","""event"",""trial"",""time""
""fullscreenenter"",""1"",""4238""
","
","","","","","","4378.5","<p> Ready to practice? </p>","0","","","","","","","","","","","","",""
"html-keyboard-response","25","234912","0.0-8.0-2.0-0.0","6131","1","8","Male","approach_avoid_spark_v1","""event"",""trial"",""time""
""fullscreenenter"",""1"",""4238""
","
","
","""event"",""trial"",""time""
""fullscreenenter"",""1"",""4238""
","
","","","","","","null","<div style=""font-size:60px;"">+</div>","null","","fixation","","","","","","","","","","",""
"aa-learning-trial","26","237930","0.0-8.0-2.0-1.0","6131","1","8","Male","approach_avoid_spark_v1","""event"",""trial"",""time""
""fullscreenenter"",""1"",""4238""
","
","
","""event"",""trial"",""time""
""fullscreenenter"",""1"",""4238""
","
","","","","","","null","images/ball3.png","","","learning","2","-5","","null","practice","practice","practice","-1","","",""
"html-keyboard-response","27","238436","0.0-8.0-2.0-0.1","6131","1","8","Male","approach_avoid_spark_v1","""event"",""trial"",""time""
""fullscreenenter"",""1"",""4238""
","
","
","""event"",""trial"",""time""
""fullscreenenter"",""1"",""4238""
","
","","","","","","null","<div style=""font-size:60px;"">+</div>","null","","fixation","","","","","","","","","","",""
"aa-learning-trial","28","241453","0.0-8.0-2.0-1.1","6131","1","8","Male","approach_avoid_spark_v1","""event"",""trial"",""time""
""fullscreenenter"",""1"",""4238""
","
","
","""event"",""trial"",""time""
""fullscreenenter"",""1"",""4238""
","
","","","","","","null","images/racket1.png","","","learning","-5","-5","","null","practice","practice","practice","-1","","",""
"html-keyboard-response","29","241973","0.0-8.0-2.0-0.2","6131","1","8","Male","approach_avoid_spark_v1","""event"",""trial"",""time""
""fullscreenenter"",""1"",""4238""
","
","
","""event"",""trial"",""time""
""fullscreenenter"",""1"",""4238""
","
","","","","","","null","<div style=""font-size:60px;"">+</div>","null","","fixation","","","","","","","","","","",""
"aa-learning-trial","30","244979","0.0-8.0-2.0-1.2","6131","1","8","Male","approach_avoid_spark_v1","""event"",""trial"",""time""
""fullscreenenter"",""1"",""4238""
","
","
","""event"",""trial"",""time""
""fullscreenenter"",""1"",""4238""
","
","","","","","","1084.7999999523163","images/racket2.png","","","learning","7","7","1","1","practice","practice","practice","-1","","",""
"html-keyboard-response","31","245484","0.0-8.0-2.0-0.3","6131","1","8","Male","approach_avoid_spark_v1","""event"",""trial"",""time""
""fullscreenenter"",""1"",""4238""
","
","
","""event"",""trial"",""time""
""fullscreenenter"",""1"",""4238""
","
","","","","","","null","<div style=""font-size:60px;"">+</div>","null","","fixation","","","","","","","","","","",""
"aa-learning-trial","32","248504","0.0-8.0-2.0-1.3","6131","1","8","Male","approach_avoid_spark_v1","""event"",""trial"",""time""
""fullscreenenter"",""1"",""4238""
","
","
","""event"",""trial"",""time""
""fullscreenenter"",""1"",""4238""
","
","","","","","","996.7999999523163","images/racket3.png","","","learning","-1","0","0","0","practice","practice","practice","-1","","",""
"html-keyboard-response","33","249009","0.0-8.0-2.0-0.4","6131","1","8","Male","approach_avoid_spark_v1","""event"",""trial"",""time""
""fullscreenenter"",""1"",""4238""
","
","
","""event"",""trial"",""time""
""fullscreenenter"",""1"",""4238""
","
","","","","","","null","<div style=""font-size:60px;"">+</div>","null","","fixation","","","","","","","","","","",""
"aa-learning-trial","34","252019","0.0-8.0-2.0-1.4","6131","1","8","Male","approach_avoid_spark_v1","""event"",""trial"",""time""
""fullscreenenter"",""1"",""4238""
","
","
","""event"",""trial"",""time""
""fullscreenenter"",""1"",""4238""
","
","","","","","","1000.6000001430511","images/ball2.png","","","learning","-9","-9","1","1","practice","practice","practice","-1","","",""
"html-keyboard-response","35","252537","0.0-8.0-2.0-0.5","6131","1","8","Male","approach_avoid_spark_v1","""event"",""trial"",""time""
""fullscreenenter"",""1"",""4238""
","
","
","""event"",""trial"",""time""
""fullscreenenter"",""1"",""4238""
","
","","","","","","null","<div style=""font-size:60px;"">+</div>","null","","fixation","","","","","","","","","","",""
"aa-learning-trial","36","255548","0.0-8.0-2.0-1.5","6131","1","8","Male","approach_avoid_spark_v1","""event"",""trial"",""time""
""fullscreenenter"",""1"",""4238""
","
","
","""event"",""trial"",""time""
""fullscreenenter"",""1"",""4238""
","
","","","","","","2585","images/ball4.png","","","learning","-1","0","0","0","practice","practice","practice","-1","","",""
"html-keyboard-response","37","256058","0.0-8.0-2.0-0.6","6131","1","8","Male","approach_avoid_spark_v1","""event"",""trial"",""time""
""fullscreenenter"",""1"",""4238""
","
","
","""event"",""trial"",""time""
""fullscreenenter"",""1"",""4238""
","
","","","","","","null","<div style=""font-size:60px;"">+</div>","null","","fixation","","","","","","","","","","",""
"aa-learning-trial","38","259065","0.0-8.0-2.0-1.6","6131","1","8","Male","approach_avoid_spark_v1","""event"",""trial"",""time""
""fullscreenenter"",""1"",""4238""
","
","
","""event"",""trial"",""time""
""fullscreenenter"",""1"",""4238""
","
","","","","","","2487.7999999523163","images/ball3.png","","","learning","-1","0","0","0","practice","practice","practice","-1","","",""
"html-keyboard-response","39","259569","0.0-8.0-2.0-0.7","6131","1","8","Male","approach_avoid_spark_v1","""event"",""trial"",""time""
""fullscreenenter"",""1"",""4238""
","
","
","""event"",""trial"",""time""
""fullscreenenter"",""1"",""4238""
","
","","","","","","null","<div style=""font-size:60px;"">+</div>","null","","fixation","","","","","","","","","","",""
"aa-learning-trial","40","262578","0.0-8.0-2.0-1.7","6131","1","8","Male","approach_avoid_spark_v1","""event"",""trial"",""time""
""fullscreenenter"",""1"",""4238""
","
","
","""event"",""trial"",""time""
""fullscreenenter"",""1"",""4238""
","
","","","","","","2440.7000000476837","images/racket2.png","","","learning","-1","-1","1","1","practice","practice","practice","-1","","",""
"html-keyboard-response","41","263080","0.0-8.0-2.0-0.8","6131","1","8","Male","approach_avoid_spark_v1","""event"",""trial"",""time""
""fullscreenenter"",""1"",""4238""
","
","
","""event"",""trial"",""time""
""fullscreenenter"",""1"",""4238""
","
","","","","","","null","<div style=""font-size:60px;"">+</div>","null","","fixation","","","","","","","","","","",""
"aa-learning-trial","42","266089","0.0-8.0-2.0-1.8","6131","1","8","Male","approach_avoid_spark_v1","""event"",""trial"",""time""
""fullscreenenter"",""1"",""4238""
","
","
","""event"",""trial"",""time""
""fullscreenenter"",""1"",""4238""
","
","","","","","","1697.2000000476837","images/ball3.png","","","learning","-2","0","0","0","practice","practice","practice","-1","","",""
"html-keyboard-response","43","266593","0.0-8.0-2.0-0.9","6131","1","8","Male","approach_avoid_spark_v1","""event"",""trial"",""time""
""fullscreenenter"",""1"",""4238""
","
","
","""event"",""trial"",""time""
""fullscreenenter"",""1"",""4238""
","
","","","","","","null","<div style=""font-size:60px;"">+</div>","null","","fixation","","","","","","","","","","",""
"aa-learning-trial","44","269602","0.0-8.0-2.0-1.9","6131","1","8","Male","approach_avoid_spark_v1","""event"",""trial"",""time""
""fullscreenenter"",""1"",""4238""
","
","
","""event"",""trial"",""time""
""fullscreenenter"",""1"",""4238""
","
","","","","","","633.7999999523163","images/ball1.png","","","learning","-8","-8","1","1","practice","practice","practice","-1","","",""
"html-keyboard-response","45","270105","0.0-8.0-2.0-0.10","6131","1","8","Male","approach_avoid_spark_v1","""event"",""trial"",""time""
""fullscreenenter"",""1"",""4238""
","
","
","""event"",""trial"",""time""
""fullscreenenter"",""1"",""4238""
","
","","","","","","null","<div style=""font-size:60px;"">+</div>","null","","fixation","","","","","","","","","","",""
"aa-learning-trial","46","273113","0.0-8.0-2.0-1.10","6131","1","8","Male","approach_avoid_spark_v1","""event"",""trial"",""time""
""fullscreenenter"",""1"",""4238""
","
","
","""event"",""trial"",""time""
""fullscreenenter"",""1"",""4238""
","
","","","","","","1872.6000001430511","images/racket2.png","","","learning","3","3","1","1","practice","practice","practice","-1","","",""
"html-keyboard-response","47","273618","0.0-8.0-2.0-0.11","6131","1","8","Male","approach_avoid_spark_v1","""event"",""trial"",""time""
""fullscreenenter"",""1"",""4238""
","
","
","""event"",""trial"",""time""
""fullscreenenter"",""1"",""4238""
","
","","","","","","null","<div style=""font-size:60px;"">+</div>","null","","fixation","","","","","","","","","","",""
"aa-learning-trial","48","276625","0.0-8.0-2.0-1.11","6131","1","8","Male","approach_avoid_spark_v1","""event"",""trial"",""time""
""fullscreenenter"",""1"",""4238""
","
","
","""event"",""trial"",""time""
""fullscreenenter"",""1"",""4238""
","
","","","","","","1087.7000000476837","images/ball1.png","","","learning","7","7","1","1","practice","practice","practice","-1","","",""
"html-button-response","49","279863","0.0-8.0-3.0","6131","1","8","Male","approach_avoid_spark_v1","""event"",""trial"",""time""
""fullscreenenter"",""1"",""4238""
","
","
","""event"",""trial"",""time""
""fullscreenenter"",""1"",""4238""
","
","","","","","","3235.0999999046326","<p> You earned -11 points in the practice round! </p>","0","","break","","","","","","","","","","",""
"learning-instructions","50","287671","0.0-8.0-4.0-0.0","6131","1","8","Male","approach_avoid_spark_v1","""event"",""trial"",""time""
""fullscreenenter"",""1"",""4238""
","
","
","""event"",""trial"",""time""
""fullscreenenter"",""1"",""4238""
","
","","","","","","1826.5","<p> It's almost time to start the real game. </p><p> Before you start, we're going to ask you a few questions about how the game works. </p>","","0","instructions","","","","","","","","","","",""
"preload","51","289369","0.0-8.0-5.0","6131","1","8","Male","approach_avoid_spark_v1","""event"",""trial"",""time""
""fullscreenenter"",""1"",""4238""
","
","
","""event"",""trial"",""time""
""fullscreenenter"",""1"",""4238""
","
","true","false","[]","[]","[]","","","","","","","","","","","","","","","",""
"comp-q","52","300415","0.0-8.0-6.0-0.0","6131","1","8","Male","approach_avoid_spark_v1","""event"",""trial"",""time""
""fullscreenenter"",""1"",""4238""
","
","
","""event"",""trial"",""time""
""fullscreenenter"",""1"",""4238""
","
","","","","","","6061.100000143051","<p> <b> True or False? </b> </p><p> If you see a number in GREY, that means you earned that many points. </p>","","1","comp_question","","","","","","","","","true","",""
"comp-q","53","309790","0.0-8.0-6.0-1.0","6131","1","8","Male","approach_avoid_spark_v1","""event"",""trial"",""time""
""fullscreenenter"",""1"",""4238""
","
","
","""event"",""trial"",""time""
""fullscreenenter"",""1"",""4238""
","
","","","","","","997.0999999046326","<p><b> That's right! </b> If you see a grey number, it means you earned ZERO points. <br> The grey numbers show the points you WOULD HAVE earned if you had made the other choice. </p>","","0","comp_answer","","","","","","","","","","",""
"comp-q","54","315262","0.0-8.0-7.0-0.0","6131","1","8","Male","approach_avoid_spark_v1","""event"",""trial"",""time""
""fullscreenenter"",""1"",""4238""
","
","
","""event"",""trial"",""time""
""fullscreenenter"",""1"",""4238""
","
","","","","","","767.7000000476837","<p> <b> True or False? </b> </p><p> You will have as much time as you want to make each choice. </p>","","1","comp_question","","","","","","","","","true","",""
"comp-q","55","320351","0.0-8.0-7.0-1.0","6131","1","8","Male","approach_avoid_spark_v1","""event"",""trial"",""time""
""fullscreenenter"",""1"",""4238""
","
","
","""event"",""trial"",""time""
""fullscreenenter"",""1"",""4238""
","
","","","","","","1026","<p> <b> That's right! </b> You will only have 3 seconds to make each choice. </p>","","0","comp_answer","","","","","","","","","","",""
"comp-q","56","326078","0.0-8.0-8.0-0.0","6131","1","8","Male","approach_avoid_spark_v1","""event"",""trial"",""time""
""fullscreenenter"",""1"",""4238""
","
","
","""event"",""trial"",""time""
""fullscreenenter"",""1"",""4238""
","
","","","","","","1063.8999998569489","<p> <b> True or False? </b> </p><p> You should use the '1' and '0' keys to make your choices. </p>","","0","comp_question","","","","","","","","","true","",""
"comp-q","57","331815","0.0-8.0-8.0-1.0","6131","1","8","Male","approach_avoid_spark_v1","""event"",""trial"",""time""
""fullscreenenter"",""1"",""4238""
","
","
","""event"",""trial"",""time""
""fullscreenenter"",""1"",""4238""
","
","","","","","","1120.2999999523163","<p> <b> That's right! </b> You should use the '1' and '0' keys to make each choice. </p>","","0","comp_answer","","","","","","","","","","",""
"learning-instructions","58","340574","0.0-8.0-9.0-0.0","6131","1","8","Male","approach_avoid_spark_v1","""event"",""trial"",""time""
""fullscreenenter"",""1"",""4238""
","
","
","""event"",""trial"",""time""
""fullscreenenter"",""1"",""4238""
","
","","","","","","2479.7000000476837","<p> It's now time to start the real game. </p>Do your best, because the points you earn in the next rounds will influence your bonus payment. </p>","","0","instructions","","","","","","","","","","",""
"preload","59","340718","0.0-9.0-0.0","6131","1","8","Male","approach_avoid_spark_v1","""event"",""trial"",""time""
""fullscreenenter"",""1"",""4238""
","
","
","""event"",""trial"",""time""
""fullscreenenter"",""1"",""4238""
","
","true","false","[]","[]","[]","","","","","","","","","","","","","","","",""
"learning-instructions","60","347822","0.0-9.0-1.0-0.0","6131","1","8","Male","approach_avoid_spark_v1","""event"",""trial"",""time""
""fullscreenenter"",""1"",""4238""
","
","
","""event"",""trial"",""time""
""fullscreenenter"",""1"",""4238""
","
","","","","","","1787.8999998569489","<p> Your goal in this round is to take your friend for rides in different vehicles. </p></div>","","0","instructions","","","","","","","","","","",""
"learning-instructions","61","358718","0.0-9.0-1.0-0.1","6131","1","8","Male","approach_avoid_spark_v1","""event"",""trial"",""time""
""fullscreenenter"",""1"",""4238""
","
","
","""event"",""trial"",""time""
""fullscreenenter"",""1"",""4238""
","
","","","","","","723","<p> Your friend enjoys riding in some vehicles but not in others.  </p><p> On each turn, you will see a vehicle.   </p><p> You need to decide whether to take your friend for a ride or not.  </p>","","0","instructions","","","","","","","","","","",""
"learning-instructions","62","367142","0.0-9.0-1.0-0.2","6131","1","8","Male","approach_avoid_spark_v1","""event"",""trial"",""time""
""fullscreenenter"",""1"",""4238""
","
","
","""event"",""trial"",""time""
""fullscreenenter"",""1"",""4238""
","
","","","","","","1706.2999999523163","<p> You can take your friend for a ride in the vehicle by pressing 1 and skip the ride by pressing 0. </p><br><div class=""choice-instructions-grid""> <div class=""choice-option""><img src=""images/approach.png"" class=""choice-option-img"" stage=""instructions"" position=""0"" ><div class=""choice-option-text""> Press ""1."" </div></div><div class=""choice-option""><img src=""images/avoid.png"" class=""choice-option-img"" stage=""instructions"" position=""1"" ><div class=""choice-option-text""> Press ""0."" </div></div>","","0","instructions","","","","","","","","","","",""
"learning-instructions","63","377926","0.0-9.0-1.0-0.3","6131","1","8","Male","approach_avoid_spark_v1","""event"",""trial"",""time""
""fullscreenenter"",""1"",""4238""
","
","
","""event"",""trial"",""time""
""fullscreenenter"",""1"",""4238""
","
","","","","","","1761","<p> If you take them for a ride in a vehicle they like, they will be thrilled! </p><p> But if you take them for a ride in a vehicle they do not like, they will be upset. </p>","","0","instructions","","","","","","","","","","",""
"learning-instructions","64","391062","0.0-9.0-1.0-0.4","6131","1","8","Male","approach_avoid_spark_v1","""event"",""trial"",""time""
""fullscreenenter"",""1"",""4238""
","
","
","""event"",""trial"",""time""
""fullscreenenter"",""1"",""4238""
","
","","","","","","1146.2000000476837","<p> You will earn points based on how you made your friend feel. </p><p> If you made him thrilled, you will WIN anywhere from 1 - 9 points, </p><p> but if you made him upset, you will LOSE anywhere from 1 - 9 points. </p>","","0","instructions","","","","","","","","","","",""
"learning-instructions","65","400486","0.0-9.0-1.0-0.5","6131","1","8","Male","approach_avoid_spark_v1","""event"",""trial"",""time""
""fullscreenenter"",""1"",""4238""
","
","
","""event"",""trial"",""time""
""fullscreenenter"",""1"",""4238""
","
","","","","","","1750.2999999523163","<p> You will see how many points you won or lost in the center of the screen. </p><p> Here is what you would see if you won 5 points: </p><p style=""color:green;font-size:50px;font-weight:bolder"">5</p>","","0","instructions","","","","","","","","","","",""
"learning-instructions","66","404838","0.0-9.0-1.0-0.6","6131","1","8","Male","approach_avoid_spark_v1","""event"",""trial"",""time""
""fullscreenenter"",""1"",""4238""
","
","
","""event"",""trial"",""time""
""fullscreenenter"",""1"",""4238""
","
","","","","","","752.2000000476837","<p> And here is what you would see if you lost 3 points: </p><p style=""color:red;font-size:50px;font-weight:bolder"">-3</p>","","0","instructions","","","","","","","","","","",""
"learning-instructions","67","421550","0.0-9.0-1.0-0.7","6131","1","8","Male","approach_avoid_spark_v1","""event"",""trial"",""time""
""fullscreenenter"",""1"",""4238""
","
","
","""event"",""trial"",""time""
""fullscreenenter"",""1"",""4238""
","
","","","","","","1173.2000000476837","<p> Some vehicles will make your friend REALLY thrilled or upset. </p><p> These vehicles will make you win or lose LOTS of points. </p><p> Other vehicles will only make him feel a little thrilled or upset. </p><p> These vehicles will make you win or lose small amounts of points. </p>","","0","instructions","","","","","","","","","","",""
"learning-instructions","68","434446","0.0-9.0-1.0-0.8","6131","1","8","Male","approach_avoid_spark_v1","""event"",""trial"",""time""
""fullscreenenter"",""1"",""4238""
","
","
","""event"",""trial"",""time""
""fullscreenenter"",""1"",""4238""
","
","","","","","","829.2999999523163","<p> If you choose to skip the ride, you will not win or lose any points. </p><p>  However, in the center of the screen, you will see the number of points you WOULD HAVE won or lost if you had taken your friend for a ride. </p>","","0","instructions","","","","","","","","","","",""
"learning-instructions","69","446589","0.0-9.0-1.0-0.9","6131","1","8","Male","approach_avoid_spark_v1","""event"",""trial"",""time""
""fullscreenenter"",""1"",""4238""
","
","
","""event"",""trial"",""time""
""fullscreenenter"",""1"",""4238""
","
","","","","","","1123.0999999046326","<p> Here is what you might see if you did not take your friend for a ride but he would have enjoyed it: </p><p style=""color:grey; font-size:50px; display: inline-block; border-spacing: 15px; border-width:3px; border-style:solid; border-color:red"">  &nbsp; 6 &nbsp; </p><p> Remember, in this case, you would not win or lose ANY points because you skipped the ride.  </p>","","0","instructions","","","","","","","","","","",""
"learning-instructions","70","454989","0.0-9.0-1.0-0.10","6131","1","8","Male","approach_avoid_spark_v1","""event"",""trial"",""time""
""fullscreenenter"",""1"",""4238""
","
","
","""event"",""trial"",""time""
""fullscreenenter"",""1"",""4238""
","
","","","","","","551.8999998569489","<p> Try to make the best choice for each vehicle because </p><p> at the end of the game, you will earn bonus money based on how many points you earned. </p>","","0","instructions","","","","","","","","","","",""
"learning-instructions","71","463989","0.0-9.0-1.0-0.11","6131","1","8","Male","approach_avoid_spark_v1","""event"",""trial"",""time""
""fullscreenenter"",""1"",""4238""
","
","
","""event"",""trial"",""time""
""fullscreenenter"",""1"",""4238""
","
","","","","","","802.2000000476837","<p> You will have 3 seconds to make each choice. Try to respond before time runs out! </p><p> You will lose 5 points each time you do not make a response. </p>","","0","instructions","","","","","","","","","","",""
"html-keyboard-response","72","464621","0.0-9.0-2.0-0.0","6131","1","8","Male","approach_avoid_spark_v1","""event"",""trial"",""time""
""fullscreenenter"",""1"",""4238""
","
","
","""event"",""trial"",""time""
""fullscreenenter"",""1"",""4238""
","
","","","","","","null","<div style=""font-size:60px;"">+</div>","null","","fixation","","","","","","","","","","",""
"aa-learning-trial","73","467628","0.0-9.0-2.0-1.0","6131","1","8","Male","approach_avoid_spark_v1","""event"",""trial"",""time""
""fullscreenenter"",""1"",""4238""
","
","
","""event"",""trial"",""time""
""fullscreenenter"",""1"",""4238""
","
","","","","","","2906.4000000953674","images/boat6.png","","","learning","3","3","1","1","boat","vehicles","1","0","","good","[6]"
"html-keyboard-response","74","468142","0.0-9.0-2.0-0.1","6131","1","8","Male","approach_avoid_spark_v1","""event"",""trial"",""time""
""fullscreenenter"",""1"",""4238""
","
","
","""event"",""trial"",""time""
""fullscreenenter"",""1"",""4238""
","
","","","","","","null","<div style=""font-size:60px;"">+</div>","null","","fixation","","","","","","","","","","",""
"aa-learning-trial","75","471165","0.0-9.0-2.0-1.1","6131","1","8","Male","approach_avoid_spark_v1","""event"",""trial"",""time""
""fullscreenenter"",""1"",""4238""
","
","
","""event"",""trial"",""time""
""fullscreenenter"",""1"",""4238""
","
","","","","","","null","images/boat6.png","","","learning","6","-5","","null","boat","vehicles","1","0","","good","[6]"
"html-keyboard-response","76","471686","0.0-9.0-2.0-0.2","6131","1","8","Male","approach_avoid_spark_v1","""event"",""trial"",""time""
""fullscreenenter"",""1"",""4238""
","
","
","""event"",""trial"",""time""
""fullscreenenter"",""1"",""4238""
","
","","","","","","null","<div style=""font-size:60px;"">+</div>","null","","fixation","","","","","","","","","","",""
"aa-learning-trial","77","474697","0.0-9.0-2.0-1.2","6131","1","8","Male","approach_avoid_spark_v1","""event"",""trial"",""time""
""fullscreenenter"",""1"",""4238""
","
","
","""event"",""trial"",""time""
""fullscreenenter"",""1"",""4238""
","
","","","","","","1025.7000000476837","images/boat7.png","","","learning","4","4","1","1","boat","vehicles","1","0","","good","[6]"
"html-keyboard-response","78","475206","0.0-9.0-2.0-0.3","6131","1","8","Male","approach_avoid_spark_v1","""event"",""trial"",""time""
""fullscreenenter"",""1"",""4238""
","
","
","""event"",""trial"",""time""
""fullscreenenter"",""1"",""4238""
","
","","","","","","null","<div style=""font-size:60px;"">+</div>","null","","fixation","","","","","","","","","","",""
"aa-learning-trial","79","478220","0.0-9.0-2.0-1.3","6131","1","8","Male","approach_avoid_spark_v1","""event"",""trial"",""time""
""fullscreenenter"",""1"",""4238""
","
","
","""event"",""trial"",""time""
""fullscreenenter"",""1"",""4238""
","
","","","","","","1841.7999999523163","images/train2.png","","","learning","-3","0","0","0","train","vehicles","1","0","","bad","[-3]"
"html-keyboard-response","80","478740","0.0-9.0-2.0-0.4","6131","1","8","Male","approach_avoid_spark_v1","""event"",""trial"",""time""
""fullscreenenter"",""1"",""4238""
","
","
","""event"",""trial"",""time""
""fullscreenenter"",""1"",""4238""
","
","","","","","","null","<div style=""font-size:60px;"">+</div>","null","","fixation","","","","","","","","","","",""
"aa-learning-trial","81","481753","0.0-9.0-2.0-1.4","6131","1","8","Male","approach_avoid_spark_v1","""event"",""trial"",""time""
""fullscreenenter"",""1"",""4238""
","
","
","""event"",""trial"",""time""
""fullscreenenter"",""1"",""4238""
","
","","","","","","620.0999999046326","images/train2.png","","","learning","-4","-4","1","1","train","vehicles","1","0","","bad","[-3]"
"html-keyboard-response","82","482268","0.0-9.0-2.0-0.5","6131","1","8","Male","approach_avoid_spark_v1","""event"",""trial"",""time""
""fullscreenenter"",""1"",""4238""
","
","
","""event"",""trial"",""time""
""fullscreenenter"",""1"",""4238""
","
","","","","","","null","<div style=""font-size:60px;"">+</div>","null","","fixation","","","","","","","","","","",""
"aa-learning-trial","83","485276","0.0-9.0-2.0-1.5","6131","1","8","Male","approach_avoid_spark_v1","""event"",""trial"",""time""
""fullscreenenter"",""1"",""4238""
","
","
","""event"",""trial"",""time""
""fullscreenenter"",""1"",""4238""
","
","","","","","","1163.3999998569489","images/train7.png","","","learning","-3","0","0","0","train","vehicles","1","0","","bad","[-3]"
"html-keyboard-response","84","485795","0.0-9.0-2.0-0.6","6131","1","8","Male","approach_avoid_spark_v1","""event"",""trial"",""time""
""fullscreenenter"",""1"",""4238""
","
","
","""event"",""trial"",""time""
""fullscreenenter"",""1"",""4238""
","
","","","","","","null","<div style=""font-size:60px;"">+</div>","null","","fixation","","","","","","","","","","",""
"aa-learning-trial","85","488811","0.0-9.0-2.0-1.6","6131","1","8","Male","approach_avoid_spark_v1","""event"",""trial"",""time""
""fullscreenenter"",""1"",""4238""
","
","
","""event"",""trial"",""time""
""fullscreenenter"",""1"",""4238""
","
","","","","","","2044.5999999046326","images/plane4.png","","","learning","-3","-3","1","1","plane","vehicles","1","0","","neutral","0"
"html-keyboard-response","86","489328","0.0-9.0-2.0-0.7","6131","1","8","Male","approach_avoid_spark_v1","""event"",""trial"",""time""
""fullscreenenter"",""1"",""4238""
","
","
","""event"",""trial"",""time""
""fullscreenenter"",""1"",""4238""
","
","","","","","","null","<div style=""font-size:60px;"">+</div>","null","","fixation","","","","","","","","","","",""
"aa-learning-trial","87","492340","0.0-9.0-2.0-1.7","6131","1","8","Male","approach_avoid_spark_v1","""event"",""trial"",""time""
""fullscreenenter"",""1"",""4238""
","
","
","""event"",""trial"",""time""
""fullscreenenter"",""1"",""4238""
","
","","","","","","823.5","images/plane4.png","","","learning","[-1]","0","0","0","plane","vehicles","1","0","","neutral","0"
"html-keyboard-response","88","492864","0.0-9.0-2.0-0.8","6131","1","8","Male","approach_avoid_spark_v1","""event"",""trial"",""time""
""fullscreenenter"",""1"",""4238""
","
","
","""event"",""trial"",""time""
""fullscreenenter"",""1"",""4238""
","
","","","","","","null","<div style=""font-size:60px;"">+</div>","null","","fixation","","","","","","","","","","",""
"aa-learning-trial","89","495874","0.0-9.0-2.0-1.8","6131","1","8","Male","approach_avoid_spark_v1","""event"",""trial"",""time""
""fullscreenenter"",""1"",""4238""
","
","
","""event"",""trial"",""time""
""fullscreenenter"",""1"",""4238""
","
","","","","","","920.2000000476837","images/plane5.png","","","learning","1","1","1","1","plane","vehicles","1","0","","neutral","0"
"html-keyboard-response","90","496377","0.0-9.0-2.0-0.9","6131","1","8","Male","approach_avoid_spark_v1","""event"",""trial"",""time""
""fullscreenenter"",""1"",""4238""
","
","
","""event"",""trial"",""time""
""fullscreenenter"",""1"",""4238""
","
","","","","","","null","<div style=""font-size:60px;"">+</div>","null","","fixation","","","","","","","","","","",""
"aa-learning-trial","91","499386","0.0-9.0-2.0-1.9","6131","1","8","Male","approach_avoid_spark_v1","""event"",""trial"",""time""
""fullscreenenter"",""1"",""4238""
","
","
","""event"",""trial"",""time""
""fullscreenenter"",""1"",""4238""
","
","","","","","","1782.5","images/train1.png","","","learning","-3","-3","1","1","train","vehicles","1","0","","bad","[-3]"
"html-keyboard-response","92","499889","0.0-9.0-2.0-0.10","6131","1","8","Male","approach_avoid_spark_v1","""event"",""trial"",""time""
""fullscreenenter"",""1"",""4238""
","
","
","""event"",""trial"",""time""
""fullscreenenter"",""1"",""4238""
","
","","","","","","null","<div style=""font-size:60px;"">+</div>","null","","fixation","","","","","","","","","","",""
"aa-learning-trial","93","502897","0.0-9.0-2.0-1.10","6131","1","8","Male","approach_avoid_spark_v1","""event"",""trial"",""time""
""fullscreenenter"",""1"",""4238""
","
","
","""event"",""trial"",""time""
""fullscreenenter"",""1"",""4238""
","
","","","","","","806.2000000476837","images/plane6.png","","","learning","1","0","0","0","plane","vehicles","1","0","","neutral","0"
"html-keyboard-response","94","503401","0.0-9.0-2.0-0.11","6131","1","8","Male","approach_avoid_spark_v1","""event"",""trial"",""time""
""fullscreenenter"",""1"",""4238""
","
","
","""event"",""trial"",""time""
""fullscreenenter"",""1"",""4238""
","
","","","","","","null","<div style=""font-size:60px;"">+</div>","null","","fixation","","","","","","","","","","",""
"aa-learning-trial","95","506411","0.0-9.0-2.0-1.11","6131","1","8","Male","approach_avoid_spark_v1","""event"",""trial"",""time""
""fullscreenenter"",""1"",""4238""
","
","
","""event"",""trial"",""time""
""fullscreenenter"",""1"",""4238""
","
","","","","","","1526.3000001907349","images/plane6.png","","","learning","[-1]","-1","1","1","plane","vehicles","1","0","","neutral","0"
"html-keyboard-response","96","506914","0.0-9.0-2.0-0.12","6131","1","8","Male","approach_avoid_spark_v1","""event"",""trial"",""time""
""fullscreenenter"",""1"",""4238""
","
","
","""event"",""trial"",""time""
""fullscreenenter"",""1"",""4238""
","
","","","","","","null","<div style=""font-size:60px;"">+</div>","null","","fixation","","","","","","","","","","",""
"aa-learning-trial","97","509921","0.0-9.0-2.0-1.12","6131","1","8","Male","approach_avoid_spark_v1","""event"",""trial"",""time""
""fullscreenenter"",""1"",""4238""
","
","
","""event"",""trial"",""time""
""fullscreenenter"",""1"",""4238""
","
","","","","","","1022.7000000476837","images/train7.png","","","learning","-3","-3","1","1","train","vehicles","1","0","","bad","[-3]"
"html-keyboard-response","98","510425","0.0-9.0-2.0-0.13","6131","1","8","Male","approach_avoid_spark_v1","""event"",""trial"",""time""
""fullscreenenter"",""1"",""4238""
","
","
","""event"",""trial"",""time""
""fullscreenenter"",""1"",""4238""
","
","","","","","","null","<div style=""font-size:60px;"">+</div>","null","","fixation","","","","","","","","","","",""
"aa-learning-trial","99","513433","0.0-9.0-2.0-1.13","6131","1","8","Male","approach_avoid_spark_v1","""event"",""trial"",""time""
""fullscreenenter"",""1"",""4238""
","
","
","""event"",""trial"",""time""
""fullscreenenter"",""1"",""4238""
","
","","","","","","1414.6000001430511","images/boat1.png","","","learning","5","5","1","1","boat","vehicles","1","0","","good","[6]"
"html-keyboard-response","100","513937","0.0-9.0-2.0-0.14","6131","1","8","Male","approach_avoid_spark_v1","""event"",""trial"",""time""
""fullscreenenter"",""1"",""4238""
","
","
","""event"",""trial"",""time""
""fullscreenenter"",""1"",""4238""
","
","","","","","","null","<div style=""font-size:60px;"">+</div>","null","","fixation","","","","","","","","","","",""
"aa-learning-trial","101","516946","0.0-9.0-2.0-1.14","6131","1","8","Male","approach_avoid_spark_v1","""event"",""trial"",""time""
""fullscreenenter"",""1"",""4238""
","
","
","""event"",""trial"",""time""
""fullscreenenter"",""1"",""4238""
","
","","","","","","1078.5","images/boat1.png","","","learning","6","6","1","1","boat","vehicles","1","0","","good","[6]"
"html-keyboard-response","102","517449","0.0-9.0-2.0-0.15","6131","1","8","Male","approach_avoid_spark_v1","""event"",""trial"",""time""
""fullscreenenter"",""1"",""4238""
","
","
","""event"",""trial"",""time""
""fullscreenenter"",""1"",""4238""
","
","","","","","","null","<div style=""font-size:60px;"">+</div>","null","","fixation","","","","","","","","","","",""
"aa-learning-trial","103","520458","0.0-9.0-2.0-1.15","6131","1","8","Male","approach_avoid_spark_v1","""event"",""trial"",""time""
""fullscreenenter"",""1"",""4238""
","
","
","""event"",""trial"",""time""
""fullscreenenter"",""1"",""4238""
","
","","","","","","1303.5999999046326","images/train2.png","","","learning","-1","0","0","0","train","vehicles","1","0","","bad","[-3]"
"html-keyboard-response","104","520962","0.0-9.0-2.0-0.16","6131","1","8","Male","approach_avoid_spark_v1","""event"",""trial"",""time""
""fullscreenenter"",""1"",""4238""
","
","
","""event"",""trial"",""time""
""fullscreenenter"",""1"",""4238""
","
","","","","","","null","<div style=""font-size:60px;"">+</div>","null","","fixation","","","","","","","","","","",""
"aa-learning-trial","105","523969","0.0-9.0-2.0-1.16","6131","1","8","Male","approach_avoid_spark_v1","""event"",""trial"",""time""
""fullscreenenter"",""1"",""4238""
","
","
","""event"",""trial"",""time""
""fullscreenenter"",""1"",""4238""
","
","","","","","","798.6000001430511","images/plane5.png","","","learning","1","1","1","1","plane","vehicles","1","0","","neutral","0"
"html-keyboard-response","106","524473","0.0-9.0-2.0-0.17","6131","1","8","Male","approach_avoid_spark_v1","""event"",""trial"",""time""
""fullscreenenter"",""1"",""4238""
","
","
","""event"",""trial"",""time""
""fullscreenenter"",""1"",""4238""
","
","","","","","","null","<div style=""font-size:60px;"">+</div>","null","","fixation","","","","","","","","","","",""
"aa-learning-trial","107","527477","0.0-9.0-2.0-1.17","6131","1","8","Male","approach_avoid_spark_v1","""event"",""trial"",""time""
""fullscreenenter"",""1"",""4238""
","
","
","""event"",""trial"",""time""
""fullscreenenter"",""1"",""4238""
","
","","","","","","2447","images/plane5.png","","","learning","-1","-1","1","1","plane","vehicles","1","0","","neutral","0"
"html-keyboard-response","108","527985","0.0-9.0-2.0-0.18","6131","1","8","Male","approach_avoid_spark_v1","""event"",""trial"",""time""
""fullscreenenter"",""1"",""4238""
","
","
","""event"",""trial"",""time""
""fullscreenenter"",""1"",""4238""
","
","","","","","","null","<div style=""font-size:60px;"">+</div>","null","","fixation","","","","","","","","","","",""
"aa-learning-trial","109","530993","0.0-9.0-2.0-1.18","6131","1","8","Male","approach_avoid_spark_v1","""event"",""trial"",""time""
""fullscreenenter"",""1"",""4238""
","
","
","""event"",""trial"",""time""
""fullscreenenter"",""1"",""4238""
","
","","","","","","845.5","images/train7.png","","","learning","-1","0","0","0","train","vehicles","1","0","","bad","[-3]"
"html-keyboard-response","110","531497","0.0-9.0-2.0-0.19","6131","1","8","Male","approach_avoid_spark_v1","""event"",""trial"",""time""
""fullscreenenter"",""1"",""4238""
","
","
","""event"",""trial"",""time""
""fullscreenenter"",""1"",""4238""
","
","","","","","","null","<div style=""font-size:60px;"">+</div>","null","","fixation","","","","","","","","","","",""
"aa-learning-trial","111","534506","0.0-9.0-2.0-1.19","6131","1","8","Male","approach_avoid_spark_v1","""event"",""trial"",""time""
""fullscreenenter"",""1"",""4238""
","
","
","""event"",""trial"",""time""
""fullscreenenter"",""1"",""4238""
","
","","","","","","742.2999999523163","images/train1.png","","","learning","-3","-3","1","1","train","vehicles","1","0","","bad","[-3]"
"html-keyboard-response","112","535009","0.0-9.0-2.0-0.20","6131","1","8","Male","approach_avoid_spark_v1","""event"",""trial"",""time""
""fullscreenenter"",""1"",""4238""
","
","
","""event"",""trial"",""time""
""fullscreenenter"",""1"",""4238""
","
","","","","","","null","<div style=""font-size:60px;"">+</div>","null","","fixation","","","","","","","","","","",""
"aa-learning-trial","113","538017","0.0-9.0-2.0-1.20","6131","1","8","Male","approach_avoid_spark_v1","""event"",""trial"",""time""
""fullscreenenter"",""1"",""4238""
","
","
","""event"",""trial"",""time""
""fullscreenenter"",""1"",""4238""
","
","","","","","","1070.8999998569489","images/boat6.png","","","learning","7","7","1","1","boat","vehicles","1","0","","good","[6]"
"html-keyboard-response","114","538522","0.0-9.0-2.0-0.21","6131","1","8","Male","approach_avoid_spark_v1","""event"",""trial"",""time""
""fullscreenenter"",""1"",""4238""
","
","
","""event"",""trial"",""time""
""fullscreenenter"",""1"",""4238""
","
","","","","","","null","<div style=""font-size:60px;"">+</div>","null","","fixation","","","","","","","","","","",""
"aa-learning-trial","115","541529","0.0-9.0-2.0-1.21","6131","1","8","Male","approach_avoid_spark_v1","""event"",""trial"",""time""
""fullscreenenter"",""1"",""4238""
","
","
","""event"",""trial"",""time""
""fullscreenenter"",""1"",""4238""
","
","","","","","","1621.8999998569489","images/train2.png","","","learning","2","0","0","0","train","vehicles","1","0","","bad","[-3]"
"html-keyboard-response","116","542033","0.0-9.0-2.0-0.22","6131","1","8","Male","approach_avoid_spark_v1","""event"",""trial"",""time""
""fullscreenenter"",""1"",""4238""
","
","
","""event"",""trial"",""time""
""fullscreenenter"",""1"",""4238""
","
","","","","","","null","<div style=""font-size:60px;"">+</div>","null","","fixation","","","","","","","","","","",""
"aa-learning-trial","117","545042","0.0-9.0-2.0-1.22","6131","1","8","Male","approach_avoid_spark_v1","""event"",""trial"",""time""
""fullscreenenter"",""1"",""4238""
","
","
","""event"",""trial"",""time""
""fullscreenenter"",""1"",""4238""
","
","","","","","","510.60000014305115","images/boat7.png","","","learning","4","4","1","1","boat","vehicles","1","0","","good","[6]"
"html-keyboard-response","118","545546","0.0-9.0-2.0-0.23","6131","1","8","Male","approach_avoid_spark_v1","""event"",""trial"",""time""
""fullscreenenter"",""1"",""4238""
","
","
","""event"",""trial"",""time""
""fullscreenenter"",""1"",""4238""
","
","","","","","","null","<div style=""font-size:60px;"">+</div>","null","","fixation","","","","","","","","","","",""
"aa-learning-trial","119","548553","0.0-9.0-2.0-1.23","6131","1","8","Male","approach_avoid_spark_v1","""event"",""trial"",""time""
""fullscreenenter"",""1"",""4238""
","
","
","""event"",""trial"",""time""
""fullscreenenter"",""1"",""4238""
","
","","","","","","1621.5","images/plane6.png","","","learning","-2","0","0","0","plane","vehicles","1","0","","neutral","0"
"html-keyboard-response","120","549058","0.0-9.0-2.0-0.24","6131","1","8","Male","approach_avoid_spark_v1","""event"",""trial"",""time""
""fullscreenenter"",""1"",""4238""
","
","
","""event"",""trial"",""time""
""fullscreenenter"",""1"",""4238""
","
","","","","","","null","<div style=""font-size:60px;"">+</div>","null","","fixation","","","","","","","","","","",""
"aa-learning-trial","121","552065","0.0-9.0-2.0-1.24","6131","1","8","Male","approach_avoid_spark_v1","""event"",""trial"",""time""
""fullscreenenter"",""1"",""4238""
","
","
","""event"",""trial"",""time""
""fullscreenenter"",""1"",""4238""
","
","","","","","","1165.8999998569489","images/boat6.png","","","learning","4","4","1","1","boat","vehicles","1","0","","good","[6]"
"html-keyboard-response","122","552569","0.0-9.0-2.0-0.25","6131","1","8","Male","approach_avoid_spark_v1","""event"",""trial"",""time""
""fullscreenenter"",""1"",""4238""
","
","
","""event"",""trial"",""time""
""fullscreenenter"",""1"",""4238""
","
","","","","","","null","<div style=""font-size:60px;"">+</div>","null","","fixation","","","","","","","","","","",""
"aa-learning-trial","123","555578","0.0-9.0-2.0-1.25","6131","1","8","Male","approach_avoid_spark_v1","""event"",""trial"",""time""
""fullscreenenter"",""1"",""4238""
","
","
","""event"",""trial"",""time""
""fullscreenenter"",""1"",""4238""
","
","","","","","","1126.4000000953674","images/plane8.png","","","learning","-1","0","0","0","plane","vehicles","1","0","","neutral","0"
"html-keyboard-response","124","556080","0.0-9.0-2.0-0.26","6131","1","8","Male","approach_avoid_spark_v1","""event"",""trial"",""time""
""fullscreenenter"",""1"",""4238""
","
","
","""event"",""trial"",""time""
""fullscreenenter"",""1"",""4238""
","
","","","","","","null","<div style=""font-size:60px;"">+</div>","null","","fixation","","","","","","","","","","",""
"aa-learning-trial","125","559089","0.0-9.0-2.0-1.26","6131","1","8","Male","approach_avoid_spark_v1","""event"",""trial"",""time""
""fullscreenenter"",""1"",""4238""
","
","
","""event"",""trial"",""time""
""fullscreenenter"",""1"",""4238""
","
","","","","","","750.5","images/plane6.png","","","learning","[-1]","0","0","0","plane","vehicles","1","0","","neutral","0"
"html-keyboard-response","126","559593","0.0-9.0-2.0-0.27","6131","1","8","Male","approach_avoid_spark_v1","""event"",""trial"",""time""
""fullscreenenter"",""1"",""4238""
","
","
","""event"",""trial"",""time""
""fullscreenenter"",""1"",""4238""
","
","","","","","","null","<div style=""font-size:60px;"">+</div>","null","","fixation","","","","","","","","","","",""
"aa-learning-trial","127","562602","0.0-9.0-2.0-1.27","6131","1","8","Male","approach_avoid_spark_v1","""event"",""trial"",""time""
""fullscreenenter"",""1"",""4238""
","
","
","""event"",""trial"",""time""
""fullscreenenter"",""1"",""4238""
","
","","","","","","934","images/plane6.png","","","learning","2","0","0","0","plane","vehicles","1","0","","neutral","0"
"html-keyboard-response","128","563105","0.0-9.0-2.0-0.28","6131","1","8","Male","approach_avoid_spark_v1","""event"",""trial"",""time""
""fullscreenenter"",""1"",""4238""
","
","
","""event"",""trial"",""time""
""fullscreenenter"",""1"",""4238""
","
","","","","","","null","<div style=""font-size:60px;"">+</div>","null","","fixation","","","","","","","","","","",""
"aa-learning-trial","129","566114","0.0-9.0-2.0-1.28","6131","1","8","Male","approach_avoid_spark_v1","""event"",""trial"",""time""
""fullscreenenter"",""1"",""4238""
","
","
","""event"",""trial"",""time""
""fullscreenenter"",""1"",""4238""
","
","","","","","","798.3000001907349","images/plane4.png","","","learning","1","1","1","1","plane","vehicles","1","0","","neutral","0"
"html-keyboard-response","130","566617","0.0-9.0-2.0-0.29","6131","1","8","Male","approach_avoid_spark_v1","""event"",""trial"",""time""
""fullscreenenter"",""1"",""4238""
","
","
","""event"",""trial"",""time""
""fullscreenenter"",""1"",""4238""
","
","","","","","","null","<div style=""font-size:60px;"">+</div>","null","","fixation","","","","","","","","","","",""
"aa-learning-trial","131","569625","0.0-9.0-2.0-1.29","6131","1","8","Male","approach_avoid_spark_v1","""event"",""trial"",""time""
""fullscreenenter"",""1"",""4238""
","
","
","""event"",""trial"",""time""
""fullscreenenter"",""1"",""4238""
","
","","","","","","654.3999998569489","images/plane4.png","","","learning","1","1","1","1","plane","vehicles","1","0","","neutral","0"
"html-keyboard-response","132","570129","0.0-9.0-2.0-0.30","6131","1","8","Male","approach_avoid_spark_v1","""event"",""trial"",""time""
""fullscreenenter"",""1"",""4238""
","
","
","""event"",""trial"",""time""
""fullscreenenter"",""1"",""4238""
","
","","","","","","null","<div style=""font-size:60px;"">+</div>","null","","fixation","","","","","","","","","","",""
"aa-learning-trial","133","573137","0.0-9.0-2.0-1.30","6131","1","8","Male","approach_avoid_spark_v1","""event"",""trial"",""time""
""fullscreenenter"",""1"",""4238""
","
","
","""event"",""trial"",""time""
""fullscreenenter"",""1"",""4238""
","
","","","","","","958.2999999523163","images/boat3.png","","","learning","6","0","0","0","boat","vehicles","1","0","","good","[6]"
"html-keyboard-response","134","573642","0.0-9.0-2.0-0.31","6131","1","8","Male","approach_avoid_spark_v1","""event"",""trial"",""time""
""fullscreenenter"",""1"",""4238""
","
","
","""event"",""trial"",""time""
""fullscreenenter"",""1"",""4238""
","
","","","","","","null","<div style=""font-size:60px;"">+</div>","null","","fixation","","","","","","","","","","",""
"aa-learning-trial","135","576650","0.0-9.0-2.0-1.31","6131","1","8","Male","approach_avoid_spark_v1","""event"",""trial"",""time""
""fullscreenenter"",""1"",""4238""
","
","
","""event"",""trial"",""time""
""fullscreenenter"",""1"",""4238""
","
","","","","","","533.2999999523163","images/plane4.png","","","learning","[-1]","-1","1","1","plane","vehicles","1","0","","neutral","0"
"html-keyboard-response","136","577152","0.0-9.0-2.0-0.32","6131","1","8","Male","approach_avoid_spark_v1","""event"",""trial"",""time""
""fullscreenenter"",""1"",""4238""
","
","
","""event"",""trial"",""time""
""fullscreenenter"",""1"",""4238""
","
","","","","","","null","<div style=""font-size:60px;"">+</div>","null","","fixation","","","","","","","","","","",""
"aa-learning-trial","137","580162","0.0-9.0-2.0-1.32","6131","1","8","Male","approach_avoid_spark_v1","""event"",""trial"",""time""
""fullscreenenter"",""1"",""4238""
","
","
","""event"",""trial"",""time""
""fullscreenenter"",""1"",""4238""
","
","","","","","","1015.5","images/plane1.png","","","learning","-2","0","0","0","plane","vehicles","1","0","","neutral","0"
"html-keyboard-response","138","580665","0.0-9.0-2.0-0.33","6131","1","8","Male","approach_avoid_spark_v1","""event"",""trial"",""time""
""fullscreenenter"",""1"",""4238""
","
","
","""event"",""trial"",""time""
""fullscreenenter"",""1"",""4238""
","
","","","","","","null","<div style=""font-size:60px;"">+</div>","null","","fixation","","","","","","","","","","",""
"aa-learning-trial","139","583673","0.0-9.0-2.0-1.33","6131","1","8","Male","approach_avoid_spark_v1","""event"",""trial"",""time""
""fullscreenenter"",""1"",""4238""
","
","
","""event"",""trial"",""time""
""fullscreenenter"",""1"",""4238""
","
","","","","","","2134.300000190735","images/train6.png","","","learning","-5","0","0","0","train","vehicles","1","0","","bad","[-3]"
"html-keyboard-response","140","584177","0.0-9.0-2.0-0.34","6131","1","8","Male","approach_avoid_spark_v1","""event"",""trial"",""time""
""fullscreenenter"",""1"",""4238""
","
","
","""event"",""trial"",""time""
""fullscreenenter"",""1"",""4238""
","
","","","","","","null","<div style=""font-size:60px;"">+</div>","null","","fixation","","","","","","","","","","",""
"aa-learning-trial","141","587185","0.0-9.0-2.0-1.34","6131","1","8","Male","approach_avoid_spark_v1","""event"",""trial"",""time""
""fullscreenenter"",""1"",""4238""
","
","
","""event"",""trial"",""time""
""fullscreenenter"",""1"",""4238""
","
","","","","","","1422","images/boat6.png","","","learning","5","5","1","1","boat","vehicles","1","0","","good","[6]"
"html-keyboard-response","142","587689","0.0-9.0-2.0-0.35","6131","1","8","Male","approach_avoid_spark_v1","""event"",""trial"",""time""
""fullscreenenter"",""1"",""4238""
","
","
","""event"",""trial"",""time""
""fullscreenenter"",""1"",""4238""
","
","","","","","","null","<div style=""font-size:60px;"">+</div>","null","","fixation","","","","","","","","","","",""
"aa-learning-trial","143","590697","0.0-9.0-2.0-1.35","6131","1","8","Male","approach_avoid_spark_v1","""event"",""trial"",""time""
""fullscreenenter"",""1"",""4238""
","
","
","""event"",""trial"",""time""
""fullscreenenter"",""1"",""4238""
","
","","","","","","1029.4000000953674","images/train1.png","","","learning","2","2","1","1","train","vehicles","1","0","","bad","[-3]"
"html-keyboard-response","144","591201","0.0-9.0-2.0-0.36","6131","1","8","Male","approach_avoid_spark_v1","""event"",""trial"",""time""
""fullscreenenter"",""1"",""4238""
","
","
","""event"",""trial"",""time""
""fullscreenenter"",""1"",""4238""
","
","","","","","","null","<div style=""font-size:60px;"">+</div>","null","","fixation","","","","","","","","","","",""
"aa-learning-trial","145","594209","0.0-9.0-2.0-1.36","6131","1","8","Male","approach_avoid_spark_v1","""event"",""trial"",""time""
""fullscreenenter"",""1"",""4238""
","
","
","""event"",""trial"",""time""
""fullscreenenter"",""1"",""4238""
","
","","","","","","478.19999980926514","images/boat6.png","","","learning","7","0","0","0","boat","vehicles","1","0","","good","[6]"
"html-keyboard-response","146","594713","0.0-9.0-2.0-0.37","6131","1","8","Male","approach_avoid_spark_v1","""event"",""trial"",""time""
""fullscreenenter"",""1"",""4238""
","
","
","""event"",""trial"",""time""
""fullscreenenter"",""1"",""4238""
","
","","","","","","null","<div style=""font-size:60px;"">+</div>","null","","fixation","","","","","","","","","","",""
"aa-learning-trial","147","597721","0.0-9.0-2.0-1.37","6131","1","8","Male","approach_avoid_spark_v1","""event"",""trial"",""time""
""fullscreenenter"",""1"",""4238""
","
","
","""event"",""trial"",""time""
""fullscreenenter"",""1"",""4238""
","
","","","","","","342.2999999523163","images/boat1.png","","","learning","7","7","1","1","boat","vehicles","1","0","","good","[6]"
"html-keyboard-response","148","598226","0.0-9.0-2.0-0.38","6131","1","8","Male","approach_avoid_spark_v1","""event"",""trial"",""time""
""fullscreenenter"",""1"",""4238""
","
","
","""event"",""trial"",""time""
""fullscreenenter"",""1"",""4238""
","
","","","","","","null","<div style=""font-size:60px;"">+</div>","null","","fixation","","","","","","","","","","",""
"aa-learning-trial","149","601233","0.0-9.0-2.0-1.38","6131","1","8","Male","approach_avoid_spark_v1","""event"",""trial"",""time""
""fullscreenenter"",""1"",""4238""
","
","
","""event"",""trial"",""time""
""fullscreenenter"",""1"",""4238""
","
","","","","","","772.6999998092651","images/boat1.png","","","learning","5","5","1","1","boat","vehicles","1","0","","good","[6]"
"html-keyboard-response","150","601736","0.0-9.0-2.0-0.39","6131","1","8","Male","approach_avoid_spark_v1","""event"",""trial"",""time""
""fullscreenenter"",""1"",""4238""
","
","
","""event"",""trial"",""time""
""fullscreenenter"",""1"",""4238""
","
","","","","","","null","<div style=""font-size:60px;"">+</div>","null","","fixation","","","","","","","","","","",""
"aa-learning-trial","151","604745","0.0-9.0-2.0-1.39","6131","1","8","Male","approach_avoid_spark_v1","""event"",""trial"",""time""
""fullscreenenter"",""1"",""4238""
","
","
","""event"",""trial"",""time""
""fullscreenenter"",""1"",""4238""
","
","","","","","","806.1999998092651","images/train7.png","","","learning","-3","0","0","0","train","vehicles","1","0","","bad","[-3]"
"html-keyboard-response","152","605249","0.0-9.0-2.0-0.40","6131","1","8","Male","approach_avoid_spark_v1","""event"",""trial"",""time""
""fullscreenenter"",""1"",""4238""
","
","
","""event"",""trial"",""time""
""fullscreenenter"",""1"",""4238""
","
","","","","","","null","<div style=""font-size:60px;"">+</div>","null","","fixation","","","","","","","","","","",""
"aa-learning-trial","153","608257","0.0-9.0-2.0-1.40","6131","1","8","Male","approach_avoid_spark_v1","""event"",""trial"",""time""
""fullscreenenter"",""1"",""4238""
","
","
","""event"",""trial"",""time""
""fullscreenenter"",""1"",""4238""
","
","","","","","","638.7999999523163","images/train7.png","","","learning","-5","0","0","0","train","vehicles","1","0","","bad","[-3]"
"html-keyboard-response","154","608762","0.0-9.0-2.0-0.41","6131","1","8","Male","approach_avoid_spark_v1","""event"",""trial"",""time""
""fullscreenenter"",""1"",""4238""
","
","
","""event"",""trial"",""time""
""fullscreenenter"",""1"",""4238""
","
","","","","","","null","<div style=""font-size:60px;"">+</div>","null","","fixation","","","","","","","","","","",""
"aa-learning-trial","155","611769","0.0-9.0-2.0-1.41","6131","1","8","Male","approach_avoid_spark_v1","""event"",""trial"",""time""
""fullscreenenter"",""1"",""4238""
","
","
","""event"",""trial"",""time""
""fullscreenenter"",""1"",""4238""
","
","","","","","","1261.4000000953674","images/plane4.png","","","learning","-2","-2","1","1","plane","vehicles","1","0","","neutral","0"
"html-keyboard-response","156","612273","0.0-9.0-2.0-0.42","6131","1","8","Male","approach_avoid_spark_v1","""event"",""trial"",""time""
""fullscreenenter"",""1"",""4238""
","
","
","""event"",""trial"",""time""
""fullscreenenter"",""1"",""4238""
","
","","","","","","null","<div style=""font-size:60px;"">+</div>","null","","fixation","","","","","","","","","","",""
"aa-learning-trial","157","615282","0.0-9.0-2.0-1.42","6131","1","8","Male","approach_avoid_spark_v1","""event"",""trial"",""time""
""fullscreenenter"",""1"",""4238""
","
","
","""event"",""trial"",""time""
""fullscreenenter"",""1"",""4238""
","
","","","","","","781.3999998569489","images/train2.png","","","learning","-2","0","0","0","train","vehicles","1","0","","bad","[-3]"
"html-keyboard-response","158","615785","0.0-9.0-2.0-0.43","6131","1","8","Male","approach_avoid_spark_v1","""event"",""trial"",""time""
""fullscreenenter"",""1"",""4238""
","
","
","""event"",""trial"",""time""
""fullscreenenter"",""1"",""4238""
","
","","","","","","null","<div style=""font-size:60px;"">+</div>","null","","fixation","","","","","","","","","","",""
"aa-learning-trial","159","618794","0.0-9.0-2.0-1.43","6131","1","8","Male","approach_avoid_spark_v1","""event"",""trial"",""time""
""fullscreenenter"",""1"",""4238""
","
","
","""event"",""trial"",""time""
""fullscreenenter"",""1"",""4238""
","
","","","","","","1462","images/train8.png","","","learning","-4","-4","1","1","train","vehicles","1","0","","bad","[-3]"
"html-keyboard-response","160","619297","0.0-9.0-2.0-0.44","6131","1","8","Male","approach_avoid_spark_v1","""event"",""trial"",""time""
""fullscreenenter"",""1"",""4238""
","
","
","""event"",""trial"",""time""
""fullscreenenter"",""1"",""4238""
","
","","","","","","null","<div style=""font-size:60px;"">+</div>","null","","fixation","","","","","","","","","","",""
"aa-learning-trial","161","622305","0.0-9.0-2.0-1.44","6131","1","8","Male","approach_avoid_spark_v1","""event"",""trial"",""time""
""fullscreenenter"",""1"",""4238""
","
","
","""event"",""trial"",""time""
""fullscreenenter"",""1"",""4238""
","
","","","","","","606.5999999046326","images/boat7.png","","","learning","3","0","0","0","boat","vehicles","1","0","","good","[6]"
"html-keyboard-response","162","622809","0.0-9.0-2.0-0.45","6131","1","8","Male","approach_avoid_spark_v1","""event"",""trial"",""time""
""fullscreenenter"",""1"",""4238""
","
","
","""event"",""trial"",""time""
""fullscreenenter"",""1"",""4238""
","
","","","","","","null","<div style=""font-size:60px;"">+</div>","null","","fixation","","","","","","","","","","",""
"aa-learning-trial","163","625817","0.0-9.0-2.0-1.45","6131","1","8","Male","approach_avoid_spark_v1","""event"",""trial"",""time""
""fullscreenenter"",""1"",""4238""
","
","
","""event"",""trial"",""time""
""fullscreenenter"",""1"",""4238""
","
","","","","","","1477.7000000476837","images/plane6.png","","","learning","-1","-1","1","1","plane","vehicles","1","0","","neutral","0"
"html-keyboard-response","164","626321","0.0-9.0-2.0-0.46","6131","1","8","Male","approach_avoid_spark_v1","""event"",""trial"",""time""
""fullscreenenter"",""1"",""4238""
","
","
","""event"",""trial"",""time""
""fullscreenenter"",""1"",""4238""
","
","","","","","","null","<div style=""font-size:60px;"">+</div>","null","","fixation","","","","","","","","","","",""
"aa-learning-trial","165","629329","0.0-9.0-2.0-1.46","6131","1","8","Male","approach_avoid_spark_v1","""event"",""trial"",""time""
""fullscreenenter"",""1"",""4238""
","
","
","""event"",""trial"",""time""
""fullscreenenter"",""1"",""4238""
","
","","","","","","925","images/boat4.png","","","learning","6","0","0","0","boat","vehicles","1","0","","good","[6]"
"html-keyboard-response","166","629833","0.0-9.0-2.0-0.47","6131","1","8","Male","approach_avoid_spark_v1","""event"",""trial"",""time""
""fullscreenenter"",""1"",""4238""
","
","
","""event"",""trial"",""time""
""fullscreenenter"",""1"",""4238""
","
","","","","","","null","<div style=""font-size:60px;"">+</div>","null","","fixation","","","","","","","","","","",""
"aa-learning-trial","167","632841","0.0-9.0-2.0-1.47","6131","1","8","Male","approach_avoid_spark_v1","""event"",""trial"",""time""
""fullscreenenter"",""1"",""4238""
","
","
","""event"",""trial"",""time""
""fullscreenenter"",""1"",""4238""
","
","","","","","","813.2999999523163","images/train2.png","","","learning","-2","-2","1","1","train","vehicles","1","0","","bad","[-3]"
"html-keyboard-response","168","633345","0.0-9.0-2.0-0.48","6131","1","8","Male","approach_avoid_spark_v1","""event"",""trial"",""time""
""fullscreenenter"",""1"",""4238""
","
","
","""event"",""trial"",""time""
""fullscreenenter"",""1"",""4238""
","
","","","","","","null","<div style=""font-size:60px;"">+</div>","null","","fixation","","","","","","","","","","",""
"aa-learning-trial","169","636353","0.0-9.0-2.0-1.48","6131","1","8","Male","approach_avoid_spark_v1","""event"",""trial"",""time""
""fullscreenenter"",""1"",""4238""
","
","
","""event"",""trial"",""time""
""fullscreenenter"",""1"",""4238""
","
","","","","","","701.5999999046326","images/boat1.png","","","learning","7","0","0","0","boat","vehicles","1","0","","good","[6]"
"html-keyboard-response","170","636857","0.0-9.0-2.0-0.49","6131","1","8","Male","approach_avoid_spark_v1","""event"",""trial"",""time""
""fullscreenenter"",""1"",""4238""
","
","
","""event"",""trial"",""time""
""fullscreenenter"",""1"",""4238""
","
","","","","","","null","<div style=""font-size:60px;"">+</div>","null","","fixation","","","","","","","","","","",""
"aa-learning-trial","171","639865","0.0-9.0-2.0-1.49","6131","1","8","Male","approach_avoid_spark_v1","""event"",""trial"",""time""
""fullscreenenter"",""1"",""4238""
","
","
","""event"",""trial"",""time""
""fullscreenenter"",""1"",""4238""
","
","","","","","","964.5999999046326","images/boat1.png","","","learning","3","3","1","1","boat","vehicles","1","0","","good","[6]"
"html-keyboard-response","172","640369","0.0-9.0-2.0-0.50","6131","1","8","Male","approach_avoid_spark_v1","""event"",""trial"",""time""
""fullscreenenter"",""1"",""4238""
","
","
","""event"",""trial"",""time""
""fullscreenenter"",""1"",""4238""
","
","","","","","","null","<div style=""font-size:60px;"">+</div>","null","","fixation","","","","","","","","","","",""
"aa-learning-trial","173","643377","0.0-9.0-2.0-1.50","6131","1","8","Male","approach_avoid_spark_v1","""event"",""trial"",""time""
""fullscreenenter"",""1"",""4238""
","
","
","""event"",""trial"",""time""
""fullscreenenter"",""1"",""4238""
","
","","","","","","1085.3000001907349","images/train7.png","","","learning","-4","-4","1","1","train","vehicles","1","0","","bad","[-3]"
"html-button-response","174","650492","0.0-9.0-3.0","6131","1","8","Male","approach_avoid_spark_v1","""event"",""trial"",""time""
""fullscreenenter"",""1"",""4238""
","
","
","""event"",""trial"",""time""
""fullscreenenter"",""1"",""4238""
","
","","","","","","7113","<p> You have completed the round! <p> In this round, you earned 22 points! </p>","0","","break","","","","","","","","","","",""
"html-button-response","175","659876","0.0-10.0","6131","1","8","Male","approach_avoid_spark_v1","""event"",""trial"",""time""
""fullscreenenter"",""1"",""4238""
","
","
","""event"",""trial"",""time""
""fullscreenenter"",""1"",""4238""
","
","","","","","","9382.799999952316","<p> Now it's time to play another round. </p>","0","","transition_screen","","","","","","","","","","",""
"preload","176","660017","0.0-11.0-0.0","6131","1","8","Male","approach_avoid_spark_v1","""event"",""trial"",""time""
""fullscreenenter"",""1"",""4238""
","
","
","""event"",""trial"",""time""
""fullscreenenter"",""1"",""4238""
","
","true","false","[]","[]","[]","","","","","","","","","","","","","","","",""
"learning-instructions","177","667660","0.0-11.0-1.0-0.0","6131","1","8","Male","approach_avoid_spark_v1","""event"",""trial"",""time""
""fullscreenenter"",""1"",""4238""
","
","
","""event"",""trial"",""time""
""fullscreenenter"",""1"",""4238""
","
","","","","","","2013","<p> Your goal in this round is to sell different plants to a picky customer. </p></div>","","0","instructions","","","","","","","","","","",""
"learning-instructions","178","678155","0.0-11.0-1.0-0.1","6131","1","8","Male","approach_avoid_spark_v1","""event"",""trial"",""time""
""fullscreenenter"",""1"",""4238""
","
","
","""event"",""trial"",""time""
""fullscreenenter"",""1"",""4238""
","
","","","","","","999.1000001430511","<p> The customer likes some plants and dislikes others.  </p><p> On each turn, you will see a plant.   </p><p> You need to decide whether to offer it to the customer or not.  </p>","","0","instructions","","","","","","","","","","",""
"learning-instructions","179","685427","0.0-11.0-1.0-0.2","6131","1","8","Male","approach_avoid_spark_v1","""event"",""trial"",""time""
""fullscreenenter"",""1"",""4238""
","
","
","""event"",""trial"",""time""
""fullscreenenter"",""1"",""4238""
","
","","","","","","1550.5","<p> You can offer the plant by pressing 1 and decide to not offer it by pressing 0. </p><br><div class=""choice-instructions-grid""> <div class=""choice-option""><img src=""images/approach.png"" class=""choice-option-img"" stage=""instructions"" position=""0"" ><div class=""choice-option-text""> Press ""1."" </div></div><div class=""choice-option""><img src=""images/avoid.png"" class=""choice-option-img"" stage=""instructions"" position=""1"" ><div class=""choice-option-text""> Press ""0."" </div></div>","","0","instructions","","","","","","","","","","",""
"learning-instructions","180","696475","0.0-11.0-1.0-0.3","6131","1","8","Male","approach_avoid_spark_v1","""event"",""trial"",""time""
""fullscreenenter"",""1"",""4238""
","
","
","""event"",""trial"",""time""
""fullscreenenter"",""1"",""4238""
","
","","","","","","1929.1000001430511","<p> If you offer a plant to the customer that she likes, she will be very pleased! </p><p> But if you offer a plant that she does NOT like, she will be annoyed. </p>","","0","instructions","","","","","","","","","","",""
"learning-instructions","181","709691","0.0-11.0-1.0-0.4","6131","1","8","Male","approach_avoid_spark_v1","""event"",""trial"",""time""
""fullscreenenter"",""1"",""4238""
","
","
","""event"",""trial"",""time""
""fullscreenenter"",""1"",""4238""
","
","","","","","","653.7999999523163","<p> You will earn points based on how you made the customer feel. </p><p> If you made her pleased, you will WIN anywhere from 1 - 9 points, </p><p> but if you made her annoyed, you will LOSE anywhere from 1 - 9 points. </p>","","0","instructions","","","","","","","","","","",""
"learning-instructions","182","716811","0.0-11.0-1.0-0.5","6131","1","8","Male","approach_avoid_spark_v1","""event"",""trial"",""time""
""fullscreenenter"",""1"",""4238""
","
","
","""event"",""trial"",""time""
""fullscreenenter"",""1"",""4238""
","
","","","","","","464.09999990463257","<p> You will see how many points you won or lost in the center of the screen. </p><p> Here is what you would see if you won 5 points: </p><p style=""color:green;font-size:50px;font-weight:bolder"">5</p>","","0","instructions","","","","","","","","","","",""
"learning-instructions","183","720227","0.0-11.0-1.0-0.6","6131","1","8","Male","approach_avoid_spark_v1","""event"",""trial"",""time""
""fullscreenenter"",""1"",""4238""
","
","
","""event"",""trial"",""time""
""fullscreenenter"",""1"",""4238""
","
","","","","","","570","<p> And here is what you would see if you lost 3 points: </p><p style=""color:red;font-size:50px;font-weight:bolder"">-3</p>","","0","instructions","","","","","","","","","","",""
"learning-instructions","184","739419","0.0-11.0-1.0-0.7","6131","1","8","Male","approach_avoid_spark_v1","""event"",""trial"",""time""
""fullscreenenter"",""1"",""4238""
","
","
","""event"",""trial"",""time""
""fullscreenenter"",""1"",""4238""
","
","","","","","","640.6999998092651","<p> Some plants will make the customer VERY pleased or annoyed. </p><p> These plants will make you win or lose LOTS of points. </p><p> The customer will have less strong feelings about other plants. </p><p> These plants will make you win or lose small amounts of points. </p>","","0","instructions","","","","","","","","","","",""
"learning-instructions","185","755195","0.0-11.0-1.0-0.8","6131","1","8","Male","approach_avoid_spark_v1","""event"",""trial"",""time""
""fullscreenenter"",""1"",""4238""
","
","
","""event"",""trial"",""time""
""fullscreenenter"",""1"",""4238""
","
","","","","","","1127","<p> If you choose to not offer the plant to the customer, you will not win or lose any points. </p><p>  However, in the center of the screen, you will see the number of points you WOULD HAVE won or lost if you had offered the plant. </p>","","0","instructions","","","","","","","","","","",""
"learning-instructions","186","768002","0.0-11.0-1.0-0.9","6131","1","8","Male","approach_avoid_spark_v1","""event"",""trial"",""time""
""fullscreenenter"",""1"",""4238""
","
","
","""event"",""trial"",""time""
""fullscreenenter"",""1"",""4238""
","
","","","","","","584.0999999046326","<p> Here is what you might see if you did not offer the plant but the customer would have liked it: </p><p style=""color:grey; font-size:50px; display: inline-block; border-spacing: 15px; border-width:3px; border-style:solid; border-color:red"">  &nbsp; 6 &nbsp; </p><p> Remember, in this case, you would not win or lose ANY points because you did not offer the plant.  </p>","","0","instructions","","","","","","","","","","",""
"learning-instructions","187","776370","0.0-11.0-1.0-0.10","6131","1","8","Male","approach_avoid_spark_v1","""event"",""trial"",""time""
""fullscreenenter"",""1"",""4238""
","
","
","""event"",""trial"",""time""
""fullscreenenter"",""1"",""4238""
","
","","","","","","552","<p> Try to make the best choice for each plant because </p><p> at the end of the game, you will earn bonus money based on how many points you earned. </p>","","0","instructions","","","","","","","","","","",""
"learning-instructions","188","784866","0.0-11.0-1.0-0.11","6131","1","8","Male","approach_avoid_spark_v1","""event"",""trial"",""time""
""fullscreenenter"",""1"",""4238""
","
","
","""event"",""trial"",""time""
""fullscreenenter"",""1"",""4238""
","
","","","","","","308.2000000476837","<p> You will have 3 seconds to make each choice. Try to respond before time runs out! </p><p> You will lose 5 points each time you do not make a response. </p>","","0","instructions","","","","","","","","","","",""
"html-keyboard-response","189","785474","0.0-11.0-2.0-0.0","6131","1","8","Male","approach_avoid_spark_v1","""event"",""trial"",""time""
""fullscreenenter"",""1"",""4238""
","
","
","""event"",""trial"",""time""
""fullscreenenter"",""1"",""4238""
","
","","","","","","null","<div style=""font-size:60px;"">+</div>","null","","fixation","","","","","","","","","","",""
"aa-learning-trial","190","788489","0.0-11.0-2.0-1.0","6131","1","8","Male","approach_avoid_spark_v1","""event"",""trial"",""time""
""fullscreenenter"",""1"",""4238""
","
","
","""event"",""trial"",""time""
""fullscreenenter"",""1"",""4238""
","
","","","","","","1986.1999998092651","images/tree3.png","","","learning","7","0","0","0","tree","plants","2","1","","good","[6]"
"html-keyboard-response","191","788997","0.0-11.0-2.0-0.1","6131","1","8","Male","approach_avoid_spark_v1","""event"",""trial"",""time""
""fullscreenenter"",""1"",""4238""
","
","
","""event"",""trial"",""time""
""fullscreenenter"",""1"",""4238""
","
","","","","","","null","<div style=""font-size:60px;"">+</div>","null","","fixation","","","","","","","","","","",""
"aa-learning-trial","192","792005","0.0-11.0-2.0-1.1","6131","1","8","Male","approach_avoid_spark_v1","""event"",""trial"",""time""
""fullscreenenter"",""1"",""4238""
","
","
","""event"",""trial"",""time""
""fullscreenenter"",""1"",""4238""
","
","","","","","","1479.3999998569489","images/bush5.png","","","learning","3","3","1","1","bush","plants","2","1","","neutral","0"
"html-keyboard-response","193","792517","0.0-11.0-2.0-0.2","6131","1","8","Male","approach_avoid_spark_v1","""event"",""trial"",""time""
""fullscreenenter"",""1"",""4238""
","
","
","""event"",""trial"",""time""
""fullscreenenter"",""1"",""4238""
","
","","","","","","null","<div style=""font-size:60px;"">+</div>","null","","fixation","","","","","","","","","","",""
"aa-learning-trial","194","795533","0.0-11.0-2.0-1.2","6131","1","8","Male","approach_avoid_spark_v1","""event"",""trial"",""time""
""fullscreenenter"",""1"",""4238""
","
","
","""event"",""trial"",""time""
""fullscreenenter"",""1"",""4238""
","
","","","","","","1607","images/cactus1.png","","","learning","9","0","0","0","cactus","plants","2","1","","bad","[-6]"
"html-keyboard-response","195","796050","0.0-11.0-2.0-0.3","6131","1","8","Male","approach_avoid_spark_v1","""event"",""trial"",""time""
""fullscreenenter"",""1"",""4238""
","
","
","""event"",""trial"",""time""
""fullscreenenter"",""1"",""4238""
","
","","","","","","null","<div style=""font-size:60px;"">+</div>","null","","fixation","","","","","","","","","","",""
"aa-learning-trial","196","799070","0.0-11.0-2.0-1.3","6131","1","8","Male","approach_avoid_spark_v1","""event"",""trial"",""time""
""fullscreenenter"",""1"",""4238""
","
","
","""event"",""trial"",""time""
""fullscreenenter"",""1"",""4238""
","
","","","","","","567.7000000476837","images/cactus6.png","","","learning","-6","-6","1","1","cactus","plants","2","1","","bad","[-6]"
"html-keyboard-response","197","799576","0.0-11.0-2.0-0.4","6131","1","8","Male","approach_avoid_spark_v1","""event"",""trial"",""time""
""fullscreenenter"",""1"",""4238""
","
","
","""event"",""trial"",""time""
""fullscreenenter"",""1"",""4238""
","
","","","","","","null","<div style=""font-size:60px;"">+</div>","null","","fixation","","","","","","","","","","",""
"aa-learning-trial","198","802594","0.0-11.0-2.0-1.4","6131","1","8","Male","approach_avoid_spark_v1","""event"",""trial"",""time""
""fullscreenenter"",""1"",""4238""
","
","
","""event"",""trial"",""time""
""fullscreenenter"",""1"",""4238""
","
","","","","","","1588.3999998569489","images/cactus6.png","","","learning","-6","-6","1","1","cactus","plants","2","1","","bad","[-6]"
"html-keyboard-response","199","803098","0.0-11.0-2.0-0.5","6131","1","8","Male","approach_avoid_spark_v1","""event"",""trial"",""time""
""fullscreenenter"",""1"",""4238""
","
","
","""event"",""trial"",""time""
""fullscreenenter"",""1"",""4238""
","
","","","","","","null","<div style=""font-size:60px;"">+</div>","null","","fixation","","","","","","","","","","",""
"aa-learning-trial","200","806112","0.0-11.0-2.0-1.5","6131","1","8","Male","approach_avoid_spark_v1","""event"",""trial"",""time""
""fullscreenenter"",""1"",""4238""
","
","
","""event"",""trial"",""time""
""fullscreenenter"",""1"",""4238""
","
","","","","","","786.5999999046326","images/cactus1.png","","","learning","9","0","0","0","cactus","plants","2","1","","bad","[-6]"
"html-keyboard-response","201","806629","0.0-11.0-2.0-0.6","6131","1","8","Male","approach_avoid_spark_v1","""event"",""trial"",""time""
""fullscreenenter"",""1"",""4238""
","
","
","""event"",""trial"",""time""
""fullscreenenter"",""1"",""4238""
","
","","","","","","null","<div style=""font-size:60px;"">+</div>","null","","fixation","","","","","","","","","","",""
"aa-learning-trial","202","809633","0.0-11.0-2.0-1.6","6131","1","8","Male","approach_avoid_spark_v1","""event"",""trial"",""time""
""fullscreenenter"",""1"",""4238""
","
","
","""event"",""trial"",""time""
""fullscreenenter"",""1"",""4238""
","
","","","","","","1792","images/tree8.png","","","learning","-8","-8","1","1","tree","plants","2","1","","good","[6]"
"html-keyboard-response","203","810151","0.0-11.0-2.0-0.7","6131","1","8","Male","approach_avoid_spark_v1","""event"",""trial"",""time""
""fullscreenenter"",""1"",""4238""
","
","
","""event"",""trial"",""time""
""fullscreenenter"",""1"",""4238""
","
","","","","","","null","<div style=""font-size:60px;"">+</div>","null","","fixation","","","","","","","","","","",""
"aa-learning-trial","204","813169","0.0-11.0-2.0-1.7","6131","1","8","Male","approach_avoid_spark_v1","""event"",""trial"",""time""
""fullscreenenter"",""1"",""4238""
","
","
","""event"",""trial"",""time""
""fullscreenenter"",""1"",""4238""
","
","","","","","","566.5","images/tree7.png","","","learning","5","0","0","0","tree","plants","2","1","","good","[6]"
"html-keyboard-response","205","813673","0.0-11.0-2.0-0.8","6131","1","8","Male","approach_avoid_spark_v1","""event"",""trial"",""time""
""fullscreenenter"",""1"",""4238""
","
","
","""event"",""trial"",""time""
""fullscreenenter"",""1"",""4238""
","
","","","","","","null","<div style=""font-size:60px;"">+</div>","null","","fixation","","","","","","","","","","",""
"aa-learning-trial","206","816681","0.0-11.0-2.0-1.8","6131","1","8","Male","approach_avoid_spark_v1","""event"",""trial"",""time""
""fullscreenenter"",""1"",""4238""
","
","
","""event"",""trial"",""time""
""fullscreenenter"",""1"",""4238""
","
","","","","","","1443.5999999046326","images/tree7.png","","","learning","5","5","1","1","tree","plants","2","1","","good","[6]"
"html-keyboard-response","207","817185","0.0-11.0-2.0-0.9","6131","1","8","Male","approach_avoid_spark_v1","""event"",""trial"",""time""
""fullscreenenter"",""1"",""4238""
","
","
","""event"",""trial"",""time""
""fullscreenenter"",""1"",""4238""
","
","","","","","","null","<div style=""font-size:60px;"">+</div>","null","","fixation","","","","","","","","","","",""
"aa-learning-trial","208","820193","0.0-11.0-2.0-1.9","6131","1","8","Male","approach_avoid_spark_v1","""event"",""trial"",""time""
""fullscreenenter"",""1"",""4238""
","
","
","""event"",""trial"",""time""
""fullscreenenter"",""1"",""4238""
","
","","","","","","1283.7000000476837","images/bush6.png","","","learning","2","2","1","1","bush","plants","2","1","","neutral","0"
"html-keyboard-response","209","820697","0.0-11.0-2.0-0.10","6131","1","8","Male","approach_avoid_spark_v1","""event"",""trial"",""time""
""fullscreenenter"",""1"",""4238""
","
","
","""event"",""trial"",""time""
""fullscreenenter"",""1"",""4238""
","
","","","","","","null","<div style=""font-size:60px;"">+</div>","null","","fixation","","","","","","","","","","",""
"aa-learning-trial","210","823705","0.0-11.0-2.0-1.10","6131","1","8","Male","approach_avoid_spark_v1","""event"",""trial"",""time""
""fullscreenenter"",""1"",""4238""
","
","
","""event"",""trial"",""time""
""fullscreenenter"",""1"",""4238""
","
","","","","","","1035.4000000953674","images/bush2.png","","","learning","-9","0","0","0","bush","plants","2","1","","neutral","0"
"html-keyboard-response","211","824208","0.0-11.0-2.0-0.11","6131","1","8","Male","approach_avoid_spark_v1","""event"",""trial"",""time""
""fullscreenenter"",""1"",""4238""
","
","
","""event"",""trial"",""time""
""fullscreenenter"",""1"",""4238""
","
","","","","","","null","<div style=""font-size:60px;"">+</div>","null","","fixation","","","","","","","","","","",""
"aa-learning-trial","212","827216","0.0-11.0-2.0-1.11","6131","1","8","Male","approach_avoid_spark_v1","""event"",""trial"",""time""
""fullscreenenter"",""1"",""4238""
","
","
","""event"",""trial"",""time""
""fullscreenenter"",""1"",""4238""
","
","","","","","","732.9000000953674","images/tree3.png","","","learning","7","7","1","1","tree","plants","2","1","","good","[6]"
"html-keyboard-response","213","827721","0.0-11.0-2.0-0.12","6131","1","8","Male","approach_avoid_spark_v1","""event"",""trial"",""time""
""fullscreenenter"",""1"",""4238""
","
","
","""event"",""trial"",""time""
""fullscreenenter"",""1"",""4238""
","
","","","","","","null","<div style=""font-size:60px;"">+</div>","null","","fixation","","","","","","","","","","",""
"aa-learning-trial","214","830730","0.0-11.0-2.0-1.12","6131","1","8","Male","approach_avoid_spark_v1","""event"",""trial"",""time""
""fullscreenenter"",""1"",""4238""
","
","
","""event"",""trial"",""time""
""fullscreenenter"",""1"",""4238""
","
","","","","","","1156.2999999523163","images/bush5.png","","","learning","3","3","1","1","bush","plants","2","1","","neutral","0"
"html-keyboard-response","215","831233","0.0-11.0-2.0-0.13","6131","1","8","Male","approach_avoid_spark_v1","""event"",""trial"",""time""
""fullscreenenter"",""1"",""4238""
","
","
","""event"",""trial"",""time""
""fullscreenenter"",""1"",""4238""
","
","","","","","","null","<div style=""font-size:60px;"">+</div>","null","","fixation","","","","","","","","","","",""
"aa-learning-trial","216","834241","0.0-11.0-2.0-1.13","6131","1","8","Male","approach_avoid_spark_v1","""event"",""trial"",""time""
""fullscreenenter"",""1"",""4238""
","
","
","""event"",""trial"",""time""
""fullscreenenter"",""1"",""4238""
","
","","","","","","587.8000001907349","images/bush6.png","","","learning","2","0","0","0","bush","plants","2","1","","neutral","0"
"html-keyboard-response","217","834745","0.0-11.0-2.0-0.14","6131","1","8","Male","approach_avoid_spark_v1","""event"",""trial"",""time""
""fullscreenenter"",""1"",""4238""
","
","
","""event"",""trial"",""time""
""fullscreenenter"",""1"",""4238""
","
","","","","","","null","<div style=""font-size:60px;"">+</div>","null","","fixation","","","","","","","","","","",""
"aa-learning-trial","218","837753","0.0-11.0-2.0-1.14","6131","1","8","Male","approach_avoid_spark_v1","""event"",""trial"",""time""
""fullscreenenter"",""1"",""4238""
","
","
","""event"",""trial"",""time""
""fullscreenenter"",""1"",""4238""
","
","","","","","","556.3000001907349","images/cactus8.png","","","learning","-1","-1","1","1","cactus","plants","2","1","","bad","[-6]"
"html-keyboard-response","219","838257","0.0-11.0-2.0-0.15","6131","1","8","Male","approach_avoid_spark_v1","""event"",""trial"",""time""
""fullscreenenter"",""1"",""4238""
","
","
","""event"",""trial"",""time""
""fullscreenenter"",""1"",""4238""
","
","","","","","","null","<div style=""font-size:60px;"">+</div>","null","","fixation","","","","","","","","","","",""
"aa-learning-trial","220","841266","0.0-11.0-2.0-1.15","6131","1","8","Male","approach_avoid_spark_v1","""event"",""trial"",""time""
""fullscreenenter"",""1"",""4238""
","
","
","""event"",""trial"",""time""
""fullscreenenter"",""1"",""4238""
","
","","","","","","580.2999999523163","images/cactus8.png","","","learning","-1","0","0","0","cactus","plants","2","1","","bad","[-6]"
"html-keyboard-response","221","841768","0.0-11.0-2.0-0.16","6131","1","8","Male","approach_avoid_spark_v1","""event"",""trial"",""time""
""fullscreenenter"",""1"",""4238""
","
","
","""event"",""trial"",""time""
""fullscreenenter"",""1"",""4238""
","
","","","","","","null","<div style=""font-size:60px;"">+</div>","null","","fixation","","","","","","","","","","",""
"aa-learning-trial","222","844776","0.0-11.0-2.0-1.16","6131","1","8","Male","approach_avoid_spark_v1","""event"",""trial"",""time""
""fullscreenenter"",""1"",""4238""
","
","
","""event"",""trial"",""time""
""fullscreenenter"",""1"",""4238""
","
","","","","","","1139.9000000953674","images/tree7.png","","","learning","5","5","1","1","tree","plants","2","1","","good","[6]"
"html-keyboard-response","223","845281","0.0-11.0-2.0-0.17","6131","1","8","Male","approach_avoid_spark_v1","""event"",""trial"",""time""
""fullscreenenter"",""1"",""4238""
","
","
","""event"",""trial"",""time""
""fullscreenenter"",""1"",""4238""
","
","","","","","","null","<div style=""font-size:60px;"">+</div>","null","","fixation","","","","","","","","","","",""
"aa-learning-trial","224","848290","0.0-11.0-2.0-1.17","6131","1","8","Male","approach_avoid_spark_v1","""event"",""trial"",""time""
""fullscreenenter"",""1"",""4238""
","
","
","""event"",""trial"",""time""
""fullscreenenter"",""1"",""4238""
","
","","","","","","1099.7999999523163","images/bush6.png","","","learning","2","2","1","1","bush","plants","2","1","","neutral","0"
"html-keyboard-response","225","848792","0.0-11.0-2.0-0.18","6131","1","8","Male","approach_avoid_spark_v1","""event"",""trial"",""time""
""fullscreenenter"",""1"",""4238""
","
","
","""event"",""trial"",""time""
""fullscreenenter"",""1"",""4238""
","
","","","","","","null","<div style=""font-size:60px;"">+</div>","null","","fixation","","","","","","","","","","",""
"aa-learning-trial","226","851801","0.0-11.0-2.0-1.18","6131","1","8","Male","approach_avoid_spark_v1","""event"",""trial"",""time""
""fullscreenenter"",""1"",""4238""
","
","
","""event"",""trial"",""time""
""fullscreenenter"",""1"",""4238""
","
","","","","","","875.8999998569489","images/tree7.png","","","learning","5","5","1","1","tree","plants","2","1","","good","[6]"
"html-keyboard-response","227","852305","0.0-11.0-2.0-0.19","6131","1","8","Male","approach_avoid_spark_v1","""event"",""trial"",""time""
""fullscreenenter"",""1"",""4238""
","
","
","""event"",""trial"",""time""
""fullscreenenter"",""1"",""4238""
","
","","","","","","null","<div style=""font-size:60px;"">+</div>","null","","fixation","","","","","","","","","","",""
"aa-learning-trial","228","855313","0.0-11.0-2.0-1.19","6131","1","8","Male","approach_avoid_spark_v1","""event"",""trial"",""time""
""fullscreenenter"",""1"",""4238""
","
","
","""event"",""trial"",""time""
""fullscreenenter"",""1"",""4238""
","
","","","","","","716.5","images/tree3.png","","","learning","7","0","0","0","tree","plants","2","1","","good","[6]"
"html-keyboard-response","229","855817","0.0-11.0-2.0-0.20","6131","1","8","Male","approach_avoid_spark_v1","""event"",""trial"",""time""
""fullscreenenter"",""1"",""4238""
","
","
","""event"",""trial"",""time""
""fullscreenenter"",""1"",""4238""
","
","","","","","","null","<div style=""font-size:60px;"">+</div>","null","","fixation","","","","","","","","","","",""
"aa-learning-trial","230","858825","0.0-11.0-2.0-1.20","6131","1","8","Male","approach_avoid_spark_v1","""event"",""trial"",""time""
""fullscreenenter"",""1"",""4238""
","
","
","""event"",""trial"",""time""
""fullscreenenter"",""1"",""4238""
","
","","","","","","714.2999999523163","images/bush5.png","","","learning","3","3","1","1","bush","plants","2","1","","neutral","0"
"html-keyboard-response","231","859329","0.0-11.0-2.0-0.21","6131","1","8","Male","approach_avoid_spark_v1","""event"",""trial"",""time""
""fullscreenenter"",""1"",""4238""
","
","
","""event"",""trial"",""time""
""fullscreenenter"",""1"",""4238""
","
","","","","","","null","<div style=""font-size:60px;"">+</div>","null","","fixation","","","","","","","","","","",""
"aa-learning-trial","232","862337","0.0-11.0-2.0-1.21","6131","1","8","Male","approach_avoid_spark_v1","""event"",""trial"",""time""
""fullscreenenter"",""1"",""4238""
","
","
","""event"",""trial"",""time""
""fullscreenenter"",""1"",""4238""
","
","","","","","","507.90000009536743","images/tree3.png","","","learning","7","7","1","1","tree","plants","2","1","","good","[6]"
"html-keyboard-response","233","862841","0.0-11.0-2.0-0.22","6131","1","8","Male","approach_avoid_spark_v1","""event"",""trial"",""time""
""fullscreenenter"",""1"",""4238""
","
","
","""event"",""trial"",""time""
""fullscreenenter"",""1"",""4238""
","
","","","","","","null","<div style=""font-size:60px;"">+</div>","null","","fixation","","","","","","","","","","",""
"aa-learning-trial","234","865850","0.0-11.0-2.0-1.22","6131","1","8","Male","approach_avoid_spark_v1","""event"",""trial"",""time""
""fullscreenenter"",""1"",""4238""
","
","
","""event"",""trial"",""time""
""fullscreenenter"",""1"",""4238""
","
","","","","","","995.5","images/bush2.png","","","learning","-9","-9","1","1","bush","plants","2","1","","neutral","0"
"html-keyboard-response","235","866353","0.0-11.0-2.0-0.23","6131","1","8","Male","approach_avoid_spark_v1","""event"",""trial"",""time""
""fullscreenenter"",""1"",""4238""
","
","
","""event"",""trial"",""time""
""fullscreenenter"",""1"",""4238""
","
","","","","","","null","<div style=""font-size:60px;"">+</div>","null","","fixation","","","","","","","","","","",""
"aa-learning-trial","236","869361","0.0-11.0-2.0-1.23","6131","1","8","Male","approach_avoid_spark_v1","""event"",""trial"",""time""
""fullscreenenter"",""1"",""4238""
","
","
","""event"",""trial"",""time""
""fullscreenenter"",""1"",""4238""
","
","","","","","","787.9000000953674","images/tree7.png","","","learning","5","0","0","0","tree","plants","2","1","","good","[6]"
"html-keyboard-response","237","869865","0.0-11.0-2.0-0.24","6131","1","8","Male","approach_avoid_spark_v1","""event"",""trial"",""time""
""fullscreenenter"",""1"",""4238""
","
","
","""event"",""trial"",""time""
""fullscreenenter"",""1"",""4238""
","
","","","","","","null","<div style=""font-size:60px;"">+</div>","null","","fixation","","","","","","","","","","",""
"aa-learning-trial","238","872873","0.0-11.0-2.0-1.24","6131","1","8","Male","approach_avoid_spark_v1","""event"",""trial"",""time""
""fullscreenenter"",""1"",""4238""
","
","