"trial_type","trial_index","time_elapsed","internal_node_id","subject_id","task_condition","age","gender","task_version","interactions","blur_events","focus_events","fullscreenenter_events","fullscreenexit_events","success","timeout","failed_images","failed_audio","failed_video","rt","stimulus","response","button_pressed","task_part","approach_reward","points","key_press","option_selected","stim_cat","task_block","block_condition","block_number","correct","cat_type","mean_cat_reward"
"pavlovia","0","3","0.0-0.0","4024","1","15","Male","approach_avoid_spark_v1","""event"",""trial"",""time""
""fullscreenenter"",""1"",""2366""
","
","
","""event"",""trial"",""time""
""fullscreenenter"",""1"",""2366""
","
","","","","","","","","","","","","","","","","","","","","",""
"fullscreen","1","3357","0.0-1.0","4024","1","15","Male","approach_avoid_spark_v1","""event"",""trial"",""time""
""fullscreenenter"",""1"",""2366""
","
","
","""event"",""trial"",""time""
""fullscreenenter"",""1"",""2366""
","
","true","","","","","","","","","","","","","","","","","","","",""
"preload","2","10755","0.0-2.0","4024","1","15","Male","approach_avoid_spark_v1","""event"",""trial"",""time""
""fullscreenenter"",""1"",""2366""
","
","
","""event"",""trial"",""time""
""fullscreenenter"",""1"",""2366""
","
","true","false","[]","[]","[]","","","","","","","","","","","","","","","",""
"audio-keyboard-response","3","14607","0.0-3.0","4024","1","15","Male","approach_avoid_spark_v1","""event"",""trial"",""time""
""fullscreenenter"",""1"",""2366""
","
","
","""event"",""trial"",""time""
""fullscreenenter"",""1"",""2366""
","
","","","","","","3854.5124716553287","audio/beep_loop.wav"," ","","","","","","","","","","","","",""
"audio-button-response","4","16498","0.0-4.0","4024","1","15","Male","approach_avoid_spark_v1","""event"",""trial"",""time""
""fullscreenenter"",""1"",""2366""
","
","
","""event"",""trial"",""time""
""fullscreenenter"",""1"",""2366""
","
","","","","","","1887","audio/shark.wav","4","","","","","","","","","","","","",""
"audio-button-response","5","18858","0.0-5.0","4024","1","15","Male","approach_avoid_spark_v1","""event"",""trial"",""time""
""fullscreenenter"",""1"",""2366""
","
","
","""event"",""trial"",""time""
""fullscreenenter"",""1"",""2366""
","
","","","","","","1353","audio/turtle.wav","1","","","","","","","","","","","","",""
"preload","6","22124","0.0-6.0","4024","1","15","Male","approach_avoid_spark_v1","""event"",""trial"",""time""
""fullscreenenter"",""1"",""2366""
","
","
","""event"",""trial"",""time""
""fullscreenenter"",""1"",""2366""
","
","true","false","[]","[]","[]","","","","","","","","","","","","","","","",""
"html-keyboard-response","7","25027","0.0-7.0","4024","1","15","Male","approach_avoid_spark_v1","""event"",""trial"",""time""
""fullscreenenter"",""1"",""2366""
","
","
","""event"",""trial"",""time""
""fullscreenenter"",""1"",""2366""
","
","","","","","","2901.39999999851","Welcome to the experiment. Press any key to begin and to advance the instructions."," ","","","","","","","","","","","","",""
"learning-instructions","8","33543","0.0-8.0-0.0-0.0","4024","1","15","Male","approach_avoid_spark_v1","""event"",""trial"",""time""
""fullscreenenter"",""1"",""2366""
","
","
","""event"",""trial"",""time""
""fullscreenenter"",""1"",""2366""
","
","","","","","","1558.7000000029802","<p> Welcome! Today you are going to play 6 different rounds of a decision-making game. </p><p> Use the mouse to click next to continue. </p>","","0","instructions","","","","","","","","","","",""
"learning-instructions","9","39526","0.0-8.0-0.0-0.1","4024","1","15","Male","approach_avoid_spark_v1","""event"",""trial"",""time""
""fullscreenenter"",""1"",""2366""
","
","
","""event"",""trial"",""time""
""fullscreenenter"",""1"",""2366""
","
","","","","","","3247.60000000149","<p> You will start with a practice round to learn the rules. </p>","","0","instructions","","","","","","","","","","",""
"learning-instructions","10","44223","0.0-8.0-0.0-0.2","4024","1","15","Male","approach_avoid_spark_v1","""event"",""trial"",""time""
""fullscreenenter"",""1"",""2366""
","
","
","""event"",""trial"",""time""
""fullscreenenter"",""1"",""2366""
","
","","","","","","1245.2000000029802","<p> Your goal in this round is to give out sports equipment to kids. </p></div>","","0","instructions","","","","","","","","","","",""
"learning-instructions","11","52334","0.0-8.0-0.0-0.3","4024","1","15","Male","approach_avoid_spark_v1","""event"",""trial"",""time""
""fullscreenenter"",""1"",""2366""
","
","
","""event"",""trial"",""time""
""fullscreenenter"",""1"",""2366""
","
","","","","","","560.7999999970198","<p> The kids only like some of the equipment.  </p><p> On each turn, you will see a piece of sports equipment.   </p><p> You need to decide whether to give it to the kids or not.  </p>","","0","instructions","","","","","","","","","","",""
"learning-instructions","12","57966","0.0-8.0-0.0-0.4","4024","1","15","Male","approach_avoid_spark_v1","""event"",""trial"",""time""
""fullscreenenter"",""1"",""2366""
","
","
","""event"",""trial"",""time""
""fullscreenenter"",""1"",""2366""
","
","","","","","","875.7000000029802","<p> You can give them the equipment by pressing 1 and choose not to give it to them by pressing 0. </p><br><div class=""choice-instructions-grid""> <div class=""choice-option""><img src=""images/approach.png"" class=""choice-option-img"" stage=""instructions"" position=""0"" ><div class=""choice-option-text""> Press ""1."" </div></div><div class=""choice-option""><img src=""images/avoid.png"" class=""choice-option-img"" stage=""instructions"" position=""1"" ><div class=""choice-option-text""> Press ""0."" </div></div>","","0","instructions","","","","","","","","","","",""
"learning-instructions","13","65955","0.0-8.0-0.0-0.5","4024","1","15","Male","approach_avoid_spark_v1","""event"",""trial"",""time""
""fullscreenenter"",""1"",""2366""
","
","
","""event"",""trial"",""time""
""fullscreenenter"",""1"",""2366""
","
","","","","","","597.8000000044703","<p> If you give them a piece of equipment they like, they will be happy! </p><p> But if you give them a piece of equipment they do not like, they will be sad. </p>","","0","instructions","","","","","","","","","","",""
"learning-instructions","14","77019","0.0-8.0-0.0-0.6","4024","1","15","Male","approach_avoid_spark_v1","""event"",""trial"",""time""
""fullscreenenter"",""1"",""2366""
","
","
","""event"",""trial"",""time""
""fullscreenenter"",""1"",""2366""
","
","","","","","","556.3000000044703","<p> You will earn points based on how you make kids feel. </p><p> If you make them happy, you will WIN anywhere from 1 - 9 points, </p><p> but if you make them sad, you will LOSE anywhere from 1 - 9 points. </p>","","0","instructions","","","","","","","","","","",""
"learning-instructions","15","86928","0.0-8.0-0.0-0.7","4024","1","15","Male","approach_avoid_spark_v1","""event"",""trial"",""time""
""fullscreenenter"",""1"",""2366""
","
","
","""event"",""trial"",""time""
""fullscreenenter"",""1"",""2366""
","
","","","","","","352.30000000447035","<p> You will see how many points you won or lost in the center of the screen. </p><p> Here is what you would see if you won 6 points: </p><p style=""color:green;font-size:50px;font-weight:bolder"">6</p><p style=""color:green"">The text is GREEN because you WON points.</p>","","0","instructions","","","","","","","","","","",""
"learning-instructions","16","93157","0.0-8.0-0.0-0.8","4024","1","15","Male","approach_avoid_spark_v1","""event"",""trial"",""time""
""fullscreenenter"",""1"",""2366""
","
","
","""event"",""trial"",""time""
""fullscreenenter"",""1"",""2366""
","
","","","","","","719","<p> And here is what you would see if you lost 4 points: </p><p style=""color:red;font-size:50px;font-weight:bolder"">-4</p><p style=""color:red"">The text is RED because you LOST points. </p>","","0","instructions","","","","","","","","","","",""
"learning-instructions","17","109064","0.0-8.0-0.0-0.9","4024","1","15","Male","approach_avoid_spark_v1","""event"",""trial"",""time""
""fullscreenenter"",""1"",""2366""
","
","
","""event"",""trial"",""time""
""fullscreenenter"",""1"",""2366""
","
","","","","","","1201.6000000014901","<p> Some of the equipment will make the kids VERY happy or sad. </p><p> These pieces of equipment will make you win or lose LOTS of points. </p><p> Other pieces of equipment will only make the kids a little happy or sad. </p><p> These pieces of equipment will make you win or lose small amounts of points. </p>","","0","instructions","","","","","","","","","","",""
"learning-instructions","18","120602","0.0-8.0-0.0-0.10","4024","1","15","Male","approach_avoid_spark_v1","""event"",""trial"",""time""
""fullscreenenter"",""1"",""2366""
","
","
","""event"",""trial"",""time""
""fullscreenenter"",""1"",""2366""
","
","","","","","","914.8999999985099","<p> If you choose not to give them the equipment, you will not win or lose any points. </p><p>  However, in the center of the screen, you will see the number of points you WOULD HAVE won or lost if you had given them the equipment. </p>","","0","instructions","","","","","","","","","","",""
"learning-instructions","19","143072","0.0-8.0-0.0-0.11","4024","1","15","Male","approach_avoid_spark_v1","""event"",""trial"",""time""
""fullscreenenter"",""1"",""2366""
","
","
","""event"",""trial"",""time""
""fullscreenenter"",""1"",""2366""
","
","","","","","","941.2000000029802","<p> Here is what you might see if you did not give the equipment to the kids but it would have made them happy: </p><p style=""color:grey; font-size:50px; display: inline-block; border-spacing: 15px; border-width:3px; border-style:solid; border-color:red"">  &nbsp; 7 &nbsp; </p><p> Remember, in this case, you would not win or lose ANY points because you did not give them the equipment.  </p><p style=""color:grey"">The text is GREY because you earned ZERO points. </p><p style=""color:red"">However, choosing to give the kids the equipment would have made you win points. The box around the text is RED because you chose the worse option. </p>","","0","instructions","","","","","","","","","","",""
"learning-instructions","20","165126","0.0-8.0-0.0-0.12","4024","1","15","Male","approach_avoid_spark_v1","""event"",""trial"",""time""
""fullscreenenter"",""1"",""2366""
","
","
","""event"",""trial"",""time""
""fullscreenenter"",""1"",""2366""
","
","","","","","","982.1999999955297","<p> Here is what you might see if you did not give the equipment to the kids but it would have made them sad: </p><p style=""color:grey;font-size:50px; display: inline-block; border-spacing: 15px; border-width:3px; border-style:solid; border-color:green"">  &nbsp; -8 &nbsp; </p><p> Remember, in this case, you would not win or lose ANY points because you did not give them the equipment.  </p><p style=""color:grey"">The text is GREY because you earned ZERO points. </p><p  style=""color:green""> Choosing to give the kids the equipment would have made you lose points. The box around the text is GREEN because you chose the better option.</p>","","0","instructions","","","","","","","","","","",""
"learning-instructions","21","184147","0.0-8.0-0.0-0.13","4024","1","15","Male","approach_avoid_spark_v1","""event"",""trial"",""time""
""fullscreenenter"",""1"",""2366""
","
","
","""event"",""trial"",""time""
""fullscreenenter"",""1"",""2366""
","
","","","","","","9931.79999999702","<p> You will have 3 seconds to make each choice. Try to respond before time runs out! </p><p> You will lose 5 points each time you do not make a response. </p>","","0","instructions","","","","","","","","","","",""
"learning-instructions","22","242673","0.0-8.0-0.0-0.14","4024","1","15","Male","approach_avoid_spark_v1","""event"",""trial"",""time""
""fullscreenenter"",""1"",""2366""
","
","
","""event"",""trial"",""time""
""fullscreenenter"",""1"",""2366""
","
","","","","","","53107","<p> This is just a practice round, but in the real game, your bonus payment will depend on your total number of points.","","0","instructions","","","","","","","","","","",""
"learning-instructions","23","248905","0.0-8.0-0.0-0.15","4024","1","15","Male","approach_avoid_spark_v1","""event"",""trial"",""time""
""fullscreenenter"",""1"",""2366""
","
","
","""event"",""trial"",""time""
""fullscreenenter"",""1"",""2366""
","
","","","","","","321","<p> Remember, you can give them the equipment by pressing 1 and choose not to give it to them by pressing 0. </p><br><div class=""choice-instructions-grid""> <div class=""choice-option""><img src=""images/approach.png"" class=""choice-option-img"" stage=""instructions"" position=""0"" ><div class=""choice-option-text""> Press ""1."" </div></div><div class=""choice-option""><img src=""images/avoid.png"" class=""choice-option-img"" stage=""instructions"" position=""1"" ><div class=""choice-option-text""> Press ""0."" </div></div>","","0","instructions","","","","","","","","","","",""
"html-button-response","24","250988","0.0-8.0-1.0","4024","1","15","Male","approach_avoid_spark_v1","""event"",""trial"",""time""
""fullscreenenter"",""1"",""2366""
","
","
","""event"",""trial"",""time""
""fullscreenenter"",""1"",""2366""
","
","","","","","","1975","<p> Ready to practice? </p>","0","","","","","","","","","","","","",""
"html-keyboard-response","25","251600","0.0-8.0-2.0-0.0","4024","1","15","Male","approach_avoid_spark_v1","""event"",""trial"",""time""
""fullscreenenter"",""1"",""2366""
","
","
","""event"",""trial"",""time""
""fullscreenenter"",""1"",""2366""
","
","","","","","","null","<div style=""font-size:60px;"">+</div>","null","","fixation","","","","","","","","","","",""
"aa-learning-trial","26","254608","0.0-8.0-2.0-1.0","4024","1","15","Male","approach_avoid_spark_v1","""event"",""trial"",""time""
""fullscreenenter"",""1"",""2366""
","
","
","""event"",""trial"",""time""
""fullscreenenter"",""1"",""2366""
","
","","","","","","823.8999999985099","images/racket3.png","","","learning","-1","-1","1","1","practice","practice","practice","-1","","",""
"html-keyboard-response","27","255112","0.0-8.0-2.0-0.1","4024","1","15","Male","approach_avoid_spark_v1","""event"",""trial"",""time""
""fullscreenenter"",""1"",""2366""
","
","
","""event"",""trial"",""time""
""fullscreenenter"",""1"",""2366""
","
","","","","","","null","<div style=""font-size:60px;"">+</div>","null","","fixation","","","","","","","","","","",""
"aa-learning-trial","28","258120","0.0-8.0-2.0-1.1","4024","1","15","Male","approach_avoid_spark_v1","""event"",""trial"",""time""
""fullscreenenter"",""1"",""2366""
","
","
","""event"",""trial"",""time""
""fullscreenenter"",""1"",""2366""
","
","","","","","","714.1999999955297","images/racket1.png","","","learning","-6","0","0","0","practice","practice","practice","-1","","",""
"html-keyboard-response","29","258624","0.0-8.0-2.0-0.2","4024","1","15","Male","approach_avoid_spark_v1","""event"",""trial"",""time""
""fullscreenenter"",""1"",""2366""
","
","
","""event"",""trial"",""time""
""fullscreenenter"",""1"",""2366""
","
","","","","","","null","<div style=""font-size:60px;"">+</div>","null","","fixation","","","","","","","","","","",""
"aa-learning-trial","30","261632","0.0-8.0-2.0-1.2","4024","1","15","Male","approach_avoid_spark_v1","""event"",""trial"",""time""
""fullscreenenter"",""1"",""2366""
","
","
","""event"",""trial"",""time""
""fullscreenenter"",""1"",""2366""
","
","","","","","","887.5","images/racket1.png","","","learning","-8","-8","1","1","practice","practice","practice","-1","","",""
"html-keyboard-response","31","262137","0.0-8.0-2.0-0.3","4024","1","15","Male","approach_avoid_spark_v1","""event"",""trial"",""time""
""fullscreenenter"",""1"",""2366""
","
","
","""event"",""trial"",""time""
""fullscreenenter"",""1"",""2366""
","
","","","","","","null","<div style=""font-size:60px;"">+</div>","null","","fixation","","","","","","","","","","",""
"aa-learning-trial","32","265145","0.0-8.0-2.0-1.3","4024","1","15","Male","approach_avoid_spark_v1","""event"",""trial"",""time""
""fullscreenenter"",""1"",""2366""
","
","
","""event"",""trial"",""time""
""fullscreenenter"",""1"",""2366""
","
","","","","","","1016","images/ball2.png","","","learning","5","5","1","1","practice","practice","practice","-1","","",""
"html-keyboard-response","33","265649","0.0-8.0-2.0-0.4","4024","1","15","Male","approach_avoid_spark_v1","""event"",""trial"",""time""
""fullscreenenter"",""1"",""2366""
","
","
","""event"",""trial"",""time""
""fullscreenenter"",""1"",""2366""
","
","","","","","","null","<div style=""font-size:60px;"">+</div>","null","","fixation","","","","","","","","","","",""
"aa-learning-trial","34","268656","0.0-8.0-2.0-1.4","4024","1","15","Male","approach_avoid_spark_v1","""event"",""trial"",""time""
""fullscreenenter"",""1"",""2366""
","
","
","""event"",""trial"",""time""
""fullscreenenter"",""1"",""2366""
","
","","","","","","1270.1000000014901","images/racket2.png","","","learning","-6","-6","1","1","practice","practice","practice","-1","","",""
"html-keyboard-response","35","269161","0.0-8.0-2.0-0.5","4024","1","15","Male","approach_avoid_spark_v1","""event"",""trial"",""time""
""fullscreenenter"",""1"",""2366""
","
","
","""event"",""trial"",""time""
""fullscreenenter"",""1"",""2366""
","
","","","","","","null","<div style=""font-size:60px;"">+</div>","null","","fixation","","","","","","","","","","",""
"aa-learning-trial","36","272168","0.0-8.0-2.0-1.5","4024","1","15","Male","approach_avoid_spark_v1","""event"",""trial"",""time""
""fullscreenenter"",""1"",""2366""
","
","
","""event"",""trial"",""time""
""fullscreenenter"",""1"",""2366""
","
","","","","","","1021.1000000014901","images/racket2.png","","","learning","6","0","0","0","practice","practice","practice","-1","","",""
"html-keyboard-response","37","272673","0.0-8.0-2.0-0.6","4024","1","15","Male","approach_avoid_spark_v1","""event"",""trial"",""time""
""fullscreenenter"",""1"",""2366""
","
","
","""event"",""trial"",""time""
""fullscreenenter"",""1"",""2366""
","
","","","","","","null","<div style=""font-size:60px;"">+</div>","null","","fixation","","","","","","","","","","",""
"aa-learning-trial","38","275680","0.0-8.0-2.0-1.6","4024","1","15","Male","approach_avoid_spark_v1","""event"",""trial"",""time""
""fullscreenenter"",""1"",""2366""
","
","
","""event"",""trial"",""time""
""fullscreenenter"",""1"",""2366""
","
","","","","","","1020.3999999985099","images/ball3.png","","","learning","7","7","1","1","practice","practice","practice","-1","","",""
"html-keyboard-response","39","276185","0.0-8.0-2.0-0.7","4024","1","15","Male","approach_avoid_spark_v1","""event"",""trial"",""time""
""fullscreenenter"",""1"",""2366""
","
","
","""event"",""trial"",""time""
""fullscreenenter"",""1"",""2366""
","
","","","","","","null","<div style=""font-size:60px;"">+</div>","null","","fixation","","","","","","","","","","",""
"aa-learning-trial","40","279193","0.0-8.0-2.0-1.7","4024","1","15","Male","approach_avoid_spark_v1","""event"",""trial"",""time""
""fullscreenenter"",""1"",""2366""
","
","
","""event"",""trial"",""time""
""fullscreenenter"",""1"",""2366""
","
","","","","","","698.5999999940395","images/racket4.png","","","learning","5","0","0","0","practice","practice","practice","-1","","",""
"html-keyboard-response","41","279697","0.0-8.0-2.0-0.8","4024","1","15","Male","approach_avoid_spark_v1","""event"",""trial"",""time""
""fullscreenenter"",""1"",""2366""
","
","
","""event"",""trial"",""time""
""fullscreenenter"",""1"",""2366""
","
","","","","","","null","<div style=""font-size:60px;"">+</div>","null","","fixation","","","","","","","","","","",""
"aa-learning-trial","42","282705","0.0-8.0-2.0-1.8","4024","1","15","Male","approach_avoid_spark_v1","""event"",""trial"",""time""
""fullscreenenter"",""1"",""2366""
","
","
","""event"",""trial"",""time""
""fullscreenenter"",""1"",""2366""
","
","","","","","","909.7000000029802","images/racket3.png","","","learning","-5","0","0","0","practice","practice","practice","-1","","",""
"html-keyboard-response","43","283209","0.0-8.0-2.0-0.9","4024","1","15","Male","approach_avoid_spark_v1","""event"",""trial"",""time""
""fullscreenenter"",""1"",""2366""
","
","
","""event"",""trial"",""time""
""fullscreenenter"",""1"",""2366""
","
","","","","","","null","<div style=""font-size:60px;"">+</div>","null","","fixation","","","","","","","","","","",""
"aa-learning-trial","44","286218","0.0-8.0-2.0-1.9","4024","1","15","Male","approach_avoid_spark_v1","""event"",""trial"",""time""
""fullscreenenter"",""1"",""2366""
","
","
","""event"",""trial"",""time""
""fullscreenenter"",""1"",""2366""
","
","","","","","","793.1000000014901","images/ball2.png","","","learning","-7","-7","1","1","practice","practice","practice","-1","","",""
"html-keyboard-response","45","286720","0.0-8.0-2.0-0.10","4024","1","15","Male","approach_avoid_spark_v1","""event"",""trial"",""time""
""fullscreenenter"",""1"",""2366""
","
","
","""event"",""trial"",""time""
""fullscreenenter"",""1"",""2366""
","
","","","","","","null","<div style=""font-size:60px;"">+</div>","null","","fixation","","","","","","","","","","",""
"aa-learning-trial","46","289730","0.0-8.0-2.0-1.10","4024","1","15","Male","approach_avoid_spark_v1","""event"",""trial"",""time""
""fullscreenenter"",""1"",""2366""
","
","
","""event"",""trial"",""time""
""fullscreenenter"",""1"",""2366""
","
","","","","","","516.5999999940395","images/ball2.png","","","learning","2","0","0","0","practice","practice","practice","-1","","",""
"html-keyboard-response","47","290233","0.0-8.0-2.0-0.11","4024","1","15","Male","approach_avoid_spark_v1","""event"",""trial"",""time""
""fullscreenenter"",""1"",""2366""
","
","
","""event"",""trial"",""time""
""fullscreenenter"",""1"",""2366""
","
","","","","","","null","<div style=""font-size:60px;"">+</div>","null","","fixation","","","","","","","","","","",""
"aa-learning-trial","48","293245","0.0-8.0-2.0-1.11","4024","1","15","Male","approach_avoid_spark_v1","""event"",""trial"",""time""
""fullscreenenter"",""1"",""2366""
","
","
","""event"",""trial"",""time""
""fullscreenenter"",""1"",""2366""
","
","","","","","","23","images/ball4.png","","","learning","2","2","1","1","practice","practice","practice","-1","","",""
"html-button-response","49","295156","0.0-8.0-3.0","4024","1","15","Male","approach_avoid_spark_v1","""event"",""trial"",""time""
""fullscreenenter"",""1"",""2366""
","
","
","""event"",""trial"",""time""
""fullscreenenter"",""1"",""2366""
","
","","","","","","1907.8999999985099","<p> You earned -8 points in the practice round! </p>","0","","break","","","","","","","","","","",""
"learning-instructions","50","302641","0.0-8.0-4.0-0.0","4024","1","15","Male","approach_avoid_spark_v1","""event"",""trial"",""time""
""fullscreenenter"",""1"",""2366""
","
","
","""event"",""trial"",""time""
""fullscreenenter"",""1"",""2366""
","
","","","","","","1371.3000000044703","<p> It's almost time to start the real game. </p><p> Before you start, we're going to ask you a few questions about how the game works. </p>","","0","instructions","","","","","","","","","","",""
"preload","51","304025","0.0-8.0-5.0","4024","1","15","Male","approach_avoid_spark_v1","""event"",""trial"",""time""
""fullscreenenter"",""1"",""2366""
","
","
","""event"",""trial"",""time""
""fullscreenenter"",""1"",""2366""
","
","true","false","[]","[]","[]","","","","","","","","","","","","","","","",""
"comp-q","52","322929","0.0-8.0-6.0-0.0","4024","1","15","Male","approach_avoid_spark_v1","""event"",""trial"",""time""
""fullscreenenter"",""1"",""2366""
","
","
","""event"",""trial"",""time""
""fullscreenenter"",""1"",""2366""
","
","","","","","","13910.29999999702","<p> <b> True or False? </b> </p><p> If you see a number in GREY, that means you earned that many points. </p>","","1","comp_question","","","","","","","","","true","",""
"comp-q","53","332389","0.0-8.0-6.0-1.0","4024","1","15","Male","approach_avoid_spark_v1","""event"",""trial"",""time""
""fullscreenenter"",""1"",""2366""
","
","
","""event"",""trial"",""time""
""fullscreenenter"",""1"",""2366""
","
","","","","","","1094.1999999955297","<p><b> That's right! </b> If you see a grey number, it means you earned ZERO points. <br> The grey numbers show the points you WOULD HAVE earned if you had made the other choice. </p>","","0","comp_answer","","","","","","","","","","",""
"comp-q","54","337833","0.0-8.0-7.0-0.0","4024","1","15","Male","approach_avoid_spark_v1","""event"",""trial"",""time""
""fullscreenenter"",""1"",""2366""
","
","
","""event"",""trial"",""time""
""fullscreenenter"",""1"",""2366""
","
","","","","","","750.3999999985099","<p> <b> True or False? </b> </p><p> You will have as much time as you want to make each choice. </p>","","1","comp_question","","","","","","","","","true","",""
"comp-q","55","342782","0.0-8.0-7.0-1.0","4024","1","15","Male","approach_avoid_spark_v1","""event"",""trial"",""time""
""fullscreenenter"",""1"",""2366""
","
","
","""event"",""trial"",""time""
""fullscreenenter"",""1"",""2366""
","
","","","","","","901.6999999955297","<p> <b> That's right! </b> You will only have 3 seconds to make each choice. </p>","","0","comp_answer","","","","","","","","","","",""
"comp-q","56","348499","0.0-8.0-8.0-0.0","4024","1","15","Male","approach_avoid_spark_v1","""event"",""trial"",""time""
""fullscreenenter"",""1"",""2366""
","
","
","""event"",""trial"",""time""
""fullscreenenter"",""1"",""2366""
","
","","","","","","1056.1000000014901","<p> <b> True or False? </b> </p><p> You should use the '1' and '0' keys to make your choices. </p>","","0","comp_question","","","","","","","","","true","",""
"comp-q","57","354312","0.0-8.0-8.0-1.0","4024","1","15","Male","approach_avoid_spark_v1","""event"",""trial"",""time""
""fullscreenenter"",""1"",""2366""
","
","
","""event"",""trial"",""time""
""fullscreenenter"",""1"",""2366""
","
","","","","","","1207.5","<p> <b> That's right! </b> You should use the '1' and '0' keys to make each choice. </p>","","0","comp_answer","","","","","","","","","","",""
"learning-instructions","58","361665","0.0-8.0-9.0-0.0","4024","1","15","Male","approach_avoid_spark_v1","""event"",""trial"",""time""
""fullscreenenter"",""1"",""2366""
","
","
","""event"",""trial"",""time""
""fullscreenenter"",""1"",""2366""
","
","","","","","","1076","<p> It's now time to start the real game. </p>Do your best, because the points you earn in the next rounds will influence your bonus payment. </p>","","0","instructions","","","","","","","","","","",""
"preload","59","361790","0.0-9.0-0.0","4024","1","15","Male","approach_avoid_spark_v1","""event"",""trial"",""time""
""fullscreenenter"",""1"",""2366""
","
","
","""event"",""trial"",""time""
""fullscreenenter"",""1"",""2366""
","
","true","false","[]","[]","[]","","","","","","","","","","","","","","","",""
"learning-instructions","60","367770","0.0-9.0-1.0-0.0","4024","1","15","Male","approach_avoid_spark_v1","""event"",""trial"",""time""
""fullscreenenter"",""1"",""2366""
","
","
","""event"",""trial"",""time""
""fullscreenenter"",""1"",""2366""
","
","","","","","","997.3999999985099","<p> Your goal in this round is to sell different plants to a picky customer. </p></div>","","0","instructions","","","","","","","","","","",""
"learning-instructions","61","377721","0.0-9.0-1.0-0.1","4024","1","15","Male","approach_avoid_spark_v1","""event"",""trial"",""time""
""fullscreenenter"",""1"",""2366""
","
","
","""event"",""trial"",""time""
""fullscreenenter"",""1"",""2366""
","
","","","","","","557.8000000044703","<p> The customer likes some plants and dislikes others.  </p><p> On each turn, you will see a plant.   </p><p> You need to decide whether to offer it to the customer or not.  </p>","","0","instructions","","","","","","","","","","",""
"learning-instructions","62","383842","0.0-9.0-1.0-0.2","4024","1","15","Male","approach_avoid_spark_v1","""event"",""trial"",""time""
""fullscreenenter"",""1"",""2366""
","
","
","""event"",""trial"",""time""
""fullscreenenter"",""1"",""2366""
","
","","","","","","449.1000000014901","<p> You can offer the plant by pressing 1 and decide to not offer it by pressing 0. </p><br><div class=""choice-instructions-grid""> <div class=""choice-option""><img src=""images/approach.png"" class=""choice-option-img"" stage=""instructions"" position=""0"" ><div class=""choice-option-text""> Press ""1."" </div></div><div class=""choice-option""><img src=""images/avoid.png"" class=""choice-option-img"" stage=""instructions"" position=""1"" ><div class=""choice-option-text""> Press ""0."" </div></div>","","0","instructions","","","","","","","","","","",""
"learning-instructions","63","392934","0.0-9.0-1.0-0.3","4024","1","15","Male","approach_avoid_spark_v1","""event"",""trial"",""time""
""fullscreenenter"",""1"",""2366""
","
","
","""event"",""trial"",""time""
""fullscreenenter"",""1"",""2366""
","
","","","","","","293.19999999552965","<p> If you offer a plant to the customer that she likes, she will be very pleased! </p><p> But if you offer a plant that she does NOT like, she will be annoyed. </p>","","0","instructions","","","","","","","","","","",""
"learning-instructions","64","406652","0.0-9.0-1.0-0.4","4024","1","15","Male","approach_avoid_spark_v1","""event"",""trial"",""time""
""fullscreenenter"",""1"",""2366""
","
","
","""event"",""trial"",""time""
""fullscreenenter"",""1"",""2366""
","
","","","","","","241.29999999701977","<p> You will earn points based on how you made the customer feel. </p><p> If you made her pleased, you will WIN anywhere from 1 - 9 points, </p><p> but if you made her annoyed, you will LOSE anywhere from 1 - 9 points. </p>","","0","instructions","","","","","","","","","","",""
"learning-instructions","65","414262","0.0-9.0-1.0-0.5","4024","1","15","Male","approach_avoid_spark_v1","""event"",""trial"",""time""
""fullscreenenter"",""1"",""2366""
","
","
","""event"",""trial"",""time""
""fullscreenenter"",""1"",""2366""
","
","","","","","","188.89999999850988","<p> You will see how many points you won or lost in the center of the screen. </p><p> Here is what you would see if you won 5 points: </p><p style=""color:green;font-size:50px;font-weight:bolder"">5</p>","","0","instructions","","","","","","","","","","",""
"learning-instructions","66","417900","0.0-9.0-1.0-0.6","4024","1","15","Male","approach_avoid_spark_v1","""event"",""trial"",""time""
""fullscreenenter"",""1"",""2366""
","
","
","""event"",""trial"",""time""
""fullscreenenter"",""1"",""2366""
","
","","","","","","105.5","<p> And here is what you would see if you lost 3 points: </p><p style=""color:red;font-size:50px;font-weight:bolder"">-3</p>","","0","instructions","","","","","","","","","","",""
"learning-instructions","67","432895","0.0-9.0-1.0-0.7","4024","1","15","Male","approach_avoid_spark_v1","""event"",""trial"",""time""
""fullscreenenter"",""1"",""2366""
","
","
","""event"",""trial"",""time""
""fullscreenenter"",""1"",""2366""
","
","","","","","","308.79999999701977","<p> Some plants will make the customer VERY pleased or annoyed. </p><p> These plants will make you win or lose LOTS of points. </p><p> The customer will have less strong feelings about other plants. </p><p> These plants will make you win or lose small amounts of points. </p>","","0","instructions","","","","","","","","","","",""
"learning-instructions","68","446808","0.0-9.0-1.0-0.8","4024","1","15","Male","approach_avoid_spark_v1","""event"",""trial"",""time""
""fullscreenenter"",""1"",""2366""
","
","
","""event"",""trial"",""time""
""fullscreenenter"",""1"",""2366""
","
","","","","","","521.1000000014901","<p> If you choose to not offer the plant to the customer, you will not win or lose any points. </p><p>  However, in the center of the screen, you will see the number of points you WOULD HAVE won or lost if you had offered the plant. </p>","","0","instructions","","","","","","","","","","",""
"learning-instructions","69","459368","0.0-9.0-1.0-0.9","4024","1","15","Male","approach_avoid_spark_v1","""event"",""trial"",""time""
""fullscreenenter"",""1"",""2366""
","
","
","""event"",""trial"",""time""
""fullscreenenter"",""1"",""2366""
","
","","","","","","727.6000000014901","<p> Here is what you might see if you did not offer the plant but the customer would have liked it: </p><p style=""color:grey; font-size:50px; display: inline-block; border-spacing: 15px; border-width:3px; border-style:solid; border-color:red"">  &nbsp; 6 &nbsp; </p><p> Remember, in this case, you would not win or lose ANY points because you did not offer the plant.  </p>","","0","instructions","","","","","","","","","","",""
"learning-instructions","70","467728","0.0-9.0-1.0-0.10","4024","1","15","Male","approach_avoid_spark_v1","""event"",""trial"",""time""
""fullscreenenter"",""1"",""2366""
","
","
","""event"",""trial"",""time""
""fullscreenenter"",""1"",""2366""
","
","","","","","","531.3999999985099","<p> Try to make the best choice for each plant because </p><p> at the end of the game, you will earn bonus money based on how many points you earned. </p>","","0","instructions","","","","","","","","","","",""
"learning-instructions","71","476393","0.0-9.0-1.0-0.11","4024","1","15","Male","approach_avoid_spark_v1","""event"",""trial"",""time""
""fullscreenenter"",""1"",""2366""
","
","
","""event"",""trial"",""time""
""fullscreenenter"",""1"",""2366""
","
","","","","","","476.6000000014901","<p> You will have 3 seconds to make each choice. Try to respond before time runs out! </p><p> You will lose 5 points each time you do not make a response. </p>","","0","instructions","","","","","","","","","","",""
"html-keyboard-response","72","477012","0.0-9.0-2.0-0.0","4024","1","15","Male","approach_avoid_spark_v1","""event"",""trial"",""time""
""fullscreenenter"",""1"",""2366""
","
","
","""event"",""trial"",""time""
""fullscreenenter"",""1"",""2366""
","
","","","","","","null","<div style=""font-size:60px;"">+</div>","null","","fixation","","","","","","","","","","",""
"aa-learning-trial","73","480019","0.0-9.0-2.0-1.0","4024","1","15","Male","approach_avoid_spark_v1","""event"",""trial"",""time""
""fullscreenenter"",""1"",""2366""
","
","
","""event"",""trial"",""time""
""fullscreenenter"",""1"",""2366""
","
","","","","","","1257.2999999970198","images/flower1.png","","","learning","-6","-6","1","1","flower","plants","1","0","","bad","[-6]"
"html-keyboard-response","74","480530","0.0-9.0-2.0-0.1","4024","1","15","Male","approach_avoid_spark_v1","""event"",""trial"",""time""
""fullscreenenter"",""1"",""2366""
","
","
","""event"",""trial"",""time""
""fullscreenenter"",""1"",""2366""
","
","","","","","","null","<div style=""font-size:60px;"">+</div>","null","","fixation","","","","","","","","","","",""
"aa-learning-trial","75","483537","0.0-9.0-2.0-1.1","4024","1","15","Male","approach_avoid_spark_v1","""event"",""trial"",""time""
""fullscreenenter"",""1"",""2366""
","
","
","""event"",""trial"",""time""
""fullscreenenter"",""1"",""2366""
","
","","","","","","840.5","images/cactus8.png","","","learning","1","0","0","0","cactus","plants","1","0","","neutral","0"
"html-keyboard-response","76","484042","0.0-9.0-2.0-0.2","4024","1","15","Male","approach_avoid_spark_v1","""event"",""trial"",""time""
""fullscreenenter"",""1"",""2366""
","
","
","""event"",""trial"",""time""
""fullscreenenter"",""1"",""2366""
","
","","","","","","null","<div style=""font-size:60px;"">+</div>","null","","fixation","","","","","","","","","","",""
"aa-learning-trial","77","487050","0.0-9.0-2.0-1.2","4024","1","15","Male","approach_avoid_spark_v1","""event"",""trial"",""time""
""fullscreenenter"",""1"",""2366""
","
","
","""event"",""trial"",""time""
""fullscreenenter"",""1"",""2366""
","
","","","","","","678.3000000044703","images/tree4.png","","","learning","5","0","0","0","tree","plants","1","0","","good","[3]"
"html-keyboard-response","78","487554","0.0-9.0-2.0-0.3","4024","1","15","Male","approach_avoid_spark_v1","""event"",""trial"",""time""
""fullscreenenter"",""1"",""2366""
","
","
","""event"",""trial"",""time""
""fullscreenenter"",""1"",""2366""
","
","","","","","","null","<div style=""font-size:60px;"">+</div>","null","","fixation","","","","","","","","","","",""
"aa-learning-trial","79","490562","0.0-9.0-2.0-1.3","4024","1","15","Male","approach_avoid_spark_v1","""event"",""trial"",""time""
""fullscreenenter"",""1"",""2366""
","
","
","""event"",""trial"",""time""
""fullscreenenter"",""1"",""2366""
","
","","","","","","706","images/flower3.png","","","learning","-8","0","0","0","flower","plants","1","0","","bad","[-6]"
"html-keyboard-response","80","491066","0.0-9.0-2.0-0.4","4024","1","15","Male","approach_avoid_spark_v1","""event"",""trial"",""time""
""fullscreenenter"",""1"",""2366""
","
","
","""event"",""trial"",""time""
""fullscreenenter"",""1"",""2366""
","
","","","","","","null","<div style=""font-size:60px;"">+</div>","null","","fixation","","","","","","","","","","",""
"aa-learning-trial","81","494074","0.0-9.0-2.0-1.4","4024","1","15","Male","approach_avoid_spark_v1","""event"",""trial"",""time""
""fullscreenenter"",""1"",""2366""
","
","
","""event"",""trial"",""time""
""fullscreenenter"",""1"",""2366""
","
","","","","","","1037.6999999955297","images/flower1.png","","","learning","-7","0","0","0","flower","plants","1","0","","bad","[-6]"
"html-keyboard-response","82","494577","0.0-9.0-2.0-0.5","4024","1","15","Male","approach_avoid_spark_v1","""event"",""trial"",""time""
""fullscreenenter"",""1"",""2366""
","
","
","""event"",""trial"",""time""
""fullscreenenter"",""1"",""2366""
","
","","","","","","null","<div style=""font-size:60px;"">+</div>","null","","fixation","","","","","","","","","","",""
"aa-learning-trial","83","497586","0.0-9.0-2.0-1.5","4024","1","15","Male","approach_avoid_spark_v1","""event"",""trial"",""time""
""fullscreenenter"",""1"",""2366""
","
","
","""event"",""trial"",""time""
""fullscreenenter"",""1"",""2366""
","
","","","","","","758.3999999985099","images/flower2.png","","","learning","-5","-5","1","1","flower","plants","1","0","","bad","[-6]"
"html-keyboard-response","84","498091","0.0-9.0-2.0-0.6","4024","1","15","Male","approach_avoid_spark_v1","""event"",""trial"",""time""
""fullscreenenter"",""1"",""2366""
","
","
","""event"",""trial"",""time""
""fullscreenenter"",""1"",""2366""
","
","","","","","","null","<div style=""font-size:60px;"">+</div>","null","","fixation","","","","","","","","","","",""
"aa-learning-trial","85","501098","0.0-9.0-2.0-1.6","4024","1","15","Male","approach_avoid_spark_v1","""event"",""trial"",""time""
""fullscreenenter"",""1"",""2366""
","
","
","""event"",""trial"",""time""
""fullscreenenter"",""1"",""2366""
","
","","","","","","995","images/cactus5.png","","","learning","-1","0","0","0","cactus","plants","1","0","","neutral","0"
"html-keyboard-response","86","501603","0.0-9.0-2.0-0.7","4024","1","15","Male","approach_avoid_spark_v1","""event"",""trial"",""time""
""fullscreenenter"",""1"",""2366""
","
","
","""event"",""trial"",""time""
""fullscreenenter"",""1"",""2366""
","
","","","","","","null","<div style=""font-size:60px;"">+</div>","null","","fixation","","","","","","","","","","",""
"aa-learning-trial","87","504610","0.0-9.0-2.0-1.7","4024","1","15","Male","approach_avoid_spark_v1","""event"",""trial"",""time""
""fullscreenenter"",""1"",""2366""
","
","
","""event"",""trial"",""time""
""fullscreenenter"",""1"",""2366""
","
","","","","","","773.5999999940395","images/tree8.png","","","learning","3","3","1","1","tree","plants","1","0","","good","[3]"
"html-keyboard-response","88","505115","0.0-9.0-2.0-0.8","4024","1","15","Male","approach_avoid_spark_v1","""event"",""trial"",""time""
""fullscreenenter"",""1"",""2366""
","
","
","""event"",""trial"",""time""
""fullscreenenter"",""1"",""2366""
","
","","","","","","null","<div style=""font-size:60px;"">+</div>","null","","fixation","","","","","","","","","","",""
"aa-learning-trial","89","508122","0.0-9.0-2.0-1.8","4024","1","15","Male","approach_avoid_spark_v1","""event"",""trial"",""time""
""fullscreenenter"",""1"",""2366""
","
","
","""event"",""trial"",""time""
""fullscreenenter"",""1"",""2366""
","
","","","","","","1140.1999999955297","images/cactus3.png","","","learning","1","1","1","1","cactus","plants","1","0","","neutral","0"
"html-keyboard-response","90","508626","0.0-9.0-2.0-0.9","4024","1","15","Male","approach_avoid_spark_v1","""event"",""trial"",""time""
""fullscreenenter"",""1"",""2366""
","
","
","""event"",""trial"",""time""
""fullscreenenter"",""1"",""2366""
","
","","","","","","null","<div style=""font-size:60px;"">+</div>","null","","fixation","","","","","","","","","","",""
"aa-learning-trial","91","511635","0.0-9.0-2.0-1.9","4024","1","15","Male","approach_avoid_spark_v1","""event"",""trial"",""time""
""fullscreenenter"",""1"",""2366""
","
","
","""event"",""trial"",""time""
""fullscreenenter"",""1"",""2366""
","
","","","","","","1096.7000000029802","images/tree7.png","","","learning","2","2","1","1","tree","plants","1","0","","good","[3]"
"html-keyboard-response","92","512137","0.0-9.0-2.0-0.10","4024","1","15","Male","approach_avoid_spark_v1","""event"",""trial"",""time""
""fullscreenenter"",""1"",""2366""
","
","
","""event"",""trial"",""time""
""fullscreenenter"",""1"",""2366""
","
","","","","","","null","<div style=""font-size:60px;"">+</div>","null","","fixation","","","","","","","","","","",""
"aa-learning-trial","93","515147","0.0-9.0-2.0-1.10","4024","1","15","Male","approach_avoid_spark_v1","""event"",""trial"",""time""
""fullscreenenter"",""1"",""2366""
","
","
","""event"",""trial"",""time""
""fullscreenenter"",""1"",""2366""
","
","","","","","","516.8999999985099","images/tree8.png","","","learning","1","1","1","1","tree","plants","1","0","","good","[3]"
"html-keyboard-response","94","515650","0.0-9.0-2.0-0.11","4024","1","15","Male","approach_avoid_spark_v1","""event"",""trial"",""time""
""fullscreenenter"",""1"",""2366""
","
","
","""event"",""trial"",""time""
""fullscreenenter"",""1"",""2366""
","
","","","","","","null","<div style=""font-size:60px;"">+</div>","null","","fixation","","","","","","","","","","",""
"aa-learning-trial","95","518659","0.0-9.0-2.0-1.11","4024","1","15","Male","approach_avoid_spark_v1","""event"",""trial"",""time""
""fullscreenenter"",""1"",""2366""
","
","
","""event"",""trial"",""time""
""fullscreenenter"",""1"",""2366""
","
","","","","","","936.6000000014901","images/cactus5.png","","","learning","-3","-3","1","1","cactus","plants","1","0","","neutral","0"
"html-keyboard-response","96","519162","0.0-9.0-2.0-0.12","4024","1","15","Male","approach_avoid_spark_v1","""event"",""trial"",""time""
""fullscreenenter"",""1"",""2366""
","
","
","""event"",""trial"",""time""
""fullscreenenter"",""1"",""2366""
","
","","","","","","null","<div style=""font-size:60px;"">+</div>","null","","fixation","","","","","","","","","","",""
"aa-learning-trial","97","522170","0.0-9.0-2.0-1.12","4024","1","15","Male","approach_avoid_spark_v1","""event"",""trial"",""time""
""fullscreenenter"",""1"",""2366""
","
","
","""event"",""trial"",""time""
""fullscreenenter"",""1"",""2366""
","
","","","","","","921","images/tree7.png","","","learning","3","3","1","1","tree","plants","1","0","","good","[3]"
"html-keyboard-response","98","522674","0.0-9.0-2.0-0.13","4024","1","15","Male","approach_avoid_spark_v1","""event"",""trial"",""time""
""fullscreenenter"",""1"",""2366""
","
","
","""event"",""trial"",""time""
""fullscreenenter"",""1"",""2366""
","
","","","","","","null","<div style=""font-size:60px;"">+</div>","null","","fixation","","","","","","","","","","",""
"aa-learning-trial","99","525682","0.0-9.0-2.0-1.13","4024","1","15","Male","approach_avoid_spark_v1","""event"",""trial"",""time""
""fullscreenenter"",""1"",""2366""
","
","
","""event"",""trial"",""time""
""fullscreenenter"",""1"",""2366""
","
","","","","","","1066.6000000014901","images/flower2.png","","","learning","-7","-7","1","1","flower","plants","1","0","","bad","[-6]"
"html-keyboard-response","100","526187","0.0-9.0-2.0-0.14","4024","1","15","Male","approach_avoid_spark_v1","""event"",""trial"",""time""
""fullscreenenter"",""1"",""2366""
","
","
","""event"",""trial"",""time""
""fullscreenenter"",""1"",""2366""
","
","","","","","","null","<div style=""font-size:60px;"">+</div>","null","","fixation","","","","","","","","","","",""
"aa-learning-trial","101","529195","0.0-9.0-2.0-1.14","4024","1","15","Male","approach_avoid_spark_v1","""event"",""trial"",""time""
""fullscreenenter"",""1"",""2366""
","
","
","""event"",""trial"",""time""
""fullscreenenter"",""1"",""2366""
","
","","","","","","750.0999999940395","images/cactus3.png","","","learning","-1","-1","1","1","cactus","plants","1","0","","neutral","0"
"html-keyboard-response","102","529699","0.0-9.0-2.0-0.15","4024","1","15","Male","approach_avoid_spark_v1","""event"",""trial"",""time""
""fullscreenenter"",""1"",""2366""
","
","
","""event"",""trial"",""time""
""fullscreenenter"",""1"",""2366""
","
","","","","","","null","<div style=""font-size:60px;"">+</div>","null","","fixation","","","","","","","","","","",""
"aa-learning-trial","103","532707","0.0-9.0-2.0-1.15","4024","1","15","Male","approach_avoid_spark_v1","""event"",""trial"",""time""
""fullscreenenter"",""1"",""2366""
","
","
","""event"",""trial"",""time""
""fullscreenenter"",""1"",""2366""
","
","","","","","","1161.0999999940395","images/flower2.png","","","learning","-4","-4","1","1","flower","plants","1","0","","bad","[-6]"
"html-keyboard-response","104","533211","0.0-9.0-2.0-0.16","4024","1","15","Male","approach_avoid_spark_v1","""event"",""trial"",""time""
""fullscreenenter"",""1"",""2366""
","
","
","""event"",""trial"",""time""
""fullscreenenter"",""1"",""2366""
","
","","","","","","null","<div style=""font-size:60px;"">+</div>","null","","fixation","","","","","","","","","","",""
"aa-learning-trial","105","536219","0.0-9.0-2.0-1.16","4024","1","15","Male","approach_avoid_spark_v1","""event"",""trial"",""time""
""fullscreenenter"",""1"",""2366""
","
","
","""event"",""trial"",""time""
""fullscreenenter"",""1"",""2366""
","
","","","","","","833.5","images/tree4.png","","","learning","3","3","1","1","tree","plants","1","0","","good","[3]"
"html-keyboard-response","106","536722","0.0-9.0-2.0-0.17","4024","1","15","Male","approach_avoid_spark_v1","""event"",""trial"",""time""
""fullscreenenter"",""1"",""2366""
","
","
","""event"",""trial"",""time""
""fullscreenenter"",""1"",""2366""
","
","","","","","","null","<div style=""font-size:60px;"">+</div>","null","","fixation","","","","","","","","","","",""
"aa-learning-trial","107","539730","0.0-9.0-2.0-1.17","4024","1","15","Male","approach_avoid_spark_v1","""event"",""trial"",""time""
""fullscreenenter"",""1"",""2366""
","
","
","""event"",""trial"",""time""
""fullscreenenter"",""1"",""2366""
","
","","","","","","781.7999999970198","images/cactus3.png","","","learning","-1","-1","1","1","cactus","plants","1","0","","neutral","0"
"html-keyboard-response","108","540234","0.0-9.0-2.0-0.18","4024","1","15","Male","approach_avoid_spark_v1","""event"",""trial"",""time""
""fullscreenenter"",""1"",""2366""
","
","
","""event"",""trial"",""time""
""fullscreenenter"",""1"",""2366""
","
","","","","","","null","<div style=""font-size:60px;"">+</div>","null","","fixation","","","","","","","","","","",""
"aa-learning-trial","109","543243","0.0-9.0-2.0-1.18","4024","1","15","Male","approach_avoid_spark_v1","""event"",""trial"",""time""
""fullscreenenter"",""1"",""2366""
","
","
","""event"",""trial"",""time""
""fullscreenenter"",""1"",""2366""
","
","","","","","","651.6000000014901","images/cactus3.png","","","learning","1","1","1","1","cactus","plants","1","0","","neutral","0"
"html-keyboard-response","110","543747","0.0-9.0-2.0-0.19","4024","1","15","Male","approach_avoid_spark_v1","""event"",""trial"",""time""
""fullscreenenter"",""1"",""2366""
","
","
","""event"",""trial"",""time""
""fullscreenenter"",""1"",""2366""
","
","","","","","","null","<div style=""font-size:60px;"">+</div>","null","","fixation","","","","","","","","","","",""
"aa-learning-trial","111","546755","0.0-9.0-2.0-1.19","4024","1","15","Male","approach_avoid_spark_v1","""event"",""trial"",""time""
""fullscreenenter"",""1"",""2366""
","
","
","""event"",""trial"",""time""
""fullscreenenter"",""1"",""2366""
","
","","","","","","927.5","images/flower1.png","","","learning","-6","0","0","0","flower","plants","1","0","","bad","[-6]"
"html-keyboard-response","112","547259","0.0-9.0-2.0-0.20","4024","1","15","Male","approach_avoid_spark_v1","""event"",""trial"",""time""
""fullscreenenter"",""1"",""2366""
","
","
","""event"",""trial"",""time""
""fullscreenenter"",""1"",""2366""
","
","","","","","","null","<div style=""font-size:60px;"">+</div>","null","","fixation","","","","","","","","","","",""
"aa-learning-trial","113","550268","0.0-9.0-2.0-1.20","4024","1","15","Male","approach_avoid_spark_v1","""event"",""trial"",""time""
""fullscreenenter"",""1"",""2366""
","
","
","""event"",""trial"",""time""
""fullscreenenter"",""1"",""2366""
","
","","","","","","656.1000000014901","images/cactus5.png","","","learning","2","2","1","1","cactus","plants","1","0","","neutral","0"
"html-keyboard-response","114","550772","0.0-9.0-2.0-0.21","4024","1","15","Male","approach_avoid_spark_v1","""event"",""trial"",""time""
""fullscreenenter"",""1"",""2366""
","
","
","""event"",""trial"",""time""
""fullscreenenter"",""1"",""2366""
","
","","","","","","null","<div style=""font-size:60px;"">+</div>","null","","fixation","","","","","","","","","","",""
"aa-learning-trial","115","553780","0.0-9.0-2.0-1.21","4024","1","15","Male","approach_avoid_spark_v1","""event"",""trial"",""time""
""fullscreenenter"",""1"",""2366""
","
","
","""event"",""trial"",""time""
""fullscreenenter"",""1"",""2366""
","
","","","","","","881.1000000014901","images/tree7.png","","","learning","3","3","1","1","tree","plants","1","0","","good","[3]"
"html-keyboard-response","116","554285","0.0-9.0-2.0-0.22","4024","1","15","Male","approach_avoid_spark_v1","""event"",""trial"",""time""
""fullscreenenter"",""1"",""2366""
","
","
","""event"",""trial"",""time""
""fullscreenenter"",""1"",""2366""
","
","","","","","","null","<div style=""font-size:60px;"">+</div>","null","","fixation","","","","","","","","","","",""
"aa-learning-trial","117","557292","0.0-9.0-2.0-1.22","4024","1","15","Male","approach_avoid_spark_v1","""event"",""trial"",""time""
""fullscreenenter"",""1"",""2366""
","
","
","""event"",""trial"",""time""
""fullscreenenter"",""1"",""2366""
","
","","","","","","1009","images/cactus4.png","","","learning","1","1","1","1","cactus","plants","1","0","","neutral","0"
"html-keyboard-response","118","557795","0.0-9.0-2.0-0.23","4024","1","15","Male","approach_avoid_spark_v1","""event"",""trial"",""time""
""fullscreenenter"",""1"",""2366""
","
","
","""event"",""trial"",""time""
""fullscreenenter"",""1"",""2366""
","
","","","","","","null","<div style=""font-size:60px;"">+</div>","null","","fixation","","","","","","","","","","",""
"aa-learning-trial","119","560804","0.0-9.0-2.0-1.23","4024","1","15","Male","approach_avoid_spark_v1","""event"",""trial"",""time""
""fullscreenenter"",""1"",""2366""
","
","
","""event"",""trial"",""time""
""fullscreenenter"",""1"",""2366""
","
","","","","","","969.3999999985099","images/tree2.png","","","learning","3","3","1","1","tree","plants","1","0","","good","[3]"
"html-keyboard-response","120","561308","0.0-9.0-2.0-0.24","4024","1","15","Male","approach_avoid_spark_v1","""event"",""trial"",""time""
""fullscreenenter"",""1"",""2366""
","
","
","""event"",""trial"",""time""
""fullscreenenter"",""1"",""2366""
","
","","","","","","null","<div style=""font-size:60px;"">+</div>","null","","fixation","","","","","","","","","","",""
"aa-learning-trial","121","564316","0.0-9.0-2.0-1.24","4024","1","15","Male","approach_avoid_spark_v1","""event"",""trial"",""time""
""fullscreenenter"",""1"",""2366""
","
","
","""event"",""trial"",""time""
""fullscreenenter"",""1"",""2366""
","
","","","","","","882","images/flower2.png","","","learning","-6","0","0","0","flower","plants","1","0","","bad","[-6]"
"html-keyboard-response","122","564820","0.0-9.0-2.0-0.25","4024","1","15","Male","approach_avoid_spark_v1","""event"",""trial"",""time""
""fullscreenenter"",""1"",""2366""
","
","
","""event"",""trial"",""time""
""fullscreenenter"",""1"",""2366""
","
","","","","","","null","<div style=""font-size:60px;"">+</div>","null","","fixation","","","","","","","","","","",""
"aa-learning-trial","123","567828","0.0-9.0-2.0-1.25","4024","1","15","Male","approach_avoid_spark_v1","""event"",""trial"",""time""
""fullscreenenter"",""1"",""2366""
","
","
","""event"",""trial"",""time""
""fullscreenenter"",""1"",""2366""
","
","","","","","","681.1000000014901","images/cactus3.png","","","learning","-2","-2","1","1","cactus","plants","1","0","","neutral","0"
"html-keyboard-response","124","568332","0.0-9.0-2.0-0.26","4024","1","15","Male","approach_avoid_spark_v1","""event"",""trial"",""time""
""fullscreenenter"",""1"",""2366""
","
","
","""event"",""trial"",""time""
""fullscreenenter"",""1"",""2366""
","
","","","","","","null","<div style=""font-size:60px;"">+</div>","null","","fixation","","","","","","","","","","",""
"aa-learning-trial","125","571340","0.0-9.0-2.0-1.26","4024","1","15","Male","approach_avoid_spark_v1","""event"",""trial"",""time""
""fullscreenenter"",""1"",""2366""
","
","
","""event"",""trial"",""time""
""fullscreenenter"",""1"",""2366""
","
","","","","","","563.9000000059605","images/cactus3.png","","","learning","1","1","1","1","cactus","plants","1","0","","neutral","0"
"html-keyboard-response","126","571844","0.0-9.0-2.0-0.27","4024","1","15","Male","approach_avoid_spark_v1","""event"",""trial"",""time""
""fullscreenenter"",""1"",""2366""
","
","
","""event"",""trial"",""time""
""fullscreenenter"",""1"",""2366""
","
","","","","","","null","<div style=""font-size:60px;"">+</div>","null","","fixation","","","","","","","","","","",""
"aa-learning-trial","127","574852","0.0-9.0-2.0-1.27","4024","1","15","Male","approach_avoid_spark_v1","""event"",""trial"",""time""
""fullscreenenter"",""1"",""2366""
","
","
","""event"",""trial"",""time""
""fullscreenenter"",""1"",""2366""
","
","","","","","","879.5","images/cactus5.png","","","learning","2","2","1","1","cactus","plants","1","0","","neutral","0"
"html-keyboard-response","128","575356","0.0-9.0-2.0-0.28","4024","1","15","Male","approach_avoid_spark_v1","""event"",""trial"",""time""
""fullscreenenter"",""1"",""2366""
","
","
","""event"",""trial"",""time""
""fullscreenenter"",""1"",""2366""
","
","","","","","","null","<div style=""font-size:60px;"">+</div>","null","","fixation","","","","","","","","","","",""
"aa-learning-trial","129","578364","0.0-9.0-2.0-1.28","4024","1","15","Male","approach_avoid_spark_v1","""event"",""trial"",""time""
""fullscreenenter"",""1"",""2366""
","
","
","""event"",""trial"",""time""
""fullscreenenter"",""1"",""2366""
","
","","","","","","964.2999999970198","images/tree7.png","","","learning","4","4","1","1","tree","plants","1","0","","good","[3]"
"html-keyboard-response","130","578868","0.0-9.0-2.0-0.29","4024","1","15","Male","approach_avoid_spark_v1","""event"",""trial"",""time""
""fullscreenenter"",""1"",""2366""
","
","
","""event"",""trial"",""time""
""fullscreenenter"",""1"",""2366""
","
","","","","","","null","<div style=""font-size:60px;"">+</div>","null","","fixation","","","","","","","","","","",""
"aa-learning-trial","131","581877","0.0-9.0-2.0-1.29","4024","1","15","Male","approach_avoid_spark_v1","""event"",""trial"",""time""
""fullscreenenter"",""1"",""2366""
","
","
","""event"",""trial"",""time""
""fullscreenenter"",""1"",""2366""
","
","","","","","","998.8999999985099","images/tree8.png","","","learning","5","0","0","0","tree","plants","1","0","","good","[3]"
"html-keyboard-response","132","582380","0.0-9.0-2.0-0.30","4024","1","15","Male","approach_avoid_spark_v1","""event"",""trial"",""time""
""fullscreenenter"",""1"",""2366""
","
","
","""event"",""trial"",""time""
""fullscreenenter"",""1"",""2366""
","
","","","","","","null","<div style=""font-size:60px;"">+</div>","null","","fixation","","","","","","","","","","",""
"aa-learning-trial","133","585388","0.0-9.0-2.0-1.30","4024","1","15","Male","approach_avoid_spark_v1","""event"",""trial"",""time""
""fullscreenenter"",""1"",""2366""
","
","
","""event"",""trial"",""time""
""fullscreenenter"",""1"",""2366""
","
","","","","","","691.8999999985099","images/flower3.png","","","learning","-5","-5","1","1","flower","plants","1","0","","bad","[-6]"
"html-keyboard-response","134","585892","0.0-9.0-2.0-0.31","4024","1","15","Male","approach_avoid_spark_v1","""event"",""trial"",""time""
""fullscreenenter"",""1"",""2366""
","
","
","""event"",""trial"",""time""
""fullscreenenter"",""1"",""2366""
","
","","","","","","null","<div style=""font-size:60px;"">+</div>","null","","fixation","","","","","","","","","","",""
"aa-learning-trial","135","588900","0.0-9.0-2.0-1.31","4024","1","15","Male","approach_avoid_spark_v1","""event"",""trial"",""time""
""fullscreenenter"",""1"",""2366""
","
","
","""event"",""trial"",""time""
""fullscreenenter"",""1"",""2366""
","
","","","","","","844.7000000029802","images/cactus1.png","","","learning","-1","-1","1","1","cactus","plants","1","0","","neutral","0"
"html-keyboard-response","136","589405","0.0-9.0-2.0-0.32","4024","1","15","Male","approach_avoid_spark_v1","""event"",""trial"",""time""
""fullscreenenter"",""1"",""2366""
","
","
","""event"",""trial"",""time""
""fullscreenenter"",""1"",""2366""
","
","","","","","","null","<div style=""font-size:60px;"">+</div>","null","","fixation","","","","","","","","","","",""
"aa-learning-trial","137","592412","0.0-9.0-2.0-1.32","4024","1","15","Male","approach_avoid_spark_v1","""event"",""trial"",""time""
""fullscreenenter"",""1"",""2366""
","
","
","""event"",""trial"",""time""
""fullscreenenter"",""1"",""2366""
","
","","","","","","734.5","images/cactus5.png","","","learning","-1","-1","1","1","cactus","plants","1","0","","neutral","0"
"html-keyboard-response","138","592917","0.0-9.0-2.0-0.33","4024","1","15","Male","approach_avoid_spark_v1","""event"",""trial"",""time""
""fullscreenenter"",""1"",""2366""
","
","
","""event"",""trial"",""time""
""fullscreenenter"",""1"",""2366""
","
","","","","","","null","<div style=""font-size:60px;"">+</div>","null","","fixation","","","","","","","","","","",""
"aa-learning-trial","139","595920","0.0-9.0-2.0-1.33","4024","1","15","Male","approach_avoid_spark_v1","""event"",""trial"",""time""
""fullscreenenter"",""1"",""2366""
","
","
","""event"",""trial"",""time""
""fullscreenenter"",""1"",""2366""
","
","","","","","","1495.7000000029802","images/tree7.png","","","learning","4","4","1","1","tree","plants","1","0","","good","[3]"
"html-keyboard-response","140","596429","0.0-9.0-2.0-0.34","4024","1","15","Male","approach_avoid_spark_v1","""event"",""trial"",""time""
""fullscreenenter"",""1"",""2366""
","
","
","""event"",""trial"",""time""
""fullscreenenter"",""1"",""2366""
","
","","","","","","null","<div style=""font-size:60px;"">+</div>","null","","fixation","","","","","","","","","","",""
"aa-learning-trial","141","599437","0.0-9.0-2.0-1.34","4024","1","15","Male","approach_avoid_spark_v1","""event"",""trial"",""time""
""fullscreenenter"",""1"",""2366""
","
","
","""event"",""trial"",""time""
""fullscreenenter"",""1"",""2366""
","
","","","","","","1220.5","images/tree7.png","","","learning","5","0","0","0","tree","plants","1","0","","good","[3]"
"html-keyboard-response","142","599941","0.0-9.0-2.0-0.35","4024","1","15","Male","approach_avoid_spark_v1","""event"",""trial"",""time""
""fullscreenenter"",""1"",""2366""
","
","
","""event"",""trial"",""time""
""fullscreenenter"",""1"",""2366""
","
","","","","","","null","<div style=""font-size:60px;"">+</div>","null","","fixation","","","","","","","","","","",""
"aa-learning-trial","143","602949","0.0-9.0-2.0-1.35","4024","1","15","Male","approach_avoid_spark_v1","""event"",""trial"",""time""
""fullscreenenter"",""1"",""2366""
","
","
","""event"",""trial"",""time""
""fullscreenenter"",""1"",""2366""
","
","","","","","","792","images/tree8.png","","","learning","3","3","1","1","tree","plants","1","0","","good","[3]"
"html-keyboard-response","144","603453","0.0-9.0-2.0-0.36","4024","1","15","Male","approach_avoid_spark_v1","""event"",""trial"",""time""
""fullscreenenter"",""1"",""2366""
","
","
","""event"",""trial"",""time""
""fullscreenenter"",""1"",""2366""
","
","","","","","","null","<div style=""font-size:60px;"">+</div>","null","","fixation","","","","","","","","","","",""
"aa-learning-trial","145","606461","0.0-9.0-2.0-1.36","4024","1","15","Male","approach_avoid_spark_v1","""event"",""trial"",""time""
""fullscreenenter"",""1"",""2366""
","
","
","""event"",""trial"",""time""
""fullscreenenter"",""1"",""2366""
","
","","","","","","1192.3999999985099","images/flower1.png","","","learning","-6","-6","1","1","flower","plants","1","0","","bad","[-6]"
"html-keyboard-response","146","606965","0.0-9.0-2.0-0.37","4024","1","15","Male","approach_avoid_spark_v1","""event"",""trial"",""time""
""fullscreenenter"",""1"",""2366""
","
","
","""event"",""trial"",""time""
""fullscreenenter"",""1"",""2366""
","
","","","","","","null","<div style=""font-size:60px;"">+</div>","null","","fixation","","","","","","","","","","",""
"aa-learning-trial","147","609971","0.0-9.0-2.0-1.37","4024","1","15","Male","approach_avoid_spark_v1","""event"",""trial"",""time""
""fullscreenenter"",""1"",""2366""
","
","
","""event"",""trial"",""time""
""fullscreenenter"",""1"",""2366""
","
","","","","","","1189.2999999970198","images/cactus8.png","","","learning","-1","0","0","0","cactus","plants","1","0","","neutral","0"
"html-keyboard-response","148","610477","0.0-9.0-2.0-0.38","4024","1","15","Male","approach_avoid_spark_v1","""event"",""trial"",""time""
""fullscreenenter"",""1"",""2366""
","
","
","""event"",""trial"",""time""
""fullscreenenter"",""1"",""2366""
","
","","","","","","null","<div style=""font-size:60px;"">+</div>","null","","fixation","","","","","","","","","","",""
"aa-learning-trial","149","613485","0.0-9.0-2.0-1.38","4024","1","15","Male","approach_avoid_spark_v1","""event"",""trial"",""time""
""fullscreenenter"",""1"",""2366""
","
","
","""event"",""trial"",""time""
""fullscreenenter"",""1"",""2366""
","
","","","","","","1128.8999999985099","images/flower5.png","","","learning","-5","0","0","0","flower","plants","1","0","","bad","[-6]"
"html-keyboard-response","150","613989","0.0-9.0-2.0-0.39","4024","1","15","Male","approach_avoid_spark_v1","""event"",""trial"",""time""
""fullscreenenter"",""1"",""2366""
","
","
","""event"",""trial"",""time""
""fullscreenenter"",""1"",""2366""
","
","","","","","","null","<div style=""font-size:60px;"">+</div>","null","","fixation","","","","","","","","","","",""
"aa-learning-trial","151","616997","0.0-9.0-2.0-1.39","4024","1","15","Male","approach_avoid_spark_v1","""event"",""trial"",""time""
""fullscreenenter"",""1"",""2366""
","
","
","""event"",""trial"",""time""
""fullscreenenter"",""1"",""2366""
","
","","","","","","1320.3999999985099","images/tree4.png","","","learning","2","0","0","0","tree","plants","1","0","","good","[3]"
"html-keyboard-response","152","617501","0.0-9.0-2.0-0.40","4024","1","15","Male","approach_avoid_spark_v1","""event"",""trial"",""time""
""fullscreenenter"",""1"",""2366""
","
","
","""event"",""trial"",""time""
""fullscreenenter"",""1"",""2366""
","
","","","","","","null","<div style=""font-size:60px;"">+</div>","null","","fixation","","","","","","","","","","",""
"aa-learning-trial","153","620510","0.0-9.0-2.0-1.40","4024","1","15","Male","approach_avoid_spark_v1","""event"",""trial"",""time""
""fullscreenenter"",""1"",""2366""
","
","
","""event"",""trial"",""time""
""fullscreenenter"",""1"",""2366""
","
","","","","","","852.1999999955297","images/flower1.png","","","learning","-7","-7","1","1","flower","plants","1","0","","bad","[-6]"
"html-keyboard-response","154","621013","0.0-9.0-2.0-0.41","4024","1","15","Male","approach_avoid_spark_v1","""event"",""trial"",""time""
""fullscreenenter"",""1"",""2366""
","
","
","""event"",""trial"",""time""
""fullscreenenter"",""1"",""2366""
","
","","","","","","null","<div style=""font-size:60px;"">+</div>","null","","fixation","","","","","","","","","","",""
"aa-learning-trial","155","624022","0.0-9.0-2.0-1.41","4024","1","15","Male","approach_avoid_spark_v1","""event"",""trial"",""time""
""fullscreenenter"",""1"",""2366""
","
","
","""event"",""trial"",""time""
""fullscreenenter"",""1"",""2366""
","
","","","","","","807","images/flower2.png","","","learning","-4","-4","1","1","flower","plants","1","0","","bad","[-6]"
"html-keyboard-response","156","624525","0.0-9.0-2.0-0.42","4024","1","15","Male","approach_avoid_spark_v1","""event"",""trial"",""time""
""fullscreenenter"",""1"",""2366""
","
","
","""event"",""trial"",""time""
""fullscreenenter"",""1"",""2366""
","
","","","","","","null","<div style=""font-size:60px;"">+</div>","null","","fixation","","","","","","","","","","",""
"aa-learning-trial","157","627534","0.0-9.0-2.0-1.42","4024","1","15","Male","approach_avoid_spark_v1","""event"",""trial"",""time""
""fullscreenenter"",""1"",""2366""
","
","
","""event"",""trial"",""time""
""fullscreenenter"",""1"",""2366""
","
","","","","","","853.3000000044703","images/cactus8.png","","","learning","-2","-2","1","1","cactus","plants","1","0","","neutral","0"
"html-keyboard-response","158","628037","0.0-9.0-2.0-0.43","4024","1","15","Male","approach_avoid_spark_v1","""event"",""trial"",""time""
""fullscreenenter"",""1"",""2366""
","
","
","""event"",""trial"",""time""
""fullscreenenter"",""1"",""2366""
","
","","","","","","null","<div style=""font-size:60px;"">+</div>","null","","fixation","","","","","","","","","","",""
"aa-learning-trial","159","631046","0.0-9.0-2.0-1.43","4024","1","15","Male","approach_avoid_spark_v1","""event"",""trial"",""time""
""fullscreenenter"",""1"",""2366""
","
","
","""event"",""trial"",""time""
""fullscreenenter"",""1"",""2366""
","
","","","","","","636","images/tree8.png","","","learning","4","4","1","1","tree","plants","1","0","","good","[3]"
"html-keyboard-response","160","631550","0.0-9.0-2.0-0.44","4024","1","15","Male","approach_avoid_spark_v1","""event"",""trial"",""time""
""fullscreenenter"",""1"",""2366""
","
","
","""event"",""trial"",""time""
""fullscreenenter"",""1"",""2366""
","
","","","","","","null","<div style=""font-size:60px;"">+</div>","null","","fixation","","","","","","","","","","",""
"aa-learning-trial","161","634558","0.0-9.0-2.0-1.44","4024","1","15","Male","approach_avoid_spark_v1","""event"",""trial"",""time""
""fullscreenenter"",""1"",""2366""
","
","
","""event"",""trial"",""time""
""fullscreenenter"",""1"",""2366""
","
","","","","","","895","images/flower6.png","","","learning","-8","-8","1","1","flower","plants","1","0","","bad","[-6]"
"html-keyboard-response","162","635062","0.0-9.0-2.0-0.45","4024","1","15","Male","approach_avoid_spark_v1","""event"",""trial"",""time""
""fullscreenenter"",""1"",""2366""
","
","
","""event"",""trial"",""time""
""fullscreenenter"",""1"",""2366""
","
","","","","","","null","<div style=""font-size:60px;"">+</div>","null","","fixation","","","","","","","","","","",""
"aa-learning-trial","163","638070","0.0-9.0-2.0-1.45","4024","1","15","Male","approach_avoid_spark_v1","""event"",""trial"",""time""
""fullscreenenter"",""1"",""2366""
","
","
","""event"",""trial"",""time""
""fullscreenenter"",""1"",""2366""
","
","","","","","","782","images/flower3.png","","","learning","-6","-6","1","1","flower","plants","1","0","","bad","[-6]"
"html-keyboard-response","164","638574","0.0-9.0-2.0-0.46","4024","1","15","Male","approach_avoid_spark_v1","""event"",""trial"",""time""
""fullscreenenter"",""1"",""2366""
","
","
","""event"",""trial"",""time""
""fullscreenenter"",""1"",""2366""
","
","","","","","","null","<div style=""font-size:60px;"">+</div>","null","","fixation","","","","","","","","","","",""
"aa-learning-trial","165","641582","0.0-9.0-2.0-1.46","4024","1","15","Male","approach_avoid_spark_v1","""event"",""trial"",""time""
""fullscreenenter"",""1"",""2366""
","
","
","""event"",""trial"",""time""
""fullscreenenter"",""1"",""2366""
","
","","","","","","730.8000000044703","images/tree3.png","","","learning","2","2","1","1","tree","plants","1","0","","good","[3]"
"html-keyboard-response","166","642086","0.0-9.0-2.0-0.47","4024","1","15","Male","approach_avoid_spark_v1","""event"",""trial"",""time""
""fullscreenenter"",""1"",""2366""
","
","
","""event"",""trial"",""time""
""fullscreenenter"",""1"",""2366""
","
","","","","","","null","<div style=""font-size:60px;"">+</div>","null","","fixation","","","","","","","","","","",""
"aa-learning-trial","167","645093","0.0-9.0-2.0-1.47","4024","1","15","Male","approach_avoid_spark_v1","""event"",""trial"",""time""
""fullscreenenter"",""1"",""2366""
","
","
","""event"",""trial"",""time""
""fullscreenenter"",""1"",""2366""
","
","","","","","","1053.6000000014901","images/flower1.png","","","learning","-10","0","0","0","flower","plants","1","0","","bad","[-6]"
"html-keyboard-response","168","645598","0.0-9.0-2.0-0.48","4024","1","15","Male","approach_avoid_spark_v1","""event"",""trial"",""time""
""fullscreenenter"",""1"",""2366""
","
","
","""event"",""trial"",""time""
""fullscreenenter"",""1"",""2366""
","
","","","","","","null","<div style=""font-size:60px;"">+</div>","null","","fixation","","","","","","","","","","",""
"aa-learning-trial","169","648606","0.0-9.0-2.0-1.48","4024","1","15","Male","approach_avoid_spark_v1","""event"",""trial"",""time""
""fullscreenenter"",""1"",""2366""
","
","
","""event"",""trial"",""time""
""fullscreenenter"",""1"",""2366""
","
","","","","","","1751.2000000029802","images/flower2.png","","","learning","-5","0","0","0","flower","plants","1","0","","bad","[-6]"
"html-keyboard-response","170","649110","0.0-9.0-2.0-0.49","4024","1","15","Male","approach_avoid_spark_v1","""event"",""trial"",""time""
""fullscreenenter"",""1"",""2366""
","
","
","""event"",""trial"",""time""
""fullscreenenter"",""1"",""2366""
","
","","","","","","null","<div style=""font-size:60px;"">+</div>","null","","fixation","","","","","","","","","","",""
"aa-learning-trial","171","652119","0.0-9.0-2.0-1.49","4024","1","15","Male","approach_avoid_spark_v1","""event"",""trial"",""time""
""fullscreenenter"",""1"",""2366""
","
","
","""event"",""trial"",""time""
""fullscreenenter"",""1"",""2366""
","
","","","","","","971.5","images/tree8.png","","","learning","4","4","1","1","tree","plants","1","0","","good","[3]"
"html-keyboard-response","172","652622","0.0-9.0-2.0-0.50","4024","1","15","Male","approach_avoid_spark_v1","""event"",""trial"",""time""
""fullscreenenter"",""1"",""2366""
","
","
","""event"",""trial"",""time""
""fullscreenenter"",""1"",""2366""
","
","","","","","","null","<div style=""font-size:60px;"">+</div>","null","","fixation","","","","","","","","","","",""
"aa-learning-trial","173","655630","0.0-9.0-2.0-1.50","4024","1","15","Male","approach_avoid_spark_v1","""event"",""trial"",""time""
""fullscreenenter"",""1"",""2366""
","
","
","""event"",""trial"",""time""
""fullscreenenter"",""1"",""2366""
","
","","","","","","627.5","images/cactus5.png","","","learning","2","2","1","1","cactus","plants","1","0","","neutral","0"
"html-button-response","174","658335","0.0-9.0-3.0","4024","1","15","Male","approach_avoid_spark_v1","""event"",""trial"",""time""
""fullscreenenter"",""1"",""2366""
","
","
","""event"",""trial"",""time""
""fullscreenenter"",""1"",""2366""
","
","","","","","","2702.10000000149","<p> You have completed the round! <p> In this round, you earned -20 points! </p>","0","","break","","","","","","","","","","",""
"html-button-response","175","659337","0.0-10.0","4024","1","15","Male","approach_avoid_spark_v1","""event"",""trial"",""time""
""fullscreenenter"",""1"",""2366""
","
","
","""event"",""trial"",""time""
""fullscreenenter"",""1"",""2366""
","
","","","","","","1000.6000000014901","<p> Now it's time to play another round. </p>","0","","transition_screen","","","","","","","","","","",""
"preload","176","659455","0.0-11.0-0.0","4024","1","15","Male","approach_avoid_spark_v1","""event"",""trial"",""time""
""fullscreenenter"",""1"",""2366""
","
","
","""event"",""trial"",""time""
""fullscreenenter"",""1"",""2366""
","
","true","false","[]","[]","[]","","","","","","","","","","","","","","","",""
"learning-instructions","177","668616","0.0-11.0-1.0-0.0","4024","1","15","Male","approach_avoid_spark_v1","""event"",""trial"",""time""
""fullscreenenter"",""1"",""2366""
","
","
","""event"",""trial"",""time""
""fullscreenenter"",""1"",""2366""
","
","","","","","","3123.60000000149","<p> Your goal in this round is to take your friend for rides in different vehicles. </p></div>","","0","instructions","","","","","","","","","","",""
"learning-instructions","178","679279","0.0-11.0-1.0-0.1","4024","1","15","Male","approach_avoid_spark_v1","""event"",""trial"",""time""
""fullscreenenter"",""1"",""2366""
","
","
","""event"",""trial"",""time""
""fullscreenenter"",""1"",""2366""
","
","","","","","","434.6000000014901","<p> Your friend enjoys riding in some vehicles but not in others.  </p><p> On each turn, you will see a vehicle.   </p><p> You need to decide whether to take your friend for a ride or not.  </p>","","0","instructions","","","","","","","","","","",""
"learning-instructions","179","687032","0.0-11.0-1.0-0.2","4024","1","15","Male","approach_avoid_spark_v1","""event"",""trial"",""time""
""fullscreenenter"",""1"",""2366""
","
","
","""event"",""trial"",""time""
""fullscreenenter"",""1"",""2366""
","
","","","","","","1068.1000000014901","<p> You can take your friend for a ride in the vehicle by pressing 1 and skip the ride by pressing 0. </p><br><div class=""choice-instructions-grid""> <div class=""choice-option""><img src=""images/approach.png"" class=""choice-option-img"" stage=""instructions"" position=""0"" ><div class=""choice-option-text""> Press ""1."" </div></div><div class=""choice-option""><img src=""images/avoid.png"" class=""choice-option-img"" stage=""instructions"" position=""1"" ><div class=""choice-option-text""> Press ""0."" </div></div>","","0","instructions","","","","","","","","","","",""
"learning-instructions","180","697294","0.0-11.0-1.0-0.3","4024","1","15","Male","approach_avoid_spark_v1","""event"",""trial"",""time""
""fullscreenenter"",""1"",""2366""
","
","
","""event"",""trial"",""time""
""fullscreenenter"",""1"",""2366""
","
","","","","","","447.6000000014901","<p> If you take them for a ride in a vehicle they like, they will be thrilled! </p><p> But if you take them for a ride in a vehicle they do not like, they will be upset. </p>","","0","instructions","","","","","","","","","","",""
"learning-instructions","181","710770","0.0-11.0-1.0-0.4","4024","1","15","Male","approach_avoid_spark_v1","""event"",""trial"",""time""
""fullscreenenter"",""1"",""2366""
","
","
","""event"",""trial"",""time""
""fullscreenenter"",""1"",""2366""
","
","","","","","","1053.6999999955297","<p> You will earn points based on how you made your friend feel. </p><p> If you made him thrilled, you will WIN anywhere from 1 - 9 points, </p><p> but if you made him upset, you will LOSE anywhere from 1 - 9 points. </p>","","0","instructions","","","","","","","","","","",""
"learning-instructions","182","717702","0.0-11.0-1.0-0.5","4024","1","15","Male","approach_avoid_spark_v1","""event"",""trial"",""time""
""fullscreenenter"",""1"",""2366""
","
","
","""event"",""trial"",""time""
""fullscreenenter"",""1"",""2366""
","
","","","","","","277.79999999701977","<p> You will see how many points you won or lost in the center of the screen. </p><p> Here is what you would see if you won 5 points: </p><p style=""color:green;font-size:50px;font-weight:bolder"">5</p>","","0","instructions","","","","","","","","","","",""
"learning-instructions","183","720799","0.0-11.0-1.0-0.6","4024","1","15","Male","approach_avoid_spark_v1","""event"",""trial"",""time""
""fullscreenenter"",""1"",""2366""
","
","
","""event"",""trial"",""time""
""fullscreenenter"",""1"",""2366""
","
","","","","","","262.80000000447035","<p> And here is what you would see if you lost 3 points: </p><p style=""color:red;font-size:50px;font-weight:bolder"">-3</p>","","0","instructions","","","","","","","","","","",""
"learning-instructions","184","737644","0.0-11.0-1.0-0.7","4024","1","15","Male","approach_avoid_spark_v1","""event"",""trial"",""time""
""fullscreenenter"",""1"",""2366""
","
","
","""event"",""trial"",""time""
""fullscreenenter"",""1"",""2366""
","
","","","","","","899.6999999955297","<p> Some vehicles will make your friend REALLY thrilled or upset. </p><p> These vehicles will make you win or lose LOTS of points. </p><p> Other vehicles will only make him feel a little thrilled or upset. </p><p> These vehicles will make you win or lose small amounts of points. </p>","","0","instructions","","","","","","","","","","",""
"learning-instructions","185","750259","0.0-11.0-1.0-0.8","4024","1","15","Male","approach_avoid_spark_v1","""event"",""trial"",""time""
""fullscreenenter"",""1"",""2366""
","
","
","""event"",""trial"",""time""
""fullscreenenter"",""1"",""2366""
","
","","","","","","343.3999999985099","<p> If you choose to skip the ride, you will not win or lose any points. </p><p>  However, in the center of the screen, you will see the number of points you WOULD HAVE won or lost if you had taken your friend for a ride. </p>","","0","instructions","","","","","","","","","","",""
"learning-instructions","186","761836","0.0-11.0-1.0-0.9","4024","1","15","Male","approach_avoid_spark_v1","""event"",""trial"",""time""
""fullscreenenter"",""1"",""2366""
","
","
","""event"",""trial"",""time""
""fullscreenenter"",""1"",""2366""
","
","","","","","","449.3999999985099","<p> Here is what you might see if you did not take your friend for a ride but he would have enjoyed it: </p><p style=""color:grey; font-size:50px; display: inline-block; border-spacing: 15px; border-width:3px; border-style:solid; border-color:red"">  &nbsp; 6 &nbsp; </p><p> Remember, in this case, you would not win or lose ANY points because you skipped the ride.  </p>","","0","instructions","","","","","","","","","","",""
"learning-instructions","187","770369","0.0-11.0-1.0-0.10","4024","1","15","Male","approach_avoid_spark_v1","""event"",""trial"",""time""
""fullscreenenter"",""1"",""2366""
","
","
","""event"",""trial"",""time""
""fullscreenenter"",""1"",""2366""
","
","","","","","","511.8999999985099","<p> Try to make the best choice for each vehicle because </p><p> at the end of the game, you will earn bonus money based on how many points you earned. </p>","","0","instructions","","","","","","","","","","",""
"learning-instructions","188","779087","0.0-11.0-1.0-0.11","4024","1","15","Male","approach_avoid_spark_v1","""event"",""trial"",""time""
""fullscreenenter"",""1"",""2366""
","
","
","""event"",""trial"",""time""
""fullscreenenter"",""1"",""2366""
","
","","","","","","534.6000000014901","<p> You will have 3 seconds to make each choice. Try to respond before time runs out! </p><p> You will lose 5 points each time you do not make a response. </p>","","0","instructions","","","","","","","","","","",""
"html-keyboard-response","189","779702","0.0-11.0-2.0-0.0","4024","1","15","Male","approach_avoid_spark_v1","""event"",""trial"",""time""
""fullscreenenter"",""1"",""2366""
","
","
","""event"",""trial"",""time""
""fullscreenenter"",""1"",""2366""
","
","","","","","","null","<div style=""font-size:60px;"">+</div>","null","","fixation","","","","","","","","","","",""
"aa-learning-trial","190","782709","0.0-11.0-2.0-1.0","4024","1","15","Male","approach_avoid_spark_v1","""event"",""trial"",""time""
""fullscreenenter"",""1"",""2366""
","
","
","""event"",""trial"",""time""
""fullscreenenter"",""1"",""2366""
","
","","","","","","947.5","images/truck1.png","","","learning","-8","0","0","0","truck","vehicles","2","1","","bad","[-5]"
"html-keyboard-response","191","783218","0.0-11.0-2.0-0.1","4024","1","15","Male","approach_avoid_spark_v1","""event"",""trial"",""time""
""fullscreenenter"",""1"",""2366""
","
","
","""event"",""trial"",""time""
""fullscreenenter"",""1"",""2366""
","
","","","","","","null","<div style=""font-size:60px;"">+</div>","null","","fixation","","","","","","","","","","",""
"aa-learning-trial","192","786227","0.0-11.0-2.0-1.1","4024","1","15","Male","approach_avoid_spark_v1","""event"",""trial"",""time""
""fullscreenenter"",""1"",""2366""
","
","
","""event"",""trial"",""time""
""fullscreenenter"",""1"",""2366""
","
","","","","","","908.3999999985099","images/truck8.png","","","learning","1","1","1","1","truck","vehicles","2","1","","bad","[-5]"
"html-keyboard-response","193","786731","0.0-11.0-2.0-0.2","4024","1","15","Male","approach_avoid_spark_v1","""event"",""trial"",""time""
""fullscreenenter"",""1"",""2366""
","
","
","""event"",""trial"",""time""
""fullscreenenter"",""1"",""2366""
","
","","","","","","null","<div style=""font-size:60px;"">+</div>","null","","fixation","","","","","","","","","","",""
"aa-learning-trial","194","789739","0.0-11.0-2.0-1.2","4024","1","15","Male","approach_avoid_spark_v1","""event"",""trial"",""time""
""fullscreenenter"",""1"",""2366""
","
","
","""event"",""trial"",""time""
""fullscreenenter"",""1"",""2366""
","
","","","","","","852.5999999940395","images/plane7.png","","","learning","-5","0","0","0","plane","vehicles","2","1","","good","[5]"
"html-keyboard-response","195","790244","0.0-11.0-2.0-0.3","4024","1","15","Male","approach_avoid_spark_v1","""event"",""trial"",""time""
""fullscreenenter"",""1"",""2366""
","
","
","""event"",""trial"",""time""
""fullscreenenter"",""1"",""2366""
","
","","","","","","null","<div style=""font-size:60px;"">+</div>","null","","fixation","","","","","","","","","","",""
"aa-learning-trial","196","793251","0.0-11.0-2.0-1.3","4024","1","15","Male","approach_avoid_spark_v1","""event"",""trial"",""time""
""fullscreenenter"",""1"",""2366""
","
","
","""event"",""trial"",""time""
""fullscreenenter"",""1"",""2366""
","
","","","","","","854.5999999940395","images/train5.png","","","learning","-1","0","0","0","train","vehicles","2","1","","neutral","0"
"html-keyboard-response","197","793755","0.0-11.0-2.0-0.4","4024","1","15","Male","approach_avoid_spark_v1","""event"",""trial"",""time""
""fullscreenenter"",""1"",""2366""
","
","
","""event"",""trial"",""time""
""fullscreenenter"",""1"",""2366""
","
","","","","","","null","<div style=""font-size:60px;"">+</div>","null","","fixation","","","","","","","","","","",""
"aa-learning-trial","198","796763","0.0-11.0-2.0-1.4","4024","1","15","Male","approach_avoid_spark_v1","""event"",""trial"",""time""
""fullscreenenter"",""1"",""2366""
","
","
","""event"",""trial"",""time""
""fullscreenenter"",""1"",""2366""
","
","","","","","","906.6000000014901","images/train6.png","","","learning","-9","-9","1","1","train","vehicles","2","1","","neutral","0"
"html-keyboard-response","199","797268","0.0-11.0-2.0-0.5","4024","1","15","Male","approach_avoid_spark_v1","""event"",""trial"",""time""
""fullscreenenter"",""1"",""2366""
","
","
","""event"",""trial"",""time""
""fullscreenenter"",""1"",""2366""
","
","","","","","","null","<div style=""font-size:60px;"">+</div>","null","","fixation","","","","","","","","","","",""
"aa-learning-trial","200","800275","0.0-11.0-2.0-1.5","4024","1","15","Male","approach_avoid_spark_v1","""event"",""trial"",""time""
""fullscreenenter"",""1"",""2366""
","
","
","""event"",""trial"",""time""
""fullscreenenter"",""1"",""2366""
","
","","","","","","997.6999999955297","images/truck8.png","","","learning","1","1","1","1","truck","vehicles","2","1","","bad","[-5]"
"html-keyboard-response","201","800779","0.0-11.0-2.0-0.6","4024","1","15","Male","approach_avoid_spark_v1","""event"",""trial"",""time""
""fullscreenenter"",""1"",""2366""
","
","
","""event"",""trial"",""time""
""fullscreenenter"",""1"",""2366""
","
","","","","","","null","<div style=""font-size:60px;"">+</div>","null","","fixation","","","","","","","","","","",""
"aa-learning-trial","202","803787","0.0-11.0-2.0-1.6","4024","1","15","Male","approach_avoid_spark_v1","""event"",""trial"",""time""
""fullscreenenter"",""1"",""2366""
","
","
","""event"",""trial"",""time""
""fullscreenenter"",""1"",""2366""
","
","","","","","","1109.8999999985099","images/train6.png","","","learning","-9","0","0","0","train","vehicles","2","1","","neutral","0"
"html-keyboard-response","203","804292","0.0-11.0-2.0-0.7","4024","1","15","Male","approach_avoid_spark_v1","""event"",""trial"",""time""
""fullscreenenter"",""1"",""2366""
","
","
","""event"",""trial"",""time""
""fullscreenenter"",""1"",""2366""
","
","","","","","","null","<div style=""font-size:60px;"">+</div>","null","","fixation","","","","","","","","","","",""
"aa-learning-trial","204","807299","0.0-11.0-2.0-1.7","4024","1","15","Male","approach_avoid_spark_v1","""event"",""trial"",""time""
""fullscreenenter"",""1"",""2366""
","
","
","""event"",""trial"",""time""
""fullscreenenter"",""1"",""2366""
","
","","","","","","829.3999999985099","images/plane4.png","","","learning","-2","0","0","0","plane","vehicles","2","1","","good","[5]"
"html-keyboard-response","205","807804","0.0-11.0-2.0-0.8","4024","1","15","Male","approach_avoid_spark_v1","""event"",""trial"",""time""
""fullscreenenter"",""1"",""2366""
","
","
","""event"",""trial"",""time""
""fullscreenenter"",""1"",""2366""
","
","","","","","","null","<div style=""font-size:60px;"">+</div>","null","","fixation","","","","","","","","","","",""
"aa-learning-trial","206","810811","0.0-11.0-2.0-1.8","4024","1","15","Male","approach_avoid_spark_v1","""event"",""trial"",""time""
""fullscreenenter"",""1"",""2366""
","
","
","""event"",""trial"",""time""
""fullscreenenter"",""1"",""2366""
","
","","","","","","1451.2999999970198","images/train5.png","","","learning","-1","-1","1","1","train","vehicles","2","1","","neutral","0"
"html-keyboard-response","207","811315","0.0-11.0-2.0-0.9","4024","1","15","Male","approach_avoid_spark_v1","""event"",""trial"",""time""
""fullscreenenter"",""1"",""2366""
","
","
","""event"",""trial"",""time""
""fullscreenenter"",""1"",""2366""
","
","","","","","","null","<div style=""font-size:60px;"">+</div>","null","","fixation","","","","","","","","","","",""
"aa-learning-trial","208","814323","0.0-11.0-2.0-1.9","4024","1","15","Male","approach_avoid_spark_v1","""event"",""trial"",""time""
""fullscreenenter"",""1"",""2366""
","
","
","""event"",""trial"",""time""
""fullscreenenter"",""1"",""2366""
","
","","","","","","560","images/truck1.png","","","learning","-8","-8","1","1","truck","vehicles","2","1","","bad","[-5]"
"html-keyboard-response","209","814827","0.0-11.0-2.0-0.10","4024","1","15","Male","approach_avoid_spark_v1","""event"",""trial"",""time""
""fullscreenenter"",""1"",""2366""
","
","
","""event"",""trial"",""time""
""fullscreenenter"",""1"",""2366""
","
","","","","","","null","<div style=""font-size:60px;"">+</div>","null","","fixation","","","","","","","","","","",""
"aa-learning-trial","210","817835","0.0-11.0-2.0-1.10","4024","1","15","Male","approach_avoid_spark_v1","""event"",""trial"",""time""
""fullscreenenter"",""1"",""2366""
","
","
","""event"",""trial"",""time""
""fullscreenenter"",""1"",""2366""
","
","","","","","","675.6000000014901","images/plane4.png","","","learning","-2","-2","1","1","plane","vehicles","2","1","","good","[5]"
"html-keyboard-response","211","818339","0.0-11.0-2.0-0.11","4024","1","15","Male","approach_avoid_spark_v1","""event"",""trial"",""time""
""fullscreenenter"",""1"",""2366""
","
","
","""event"",""trial"",""time""
""fullscreenenter"",""1"",""2366""
","
","","","","","","null","<div style=""font-size:60px;"">+</div>","null","","fixation","","","","","","","","","","",""
"aa-learning-trial","212","821348","0.0-11.0-2.0-1.11","4024","1","15","Male","approach_avoid_spark_v1","""event"",""trial"",""time""
""fullscreenenter"",""1"",""2366""
","
","
","""event"",""trial"",""time""
""fullscreenenter"",""1"",""2366""
","
","","","","","","811.3000000044703","images/train4.png","","","learning","5","0","0","0","train","vehicles","2","1","","neutral","0"
"html-keyboard-response","213","821852","0.0-11.0-2.0-0.12","4024","1","15","Male","approach_avoid_spark_v1","""event"",""trial"",""time""
""fullscreenenter"",""1"",""2366""
","
","
","""event"",""trial"",""time""
""fullscreenenter"",""1"",""2366""
","
","","","","","","null","<div style=""font-size:60px;"">+</div>","null","","fixation","","","","","","","","","","",""
"aa-learning-trial","214","824860","0.0-11.0-2.0-1.12","4024","1","15","Male","approach_avoid_spark_v1","""event"",""trial"",""time""
""fullscreenenter"",""1"",""2366""
","
","
","""event"",""trial"",""time""
""fullscreenenter"",""1"",""2366""
","
","","","","","","784.5","images/truck2.png","","","learning","-4","-4","1","1","truck","vehicles","2","1","","bad","[-5]"
"html-keyboard-response","215","825364","0.0-11.0-2.0-0.13","4024","1","15","Male","approach_avoid_spark_v1","""event"",""trial"",""time""
""fullscreenenter"",""1"",""2366""
","
","
","""event"",""trial"",""time""
""fullscreenenter"",""1"",""2366""
","
","","","","","","null","<div style=""font-size:60px;"">+</div>","null","","fixation","","","","","","","","","","",""
"aa-learning-trial","216","828372","0.0-11.0-2.0-1.13","4024","1","15","Male","approach_avoid_spark_v1","""event"",""trial"",""time""
""fullscreenenter"",""1"",""2366""
","
","
","""event"",""trial"",""time""
""fullscreenenter"",""1"",""2366""
","
","","","","","","1026","images/plane6.png","","","learning","7","7","1","1","plane","vehicles","2","1","","good","[5]"
"html-keyboard-response","217","828875","0.0-11.0-2.0-0.14","4024","1","15","Male","approach_avoid_spark_v1","""event"",""trial"",""time""
""fullscreenenter"",""1"",""2366""
","
","
","""event"",""trial"",""time""
""fullscreenenter"",""1"",""2366""
","
","","","","","","null","<div style=""font-size:60px;"">+</div>","null","","fixation","","","","","","","","","","",""
"aa-learning-trial","218","831884","0.0-11.0-2.0-1.14","4024","1","15","Male","approach_avoid_spark_v1","""event"",""trial"",""time""
""fullscreenenter"",""1"",""2366""
","
","
","""event"",""trial"",""time""
""fullscreenenter"",""1"",""2366""
","
","","","","","","958.7999999970198","images/plane7.png","","","learning","-5","-5","1","1","plane","vehicles","2","1","","good","[5]"
"html-keyboard-response","219","832388","0.0-11.0-2.0-0.15","4024","1","15","Male","approach_avoid_spark_v1","""event"",""trial"",""time""
""fullscreenenter"",""1"",""2366""
","
","
","""event"",""trial"",""time""
""fullscreenenter"",""1"",""2366""
","
","","","","","","null","<div style=""font-size:60px;"">+</div>","null","","fixation","","","","","","","","","","",""
"aa-learning-trial","220","835396","0.0-11.0-2.0-1.15","4024","1","15","Male","approach_avoid_spark_v1","""event"",""trial"",""time""
""fullscreenenter"",""1"",""2366""
","
","
","""event"",""trial"",""time""
""fullscreenenter"",""1"",""2366""
","
","","","","","","843.5","images/plane7.png","","","learning","-5","-5","1","1","plane","vehicles","2","1","","good","[5]"
"html-keyboard-response","221","835900","0.0-11.0-2.0-0.16","4024","1","15","Male","approach_avoid_spark_v1","""event"",""trial"",""time""
""fullscreenenter"",""1"",""2366""
","
","
","""event"",""trial"",""time""
""fullscreenenter"",""1"",""2366""
","
","","","","","","null","<div style=""font-size:60px;"">+</div>","null","","fixation","","","","","","","","","","",""
"aa-learning-trial","222","838907","0.0-11.0-2.0-1.16","4024","1","15","Male","approach_avoid_spark_v1","""event"",""trial"",""time""
""fullscreenenter"",""1"",""2366""
","
","
","""event"",""trial"",""time""
""fullscreenenter"",""1"",""2366""
","
","","","","","","1147.2999999970198","images/plane2.png","","","learning","3","0","0","0","plane","vehicles","2","1","","good","[5]"
"html-keyboard-response","223","839411","0.0-11.0-2.0-0.17","4024","1","15","Male","approach_avoid_spark_v1","""event"",""trial"",""time""
""fullscreenenter"",""1"",""2366""
","
","
","""event"",""trial"",""time""
""fullscreenenter"",""1"",""2366""
","
","","","","","","null","<div style=""font-size:60px;"">+</div>","null","","fixation","","","","","","","","","","",""
"aa-learning-trial","224","842420","0.0-11.0-2.0-1.17","4024","1","15","Male","approach_avoid_spark_v1","""event"",""trial"",""time""
""fullscreenenter"",""1"",""2366""
","
","
","""event"",""trial"",""time""
""fullscreenenter"",""1"",""2366""
","
","","","","","","868.5","images/truck5.png","","","learning","9","9","1","1","truck","vehicles","2","1","","bad","[-5]"
"html-keyboard-response","225","842924","0.0-11.0-2.0-0.18","4024","1","15","Male","approach_avoid_spark_v1","""event"",""trial"",""time""
""fullscreenenter"",""1"",""2366""
","
","
","""event"",""trial"",""time""
""fullscreenenter"",""1"",""2366""
","
","","","","","","null","<div style=""font-size:60px;"">+</div>","null","","fixation","","","","","","","","","","",""
"aa-learning-trial","226","845933","0.0-11.0-2.0-1.18","4024","1","15","Male","approach_avoid_spark_v1","""event"",""trial"",""time""
""fullscreenenter"",""1"",""2366""
","
","
","""event"",""trial"",""time""
""fullscreenenter"",""1"",""2366""
","
","","","","","","1140","images/plane7.png","","","learning","-5","0","0","0","plane","vehicles","2","1","","good","[5]"
"html-keyboard-response","227","846436","0.0-11.0-2.0-0.19","4024","1","15","Male","approach_avoid_spark_v1","""event"",""trial"",""time""
""fullscreenenter"",""1"",""2366""
","
","
","""event"",""trial"",""time""
""fullscreenenter"",""1"",""2366""
","
","","","","","","null","<div style=""font-size:60px;"">+</div>","null","","fixation","","","","","","","","","","",""
"aa-learning-trial","228","849445","0.0-11.0-2.0-1.19","4024","1","15","Male","approach_avoid_spark_v1","""event"",""trial"",""time""
""fullscreenenter"",""1"",""2366""
","
","
","""event"",""trial"",""time""
""fullscreenenter"",""1"",""2366""
","
","","","","","","1340.6000000014901","images/train5.png","","","learning","-1","-1","1","1","train","vehicles","2","1","","neutral","0"
"html-keyboard-response","229","849948","0.0-11.0-2.0-0.20","4024","1","15","Male","approach_avoid_spark_v1","""event"",""trial"",""time""
""fullscreenenter"",""1"",""2366""
","
","
","""event"",""trial"",""time""
""fullscreenenter"",""1"",""2366""
","
","","","","","","null","<div style=""font-size:60px;"">+</div>","null","","fixation","","","","","","","","","","",""
"aa-learning-trial","230","852957","0.0-11.0-2.0-1.20","4024","1","15","Male","approach_avoid_spark_v1","""event"",""trial"",""time""
""fullscreenenter"",""1"",""2366""
","
","
","""event"",""trial"",""time""
""fullscreenenter"",""1"",""2366""
","
","","","","","","776.2000000029802","images/plane6.png","","","learning","7","0","0","0","plane","vehicles","2","1","","good","[5]"
"html-keyboard-response","231","853460","0.0-11.0-2.0-0.21","4024","1","15","Male","approach_avoid_spark_v1","""event"",""trial"",""time""
""fullscreenenter"",""1"",""2366""
","
","
","""event"",""trial"",""time""
""fullscreenenter"",""1"",""2366""
","
","","","","","","null","<div style=""font-size:60px;"">+</div>","null","","fixation","","","","","","","","","","",""
"aa-learning-trial","232","856469","0.0-11.0-2.0-1.21","4024","1","15","Male","approach_avoid_spark_v1","""event"",""trial"",""time""
""fullscreenenter"",""1"",""2366""
","
","
","""event"",""trial"",""time""
""fullscreenenter"",""1"",""2366""
","
","","","","","","578.1000000014901","images/truck7.png","","","learning","4","4","1","1","truck","vehicles","2","1","","bad","[-5]"
"html-keyboard-response","233","856973","0.0-11.0-2.0-0.22","4024","1","15","Male","approach_avoid_spark_v1","""event"",""trial"",""time""
""fullscreenenter"",""1"",""2366""
","
","
","""event"",""trial"",""time""
""fullscreenenter"",""1"",""2366""
","
","","","","","","null","<div style=""font-size:60px;"">+</div>","null","","fixation","","","","","","","","","","",""
"aa-learning-trial","234","859981","0.0-11.0-2.0-1.22","4024","1","15","Male","approach_avoid_spark_v1","""event"",""trial"",""time""
""fullscreenenter"",""1"",""2366""
","
","
","""event"",""trial"",""time""
""fullscreenenter"",""1"",""2366""
","
","","","","","","824.1999999955297","images/truck8.png","","","learning","1","1","1","1","truck","vehicles","2","1","","bad","[-5]"
"html-keyboard-response","235","860485","0.0-11.0-2.0-0.23","4024","1","15","Male","approach_avoid_spark_v1","""event"",""trial"",""time""
""fullscreenenter"",""1"",""2366""
","
","
","""event"",""trial"",""time""
""fullscreenenter"",""1"",""2366""
","
","","","","","","null","<div style=""font-size:60px;"">+</div>","null","","fixation","","","","","","","","","","",""
"aa-learning-trial","236","863493","0.0-11.0-2.0-1.23","4024","1","15","Male","approach_avoid_spark_v1","""event"",""trial"",""time""
""fullscreenenter"",""1"",""2366""
","
","
","""event"",""trial"",""time""
""fullscreenenter"",""1"",""2366""
","
","","","","","","985.8999999985099","images/plane7.png","","","learning","-5","0","0","0","plane","vehicles","2","1","","good","[5]"
"html-keyboard-response","237","863997","0.0-11.0-2.0-0.24","4024","1","15","Male","approach_avoid_spark_v1","""event"",""trial"",""time""
""fullscreenenter"",""1"",""2366""
","
","
","""event"",""trial"",""time""
""fullscreenenter"",""1"",""2366""
","
