"trial_type","trial_index","time_elapsed","internal_node_id","subject_id","task_condition","age","gender","task_version","interactions","blur_events","focus_events","fullscreenenter_events","fullscreenexit_events","success","timeout","failed_images","failed_audio","failed_video","rt","stimulus","response","button_pressed","task_part","approach_reward","points","key_press","option_selected","stim_cat","task_block","block_condition","block_number","correct","cat_type","mean_cat_reward"
"pavlovia","0","4","0.0-0.0","6489","1","22","Male","approach_avoid_spark_v1","""event"",""trial"",""time""
""fullscreenenter"",""1"",""1778""
","
","
","""event"",""trial"",""time""
""fullscreenenter"",""1"",""1778""
","
","","","","","","","","","","","","","","","","","","","","",""
"fullscreen","1","2767","0.0-1.0","6489","1","22","Male","approach_avoid_spark_v1","""event"",""trial"",""time""
""fullscreenenter"",""1"",""1778""
","
","
","""event"",""trial"",""time""
""fullscreenenter"",""1"",""1778""
","
","true","","","","","","","","","","","","","","","","","","","",""
"preload","2","10472","0.0-2.0","6489","1","22","Male","approach_avoid_spark_v1","""event"",""trial"",""time""
""fullscreenenter"",""1"",""1778""
","
","
","""event"",""trial"",""time""
""fullscreenenter"",""1"",""1778""
","
","true","false","[]","[]","[]","","","","","","","","","","","","","","","",""
"audio-keyboard-response","3","12798","0.0-3.0","6489","1","22","Male","approach_avoid_spark_v1","""event"",""trial"",""time""
""fullscreenenter"",""1"",""1778""
","
","
","""event"",""trial"",""time""
""fullscreenenter"",""1"",""1778""
","
","","","","","","2319.9999999999995","audio/beep_loop.wav"," ","","","","","","","","","","","","",""
"audio-button-response","4","14512","0.0-4.0","6489","1","22","Male","approach_avoid_spark_v1","""event"",""trial"",""time""
""fullscreenenter"",""1"",""1778""
","
","
","""event"",""trial"",""time""
""fullscreenenter"",""1"",""1778""
","
","","","","","","1720","audio/shark.wav","4","","","","","","","","","","","","",""
"audio-button-response","5","16958","0.0-5.0","6489","1","22","Male","approach_avoid_spark_v1","""event"",""trial"",""time""
""fullscreenenter"",""1"",""1778""
","
","
","""event"",""trial"",""time""
""fullscreenenter"",""1"",""1778""
","
","","","","","","1440","audio/turtle.wav","1","","","","","","","","","","","","",""
"preload","6","20335","0.0-6.0","6489","1","22","Male","approach_avoid_spark_v1","""event"",""trial"",""time""
""fullscreenenter"",""1"",""1778""
","
","
","""event"",""trial"",""time""
""fullscreenenter"",""1"",""1778""
","
","true","false","[]","[]","[]","","","","","","","","","","","","","","","",""
"html-keyboard-response","7","22296","0.0-7.0","6489","1","22","Male","approach_avoid_spark_v1","""event"",""trial"",""time""
""fullscreenenter"",""1"",""1778""
","
","
","""event"",""trial"",""time""
""fullscreenenter"",""1"",""1778""
","
","","","","","","1960.1000000014901","Welcome to the experiment. Press any key to begin and to advance the instructions."," ","","","","","","","","","","","","",""
"learning-instructions","8","29988","0.0-8.0-0.0-0.0","6489","1","22","Male","approach_avoid_spark_v1","""event"",""trial"",""time""
""fullscreenenter"",""1"",""1778""
","
","
","""event"",""trial"",""time""
""fullscreenenter"",""1"",""1778""
","
","","","","","","736.1999999992549","<p> Welcome! Today you are going to play 6 different rounds of a decision-making game. </p><p> Use the mouse to click next to continue. </p>","","0","instructions","","","","","","","","","","",""
"learning-instructions","9","33859","0.0-8.0-0.0-0.1","6489","1","22","Male","approach_avoid_spark_v1","""event"",""trial"",""time""
""fullscreenenter"",""1"",""1778""
","
","
","""event"",""trial"",""time""
""fullscreenenter"",""1"",""1778""
","
","","","","","","1146","<p> You will start with a practice round to learn the rules. </p>","","0","instructions","","","","","","","","","","",""
"learning-instructions","10","38205","0.0-8.0-0.0-0.2","6489","1","22","Male","approach_avoid_spark_v1","""event"",""trial"",""time""
""fullscreenenter"",""1"",""1778""
","
","
","""event"",""trial"",""time""
""fullscreenenter"",""1"",""1778""
","
","","","","","","891.8000000007451","<p> Your goal in this round is to give out sports equipment to kids. </p></div>","","0","instructions","","","","","","","","","","",""
"learning-instructions","11","46373","0.0-8.0-0.0-0.3","6489","1","22","Male","approach_avoid_spark_v1","""event"",""trial"",""time""
""fullscreenenter"",""1"",""1778""
","
","
","""event"",""trial"",""time""
""fullscreenenter"",""1"",""1778""
","
","","","","","","609.8999999985099","<p> The kids only like some of the equipment.  </p><p> On each turn, you will see a piece of sports equipment.   </p><p> You need to decide whether to give it to the kids or not.  </p>","","0","instructions","","","","","","","","","","",""
"learning-instructions","12","52234","0.0-8.0-0.0-0.4","6489","1","22","Male","approach_avoid_spark_v1","""event"",""trial"",""time""
""fullscreenenter"",""1"",""1778""
","
","
","""event"",""trial"",""time""
""fullscreenenter"",""1"",""1778""
","
","","","","","","1110.800000000745","<p> You can give them the equipment by pressing 1 and choose not to give it to them by pressing 0. </p><br><div class=""choice-instructions-grid""> <div class=""choice-option""><img src=""images/approach.png"" class=""choice-option-img"" stage=""instructions"" position=""0"" ><div class=""choice-option-text""> Press ""1."" </div></div><div class=""choice-option""><img src=""images/avoid.png"" class=""choice-option-img"" stage=""instructions"" position=""1"" ><div class=""choice-option-text""> Press ""0."" </div></div>","","0","instructions","","","","","","","","","","",""
"learning-instructions","13","60119","0.0-8.0-0.0-0.5","6489","1","22","Male","approach_avoid_spark_v1","""event"",""trial"",""time""
""fullscreenenter"",""1"",""1778""
","
","
","""event"",""trial"",""time""
""fullscreenenter"",""1"",""1778""
","
","","","","","","497.69999999925494","<p> If you give them a piece of equipment they like, they will be happy! </p><p> But if you give them a piece of equipment they do not like, they will be sad. </p>","","0","instructions","","","","","","","","","","",""
"learning-instructions","14","71102","0.0-8.0-0.0-0.6","6489","1","22","Male","approach_avoid_spark_v1","""event"",""trial"",""time""
""fullscreenenter"",""1"",""1778""
","
","
","""event"",""trial"",""time""
""fullscreenenter"",""1"",""1778""
","
","","","","","","469.80000000074506","<p> You will earn points based on how you make kids feel. </p><p> If you make them happy, you will WIN anywhere from 1 - 9 points, </p><p> but if you make them sad, you will LOSE anywhere from 1 - 9 points. </p>","","0","instructions","","","","","","","","","","",""
"learning-instructions","15","81277","0.0-8.0-0.0-0.7","6489","1","22","Male","approach_avoid_spark_v1","""event"",""trial"",""time""
""fullscreenenter"",""1"",""1778""
","
","
","""event"",""trial"",""time""
""fullscreenenter"",""1"",""1778""
","
","","","","","","615.5999999977648","<p> You will see how many points you won or lost in the center of the screen. </p><p> Here is what you would see if you won 6 points: </p><p style=""color:green;font-size:50px;font-weight:bolder"">6</p><p style=""color:green"">The text is GREEN because you WON points.</p>","","0","instructions","","","","","","","","","","",""
"learning-instructions","16","87377","0.0-8.0-0.0-0.8","6489","1","22","Male","approach_avoid_spark_v1","""event"",""trial"",""time""
""fullscreenenter"",""1"",""1778""
","
","
","""event"",""trial"",""time""
""fullscreenenter"",""1"",""1778""
","
","","","","","","586","<p> And here is what you would see if you lost 4 points: </p><p style=""color:red;font-size:50px;font-weight:bolder"">-4</p><p style=""color:red"">The text is RED because you LOST points. </p>","","0","instructions","","","","","","","","","","",""
"learning-instructions","17","102585","0.0-8.0-0.0-0.9","6489","1","22","Male","approach_avoid_spark_v1","""event"",""trial"",""time""
""fullscreenenter"",""1"",""1778""
","
","
","""event"",""trial"",""time""
""fullscreenenter"",""1"",""1778""
","
","","","","","","492.8999999985099","<p> Some of the equipment will make the kids VERY happy or sad. </p><p> These pieces of equipment will make you win or lose LOTS of points. </p><p> Other pieces of equipment will only make the kids a little happy or sad. </p><p> These pieces of equipment will make you win or lose small amounts of points. </p>","","0","instructions","","","","","","","","","","",""
"learning-instructions","18","113966","0.0-8.0-0.0-0.10","6489","1","22","Male","approach_avoid_spark_v1","""event"",""trial"",""time""
""fullscreenenter"",""1"",""1778""
","
","
","""event"",""trial"",""time""
""fullscreenenter"",""1"",""1778""
","
","","","","","","753.2000000029802","<p> If you choose not to give them the equipment, you will not win or lose any points. </p><p>  However, in the center of the screen, you will see the number of points you WOULD HAVE won or lost if you had given them the equipment. </p>","","0","instructions","","","","","","","","","","",""
"learning-instructions","19","138523","0.0-8.0-0.0-0.11","6489","1","22","Male","approach_avoid_spark_v1","""event"",""trial"",""time""
""fullscreenenter"",""1"",""1778""
","
","
","""event"",""trial"",""time""
""fullscreenenter"",""1"",""1778""
","
","","","","","","3021","<p> Here is what you might see if you did not give the equipment to the kids but it would have made them happy: </p><p style=""color:grey; font-size:50px; display: inline-block; border-spacing: 15px; border-width:3px; border-style:solid; border-color:red"">  &nbsp; 7 &nbsp; </p><p> Remember, in this case, you would not win or lose ANY points because you did not give them the equipment.  </p><p style=""color:grey"">The text is GREY because you earned ZERO points. </p><p style=""color:red"">However, choosing to give the kids the equipment would have made you win points. The box around the text is RED because you chose the worse option. </p>","","0","instructions","","","","","","","","","","",""
"learning-instructions","20","159903","0.0-8.0-0.0-0.12","6489","1","22","Male","approach_avoid_spark_v1","""event"",""trial"",""time""
""fullscreenenter"",""1"",""1778""
","
","
","""event"",""trial"",""time""
""fullscreenenter"",""1"",""1778""
","
","","","","","","301.79999999701977","<p> Here is what you might see if you did not give the equipment to the kids but it would have made them sad: </p><p style=""color:grey;font-size:50px; display: inline-block; border-spacing: 15px; border-width:3px; border-style:solid; border-color:green"">  &nbsp; -8 &nbsp; </p><p> Remember, in this case, you would not win or lose ANY points because you did not give them the equipment.  </p><p style=""color:grey"">The text is GREY because you earned ZERO points. </p><p  style=""color:green""> Choosing to give the kids the equipment would have made you lose points. The box around the text is GREEN because you chose the better option.</p>","","0","instructions","","","","","","","","","","",""
"learning-instructions","21","169095","0.0-8.0-0.0-0.13","6489","1","22","Male","approach_avoid_spark_v1","""event"",""trial"",""time""
""fullscreenenter"",""1"",""1778""
","
","
","""event"",""trial"",""time""
""fullscreenenter"",""1"",""1778""
","
","","","","","","343","<p> You will have 3 seconds to make each choice. Try to respond before time runs out! </p><p> You will lose 5 points each time you do not make a response. </p>","","0","instructions","","","","","","","","","","",""
"learning-instructions","22","175128","0.0-8.0-0.0-0.14","6489","1","22","Male","approach_avoid_spark_v1","""event"",""trial"",""time""
""fullscreenenter"",""1"",""1778""
","
","
","""event"",""trial"",""time""
""fullscreenenter"",""1"",""1778""
","
","","","","","","625.3999999985099","<p> This is just a practice round, but in the real game, your bonus payment will depend on your total number of points.","","0","instructions","","","","","","","","","","",""
"learning-instructions","23","181241","0.0-8.0-0.0-0.15","6489","1","22","Male","approach_avoid_spark_v1","""event"",""trial"",""time""
""fullscreenenter"",""1"",""1778""
","
","
","""event"",""trial"",""time""
""fullscreenenter"",""1"",""1778""
","
","","","","","","337.30000000074506","<p> Remember, you can give them the equipment by pressing 1 and choose not to give it to them by pressing 0. </p><br><div class=""choice-instructions-grid""> <div class=""choice-option""><img src=""images/approach.png"" class=""choice-option-img"" stage=""instructions"" position=""0"" ><div class=""choice-option-text""> Press ""1."" </div></div><div class=""choice-option""><img src=""images/avoid.png"" class=""choice-option-img"" stage=""instructions"" position=""1"" ><div class=""choice-option-text""> Press ""0."" </div></div>","","0","instructions","","","","","","","","","","",""
"html-button-response","24","182912","0.0-8.0-1.0","6489","1","22","Male","approach_avoid_spark_v1","""event"",""trial"",""time""
""fullscreenenter"",""1"",""1778""
","
","
","""event"",""trial"",""time""
""fullscreenenter"",""1"",""1778""
","
","","","","","","1560.199999999255","<p> Ready to practice? </p>","0","","","","","","","","","","","","",""
"html-keyboard-response","25","183531","0.0-8.0-2.0-0.0","6489","1","22","Male","approach_avoid_spark_v1","""event"",""trial"",""time""
""fullscreenenter"",""1"",""1778""
","
","
","""event"",""trial"",""time""
""fullscreenenter"",""1"",""1778""
","
","","","","","","null","<div style=""font-size:60px;"">+</div>","null","","fixation","","","","","","","","","","",""
"aa-learning-trial","26","186551","0.0-8.0-2.0-1.0","6489","1","22","Male","approach_avoid_spark_v1","""event"",""trial"",""time""
""fullscreenenter"",""1"",""1778""
","
","
","""event"",""trial"",""time""
""fullscreenenter"",""1"",""1778""
","
","","","","","","794.3000000007451","images/ball2.png","","","learning","-9","-9","1","1","practice","practice","practice","-1","","",""
"html-keyboard-response","27","187065","0.0-8.0-2.0-0.1","6489","1","22","Male","approach_avoid_spark_v1","""event"",""trial"",""time""
""fullscreenenter"",""1"",""1778""
","
","
","""event"",""trial"",""time""
""fullscreenenter"",""1"",""1778""
","
","","","","","","null","<div style=""font-size:60px;"">+</div>","null","","fixation","","","","","","","","","","",""
"aa-learning-trial","28","190072","0.0-8.0-2.0-1.1","6489","1","22","Male","approach_avoid_spark_v1","""event"",""trial"",""time""
""fullscreenenter"",""1"",""1778""
","
","
","""event"",""trial"",""time""
""fullscreenenter"",""1"",""1778""
","
","","","","","","889.5","images/racket1.png","","","learning","6","6","1","1","practice","practice","practice","-1","","",""
"html-keyboard-response","29","190576","0.0-8.0-2.0-0.2","6489","1","22","Male","approach_avoid_spark_v1","""event"",""trial"",""time""
""fullscreenenter"",""1"",""1778""
","
","
","""event"",""trial"",""time""
""fullscreenenter"",""1"",""1778""
","
","","","","","","null","<div style=""font-size:60px;"">+</div>","null","","fixation","","","","","","","","","","",""
"aa-learning-trial","30","193582","0.0-8.0-2.0-1.2","6489","1","22","Male","approach_avoid_spark_v1","""event"",""trial"",""time""
""fullscreenenter"",""1"",""1778""
","
","
","""event"",""trial"",""time""
""fullscreenenter"",""1"",""1778""
","
","","","","","","1007.1000000014901","images/ball2.png","","","learning","9","0","0","0","practice","practice","practice","-1","","",""
"html-keyboard-response","31","194095","0.0-8.0-2.0-0.3","6489","1","22","Male","approach_avoid_spark_v1","""event"",""trial"",""time""
""fullscreenenter"",""1"",""1778""
","
","
","""event"",""trial"",""time""
""fullscreenenter"",""1"",""1778""
","
","","","","","","null","<div style=""font-size:60px;"">+</div>","null","","fixation","","","","","","","","","","",""
"aa-learning-trial","32","197112","0.0-8.0-2.0-1.3","6489","1","22","Male","approach_avoid_spark_v1","""event"",""trial"",""time""
""fullscreenenter"",""1"",""1778""
","
","
","""event"",""trial"",""time""
""fullscreenenter"",""1"",""1778""
","
","","","","","","777.5999999977648","images/racket4.png","","","learning","-1","-1","1","1","practice","practice","practice","-1","","",""
"html-keyboard-response","33","197624","0.0-8.0-2.0-0.4","6489","1","22","Male","approach_avoid_spark_v1","""event"",""trial"",""time""
""fullscreenenter"",""1"",""1778""
","
","
","""event"",""trial"",""time""
""fullscreenenter"",""1"",""1778""
","
","","","","","","null","<div style=""font-size:60px;"">+</div>","null","","fixation","","","","","","","","","","",""
"aa-learning-trial","34","200630","0.0-8.0-2.0-1.4","6489","1","22","Male","approach_avoid_spark_v1","""event"",""trial"",""time""
""fullscreenenter"",""1"",""1778""
","
","
","""event"",""trial"",""time""
""fullscreenenter"",""1"",""1778""
","
","","","","","","1109","images/ball1.png","","","learning","-3","-3","1","1","practice","practice","practice","-1","","",""
"html-keyboard-response","35","201142","0.0-8.0-2.0-0.5","6489","1","22","Male","approach_avoid_spark_v1","""event"",""trial"",""time""
""fullscreenenter"",""1"",""1778""
","
","
","""event"",""trial"",""time""
""fullscreenenter"",""1"",""1778""
","
","","","","","","null","<div style=""font-size:60px;"">+</div>","null","","fixation","","","","","","","","","","",""
"aa-learning-trial","36","204156","0.0-8.0-2.0-1.5","6489","1","22","Male","approach_avoid_spark_v1","""event"",""trial"",""time""
""fullscreenenter"",""1"",""1778""
","
","
","""event"",""trial"",""time""
""fullscreenenter"",""1"",""1778""
","
","","","","","","1441.4000000022352","images/racket4.png","","","learning","-2","0","0","0","practice","practice","practice","-1","","",""
"html-keyboard-response","37","204671","0.0-8.0-2.0-0.6","6489","1","22","Male","approach_avoid_spark_v1","""event"",""trial"",""time""
""fullscreenenter"",""1"",""1778""
","
","
","""event"",""trial"",""time""
""fullscreenenter"",""1"",""1778""
","
","","","","","","null","<div style=""font-size:60px;"">+</div>","null","","fixation","","","","","","","","","","",""
"aa-learning-trial","38","207678","0.0-8.0-2.0-1.6","6489","1","22","Male","approach_avoid_spark_v1","""event"",""trial"",""time""
""fullscreenenter"",""1"",""1778""
","
","
","""event"",""trial"",""time""
""fullscreenenter"",""1"",""1778""
","
","","","","","","1200.199999999255","images/racket4.png","","","learning","5","0","0","0","practice","practice","practice","-1","","",""
"html-keyboard-response","39","208193","0.0-8.0-2.0-0.7","6489","1","22","Male","approach_avoid_spark_v1","""event"",""trial"",""time""
""fullscreenenter"",""1"",""1778""
","
","
","""event"",""trial"",""time""
""fullscreenenter"",""1"",""1778""
","
","","","","","","null","<div style=""font-size:60px;"">+</div>","null","","fixation","","","","","","","","","","",""
"aa-learning-trial","40","211198","0.0-8.0-2.0-1.7","6489","1","22","Male","approach_avoid_spark_v1","""event"",""trial"",""time""
""fullscreenenter"",""1"",""1778""
","
","
","""event"",""trial"",""time""
""fullscreenenter"",""1"",""1778""
","
","","","","","","1269.699999999255","images/ball2.png","","","learning","-5","-5","1","1","practice","practice","practice","-1","","",""
"html-keyboard-response","41","211700","0.0-8.0-2.0-0.8","6489","1","22","Male","approach_avoid_spark_v1","""event"",""trial"",""time""
""fullscreenenter"",""1"",""1778""
","
","
","""event"",""trial"",""time""
""fullscreenenter"",""1"",""1778""
","
","","","","","","null","<div style=""font-size:60px;"">+</div>","null","","fixation","","","","","","","","","","",""
"aa-learning-trial","42","214705","0.0-8.0-2.0-1.8","6489","1","22","Male","approach_avoid_spark_v1","""event"",""trial"",""time""
""fullscreenenter"",""1"",""1778""
","
","
","""event"",""trial"",""time""
""fullscreenenter"",""1"",""1778""
","
","","","","","","1167.5999999977648","images/racket2.png","","","learning","-8","-8","1","1","practice","practice","practice","-1","","",""
"html-keyboard-response","43","215207","0.0-8.0-2.0-0.9","6489","1","22","Male","approach_avoid_spark_v1","""event"",""trial"",""time""
""fullscreenenter"",""1"",""1778""
","
","
","""event"",""trial"",""time""
""fullscreenenter"",""1"",""1778""
","
","","","","","","null","<div style=""font-size:60px;"">+</div>","null","","fixation","","","","","","","","","","",""
"aa-learning-trial","44","218209","0.0-8.0-2.0-1.9","6489","1","22","Male","approach_avoid_spark_v1","""event"",""trial"",""time""
""fullscreenenter"",""1"",""1778""
","
","
","""event"",""trial"",""time""
""fullscreenenter"",""1"",""1778""
","
","","","","","","727.9000000022352","images/ball2.png","","","learning","7","0","0","0","practice","practice","practice","-1","","",""
"html-keyboard-response","45","218711","0.0-8.0-2.0-0.10","6489","1","22","Male","approach_avoid_spark_v1","""event"",""trial"",""time""
""fullscreenenter"",""1"",""1778""
","
","
","""event"",""trial"",""time""
""fullscreenenter"",""1"",""1778""
","
","","","","","","null","<div style=""font-size:60px;"">+</div>","null","","fixation","","","","","","","","","","",""
"aa-learning-trial","46","221717","0.0-8.0-2.0-1.10","6489","1","22","Male","approach_avoid_spark_v1","""event"",""trial"",""time""
""fullscreenenter"",""1"",""1778""
","
","
","""event"",""trial"",""time""
""fullscreenenter"",""1"",""1778""
","
","","","","","","207.5","images/racket3.png","","","learning","7","0","0","0","practice","practice","practice","-1","","",""
"html-keyboard-response","47","222220","0.0-8.0-2.0-0.11","6489","1","22","Male","approach_avoid_spark_v1","""event"",""trial"",""time""
""fullscreenenter"",""1"",""1778""
","
","
","""event"",""trial"",""time""
""fullscreenenter"",""1"",""1778""
","
","","","","","","null","<div style=""font-size:60px;"">+</div>","null","","fixation","","","","","","","","","","",""
"aa-learning-trial","48","225225","0.0-8.0-2.0-1.11","6489","1","22","Male","approach_avoid_spark_v1","""event"",""trial"",""time""
""fullscreenenter"",""1"",""1778""
","
","
","""event"",""trial"",""time""
""fullscreenenter"",""1"",""1778""
","
","","","","","","14.899999998509884","images/racket2.png","","","learning","3","0","0","0","practice","practice","practice","-1","","",""
"html-button-response","49","226997","0.0-8.0-3.0","6489","1","22","Male","approach_avoid_spark_v1","""event"",""trial"",""time""
""fullscreenenter"",""1"",""1778""
","
","
","""event"",""trial"",""time""
""fullscreenenter"",""1"",""1778""
","
","","","","","","1767.800000000745","<p> You earned -20 points in the practice round! </p>","0","","break","","","","","","","","","","",""
"learning-instructions","50","234802","0.0-8.0-4.0-0.0","6489","1","22","Male","approach_avoid_spark_v1","""event"",""trial"",""time""
""fullscreenenter"",""1"",""1778""
","
","
","""event"",""trial"",""time""
""fullscreenenter"",""1"",""1778""
","
","","","","","","1810.1000000014901","<p> It's almost time to start the real game. </p><p> Before you start, we're going to ask you a few questions about how the game works. </p>","","0","instructions","","","","","","","","","","",""
"preload","51","236153","0.0-8.0-5.0","6489","1","22","Male","approach_avoid_spark_v1","""event"",""trial"",""time""
""fullscreenenter"",""1"",""1778""
","
","
","""event"",""trial"",""time""
""fullscreenenter"",""1"",""1778""
","
","true","false","[]","[]","[]","","","","","","","","","","","","","","","",""
"comp-q","52","242250","0.0-8.0-6.0-0.0","6489","1","22","Male","approach_avoid_spark_v1","""event"",""trial"",""time""
""fullscreenenter"",""1"",""1778""
","
","
","""event"",""trial"",""time""
""fullscreenenter"",""1"",""1778""
","
","","","","","","1096.3999999985099","<p> <b> True or False? </b> </p><p> If you see a number in GREY, that means you earned that many points. </p>","","1","comp_question","","","","","","","","","true","",""
"comp-q","53","251369","0.0-8.0-6.0-1.0","6489","1","22","Male","approach_avoid_spark_v1","""event"",""trial"",""time""
""fullscreenenter"",""1"",""1778""
","
","
","""event"",""trial"",""time""
""fullscreenenter"",""1"",""1778""
","
","","","","","","756.4000000022352","<p><b> That's right! </b> If you see a grey number, it means you earned ZERO points. <br> The grey numbers show the points you WOULD HAVE earned if you had made the other choice. </p>","","0","comp_answer","","","","","","","","","","",""
"comp-q","54","256743","0.0-8.0-7.0-0.0","6489","1","22","Male","approach_avoid_spark_v1","""event"",""trial"",""time""
""fullscreenenter"",""1"",""1778""
","
","
","""event"",""trial"",""time""
""fullscreenenter"",""1"",""1778""
","
","","","","","","682","<p> <b> True or False? </b> </p><p> You will have as much time as you want to make each choice. </p>","","1","comp_question","","","","","","","","","true","",""
"comp-q","55","264511","0.0-8.0-7.0-1.0","6489","1","22","Male","approach_avoid_spark_v1","""event"",""trial"",""time""
""fullscreenenter"",""1"",""1778""
","
","
","""event"",""trial"",""time""
""fullscreenenter"",""1"",""1778""
","
","","","","","","3729.199999999255","<p> <b> That's right! </b> You will only have 3 seconds to make each choice. </p>","","0","comp_answer","","","","","","","","","","",""
"comp-q","56","269610","0.0-8.0-8.0-0.0","6489","1","22","Male","approach_avoid_spark_v1","""event"",""trial"",""time""
""fullscreenenter"",""1"",""1778""
","
","
","""event"",""trial"",""time""
""fullscreenenter"",""1"",""1778""
","
","","","","","","427.8999999985099","<p> <b> True or False? </b> </p><p> You should use the '1' and '0' keys to make your choices. </p>","","0","comp_question","","","","","","","","","true","",""
"comp-q","57","276273","0.0-8.0-8.0-1.0","6489","1","22","Male","approach_avoid_spark_v1","""event"",""trial"",""time""
""fullscreenenter"",""1"",""1778""
","
","
","""event"",""trial"",""time""
""fullscreenenter"",""1"",""1778""
","
","","","","","","2051","<p> <b> That's right! </b> You should use the '1' and '0' keys to make each choice. </p>","","0","comp_answer","","","","","","","","","","",""
"learning-instructions","58","283496","0.0-8.0-9.0-0.0","6489","1","22","Male","approach_avoid_spark_v1","""event"",""trial"",""time""
""fullscreenenter"",""1"",""1778""
","
","
","""event"",""trial"",""time""
""fullscreenenter"",""1"",""1778""
","
","","","","","","944.6000000014901","<p> It's now time to start the real game. </p>Do your best, because the points you earn in the next rounds will influence your bonus payment. </p>","","0","instructions","","","","","","","","","","",""
"preload","59","283622","0.0-9.0-0.0","6489","1","22","Male","approach_avoid_spark_v1","""event"",""trial"",""time""
""fullscreenenter"",""1"",""1778""
","
","
","""event"",""trial"",""time""
""fullscreenenter"",""1"",""1778""
","
","true","false","[]","[]","[]","","","","","","","","","","","","","","","",""
"learning-instructions","60","289804","0.0-9.0-1.0-0.0","6489","1","22","Male","approach_avoid_spark_v1","""event"",""trial"",""time""
""fullscreenenter"",""1"",""1778""
","
","
","""event"",""trial"",""time""
""fullscreenenter"",""1"",""1778""
","
","","","","","","1912.6000000014901","<p> Your goal in this round is to take care of lots of farm animals. </p></div>","","0","instructions","","","","","","","","","","",""
"learning-instructions","61","300922","0.0-9.0-1.0-0.1","6489","1","22","Male","approach_avoid_spark_v1","""event"",""trial"",""time""
""fullscreenenter"",""1"",""1778""
","
","
","""event"",""trial"",""time""
""fullscreenenter"",""1"",""1778""
","
","","","","","","1261.199999999255","<p> Some farm animals are hungry, while other farm animals are already full.  </p><p> On each turn, you will see a farm animal.   </p><p> You need to decide whether to feed it or not.  </p>","","0","instructions","","","","","","","","","","",""
"learning-instructions","62","306982","0.0-9.0-1.0-0.2","6489","1","22","Male","approach_avoid_spark_v1","""event"",""trial"",""time""
""fullscreenenter"",""1"",""1778""
","
","
","""event"",""trial"",""time""
""fullscreenenter"",""1"",""1778""
","
","","","","","","388.80000000074506","<p> You can feed the farm animal by pressing 1 and leave the farm animal alone by pressing 0. </p><br><div class=""choice-instructions-grid""> <div class=""choice-option""><img src=""images/approach.png"" class=""choice-option-img"" stage=""instructions"" position=""0"" ><div class=""choice-option-text""> Press ""1."" </div></div><div class=""choice-option""><img src=""images/avoid.png"" class=""choice-option-img"" stage=""instructions"" position=""1"" ><div class=""choice-option-text""> Press ""0."" </div></div>","","0","instructions","","","","","","","","","","",""
"learning-instructions","63","316652","0.0-9.0-1.0-0.3","6489","1","22","Male","approach_avoid_spark_v1","""event"",""trial"",""time""
""fullscreenenter"",""1"",""1778""
","
","
","""event"",""trial"",""time""
""fullscreenenter"",""1"",""1778""
","
","","","","","","389.5999999977648","<p> If you feed a hungry farm animal, you will make it feel satisfied! </p><p> But if you feed the farm animal and it was already full, you will make it feel sick. </p>","","0","instructions","","","","","","","","","","",""
"learning-instructions","64","329358","0.0-9.0-1.0-0.4","6489","1","22","Male","approach_avoid_spark_v1","""event"",""trial"",""time""
""fullscreenenter"",""1"",""1778""
","
","
","""event"",""trial"",""time""
""fullscreenenter"",""1"",""1778""
","
","","","","","","524.6999999992549","<p> You will earn points based on how you made the farm animal feel. </p><p> If you made it satisfied, you will WIN anywhere from 1 - 9 points, </p><p> but if you made it sick, you will LOSE anywhere from 1 - 9 points. </p>","","0","instructions","","","","","","","","","","",""
"learning-instructions","65","337767","0.0-9.0-1.0-0.5","6489","1","22","Male","approach_avoid_spark_v1","""event"",""trial"",""time""
""fullscreenenter"",""1"",""1778""
","
","
","""event"",""trial"",""time""
""fullscreenenter"",""1"",""1778""
","
","","","","","","1053.8999999985099","<p> You will see how many points you won or lost in the center of the screen. </p><p> Here is what you would see if you won 5 points: </p><p style=""color:green;font-size:50px;font-weight:bolder"">5</p>","","0","instructions","","","","","","","","","","",""
"learning-instructions","66","341460","0.0-9.0-1.0-0.6","6489","1","22","Male","approach_avoid_spark_v1","""event"",""trial"",""time""
""fullscreenenter"",""1"",""1778""
","
","
","""event"",""trial"",""time""
""fullscreenenter"",""1"",""1778""
","
","","","","","","357.8999999985099","<p> And here is what you would see if you lost 3 points: </p><p style=""color:red;font-size:50px;font-weight:bolder"">-3</p>","","0","instructions","","","","","","","","","","",""
"learning-instructions","67","358239","0.0-9.0-1.0-0.7","6489","1","22","Male","approach_avoid_spark_v1","""event"",""trial"",""time""
""fullscreenenter"",""1"",""1778""
","
","
","""event"",""trial"",""time""
""fullscreenenter"",""1"",""1778""
","
","","","","","","1606.3999999985099","<p> Some farm animals will become very satisfied or very sick. </p><p> These farm animals will make you win or lose LOTS of points. </p><p> Other farm animals have less strong feelings. </p><p> These farm animals will make you win or lose small amounts of points. </p>","","0","instructions","","","","","","","","","","",""
"learning-instructions","68","370594","0.0-9.0-1.0-0.8","6489","1","22","Male","approach_avoid_spark_v1","""event"",""trial"",""time""
""fullscreenenter"",""1"",""1778""
","
","
","""event"",""trial"",""time""
""fullscreenenter"",""1"",""1778""
","
","","","","","","581","<p> If you choose to leave the farm animal alone, you will not win or lose any points. </p><p>  However, in the center of the screen, you will see the number of points you WOULD HAVE won or lost if you had fed the farm animal. </p>","","0","instructions","","","","","","","","","","",""
"learning-instructions","69","382580","0.0-9.0-1.0-0.9","6489","1","22","Male","approach_avoid_spark_v1","""event"",""trial"",""time""
""fullscreenenter"",""1"",""1778""
","
","
","""event"",""trial"",""time""
""fullscreenenter"",""1"",""1778""
","
","","","","","","877","<p> Here is what you might see if you did not feed the farm animal but the animal was hungry: </p><p style=""color:grey; font-size:50px; display: inline-block; border-spacing: 15px; border-width:3px; border-style:solid; border-color:red"">  &nbsp; 6 &nbsp; </p><p> Remember, in this case, you would not win or lose ANY points because you did not feed the farm animal.  </p>","","0","instructions","","","","","","","","","","",""
"learning-instructions","70","390387","0.0-9.0-1.0-0.10","6489","1","22","Male","approach_avoid_spark_v1","""event"",""trial"",""time""
""fullscreenenter"",""1"",""1778""
","
","
","""event"",""trial"",""time""
""fullscreenenter"",""1"",""1778""
","
","","","","","","224.30000000074506","<p> Try to make the best choice for each farm animal because </p><p> at the end of the game, you will earn bonus money based on how many points you earned. </p>","","0","instructions","","","","","","","","","","",""
"learning-instructions","71","399065","0.0-9.0-1.0-0.11","6489","1","22","Male","approach_avoid_spark_v1","""event"",""trial"",""time""
""fullscreenenter"",""1"",""1778""
","
","
","""event"",""trial"",""time""
""fullscreenenter"",""1"",""1778""
","
","","","","","","482.5999999977648","<p> You will have 3 seconds to make each choice. Try to respond before time runs out! </p><p> You will lose 5 points each time you do not make a response. </p>","","0","instructions","","","","","","","","","","",""
"html-keyboard-response","72","399689","0.0-9.0-2.0-0.0","6489","1","22","Male","approach_avoid_spark_v1","""event"",""trial"",""time""
""fullscreenenter"",""1"",""1778""
","
","
","""event"",""trial"",""time""
""fullscreenenter"",""1"",""1778""
","
","","","","","","null","<div style=""font-size:60px;"">+</div>","null","","fixation","","","","","","","","","","",""
"aa-learning-trial","73","402695","0.0-9.0-2.0-1.0","6489","1","22","Male","approach_avoid_spark_v1","""event"",""trial"",""time""
""fullscreenenter"",""1"",""1778""
","
","
","""event"",""trial"",""time""
""fullscreenenter"",""1"",""1778""
","
","","","","","","1472.300000000745","images/horse6.png","","","learning","5","5","1","1","horse","animals","1","0","","good","[4]"
"html-keyboard-response","74","403212","0.0-9.0-2.0-0.1","6489","1","22","Male","approach_avoid_spark_v1","""event"",""trial"",""time""
""fullscreenenter"",""1"",""1778""
","
","
","""event"",""trial"",""time""
""fullscreenenter"",""1"",""1778""
","
","","","","","","null","<div style=""font-size:60px;"">+</div>","null","","fixation","","","","","","","","","","",""
"aa-learning-trial","75","406223","0.0-9.0-2.0-1.1","6489","1","22","Male","approach_avoid_spark_v1","""event"",""trial"",""time""
""fullscreenenter"",""1"",""1778""
","
","
","""event"",""trial"",""time""
""fullscreenenter"",""1"",""1778""
","
","","","","","","1186","images/cow1.png","","","learning","-6","0","0","0","cow","animals","1","0","","bad","[-5]"
"html-keyboard-response","76","406735","0.0-9.0-2.0-0.2","6489","1","22","Male","approach_avoid_spark_v1","""event"",""trial"",""time""
""fullscreenenter"",""1"",""1778""
","
","
","""event"",""trial"",""time""
""fullscreenenter"",""1"",""1778""
","
","","","","","","null","<div style=""font-size:60px;"">+</div>","null","","fixation","","","","","","","","","","",""
"aa-learning-trial","77","409751","0.0-9.0-2.0-1.2","6489","1","22","Male","approach_avoid_spark_v1","""event"",""trial"",""time""
""fullscreenenter"",""1"",""1778""
","
","
","""event"",""trial"",""time""
""fullscreenenter"",""1"",""1778""
","
","","","","","","865.5","images/sheep5.png","","","learning","-2","-2","1","1","sheep","animals","1","0","","neutral","0"
"html-keyboard-response","78","410265","0.0-9.0-2.0-0.3","6489","1","22","Male","approach_avoid_spark_v1","""event"",""trial"",""time""
""fullscreenenter"",""1"",""1778""
","
","
","""event"",""trial"",""time""
""fullscreenenter"",""1"",""1778""
","
","","","","","","null","<div style=""font-size:60px;"">+</div>","null","","fixation","","","","","","","","","","",""
"aa-learning-trial","79","413282","0.0-9.0-2.0-1.3","6489","1","22","Male","approach_avoid_spark_v1","""event"",""trial"",""time""
""fullscreenenter"",""1"",""1778""
","
","
","""event"",""trial"",""time""
""fullscreenenter"",""1"",""1778""
","
","","","","","","1315.2999999970198","images/horse2.png","","","learning","2","0","0","0","horse","animals","1","0","","good","[4]"
"html-keyboard-response","80","413792","0.0-9.0-2.0-0.4","6489","1","22","Male","approach_avoid_spark_v1","""event"",""trial"",""time""
""fullscreenenter"",""1"",""1778""
","
","
","""event"",""trial"",""time""
""fullscreenenter"",""1"",""1778""
","
","","","","","","null","<div style=""font-size:60px;"">+</div>","null","","fixation","","","","","","","","","","",""
"aa-learning-trial","81","416801","0.0-9.0-2.0-1.4","6489","1","22","Male","approach_avoid_spark_v1","""event"",""trial"",""time""
""fullscreenenter"",""1"",""1778""
","
","
","""event"",""trial"",""time""
""fullscreenenter"",""1"",""1778""
","
","","","","","","718.8000000007451","images/cow7.png","","","learning","-4","-4","1","1","cow","animals","1","0","","bad","[-5]"
"html-keyboard-response","82","417316","0.0-9.0-2.0-0.5","6489","1","22","Male","approach_avoid_spark_v1","""event"",""trial"",""time""
""fullscreenenter"",""1"",""1778""
","
","
","""event"",""trial"",""time""
""fullscreenenter"",""1"",""1778""
","
","","","","","","null","<div style=""font-size:60px;"">+</div>","null","","fixation","","","","","","","","","","",""
"aa-learning-trial","83","420326","0.0-9.0-2.0-1.5","6489","1","22","Male","approach_avoid_spark_v1","""event"",""trial"",""time""
""fullscreenenter"",""1"",""1778""
","
","
","""event"",""trial"",""time""
""fullscreenenter"",""1"",""1778""
","
","","","","","","1549.6000000014901","images/horse7.png","","","learning","3","3","1","1","horse","animals","1","0","","good","[4]"
"html-keyboard-response","84","420839","0.0-9.0-2.0-0.6","6489","1","22","Male","approach_avoid_spark_v1","""event"",""trial"",""time""
""fullscreenenter"",""1"",""1778""
","
","
","""event"",""trial"",""time""
""fullscreenenter"",""1"",""1778""
","
","","","","","","null","<div style=""font-size:60px;"">+</div>","null","","fixation","","","","","","","","","","",""
"aa-learning-trial","85","423847","0.0-9.0-2.0-1.6","6489","1","22","Male","approach_avoid_spark_v1","""event"",""trial"",""time""
""fullscreenenter"",""1"",""1778""
","
","
","""event"",""trial"",""time""
""fullscreenenter"",""1"",""1778""
","
","","","","","","881","images/sheep4.png","","","learning","-1","-1","1","1","sheep","animals","1","0","","neutral","0"
"html-keyboard-response","86","424361","0.0-9.0-2.0-0.7","6489","1","22","Male","approach_avoid_spark_v1","""event"",""trial"",""time""
""fullscreenenter"",""1"",""1778""
","
","
","""event"",""trial"",""time""
""fullscreenenter"",""1"",""1778""
","
","","","","","","null","<div style=""font-size:60px;"">+</div>","null","","fixation","","","","","","","","","","",""
"aa-learning-trial","87","427369","0.0-9.0-2.0-1.7","6489","1","22","Male","approach_avoid_spark_v1","""event"",""trial"",""time""
""fullscreenenter"",""1"",""1778""
","
","
","""event"",""trial"",""time""
""fullscreenenter"",""1"",""1778""
","
","","","","","","1071.4000000022352","images/sheep5.png","","","learning","-3","0","0","0","sheep","animals","1","0","","neutral","0"
"html-keyboard-response","88","427884","0.0-9.0-2.0-0.8","6489","1","22","Male","approach_avoid_spark_v1","""event"",""trial"",""time""
""fullscreenenter"",""1"",""1778""
","
","
","""event"",""trial"",""time""
""fullscreenenter"",""1"",""1778""
","
","","","","","","null","<div style=""font-size:60px;"">+</div>","null","","fixation","","","","","","","","","","",""
"aa-learning-trial","89","430887","0.0-9.0-2.0-1.8","6489","1","22","Male","approach_avoid_spark_v1","""event"",""trial"",""time""
""fullscreenenter"",""1"",""1778""
","
","
","""event"",""trial"",""time""
""fullscreenenter"",""1"",""1778""
","
","","","","","","1053.5999999977648","images/horse6.png","","","learning","5","5","1","1","horse","animals","1","0","","good","[4]"
"html-keyboard-response","90","431388","0.0-9.0-2.0-0.9","6489","1","22","Male","approach_avoid_spark_v1","""event"",""trial"",""time""
""fullscreenenter"",""1"",""1778""
","
","
","""event"",""trial"",""time""
""fullscreenenter"",""1"",""1778""
","
","","","","","","null","<div style=""font-size:60px;"">+</div>","null","","fixation","","","","","","","","","","",""
"aa-learning-trial","91","434393","0.0-9.0-2.0-1.9","6489","1","22","Male","approach_avoid_spark_v1","""event"",""trial"",""time""
""fullscreenenter"",""1"",""1778""
","
","
","""event"",""trial"",""time""
""fullscreenenter"",""1"",""1778""
","
","","","","","","993","images/cow4.png","","","learning","-3","-3","1","1","cow","animals","1","0","","bad","[-5]"
"html-keyboard-response","92","434896","0.0-9.0-2.0-0.10","6489","1","22","Male","approach_avoid_spark_v1","""event"",""trial"",""time""
""fullscreenenter"",""1"",""1778""
","
","
","""event"",""trial"",""time""
""fullscreenenter"",""1"",""1778""
","
","","","","","","null","<div style=""font-size:60px;"">+</div>","null","","fixation","","","","","","","","","","",""
"aa-learning-trial","93","437901","0.0-9.0-2.0-1.10","6489","1","22","Male","approach_avoid_spark_v1","""event"",""trial"",""time""
""fullscreenenter"",""1"",""1778""
","
","
","""event"",""trial"",""time""
""fullscreenenter"",""1"",""1778""
","
","","","","","","970.1999999992549","images/cow4.png","","","learning","-5","0","0","0","cow","animals","1","0","","bad","[-5]"
"html-keyboard-response","94","438402","0.0-9.0-2.0-0.11","6489","1","22","Male","approach_avoid_spark_v1","""event"",""trial"",""time""
""fullscreenenter"",""1"",""1778""
","
","
","""event"",""trial"",""time""
""fullscreenenter"",""1"",""1778""
","
","","","","","","null","<div style=""font-size:60px;"">+</div>","null","","fixation","","","","","","","","","","",""
"aa-learning-trial","95","441408","0.0-9.0-2.0-1.11","6489","1","22","Male","approach_avoid_spark_v1","""event"",""trial"",""time""
""fullscreenenter"",""1"",""1778""
","
","
","""event"",""trial"",""time""
""fullscreenenter"",""1"",""1778""
","
","","","","","","1686","images/sheep2.png","","","learning","1","1","1","1","sheep","animals","1","0","","neutral","0"
"html-keyboard-response","96","441910","0.0-9.0-2.0-0.12","6489","1","22","Male","approach_avoid_spark_v1","""event"",""trial"",""time""
""fullscreenenter"",""1"",""1778""
","
","
","""event"",""trial"",""time""
""fullscreenenter"",""1"",""1778""
","
","","","","","","null","<div style=""font-size:60px;"">+</div>","null","","fixation","","","","","","","","","","",""
"aa-learning-trial","97","444915","0.0-9.0-2.0-1.12","6489","1","22","Male","approach_avoid_spark_v1","""event"",""trial"",""time""
""fullscreenenter"",""1"",""1778""
","
","
","""event"",""trial"",""time""
""fullscreenenter"",""1"",""1778""
","
","","","","","","750.6999999992549","images/sheep2.png","","","learning","1","1","1","1","sheep","animals","1","0","","neutral","0"
"html-keyboard-response","98","445417","0.0-9.0-2.0-0.13","6489","1","22","Male","approach_avoid_spark_v1","""event"",""trial"",""time""
""fullscreenenter"",""1"",""1778""
","
","
","""event"",""trial"",""time""
""fullscreenenter"",""1"",""1778""
","
","","","","","","null","<div style=""font-size:60px;"">+</div>","null","","fixation","","","","","","","","","","",""
"aa-learning-trial","99","448420","0.0-9.0-2.0-1.13","6489","1","22","Male","approach_avoid_spark_v1","""event"",""trial"",""time""
""fullscreenenter"",""1"",""1778""
","
","
","""event"",""trial"",""time""
""fullscreenenter"",""1"",""1778""
","
","","","","","","896.8000000007451","images/horse2.png","","","learning","3","0","0","0","horse","animals","1","0","","good","[4]"
"html-keyboard-response","100","448921","0.0-9.0-2.0-0.14","6489","1","22","Male","approach_avoid_spark_v1","""event"",""trial"",""time""
""fullscreenenter"",""1"",""1778""
","
","
","""event"",""trial"",""time""
""fullscreenenter"",""1"",""1778""
","
","","","","","","null","<div style=""font-size:60px;"">+</div>","null","","fixation","","","","","","","","","","",""
"aa-learning-trial","101","451924","0.0-9.0-2.0-1.14","6489","1","22","Male","approach_avoid_spark_v1","""event"",""trial"",""time""
""fullscreenenter"",""1"",""1778""
","
","
","""event"",""trial"",""time""
""fullscreenenter"",""1"",""1778""
","
","","","","","","971.8999999985099","images/cow7.png","","","learning","-3","0","0","0","cow","animals","1","0","","bad","[-5]"
"html-keyboard-response","102","452425","0.0-9.0-2.0-0.15","6489","1","22","Male","approach_avoid_spark_v1","""event"",""trial"",""time""
""fullscreenenter"",""1"",""1778""
","
","
","""event"",""trial"",""time""
""fullscreenenter"",""1"",""1778""
","
","","","","","","null","<div style=""font-size:60px;"">+</div>","null","","fixation","","","","","","","","","","",""
"aa-learning-trial","103","455427","0.0-9.0-2.0-1.15","6489","1","22","Male","approach_avoid_spark_v1","""event"",""trial"",""time""
""fullscreenenter"",""1"",""1778""
","
","
","""event"",""trial"",""time""
""fullscreenenter"",""1"",""1778""
","
","","","","","","803.1999999992549","images/horse4.png","","","learning","2","2","1","1","horse","animals","1","0","","good","[4]"
"html-keyboard-response","104","455928","0.0-9.0-2.0-0.16","6489","1","22","Male","approach_avoid_spark_v1","""event"",""trial"",""time""
""fullscreenenter"",""1"",""1778""
","
","
","""event"",""trial"",""time""
""fullscreenenter"",""1"",""1778""
","
","","","","","","null","<div style=""font-size:60px;"">+</div>","null","","fixation","","","","","","","","","","",""
"aa-learning-trial","105","458933","0.0-9.0-2.0-1.16","6489","1","22","Male","approach_avoid_spark_v1","""event"",""trial"",""time""
""fullscreenenter"",""1"",""1778""
","
","
","""event"",""trial"",""time""
""fullscreenenter"",""1"",""1778""
","
","","","","","","997.1999999992549","images/horse2.png","","","learning","6","6","1","1","horse","animals","1","0","","good","[4]"
"html-keyboard-response","106","459435","0.0-9.0-2.0-0.17","6489","1","22","Male","approach_avoid_spark_v1","""event"",""trial"",""time""
""fullscreenenter"",""1"",""1778""
","
","
","""event"",""trial"",""time""
""fullscreenenter"",""1"",""1778""
","
","","","","","","null","<div style=""font-size:60px;"">+</div>","null","","fixation","","","","","","","","","","",""
"aa-learning-trial","107","462440","0.0-9.0-2.0-1.17","6489","1","22","Male","approach_avoid_spark_v1","""event"",""trial"",""time""
""fullscreenenter"",""1"",""1778""
","
","
","""event"",""trial"",""time""
""fullscreenenter"",""1"",""1778""
","
","","","","","","1976.1000000014901","images/sheep5.png","","","learning","[1]","1","1","1","sheep","animals","1","0","","neutral","0"
"html-keyboard-response","108","462941","0.0-9.0-2.0-0.18","6489","1","22","Male","approach_avoid_spark_v1","""event"",""trial"",""time""
""fullscreenenter"",""1"",""1778""
","
","
","""event"",""trial"",""time""
""fullscreenenter"",""1"",""1778""
","
","","","","","","null","<div style=""font-size:60px;"">+</div>","null","","fixation","","","","","","","","","","",""
"aa-learning-trial","109","465943","0.0-9.0-2.0-1.18","6489","1","22","Male","approach_avoid_spark_v1","""event"",""trial"",""time""
""fullscreenenter"",""1"",""1778""
","
","
","""event"",""trial"",""time""
""fullscreenenter"",""1"",""1778""
","
","","","","","","979.0999999977648","images/cow4.png","","","learning","-6","0","0","0","cow","animals","1","0","","bad","[-5]"
"html-keyboard-response","110","466446","0.0-9.0-2.0-0.19","6489","1","22","Male","approach_avoid_spark_v1","""event"",""trial"",""time""
""fullscreenenter"",""1"",""1778""
","
","
","""event"",""trial"",""time""
""fullscreenenter"",""1"",""1778""
","
","","","","","","null","<div style=""font-size:60px;"">+</div>","null","","fixation","","","","","","","","","","",""
"aa-learning-trial","111","469449","0.0-9.0-2.0-1.19","6489","1","22","Male","approach_avoid_spark_v1","""event"",""trial"",""time""
""fullscreenenter"",""1"",""1778""
","
","
","""event"",""trial"",""time""
""fullscreenenter"",""1"",""1778""
","
","","","","","","984.8000000007451","images/cow1.png","","","learning","-5","0","0","0","cow","animals","1","0","","bad","[-5]"
"html-keyboard-response","112","469951","0.0-9.0-2.0-0.20","6489","1","22","Male","approach_avoid_spark_v1","""event"",""trial"",""time""
""fullscreenenter"",""1"",""1778""
","
","
","""event"",""trial"",""time""
""fullscreenenter"",""1"",""1778""
","
","","","","","","null","<div style=""font-size:60px;"">+</div>","null","","fixation","","","","","","","","","","",""
"aa-learning-trial","113","472955","0.0-9.0-2.0-1.20","6489","1","22","Male","approach_avoid_spark_v1","""event"",""trial"",""time""
""fullscreenenter"",""1"",""1778""
","
","
","""event"",""trial"",""time""
""fullscreenenter"",""1"",""1778""
","
","","","","","","1335.7999999970198","images/horse6.png","","","learning","2","2","1","1","horse","animals","1","0","","good","[4]"
"html-keyboard-response","114","473457","0.0-9.0-2.0-0.21","6489","1","22","Male","approach_avoid_spark_v1","""event"",""trial"",""time""
""fullscreenenter"",""1"",""1778""
","
","
","""event"",""trial"",""time""
""fullscreenenter"",""1"",""1778""
","
","","","","","","null","<div style=""font-size:60px;"">+</div>","null","","fixation","","","","","","","","","","",""
"aa-learning-trial","115","476461","0.0-9.0-2.0-1.21","6489","1","22","Male","approach_avoid_spark_v1","""event"",""trial"",""time""
""fullscreenenter"",""1"",""1778""
","
","
","""event"",""trial"",""time""
""fullscreenenter"",""1"",""1778""
","
","","","","","","1216","images/cow4.png","","","learning","-2","0","0","0","cow","animals","1","0","","bad","[-5]"
"html-keyboard-response","116","476963","0.0-9.0-2.0-0.22","6489","1","22","Male","approach_avoid_spark_v1","""event"",""trial"",""time""
""fullscreenenter"",""1"",""1778""
","
","
","""event"",""trial"",""time""
""fullscreenenter"",""1"",""1778""
","
","","","","","","null","<div style=""font-size:60px;"">+</div>","null","","fixation","","","","","","","","","","",""
"aa-learning-trial","117","479968","0.0-9.0-2.0-1.22","6489","1","22","Male","approach_avoid_spark_v1","""event"",""trial"",""time""
""fullscreenenter"",""1"",""1778""
","
","
","""event"",""trial"",""time""
""fullscreenenter"",""1"",""1778""
","
","","","","","","764.1000000014901","images/sheep5.png","","","learning","[1]","1","1","1","sheep","animals","1","0","","neutral","0"
"html-keyboard-response","118","480471","0.0-9.0-2.0-0.23","6489","1","22","Male","approach_avoid_spark_v1","""event"",""trial"",""time""
""fullscreenenter"",""1"",""1778""
","
","
","""event"",""trial"",""time""
""fullscreenenter"",""1"",""1778""
","
","","","","","","null","<div style=""font-size:60px;"">+</div>","null","","fixation","","","","","","","","","","",""
"aa-learning-trial","119","483476","0.0-9.0-2.0-1.23","6489","1","22","Male","approach_avoid_spark_v1","""event"",""trial"",""time""
""fullscreenenter"",""1"",""1778""
","
","
","""event"",""trial"",""time""
""fullscreenenter"",""1"",""1778""
","
","","","","","","459.8999999985099","images/sheep5.png","","","learning","-1","-1","1","1","sheep","animals","1","0","","neutral","0"
"html-keyboard-response","120","483978","0.0-9.0-2.0-0.24","6489","1","22","Male","approach_avoid_spark_v1","""event"",""trial"",""time""
""fullscreenenter"",""1"",""1778""
","
","
","""event"",""trial"",""time""
""fullscreenenter"",""1"",""1778""
","
","","","","","","null","<div style=""font-size:60px;"">+</div>","null","","fixation","","","","","","","","","","",""
"aa-learning-trial","121","486983","0.0-9.0-2.0-1.24","6489","1","22","Male","approach_avoid_spark_v1","""event"",""trial"",""time""
""fullscreenenter"",""1"",""1778""
","
","
","""event"",""trial"",""time""
""fullscreenenter"",""1"",""1778""
","
","","","","","","1268.6000000014901","images/sheep4.png","","","learning","1","1","1","1","sheep","animals","1","0","","neutral","0"
"html-keyboard-response","122","487485","0.0-9.0-2.0-0.25","6489","1","22","Male","approach_avoid_spark_v1","""event"",""trial"",""time""
""fullscreenenter"",""1"",""1778""
","
","
","""event"",""trial"",""time""
""fullscreenenter"",""1"",""1778""
","
","","","","","","null","<div style=""font-size:60px;"">+</div>","null","","fixation","","","","","","","","","","",""
"aa-learning-trial","123","490489","0.0-9.0-2.0-1.25","6489","1","22","Male","approach_avoid_spark_v1","""event"",""trial"",""time""
""fullscreenenter"",""1"",""1778""
","
","
","""event"",""trial"",""time""
""fullscreenenter"",""1"",""1778""
","
","","","","","","1150.699999999255","images/sheep5.png","","","learning","1","0","0","0","sheep","animals","1","0","","neutral","0"
"html-keyboard-response","124","490991","0.0-9.0-2.0-0.26","6489","1","22","Male","approach_avoid_spark_v1","""event"",""trial"",""time""
""fullscreenenter"",""1"",""1778""
","
","
","""event"",""trial"",""time""
""fullscreenenter"",""1"",""1778""
","
","","","","","","null","<div style=""font-size:60px;"">+</div>","null","","fixation","","","","","","","","","","",""
"aa-learning-trial","125","493997","0.0-9.0-2.0-1.26","6489","1","22","Male","approach_avoid_spark_v1","""event"",""trial"",""time""
""fullscreenenter"",""1"",""1778""
","
","
","""event"",""trial"",""time""
""fullscreenenter"",""1"",""1778""
","
","","","","","","986.6999999992549","images/sheep2.png","","","learning","[-1]","-1","1","1","sheep","animals","1","0","","neutral","0"
"html-keyboard-response","126","494500","0.0-9.0-2.0-0.27","6489","1","22","Male","approach_avoid_spark_v1","""event"",""trial"",""time""
""fullscreenenter"",""1"",""1778""
","
","
","""event"",""trial"",""time""
""fullscreenenter"",""1"",""1778""
","
","","","","","","null","<div style=""font-size:60px;"">+</div>","null","","fixation","","","","","","","","","","",""
"aa-learning-trial","127","497503","0.0-9.0-2.0-1.27","6489","1","22","Male","approach_avoid_spark_v1","""event"",""trial"",""time""
""fullscreenenter"",""1"",""1778""
","
","
","""event"",""trial"",""time""
""fullscreenenter"",""1"",""1778""
","
","","","","","","1322.3999999985099","images/sheep6.png","","","learning","-5","-5","1","1","sheep","animals","1","0","","neutral","0"
"html-keyboard-response","128","498005","0.0-9.0-2.0-0.28","6489","1","22","Male","approach_avoid_spark_v1","""event"",""trial"",""time""
""fullscreenenter"",""1"",""1778""
","
","
","""event"",""trial"",""time""
""fullscreenenter"",""1"",""1778""
","
","","","","","","null","<div style=""font-size:60px;"">+</div>","null","","fixation","","","","","","","","","","",""
"aa-learning-trial","129","501010","0.0-9.0-2.0-1.28","6489","1","22","Male","approach_avoid_spark_v1","""event"",""trial"",""time""
""fullscreenenter"",""1"",""1778""
","
","
","""event"",""trial"",""time""
""fullscreenenter"",""1"",""1778""
","
","","","","","","1223.800000000745","images/horse1.png","","","learning","4","0","0","0","horse","animals","1","0","","good","[4]"
"html-keyboard-response","130","501515","0.0-9.0-2.0-0.29","6489","1","22","Male","approach_avoid_spark_v1","""event"",""trial"",""time""
""fullscreenenter"",""1"",""1778""
","
","
","""event"",""trial"",""time""
""fullscreenenter"",""1"",""1778""
","
","","","","","","null","<div style=""font-size:60px;"">+</div>","null","","fixation","","","","","","","","","","",""
"aa-learning-trial","131","504519","0.0-9.0-2.0-1.29","6489","1","22","Male","approach_avoid_spark_v1","""event"",""trial"",""time""
""fullscreenenter"",""1"",""1778""
","
","
","""event"",""trial"",""time""
""fullscreenenter"",""1"",""1778""
","
","","","","","","1248.699999999255","images/sheep4.png","","","learning","[-1]","0","0","0","sheep","animals","1","0","","neutral","0"
"html-keyboard-response","132","505021","0.0-9.0-2.0-0.30","6489","1","22","Male","approach_avoid_spark_v1","""event"",""trial"",""time""
""fullscreenenter"",""1"",""1778""
","
","
","""event"",""trial"",""time""
""fullscreenenter"",""1"",""1778""
","
","","","","","","null","<div style=""font-size:60px;"">+</div>","null","","fixation","","","","","","","","","","",""
"aa-learning-trial","133","508027","0.0-9.0-2.0-1.30","6489","1","22","Male","approach_avoid_spark_v1","""event"",""trial"",""time""
""fullscreenenter"",""1"",""1778""
","
","
","""event"",""trial"",""time""
""fullscreenenter"",""1"",""1778""
","
","","","","","","970.7999999970198","images/horse2.png","","","learning","3","3","1","1","horse","animals","1","0","","good","[4]"
"html-keyboard-response","134","508529","0.0-9.0-2.0-0.31","6489","1","22","Male","approach_avoid_spark_v1","""event"",""trial"",""time""
""fullscreenenter"",""1"",""1778""
","
","
","""event"",""trial"",""time""
""fullscreenenter"",""1"",""1778""
","
","","","","","","null","<div style=""font-size:60px;"">+</div>","null","","fixation","","","","","","","","","","",""
"aa-learning-trial","135","511534","0.0-9.0-2.0-1.31","6489","1","22","Male","approach_avoid_spark_v1","""event"",""trial"",""time""
""fullscreenenter"",""1"",""1778""
","
","
","""event"",""trial"",""time""
""fullscreenenter"",""1"",""1778""
","
","","","","","","649","images/cow3.png","","","learning","-3","0","0","0","cow","animals","1","0","","bad","[-5]"
"html-keyboard-response","136","512036","0.0-9.0-2.0-0.32","6489","1","22","Male","approach_avoid_spark_v1","""event"",""trial"",""time""
""fullscreenenter"",""1"",""1778""
","
","
","""event"",""trial"",""time""
""fullscreenenter"",""1"",""1778""
","
","","","","","","null","<div style=""font-size:60px;"">+</div>","null","","fixation","","","","","","","","","","",""
"aa-learning-trial","137","515038","0.0-9.0-2.0-1.32","6489","1","22","Male","approach_avoid_spark_v1","""event"",""trial"",""time""
""fullscreenenter"",""1"",""1778""
","
","
","""event"",""trial"",""time""
""fullscreenenter"",""1"",""1778""
","
","","","","","","815.1999999992549","images/horse2.png","","","learning","5","5","1","1","horse","animals","1","0","","good","[4]"
"html-keyboard-response","138","515540","0.0-9.0-2.0-0.33","6489","1","22","Male","approach_avoid_spark_v1","""event"",""trial"",""time""
""fullscreenenter"",""1"",""1778""
","
","
","""event"",""trial"",""time""
""fullscreenenter"",""1"",""1778""
","
","","","","","","null","<div style=""font-size:60px;"">+</div>","null","","fixation","","","","","","","","","","",""
"aa-learning-trial","139","518545","0.0-9.0-2.0-1.33","6489","1","22","Male","approach_avoid_spark_v1","""event"",""trial"",""time""
""fullscreenenter"",""1"",""1778""
","
","
","""event"",""trial"",""time""
""fullscreenenter"",""1"",""1778""
","
","","","","","","978.8000000007451","images/horse7.png","","","learning","4","0","0","0","horse","animals","1","0","","good","[4]"
"html-keyboard-response","140","519048","0.0-9.0-2.0-0.34","6489","1","22","Male","approach_avoid_spark_v1","""event"",""trial"",""time""
""fullscreenenter"",""1"",""1778""
","
","
","""event"",""trial"",""time""
""fullscreenenter"",""1"",""1778""
","
","","","","","","null","<div style=""font-size:60px;"">+</div>","null","","fixation","","","","","","","","","","",""
"aa-learning-trial","141","522055","0.0-9.0-2.0-1.34","6489","1","22","Male","approach_avoid_spark_v1","""event"",""trial"",""time""
""fullscreenenter"",""1"",""1778""
","
","
","""event"",""trial"",""time""
""fullscreenenter"",""1"",""1778""
","
","","","","","","933.6999999992549","images/sheep2.png","","","learning","-1","0","0","0","sheep","animals","1","0","","neutral","0"
"html-keyboard-response","142","522558","0.0-9.0-2.0-0.35","6489","1","22","Male","approach_avoid_spark_v1","""event"",""trial"",""time""
""fullscreenenter"",""1"",""1778""
","
","
","""event"",""trial"",""time""
""fullscreenenter"",""1"",""1778""
","
","","","","","","null","<div style=""font-size:60px;"">+</div>","null","","fixation","","","","","","","","","","",""
"aa-learning-trial","143","525563","0.0-9.0-2.0-1.35","6489","1","22","Male","approach_avoid_spark_v1","""event"",""trial"",""time""
""fullscreenenter"",""1"",""1778""
","
","
","""event"",""trial"",""time""
""fullscreenenter"",""1"",""1778""
","
","","","","","","1333.5999999977648","images/cow7.png","","","learning","-2","0","0","0","cow","animals","1","0","","bad","[-5]"
"html-keyboard-response","144","526064","0.0-9.0-2.0-0.36","6489","1","22","Male","approach_avoid_spark_v1","""event"",""trial"",""time""
""fullscreenenter"",""1"",""1778""
","
","
","""event"",""trial"",""time""
""fullscreenenter"",""1"",""1778""
","
","","","","","","null","<div style=""font-size:60px;"">+</div>","null","","fixation","","","","","","","","","","",""
"aa-learning-trial","145","529069","0.0-9.0-2.0-1.36","6489","1","22","Male","approach_avoid_spark_v1","""event"",""trial"",""time""
""fullscreenenter"",""1"",""1778""
","
","
","""event"",""trial"",""time""
""fullscreenenter"",""1"",""1778""
","
","","","","","","2389.300000000745","images/cow2.png","","","learning","-5","-5","1","1","cow","animals","1","0","","bad","[-5]"
"html-keyboard-response","146","529576","0.0-9.0-2.0-0.37","6489","1","22","Male","approach_avoid_spark_v1","""event"",""trial"",""time""
""fullscreenenter"",""1"",""1778""
","
","
","""event"",""trial"",""time""
""fullscreenenter"",""1"",""1778""
","
","","","","","","null","<div style=""font-size:60px;"">+</div>","null","","fixation","","","","","","","","","","",""
"aa-learning-trial","147","532580","0.0-9.0-2.0-1.37","6489","1","22","Male","approach_avoid_spark_v1","""event"",""trial"",""time""
""fullscreenenter"",""1"",""1778""
","
","
","""event"",""trial"",""time""
""fullscreenenter"",""1"",""1778""
","
","","","","","","817.8000000007451","images/horse6.png","","","learning","5","5","1","1","horse","animals","1","0","","good","[4]"
"html-keyboard-response","148","533084","0.0-9.0-2.0-0.38","6489","1","22","Male","approach_avoid_spark_v1","""event"",""trial"",""time""
""fullscreenenter"",""1"",""1778""
","
","
","""event"",""trial"",""time""
""fullscreenenter"",""1"",""1778""
","
","","","","","","null","<div style=""font-size:60px;"">+</div>","null","","fixation","","","","","","","","","","",""
"aa-learning-trial","149","536086","0.0-9.0-2.0-1.38","6489","1","22","Male","approach_avoid_spark_v1","""event"",""trial"",""time""
""fullscreenenter"",""1"",""1778""
","
","
","""event"",""trial"",""time""
""fullscreenenter"",""1"",""1778""
","
","","","","","","631.4000000022352","images/horse2.png","","","learning","5","5","1","1","horse","animals","1","0","","good","[4]"
"html-keyboard-response","150","536588","0.0-9.0-2.0-0.39","6489","1","22","Male","approach_avoid_spark_v1","""event"",""trial"",""time""
""fullscreenenter"",""1"",""1778""
","
","
","""event"",""trial"",""time""
""fullscreenenter"",""1"",""1778""
","
","","","","","","null","<div style=""font-size:60px;"">+</div>","null","","fixation","","","","","","","","","","",""
"aa-learning-trial","151","539591","0.0-9.0-2.0-1.39","6489","1","22","Male","approach_avoid_spark_v1","""event"",""trial"",""time""
""fullscreenenter"",""1"",""1778""
","
","
","""event"",""trial"",""time""
""fullscreenenter"",""1"",""1778""
","
","","","","","","1398.0999999977648","images/cow4.png","","","learning","-6","0","0","0","cow","animals","1","0","","bad","[-5]"
"html-keyboard-response","152","540095","0.0-9.0-2.0-0.40","6489","1","22","Male","approach_avoid_spark_v1","""event"",""trial"",""time""
""fullscreenenter"",""1"",""1778""
","
","
","""event"",""trial"",""time""
""fullscreenenter"",""1"",""1778""
","
","","","","","","null","<div style=""font-size:60px;"">+</div>","null","","fixation","","","","","","","","","","",""
"aa-learning-trial","153","543100","0.0-9.0-2.0-1.40","6489","1","22","Male","approach_avoid_spark_v1","""event"",""trial"",""time""
""fullscreenenter"",""1"",""1778""
","
","
","""event"",""trial"",""time""
""fullscreenenter"",""1"",""1778""
","
","","","","","","1065.1000000014901","images/sheep1.png","","","learning","1","0","0","0","sheep","animals","1","0","","neutral","0"
"html-keyboard-response","154","543603","0.0-9.0-2.0-0.41","6489","1","22","Male","approach_avoid_spark_v1","""event"",""trial"",""time""
""fullscreenenter"",""1"",""1778""
","
","
","""event"",""trial"",""time""
""fullscreenenter"",""1"",""1778""
","
","","","","","","null","<div style=""font-size:60px;"">+</div>","null","","fixation","","","","","","","","","","",""
"aa-learning-trial","155","546607","0.0-9.0-2.0-1.41","6489","1","22","Male","approach_avoid_spark_v1","""event"",""trial"",""time""
""fullscreenenter"",""1"",""1778""
","
","
","""event"",""trial"",""time""
""fullscreenenter"",""1"",""1778""
","
","","","","","","792.5999999977648","images/cow4.png","","","learning","-5","0","0","0","cow","animals","1","0","","bad","[-5]"
"html-keyboard-response","156","547110","0.0-9.0-2.0-0.42","6489","1","22","Male","approach_avoid_spark_v1","""event"",""trial"",""time""
""fullscreenenter"",""1"",""1778""
","
","
","""event"",""trial"",""time""
""fullscreenenter"",""1"",""1778""
","
","","","","","","null","<div style=""font-size:60px;"">+</div>","null","","fixation","","","","","","","","","","",""
"aa-learning-trial","157","550115","0.0-9.0-2.0-1.42","6489","1","22","Male","approach_avoid_spark_v1","""event"",""trial"",""time""
""fullscreenenter"",""1"",""1778""
","
","
","""event"",""trial"",""time""
""fullscreenenter"",""1"",""1778""
","
","","","","","","1583.3999999985099","images/sheep2.png","","","learning","-1","0","0","0","sheep","animals","1","0","","neutral","0"
"html-keyboard-response","158","550617","0.0-9.0-2.0-0.43","6489","1","22","Male","approach_avoid_spark_v1","""event"",""trial"",""time""
""fullscreenenter"",""1"",""1778""
","
","
","""event"",""trial"",""time""
""fullscreenenter"",""1"",""1778""
","
","","","","","","null","<div style=""font-size:60px;"">+</div>","null","","fixation","","","","","","","","","","",""
"aa-learning-trial","159","553623","0.0-9.0-2.0-1.43","6489","1","22","Male","approach_avoid_spark_v1","""event"",""trial"",""time""
""fullscreenenter"",""1"",""1778""
","
","
","""event"",""trial"",""time""
""fullscreenenter"",""1"",""1778""
","
","","","","","","562.8999999985099","images/horse7.png","","","learning","2","2","1","1","horse","animals","1","0","","good","[4]"
"html-keyboard-response","160","554125","0.0-9.0-2.0-0.44","6489","1","22","Male","approach_avoid_spark_v1","""event"",""trial"",""time""
""fullscreenenter"",""1"",""1778""
","
","
","""event"",""trial"",""time""
""fullscreenenter"",""1"",""1778""
","
","","","","","","null","<div style=""font-size:60px;"">+</div>","null","","fixation","","","","","","","","","","",""
"aa-learning-trial","161","557130","0.0-9.0-2.0-1.44","6489","1","22","Male","approach_avoid_spark_v1","""event"",""trial"",""time""
""fullscreenenter"",""1"",""1778""
","
","
","""event"",""trial"",""time""
""fullscreenenter"",""1"",""1778""
","
","","","","","","1004.3000000007451","images/horse6.png","","","learning","3","3","1","1","horse","animals","1","0","","good","[4]"
"html-keyboard-response","162","557638","0.0-9.0-2.0-0.45","6489","1","22","Male","approach_avoid_spark_v1","""event"",""trial"",""time""
""fullscreenenter"",""1"",""1778""
","
","
","""event"",""trial"",""time""
""fullscreenenter"",""1"",""1778""
","
","","","","","","null","<div style=""font-size:60px;"">+</div>","null","","fixation","","","","","","","","","","",""
"aa-learning-trial","163","560642","0.0-9.0-2.0-1.45","6489","1","22","Male","approach_avoid_spark_v1","""event"",""trial"",""time""
""fullscreenenter"",""1"",""1778""
","
","
","""event"",""trial"",""time""
""fullscreenenter"",""1"",""1778""
","
","","","","","","481.19999999925494","images/horse6.png","","","learning","4","4","1","1","horse","animals","1","0","","good","[4]"
"html-keyboard-response","164","561143","0.0-9.0-2.0-0.46","6489","1","22","Male","approach_avoid_spark_v1","""event"",""trial"",""time""
""fullscreenenter"",""1"",""1778""
","
","
","""event"",""trial"",""time""
""fullscreenenter"",""1"",""1778""
","
","","","","","","null","<div style=""font-size:60px;"">+</div>","null","","fixation","","","","","","","","","","",""
"aa-learning-trial","165","564145","0.0-9.0-2.0-1.46","6489","1","22","Male","approach_avoid_spark_v1","""event"",""trial"",""time""
""fullscreenenter"",""1"",""1778""
","
","
","""event"",""trial"",""time""
""fullscreenenter"",""1"",""1778""
","
","","","","","","685.0999999977648","images/cow7.png","","","learning","-7","0","0","0","cow","animals","1","0","","bad","[-5]"
"html-keyboard-response","166","564662","0.0-9.0-2.0-0.47","6489","1","22","Male","approach_avoid_spark_v1","""event"",""trial"",""time""
""fullscreenenter"",""1"",""1778""
","
","
","""event"",""trial"",""time""
""fullscreenenter"",""1"",""1778""
","
","","","","","","null","<div style=""font-size:60px;"">+</div>","null","","fixation","","","","","","","","","","",""
"aa-learning-trial","167","567667","0.0-9.0-2.0-1.47","6489","1","22","Male","approach_avoid_spark_v1","""event"",""trial"",""time""
""fullscreenenter"",""1"",""1778""
","
","
","""event"",""trial"",""time""
""fullscreenenter"",""1"",""1778""
","
","","","","","","410.3999999985099","images/cow7.png","","","learning","-7","0","0","0","cow","animals","1","0","","bad","[-5]"
"html-keyboard-response","168","568169","0.0-9.0-2.0-0.48","6489","1","22","Male","approach_avoid_spark_v1","""event"",""trial"",""time""
""fullscreenenter"",""1"",""1778""
","
","
","""event"",""trial"",""time""
""fullscreenenter"",""1"",""1778""
","
","","","","","","null","<div style=""font-size:60px;"">+</div>","null","","fixation","","","","","","","","","","",""
"aa-learning-trial","169","571175","0.0-9.0-2.0-1.48","6489","1","22","Male","approach_avoid_spark_v1","""event"",""trial"",""time""
""fullscreenenter"",""1"",""1778""
","
","
","""event"",""trial"",""time""
""fullscreenenter"",""1"",""1778""
","
","","","","","","617.6999999992549","images/sheep2.png","","","learning","-1","-1","1","1","sheep","animals","1","0","","neutral","0"
"html-keyboard-response","170","571677","0.0-9.0-2.0-0.49","6489","1","22","Male","approach_avoid_spark_v1","""event"",""trial"",""time""
""fullscreenenter"",""1"",""1778""
","
","
","""event"",""trial"",""time""
""fullscreenenter"",""1"",""1778""
","
","","","","","","null","<div style=""font-size:60px;"">+</div>","null","","fixation","","","","","","","","","","",""
"aa-learning-trial","171","574681","0.0-9.0-2.0-1.49","6489","1","22","Male","approach_avoid_spark_v1","""event"",""trial"",""time""
""fullscreenenter"",""1"",""1778""
","
","
","""event"",""trial"",""time""
""fullscreenenter"",""1"",""1778""
","
","","","","","","705.2000000029802","images/cow7.png","","","learning","-4","0","0","0","cow","animals","1","0","","bad","[-5]"
"html-keyboard-response","172","575182","0.0-9.0-2.0-0.50","6489","1","22","Male","approach_avoid_spark_v1","""event"",""trial"",""time""
""fullscreenenter"",""1"",""1778""
","
","
","""event"",""trial"",""time""
""fullscreenenter"",""1"",""1778""
","
","","","","","","null","<div style=""font-size:60px;"">+</div>","null","","fixation","","","","","","","","","","",""
"aa-learning-trial","173","578188","0.0-9.0-2.0-1.50","6489","1","22","Male","approach_avoid_spark_v1","""event"",""trial"",""time""
""fullscreenenter"",""1"",""1778""
","
","
","""event"",""trial"",""time""
""fullscreenenter"",""1"",""1778""
","
","","","","","","1426.699999999255","images/cow1.png","","","learning","-6","0","0","0","cow","animals","1","0","","bad","[-5]"
"html-button-response","174","580383","0.0-9.0-3.0","6489","1","22","Male","approach_avoid_spark_v1","""event"",""trial"",""time""
""fullscreenenter"",""1"",""1778""
","
","
","""event"",""trial"",""time""
""fullscreenenter"",""1"",""1778""
","
","","","","","","2193.199999999255","<p> You have completed the round! <p> In this round, you earned 32 points! </p>","0","","break","","","","","","","","","","",""
"html-button-response","175","581073","0.0-10.0","6489","1","22","Male","approach_avoid_spark_v1","""event"",""trial"",""time""
""fullscreenenter"",""1"",""1778""
","
","
","""event"",""trial"",""time""
""fullscreenenter"",""1"",""1778""
","
","","","","","","688.3000000007451","<p> Now it's time to play another round. </p>","0","","transition_screen","","","","","","","","","","",""
"preload","176","581189","0.0-11.0-0.0","6489","1","22","Male","approach_avoid_spark_v1","""event"",""trial"",""time""
""fullscreenenter"",""1"",""1778""
","
","
","""event"",""trial"",""time""
""fullscreenenter"",""1"",""1778""
","
","true","false","[]","[]","[]","","","","","","","","","","","","","","","",""
"learning-instructions","177","588652","0.0-11.0-1.0-0.0","6489","1","22","Male","approach_avoid_spark_v1","""event"",""trial"",""time""
""fullscreenenter"",""1"",""1778""
","
","
","""event"",""trial"",""time""
""fullscreenenter"",""1"",""1778""
","
","","","","","","2800.300000000745","<p> Your goal in this round is to decorate your friend's new house with furniture. </p></div>","","0","instructions","","","","","","","","","","",""
"learning-instructions","178","601693","0.0-11.0-1.0-0.1","6489","1","22","Male","approach_avoid_spark_v1","""event"",""trial"",""time""
""fullscreenenter"",""1"",""1778""
","
","
","""event"",""trial"",""time""
""fullscreenenter"",""1"",""1778""
","
","","","","","","3571.300000000745","<p> Your friend likes some pieces of furniture but not others.  </p><p> On each turn, you will see a piece of furniture.   </p><p> You need to decide whether to put it in your friend's house or not.  </p>","","0","instructions","","","","","","","","","","",""
"learning-instructions","179","607936","0.0-11.0-1.0-0.2","6489","1","22","Male","approach_avoid_spark_v1","""event"",""trial"",""time""
""fullscreenenter"",""1"",""1778""
","
","
","""event"",""trial"",""time""
""fullscreenenter"",""1"",""1778""
","
","","","","","","784.1999999992549","<p> You can put the furniture in her house by pressing 1 and deliver it elsewhere by pressing 0. </p><br><div class=""choice-instructions-grid""> <div class=""choice-option""><img src=""images/approach.png"" class=""choice-option-img"" stage=""instructions"" position=""0"" ><div class=""choice-option-text""> Press ""1."" </div></div><div class=""choice-option""><img src=""images/avoid.png"" class=""choice-option-img"" stage=""instructions"" position=""1"" ><div class=""choice-option-text""> Press ""0."" </div></div>","","0","instructions","","","","","","","","","","",""
"learning-instructions","180","617739","0.0-11.0-1.0-0.3","6489","1","22","Male","approach_avoid_spark_v1","""event"",""trial"",""time""
""fullscreenenter"",""1"",""1778""
","
","
","""event"",""trial"",""time""
""fullscreenenter"",""1"",""1778""
","
","","","","","","1117.5999999977648","<p> If you decorate your friend's house with furniture she likes, she will be happy! </p><p> But if you give her furniture that she does not like, she will be annoyed. </p>","","0","instructions","","","","","","","","","","",""
"learning-instructions","181","630484","0.0-11.0-1.0-0.4","6489","1","22","Male","approach_avoid_spark_v1","""event"",""trial"",""time""
""fullscreenenter"",""1"",""1778""
","
","
","""event"",""trial"",""time""
""fullscreenenter"",""1"",""1778""
","
","","","","","","791.0999999977648","<p> You will earn points based on how you made your friend feel. </p><p> If you made her happy, you will WIN anywhere from 1 - 9 points, </p><p> but if you made her annoyed you will LOSE anywhere from 1 - 9 points. </p>","","0","instructions","","","","","","","","","","",""
"learning-instructions","182","637553","0.0-11.0-1.0-0.5","6489","1","22","Male","approach_avoid_spark_v1","""event"",""trial"",""time""
""fullscreenenter"",""1"",""1778""
","
","
","""event"",""trial"",""time""
""fullscreenenter"",""1"",""1778""
","
","","","","","","410.20000000298023","<p> You will see how many points you won or lost in the center of the screen. </p><p> Here is what you would see if you won 5 points: </p><p style=""color:green;font-size:50px;font-weight:bolder"">5</p>","","0","instructions","","","","","","","","","","",""
"learning-instructions","183","641292","0.0-11.0-1.0-0.6","6489","1","22","Male","approach_avoid_spark_v1","""event"",""trial"",""time""
""fullscreenenter"",""1"",""1778""
","
","
","""event"",""trial"",""time""
""fullscreenenter"",""1"",""1778""
","
","","","","","","899.1000000014901","<p> And here is what you would see if you lost 3 points: </p><p style=""color:red;font-size:50px;font-weight:bolder"">-3</p>","","0","instructions","","","","","","","","","","",""
"learning-instructions","184","659977","0.0-11.0-1.0-0.7","6489","1","22","Male","approach_avoid_spark_v1","""event"",""trial"",""time""
""fullscreenenter"",""1"",""1778""
","
","
","""event"",""trial"",""time""
""fullscreenenter"",""1"",""1778""
","
","","","","","","1624.1000000014901","<p> Some pieces of furniture will make her feel very happy or very annoyed. </p><p> These pieces of furniture will make you win or lose LOTS of points. </p><p> Other pieces of furniture will only make her feel a little happy or a little annoyed. </p><p> These pieces of furniture will make you win or lose small amounts of points. </p>","","0","instructions","","","","","","","","","","",""
"learning-instructions","185","674304","0.0-11.0-1.0-0.8","6489","1","22","Male","approach_avoid_spark_v1","""event"",""trial"",""time""
""fullscreenenter"",""1"",""1778""
","
","
","""event"",""trial"",""time""
""fullscreenenter"",""1"",""1778""
","
","","","","","","1811.4000000022352","<p> If you choose to deliver a piece of furniture elsewhere, you will not win or lose any points. </p><p>  However, in the center of the screen, you will see the number of points you WOULD HAVE won or lost if you had given the furniture to your friend. </p>","","0","instructions","","","","","","","","","","",""
"learning-instructions","186","687364","0.0-11.0-1.0-0.9","6489","1","22","Male","approach_avoid_spark_v1","""event"",""trial"",""time""
""fullscreenenter"",""1"",""1778""
","
","
","""event"",""trial"",""time""
""fullscreenenter"",""1"",""1778""
","
","","","","","","1861.9000000022352","<p> Here is what you might see if you did not give a piece of furniture to your friend that would have made her happy: </p><p style=""color:grey; font-size:50px; display: inline-block; border-spacing: 15px; border-width:3px; border-style:solid; border-color:red"">  &nbsp; 6 &nbsp; </p><p> Remember, in this case, you would not win or lose ANY points because you did not give her the furniture.  </p>","","0","instructions","","","","","","","","","","",""
"learning-instructions","187","695313","0.0-11.0-1.0-0.10","6489","1","22","Male","approach_avoid_spark_v1","""event"",""trial"",""time""
""fullscreenenter"",""1"",""1778""
","
","
","""event"",""trial"",""time""
""fullscreenenter"",""1"",""1778""
","
","","","","","","530.8999999985099","<p> Try to make the best choice for each piece of furniture because </p><p> at the end of the game, you will earn bonus money based on how many points you earned. </p>","","0","instructions","","","","","","","","","","",""
"learning-instructions","188","703847","0.0-11.0-1.0-0.11","6489","1","22","Male","approach_avoid_spark_v1","""event"",""trial"",""time""
""fullscreenenter"",""1"",""1778""
","
","
","""event"",""trial"",""time""
""fullscreenenter"",""1"",""1778""
","
","","","","","","335.29999999701977","<p> You will have 3 seconds to make each choice. Try to respond before time runs out! </p><p> You will lose 5 points each time you do not make a response. </p>","","0","instructions","","","","","","","","","","",""
"html-keyboard-response","189","704470","0.0-11.0-2.0-0.0","6489","1","22","Male","approach_avoid_spark_v1","""event"",""trial"",""time""
""fullscreenenter"",""1"",""1778""
","
","
","""event"",""trial"",""time""
""fullscreenenter"",""1"",""1778""
","
","","","","","","null","<div style=""font-size:60px;"">+</div>","null","","fixation","","","","","","","","","","",""
"aa-learning-trial","190","707477","0.0-11.0-2.0-1.0","6489","1","22","Male","approach_avoid_spark_v1","""event"",""trial"",""time""
""fullscreenenter"",""1"",""1778""
","
","
","""event"",""trial"",""time""
""fullscreenenter"",""1"",""1778""
","
","","","","","","900.8999999985099","images/sofa5.png","","","learning","-3","-3","1","1","sofa","furniture","2","1","","good","[4]"
"html-keyboard-response","191","707987","0.0-11.0-2.0-0.1","6489","1","22","Male","approach_avoid_spark_v1","""event"",""trial"",""time""
""fullscreenenter"",""1"",""1778""
","
","
","""event"",""trial"",""time""
""fullscreenenter"",""1"",""1778""
","
","","","","","","null","<div style=""font-size:60px;"">+</div>","null","","fixation","","","","","","","","","","",""
"aa-learning-trial","192","710998","0.0-11.0-2.0-1.1","6489","1","22","Male","approach_avoid_spark_v1","""event"",""trial"",""time""
""fullscreenenter"",""1"",""1778""
","
","
","""event"",""trial"",""time""
""fullscreenenter"",""1"",""1778""
","
","","","","","","974.5999999977648","images/bed7.png","","","learning","3","0","0","0","bed","furniture","2","1","","neutral","0"
"html-keyboard-response","193","711513","0.0-11.0-2.0-0.2","6489","1","22","Male","approach_avoid_spark_v1","""event"",""trial"",""time""
""fullscreenenter"",""1"",""1778""
","
","
","""event"",""trial"",""time""
""fullscreenenter"",""1"",""1778""
","
","","","","","","null","<div style=""font-size:60px;"">+</div>","null","","fixation","","","","","","","","","","",""
"aa-learning-trial","194","714532","0.0-11.0-2.0-1.2","6489","1","22","Male","approach_avoid_spark_v1","""event"",""trial"",""time""
""fullscreenenter"",""1"",""1778""
","
","
","""event"",""trial"",""time""
""fullscreenenter"",""1"",""1778""
","
","","","","","","979.5","images/sofa1.png","","","learning","-8","-8","1","1","sofa","furniture","2","1","","good","[4]"
"html-keyboard-response","195","715045","0.0-11.0-2.0-0.3","6489","1","22","Male","approach_avoid_spark_v1","""event"",""trial"",""time""
""fullscreenenter"",""1"",""1778""
","
","
","""event"",""trial"",""time""
""fullscreenenter"",""1"",""1778""
","
","","","","","","null","<div style=""font-size:60px;"">+</div>","null","","fixation","","","","","","","","","","",""
"aa-learning-trial","196","718052","0.0-11.0-2.0-1.3","6489","1","22","Male","approach_avoid_spark_v1","""event"",""trial"",""time""
""fullscreenenter"",""1"",""1778""
","
","
","""event"",""trial"",""time""
""fullscreenenter"",""1"",""1778""
","
","","","","","","749.8000000007451","images/bed2.png","","","learning","1","1","1","1","bed","furniture","2","1","","neutral","0"
"html-keyboard-response","197","718565","0.0-11.0-2.0-0.4","6489","1","22","Male","approach_avoid_spark_v1","""event"",""trial"",""time""
""fullscreenenter"",""1"",""1778""
","
","
","""event"",""trial"",""time""
""fullscreenenter"",""1"",""1778""
","
","","","","","","null","<div style=""font-size:60px;"">+</div>","null","","fixation","","","","","","","","","","",""
"aa-learning-trial","198","721581","0.0-11.0-2.0-1.4","6489","1","22","Male","approach_avoid_spark_v1","""event"",""trial"",""time""
""fullscreenenter"",""1"",""1778""
","
","
","""event"",""trial"",""time""
""fullscreenenter"",""1"",""1778""
","
","","","","","","923.5","images/table1.png","","","learning","7","7","1","1","table","furniture","2","1","","bad","[-4]"
"html-keyboard-response","199","722094","0.0-11.0-2.0-0.5","6489","1","22","Male","approach_avoid_spark_v1","""event"",""trial"",""time""
""fullscreenenter"",""1"",""1778""
","
","
","""event"",""trial"",""time""
""fullscreenenter"",""1"",""1778""
","
","","","","","","null","<div style=""font-size:60px;"">+</div>","null","","fixation","","","","","","","","","","",""
"aa-learning-trial","200","725109","0.0-11.0-2.0-1.5","6489","1","22","Male","approach_avoid_spark_v1","""event"",""trial"",""time""
""fullscreenenter"",""1"",""1778""
","
","
","""event"",""trial"",""time""
""fullscreenenter"",""1"",""1778""
","
","","","","","","676.5","images/sofa5.png","","","learning","-3","0","0","0","sofa","furniture","2","1","","good","[4]"
"html-keyboard-response","201","725625","0.0-11.0-2.0-0.6","6489","1","22","Male","approach_avoid_spark_v1","""event"",""trial"",""time""
""fullscreenenter"",""1"",""1778""
""blur"",""202"",""727513""
""focus"",""202"",""728192""
","""event"",""trial"",""time""
""blur"",""202"",""727513""
","""event"",""trial"",""time""
""focus"",""202"",""728192""
","""event"",""trial"",""time""
""fullscreenenter"",""1"",""1778""
","
","","","","","","null","<div style=""font-size:60px;"">+</div>","null","","fixation","","","","","","","","","","",""
"aa-learning-trial","202","728640","0.0-11.0-2.0-1.6","6489","1","22","Male","approach_avoid_spark_v1","""event"",""trial"",""time""
""fullscreenenter"",""1"",""1778""
""blur"",""202"",""727513""
""focus"",""202"",""728192""
","""event"",""trial"",""time""
""blur"",""202"",""727513""
","""event"",""trial"",""time""
""focus"",""202"",""728192""
","""event"",""trial"",""time""
""fullscreenenter"",""1"",""1778""
","
","","","","","","1185.1000000014901","images/bed2.png","","","learning","1","1","1","1","bed","furniture","2","1","","neutral","0"
"html-keyboard-response","203","729146","0.0-11.0-2.0-0.7","6489","1","22","Male","approach_avoid_spark_v1","""event"",""trial"",""time""
""fullscreenenter"",""1"",""1778""
""blur"",""202"",""727513""
""focus"",""202"",""728192""
","""event"",""trial"",""time""
""blur"",""202"",""727513""
","""event"",""trial"",""time""
""focus"",""202"",""728192""
","""event"",""trial"",""time""
""fullscreenenter"",""1"",""1778""
","
","","","","","","null","<div style=""font-size:60px;"">+</div>","null","","fixation","","","","","","","","","","",""
"aa-learning-trial","204","732161","0.0-11.0-2.0-1.7","6489","1","22","Male","approach_avoid_spark_v1","""event"",""trial"",""time""
""fullscreenenter"",""1"",""1778""
""blur"",""202"",""727513""
""focus"",""202"",""728192""
","""event"",""trial"",""time""
""blur"",""202"",""727513""
","""event"",""trial"",""time""
""focus"",""202"",""728192""
","""event"",""trial"",""time""
""fullscreenenter"",""1"",""1778""
","
","","","","","","920.1999999992549","images/sofa1.png","","","learning","-8","0","0","0","sofa","furniture","2","1","","good","[4]"
"html-keyboard-response","205","732676","0.0-11.0-2.0-0.8","6489","1","22","Male","approach_avoid_spark_v1","""event"",""trial"",""time""
""fullscreenenter"",""1"",""1778""
""blur"",""202"",""727513""
""focus"",""202"",""728192""
","""event"",""trial"",""time""
""blur"",""202"",""727513""
","""event"",""trial"",""time""
""focus"",""202"",""728192""
","""event"",""trial"",""time""
""fullscreenenter"",""1"",""1778""
","
","","","","","","null","<div style=""font-size:60px;"">+</div>","null","","fixation","","","","","","","","","","",""
"aa-learning-trial","206","735679","0.0-11.0-2.0-1.8","6489","1","22","Male","approach_avoid_spark_v1","""event"",""trial"",""time""
""fullscreenenter"",""1"",""1778""
""blur"",""202"",""727513""
""focus"",""202"",""728192""
","""event"",""trial"",""time""
""blur"",""202"",""727513""
","""event"",""trial"",""time""
""focus"",""202"",""728192""
","""event"",""trial"",""time""
""fullscreenenter"",""1"",""1778""
","
","","","","","","1085.2000000029802","images/table8.png","","","learning","-5","-5","1","1","table","furniture","2","1","","bad","[-4]"
"html-keyboard-response","207","736182","0.0-11.0-2.0-0.9","6489","1","22","Male","approach_avoid_spark_v1","""event"",""trial"",""time""
""fullscreenenter"",""1"",""1778""
""blur"",""202"",""727513""
""focus"",""202"",""728192""
","""event"",""trial"",""time""
""blur"",""202"",""727513""
","""event"",""trial"",""time""
""focus"",""202"",""728192""
","""event"",""trial"",""time""
""fullscreenenter"",""1"",""1778""
","
","","","","","","null","<div style=""font-size:60px;"">+</div>","null","","fixation","","","","","","","","","","",""
"aa-learning-trial","208","739186","0.0-11.0-2.0-1.9","6489","1","22","Male","approach_avoid_spark_v1","""event"",""trial"",""time""
""fullscreenenter"",""1"",""1778""
""blur"",""202"",""727513""
""focus"",""202"",""728192""
","""event"",""trial"",""time""
""blur"",""202"",""727513""
","""event"",""trial"",""time""
""focus"",""202"",""728192""
","""event"",""trial"",""time""
""fullscreenenter"",""1"",""1778""
","
","","","","","","1098.199999999255","images/bed7.png","","","learning","3","3","1","1","bed","furniture","2","1","","neutral","0"
"html-keyboard-response","209","739689","0.0-11.0-2.0-0.10","6489","1","22","Male","approach_avoid_spark_v1","""event"",""trial"",""time""
""fullscreenenter"",""1"",""1778""
""blur"",""202"",""727513""
""focus"",""202"",""728192""
","""event"",""trial"",""time""
""blur"",""202"",""727513""
","""event"",""trial"",""time""
""focus"",""202"",""728192""
","""event"",""trial"",""time""
""fullscreenenter"",""1"",""1778""
","
","","","","","","null","<div style=""font-size:60px;"">+</div>","null","","fixation","","","","","","","","","","",""
"aa-learning-trial","210","742696","0.0-11.0-2.0-1.10","6489","1","22","Male","approach_avoid_spark_v1","""event"",""trial"",""time""
""fullscreenenter"",""1"",""1778""
""blur"",""202"",""727513""
""focus"",""202"",""728192""
","""event"",""trial"",""time""
""blur"",""202"",""727513""
","""event"",""trial"",""time""
""focus"",""202"",""728192""
","""event"",""trial"",""time""
""fullscreenenter"",""1"",""1778""
","
","","","","","","1039.699999999255","images/table2.png","","","learning","-9","0","0","0","table","furniture","2","1","","bad","[-4]"
"html-keyboard-response","211","743199","0.0-11.0-2.0-0.11","6489","1","22","Male","approach_avoid_spark_v1","""event"",""trial"",""time""
""fullscreenenter"",""1"",""1778""
""blur"",""202"",""727513""
""focus"",""202"",""728192""
","""event"",""trial"",""time""
""blur"",""202"",""727513""
","""event"",""trial"",""time""
""focus"",""202"",""728192""
","""event"",""trial"",""time""
""fullscreenenter"",""1"",""1778""
","
","","","","","","null","<div style=""font-size:60px;"">+</div>","null","","fixation","","","","","","","","","","",""
"aa-learning-trial","212","746204","0.0-11.0-2.0-1.11","6489","1","22","Male","approach_avoid_spark_v1","""event"",""trial"",""time""
""fullscreenenter"",""1"",""1778""
""blur"",""202"",""727513""
""focus"",""202"",""728192""
","""event"",""trial"",""time""
""blur"",""202"",""727513""
","""event"",""trial"",""time""
""focus"",""202"",""728192""
","""event"",""trial"",""time""
""fullscreenenter"",""1"",""1778""
","
","","","","","","817.7999999970198","images/table2.png","","","learning","-9","0","0","0","table","furniture","2","1","","bad","[-4]"
"html-keyboard-response","213","746707","0.0-11.0-2.0-0.12","6489","1","22","Male","approach_avoid_spark_v1","""event"",""trial"",""time""
""fullscreenenter"",""1"",""1778""
""blur"",""202"",""727513""
""focus"",""202"",""728192""
","""event"",""trial"",""time""
""blur"",""202"",""727513""
","""event"",""trial"",""time""
""focus"",""202"",""728192""
","""event"",""trial"",""time""
""fullscreenenter"",""1"",""1778""
","
","","","","","","null","<div style=""font-size:60px;"">+</div>","null","","fixation","","","","","","","","","","",""
"aa-learning-trial","214","749709","0.0-11.0-2.0-1.12","6489","1","22","Male","approach_avoid_spark_v1","""event"",""trial"",""time""
""fullscreenenter"",""1"",""1778""
""blur"",""202"",""727513""
""focus"",""202"",""728192""
","""event"",""trial"",""time""
""blur"",""202"",""727513""
","""event"",""trial"",""time""
""focus"",""202"",""728192""
","""event"",""trial"",""time""
""fullscreenenter"",""1"",""1778""
","
","","","","","","1038.699999999255","images/sofa8.png","","","learning","8","8","1","1","sofa","furniture","2","1","","good","[4]"
"html-keyboard-response","215","750212","0.0-11.0-2.0-0.13","6489","1","22","Male","approach_avoid_spark_v1","""event"",""trial"",""time""
""fullscreenenter"",""1"",""1778""
""blur"",""202"",""727513""
""focus"",""202"",""728192""
","""event"",""trial"",""time""
""blur"",""202"",""727513""
","""event"",""trial"",""time""
""focus"",""202"",""728192""
","""event"",""trial"",""time""
""fullscreenenter"",""1"",""1778""
","
","","","","","","null","<div style=""font-size:60px;"">+</div>","null","","fixation","","","","","","","","","","",""
"aa-learning-trial","216","753215","0.0-11.0-2.0-1.13","6489","1","22","Male","approach_avoid_spark_v1","""event"",""trial"",""time""
""fullscreenenter"",""1"",""1778""
""blur"",""202"",""727513""
""focus"",""202"",""728192""
","""event"",""trial"",""time""
""blur"",""202"",""727513""
","""event"",""trial"",""time""
""focus"",""202"",""728192""
","""event"",""trial"",""time""
""fullscreenenter"",""1"",""1778""
","
","","","","","","845.0999999977648","images/table1.png","","","learning","7","7","1","1","table","furniture","2","1","","bad","[-4]"
"html-keyboard-response","217","753716","0.0-11.0-2.0-0.14","6489","1","22","Male","approach_avoid_spark_v1","""event"",""trial"",""time""
""fullscreenenter"",""1"",""1778""
""blur"",""202"",""727513""
""focus"",""202"",""728192""
","""event"",""trial"",""time""
""blur"",""202"",""727513""
","""event"",""trial"",""time""
""focus"",""202"",""728192""
","""event"",""trial"",""time""
""fullscreenenter"",""1"",""1778""
","
","","","","","","null","<div style=""font-size:60px;"">+</div>","null","","fixation","","","","","","","","","","",""
"aa-learning-trial","218","756722","0.0-11.0-2.0-1.14","6489","1","22","Male","approach_avoid_spark_v1","""event"",""trial"",""time""
""fullscreenenter"",""1"",""1778""
""blur"",""202"",""727513""
""focus"",""202"",""728192""
","""event"",""trial"",""time""
""blur"",""202"",""727513""
","""event"",""trial"",""time""
""focus"",""202"",""728192""
","""event"",""trial"",""time""
""fullscreenenter"",""1"",""1778""
","
","","","","","","2903.10000000149","images/bed1.png","","","learning","6","0","0","0","bed","furniture","2","1","","neutral","0"
"html-keyboard-response","219","757224","0.0-11.0-2.0-0.15","6489","1","22","Male","approach_avoid_spark_v1","""event"",""trial"",""time""
""fullscreenenter"",""1"",""1778""
""blur"",""202"",""727513""
""focus"",""202"",""728192""
","""event"",""trial"",""time""
""blur"",""202"",""727513""
","""event"",""trial"",""time""
""focus"",""202"",""728192""
","""event"",""trial"",""time""
""fullscreenenter"",""1"",""1778""
","
","","","","","","null","<div style=""font-size:60px;"">+</div>","null","","fixation","","","","","","","","","","",""
"aa-learning-trial","220","760225","0.0-11.0-2.0-1.15","6489","1","22","Male","approach_avoid_spark_v1","""event"",""trial"",""time""
""fullscreenenter"",""1"",""1778""
""blur"",""202"",""727513""
""focus"",""202"",""728192""
","""event"",""trial"",""time""
""blur"",""202"",""727513""
","""event"",""trial"",""time""
""focus"",""202"",""728192""
","""event"",""trial"",""time""
""fullscreenenter"",""1"",""1778""
","
","","","","","","2685.300000000745","images/sofa5.png","","","learning","-3","-3","1","1","sofa","furniture","2","1","","good","[4]"
"html-keyboard-response","221","760728","0.0-11.0-2.0-0.16","6489","1","22","Male","approach_avoid_spark_v1","""event"",""trial"",""time""
""fullscreenenter"",""1"",""1778""
""blur"",""202"",""727513""
""focus"",""202"",""728192""
","""event"",""trial"",""time""
""blur"",""202"",""727513""
","""event"",""trial"",""time""
""focus"",""202"",""728192""
","""event"",""trial"",""time""
""fullscreenenter"",""1"",""1778""
","
","","","","","","null","<div style=""font-size:60px;"">+</div>","null","","fixation","","","","","","","","","","",""
"aa-learning-trial","222","763731","0.0-11.0-2.0-1.16","6489","1","22","Male","approach_avoid_spark_v1","""event"",""trial"",""time""
""fullscreenenter"",""1"",""1778""
""blur"",""202"",""727513""
""focus"",""202"",""728192""
","""event"",""trial"",""time""
""blur"",""202"",""727513""
","""event"",""trial"",""time""
""focus"",""202"",""728192""
","""event"",""trial"",""time""
""fullscreenenter"",""1"",""1778""
","
","","","","","","1591.699999999255","images/sofa1.png","","","learning","-8","0","0","0","sofa","furniture","2","1","","good","[4]"
"html-keyboard-response","223","764234","0.0-11.0-2.0-0.17","6489","1","22","Male","approach_avoid_spark_v1","""event"",""trial"",""time""
""fullscreenenter"",""1"",""1778""
""blur"",""202"",""727513""
""focus"",""202"",""728192""
","""event"",""trial"",""time""
""blur"",""202"",""727513""
","""event"",""trial"",""time""
""focus"",""202"",""728192""
","""event"",""trial"",""time""
""fullscreenenter"",""1"",""1778""
","
","","","","","","null","<div style=""font-size:60px;"">+</div>","null","","fixation","","","","","","","","","","",""
"aa-learning-trial","224","767236","0.0-11.0-2.0-1.17","6489","1","22","Male","approach_avoid_spark_v1","""event"",""trial"",""time""
""fullscreenenter"",""1"",""1778""
""blur"",""202"",""727513""
""focus"",""202"",""728192""
","""event"",""trial"",""time""
""blur"",""202"",""727513""
","""event"",""trial"",""time""
""focus"",""202"",""728192""
","""event"",""trial"",""time""
""fullscreenenter"",""1"",""1778""
","
","","","","","","686.4000000022352","images/table2.png","","","learning","-9","0","0","0","table","furniture","2","1","","bad","[-4]"
"html-keyboard-response","225","767737","0.0-11.0-2.0-0.18","6489","1","22","Male","approach_avoid_spark_v1","""event"",""trial"",""time""
""fullscreenenter"",""1"",""1778""
""blur"",""202"",""727513""
""focus"",""202"",""728192""
","""event"",""trial"",""time""
""blur"",""202"",""727513""
","""event"",""trial"",""time""
""focus"",""202"",""728192""
","""event"",""trial"",""time""
""fullscreenenter"",""1"",""1778""
","
