"trial_type","trial_index","time_elapsed","internal_node_id","subject_id","task_condition","age","gender","task_version","interactions","blur_events","focus_events","fullscreenenter_events","fullscreenexit_events","success","timeout","failed_images","failed_audio","failed_video","rt","stimulus","response","button_pressed","task_part","approach_reward","points","key_press","option_selected","stim_cat","task_block","block_condition","block_number","correct","cat_type","mean_cat_reward"
"pavlovia","0","2","0.0-0.0","4041","1","17","Male","approach_avoid_spark_v1","""event"",""trial"",""time""
""fullscreenenter"",""1"",""2466""
","
","
","""event"",""trial"",""time""
""fullscreenenter"",""1"",""2466""
","
","","","","","","","","","","","","","","","","","","","","",""
"fullscreen","1","3450","0.0-1.0","4041","1","17","Male","approach_avoid_spark_v1","""event"",""trial"",""time""
""fullscreenenter"",""1"",""2466""
","
","
","""event"",""trial"",""time""
""fullscreenenter"",""1"",""2466""
","
","true","","","","","","","","","","","","","","","","","","","",""
"preload","2","3648","0.0-2.0","4041","1","17","Male","approach_avoid_spark_v1","""event"",""trial"",""time""
""fullscreenenter"",""1"",""2466""
","
","
","""event"",""trial"",""time""
""fullscreenenter"",""1"",""2466""
","
","true","false","[]","[]","[]","","","","","","","","","","","","","","","",""
"audio-keyboard-response","3","8164","0.0-3.0","4041","1","17","Male","approach_avoid_spark_v1","""event"",""trial"",""time""
""fullscreenenter"",""1"",""2466""
","
","
","""event"",""trial"",""time""
""fullscreenenter"",""1"",""2466""
","
","","","","","","4429.333333333334","audio/beep_loop.wav"," ","","","","","","","","","","","","",""
"audio-button-response","4","15538","0.0-4.0","4041","1","17","Male","approach_avoid_spark_v1","""event"",""trial"",""time""
""fullscreenenter"",""1"",""2466""
","
","
","""event"",""trial"",""time""
""fullscreenenter"",""1"",""2466""
","
","","","","","","7341","audio/shark.wav","0","","","","","","","","","","","","",""
"audio-button-response","5","18451","0.0-5.0","4041","1","17","Male","approach_avoid_spark_v1","""event"",""trial"",""time""
""fullscreenenter"",""1"",""2466""
","
","
","""event"",""trial"",""time""
""fullscreenenter"",""1"",""2466""
","
","","","","","","1880","audio/turtle.wav","1","","","","","","","","","","","","",""
"preload","6","19713","0.0-6.0","4041","1","17","Male","approach_avoid_spark_v1","""event"",""trial"",""time""
""fullscreenenter"",""1"",""2466""
","
","
","""event"",""trial"",""time""
""fullscreenenter"",""1"",""2466""
","
","true","false","[]","[]","[]","","","","","","","","","","","","","","","",""
"html-keyboard-response","7","22337","0.0-7.0","4041","1","17","Male","approach_avoid_spark_v1","""event"",""trial"",""time""
""fullscreenenter"",""1"",""2466""
","
","
","""event"",""trial"",""time""
""fullscreenenter"",""1"",""2466""
","
","","","","","","2621.7999999523163","Welcome to the experiment. Press any key to begin and to advance the instructions."," ","","","","","","","","","","","","",""
"learning-instructions","8","31010","0.0-8.0-0.0-0.0","4041","1","17","Male","approach_avoid_spark_v1","""event"",""trial"",""time""
""fullscreenenter"",""1"",""2466""
","
","
","""event"",""trial"",""time""
""fullscreenenter"",""1"",""2466""
","
","","","","","","1647.7000000476837","<p> Welcome! Today you are going to play 6 different rounds of a decision-making game. </p><p> Use the mouse to click next to continue. </p>","","0","instructions","","","","","","","","","","",""
"learning-instructions","9","34770","0.0-8.0-0.0-0.1","4041","1","17","Male","approach_avoid_spark_v1","""event"",""trial"",""time""
""fullscreenenter"",""1"",""2466""
","
","
","""event"",""trial"",""time""
""fullscreenenter"",""1"",""2466""
","
","","","","","","939.2999999523163","<p> You will start with a practice round to learn the rules. </p>","","0","instructions","","","","","","","","","","",""
"learning-instructions","10","38619","0.0-8.0-0.0-0.2","4041","1","17","Male","approach_avoid_spark_v1","""event"",""trial"",""time""
""fullscreenenter"",""1"",""2466""
","
","
","""event"",""trial"",""time""
""fullscreenenter"",""1"",""2466""
","
","","","","","","379.5","<p> Your goal in this round is to give out sports equipment to kids. </p></div>","","0","instructions","","","","","","","","","","",""
"learning-instructions","11","47384","0.0-8.0-0.0-0.3","4041","1","17","Male","approach_avoid_spark_v1","""event"",""trial"",""time""
""fullscreenenter"",""1"",""2466""
","
","
","""event"",""trial"",""time""
""fullscreenenter"",""1"",""2466""
","
","","","","","","1194.8000000715256","<p> The kids only like some of the equipment.  </p><p> On each turn, you will see a piece of sports equipment.   </p><p> You need to decide whether to give it to the kids or not.  </p>","","0","instructions","","","","","","","","","","",""
"learning-instructions","12","54409","0.0-8.0-0.0-0.4","4041","1","17","Male","approach_avoid_spark_v1","""event"",""trial"",""time""
""fullscreenenter"",""1"",""2466""
","
","
","""event"",""trial"",""time""
""fullscreenenter"",""1"",""2466""
","
","","","","","","2268.1999999284744","<p> You can give them the equipment by pressing 1 and choose not to give it to them by pressing 0. </p><br><div class=""choice-instructions-grid""> <div class=""choice-option""><img src=""images/approach.png"" class=""choice-option-img"" stage=""instructions"" position=""0"" ><div class=""choice-option-text""> Press ""1."" </div></div><div class=""choice-option""><img src=""images/avoid.png"" class=""choice-option-img"" stage=""instructions"" position=""1"" ><div class=""choice-option-text""> Press ""0."" </div></div>","","0","instructions","","","","","","","","","","",""
"learning-instructions","13","62433","0.0-8.0-0.0-0.5","4041","1","17","Male","approach_avoid_spark_v1","""event"",""trial"",""time""
""fullscreenenter"",""1"",""2466""
","
","
","""event"",""trial"",""time""
""fullscreenenter"",""1"",""2466""
","
","","","","","","633.7000000476837","<p> If you give them a piece of equipment they like, they will be happy! </p><p> But if you give them a piece of equipment they do not like, they will be sad. </p>","","0","instructions","","","","","","","","","","",""
"learning-instructions","14","73771","0.0-8.0-0.0-0.6","4041","1","17","Male","approach_avoid_spark_v1","""event"",""trial"",""time""
""fullscreenenter"",""1"",""2466""
","
","
","""event"",""trial"",""time""
""fullscreenenter"",""1"",""2466""
","
","","","","","","789.7000000476837","<p> You will earn points based on how you make kids feel. </p><p> If you make them happy, you will WIN anywhere from 1 - 9 points, </p><p> but if you make them sad, you will LOSE anywhere from 1 - 9 points. </p>","","0","instructions","","","","","","","","","","",""
"learning-instructions","15","83714","0.0-8.0-0.0-0.7","4041","1","17","Male","approach_avoid_spark_v1","""event"",""trial"",""time""
""fullscreenenter"",""1"",""2466""
","
","
","""event"",""trial"",""time""
""fullscreenenter"",""1"",""2466""
","
","","","","","","304","<p> You will see how many points you won or lost in the center of the screen. </p><p> Here is what you would see if you won 6 points: </p><p style=""color:green;font-size:50px;font-weight:bolder"">6</p><p style=""color:green"">The text is GREEN because you WON points.</p>","","0","instructions","","","","","","","","","","",""
"learning-instructions","16","90283","0.0-8.0-0.0-0.8","4041","1","17","Male","approach_avoid_spark_v1","""event"",""trial"",""time""
""fullscreenenter"",""1"",""2466""
","
","
","""event"",""trial"",""time""
""fullscreenenter"",""1"",""2466""
","
","","","","","","1052.8999999761581","<p> And here is what you would see if you lost 4 points: </p><p style=""color:red;font-size:50px;font-weight:bolder"">-4</p><p style=""color:red"">The text is RED because you LOST points. </p>","","0","instructions","","","","","","","","","","",""
"learning-instructions","17","105932","0.0-8.0-0.0-0.9","4041","1","17","Male","approach_avoid_spark_v1","""event"",""trial"",""time""
""fullscreenenter"",""1"",""2466""
","
","
","""event"",""trial"",""time""
""fullscreenenter"",""1"",""2466""
","
","","","","","","782.3999999761581","<p> Some of the equipment will make the kids VERY happy or sad. </p><p> These pieces of equipment will make you win or lose LOTS of points. </p><p> Other pieces of equipment will only make the kids a little happy or sad. </p><p> These pieces of equipment will make you win or lose small amounts of points. </p>","","0","instructions","","","","","","","","","","",""
"learning-instructions","18","117003","0.0-8.0-0.0-0.10","4041","1","17","Male","approach_avoid_spark_v1","""event"",""trial"",""time""
""fullscreenenter"",""1"",""2466""
","
","
","""event"",""trial"",""time""
""fullscreenenter"",""1"",""2466""
","
","","","","","","352.7999999523163","<p> If you choose not to give them the equipment, you will not win or lose any points. </p><p>  However, in the center of the screen, you will see the number of points you WOULD HAVE won or lost if you had given them the equipment. </p>","","0","instructions","","","","","","","","","","",""
"learning-instructions","19","139618","0.0-8.0-0.0-0.11","4041","1","17","Male","approach_avoid_spark_v1","""event"",""trial"",""time""
""fullscreenenter"",""1"",""2466""
","
","
","""event"",""trial"",""time""
""fullscreenenter"",""1"",""2466""
","
","","","","","","728.6999999284744","<p> Here is what you might see if you did not give the equipment to the kids but it would have made them happy: </p><p style=""color:grey; font-size:50px; display: inline-block; border-spacing: 15px; border-width:3px; border-style:solid; border-color:red"">  &nbsp; 7 &nbsp; </p><p> Remember, in this case, you would not win or lose ANY points because you did not give them the equipment.  </p><p style=""color:grey"">The text is GREY because you earned ZERO points. </p><p style=""color:red"">However, choosing to give the kids the equipment would have made you win points. The box around the text is RED because you chose the worse option. </p>","","0","instructions","","","","","","","","","","",""
"learning-instructions","20","162072","0.0-8.0-0.0-0.12","4041","1","17","Male","approach_avoid_spark_v1","""event"",""trial"",""time""
""fullscreenenter"",""1"",""2466""
","
","
","""event"",""trial"",""time""
""fullscreenenter"",""1"",""2466""
","
","","","","","","912.5","<p> Here is what you might see if you did not give the equipment to the kids but it would have made them sad: </p><p style=""color:grey;font-size:50px; display: inline-block; border-spacing: 15px; border-width:3px; border-style:solid; border-color:green"">  &nbsp; -8 &nbsp; </p><p> Remember, in this case, you would not win or lose ANY points because you did not give them the equipment.  </p><p style=""color:grey"">The text is GREY because you earned ZERO points. </p><p  style=""color:green""> Choosing to give the kids the equipment would have made you lose points. The box around the text is GREEN because you chose the better option.</p>","","0","instructions","","","","","","","","","","",""
"learning-instructions","21","171209","0.0-8.0-0.0-0.13","4041","1","17","Male","approach_avoid_spark_v1","""event"",""trial"",""time""
""fullscreenenter"",""1"",""2466""
","
","
","""event"",""trial"",""time""
""fullscreenenter"",""1"",""2466""
","
","","","","","","597.5","<p> You will have 3 seconds to make each choice. Try to respond before time runs out! </p><p> You will lose 5 points each time you do not make a response. </p>","","0","instructions","","","","","","","","","","",""
"learning-instructions","22","178442","0.0-8.0-0.0-0.14","4041","1","17","Male","approach_avoid_spark_v1","""event"",""trial"",""time""
""fullscreenenter"",""1"",""2466""
","
","
","""event"",""trial"",""time""
""fullscreenenter"",""1"",""2466""
","
","","","","","","1752","<p> This is just a practice round, but in the real game, your bonus payment will depend on your total number of points.","","0","instructions","","","","","","","","","","",""
"learning-instructions","23","184745","0.0-8.0-0.0-0.15","4041","1","17","Male","approach_avoid_spark_v1","""event"",""trial"",""time""
""fullscreenenter"",""1"",""2466""
","
","
","""event"",""trial"",""time""
""fullscreenenter"",""1"",""2466""
","
","","","","","","535.6999999284744","<p> Remember, you can give them the equipment by pressing 1 and choose not to give it to them by pressing 0. </p><br><div class=""choice-instructions-grid""> <div class=""choice-option""><img src=""images/approach.png"" class=""choice-option-img"" stage=""instructions"" position=""0"" ><div class=""choice-option-text""> Press ""1."" </div></div><div class=""choice-option""><img src=""images/avoid.png"" class=""choice-option-img"" stage=""instructions"" position=""1"" ><div class=""choice-option-text""> Press ""0."" </div></div>","","0","instructions","","","","","","","","","","",""
"html-button-response","24","185986","0.0-8.0-1.0","4041","1","17","Male","approach_avoid_spark_v1","""event"",""trial"",""time""
""fullscreenenter"",""1"",""2466""
","
","
","""event"",""trial"",""time""
""fullscreenenter"",""1"",""2466""
","
","","","","","","1136.5","<p> Ready to practice? </p>","0","","","","","","","","","","","","",""
"html-keyboard-response","25","186592","0.0-8.0-2.0-0.0","4041","1","17","Male","approach_avoid_spark_v1","""event"",""trial"",""time""
""fullscreenenter"",""1"",""2466""
","
","
","""event"",""trial"",""time""
""fullscreenenter"",""1"",""2466""
","
","","","","","","null","<div style=""font-size:60px;"">+</div>","null","","fixation","","","","","","","","","","",""
"aa-learning-trial","26","189605","0.0-8.0-2.0-1.0","4041","1","17","Male","approach_avoid_spark_v1","""event"",""trial"",""time""
""fullscreenenter"",""1"",""2466""
","
","
","""event"",""trial"",""time""
""fullscreenenter"",""1"",""2466""
","
","","","","","","2323.6999999284744","images/ball1.png","","","learning","-1","-1","1","1","practice","practice","practice","-1","","",""
"html-keyboard-response","27","190111","0.0-8.0-2.0-0.1","4041","1","17","Male","approach_avoid_spark_v1","""event"",""trial"",""time""
""fullscreenenter"",""1"",""2466""
","
","
","""event"",""trial"",""time""
""fullscreenenter"",""1"",""2466""
","
","","","","","","null","<div style=""font-size:60px;"">+</div>","null","","fixation","","","","","","","","","","",""
"aa-learning-trial","28","193121","0.0-8.0-2.0-1.1","4041","1","17","Male","approach_avoid_spark_v1","""event"",""trial"",""time""
""fullscreenenter"",""1"",""2466""
","
","
","""event"",""trial"",""time""
""fullscreenenter"",""1"",""2466""
","
","","","","","","1304.2000000476837","images/ball2.png","","","learning","-6","-6","1","1","practice","practice","practice","-1","","",""
"html-keyboard-response","29","193666","0.0-8.0-2.0-0.2","4041","1","17","Male","approach_avoid_spark_v1","""event"",""trial"",""time""
""fullscreenenter"",""1"",""2466""
","
","
","""event"",""trial"",""time""
""fullscreenenter"",""1"",""2466""
","
","","","","","","null","<div style=""font-size:60px;"">+</div>","null","","fixation","","","","","","","","","","",""
"aa-learning-trial","30","196671","0.0-8.0-2.0-1.2","4041","1","17","Male","approach_avoid_spark_v1","""event"",""trial"",""time""
""fullscreenenter"",""1"",""2466""
","
","
","""event"",""trial"",""time""
""fullscreenenter"",""1"",""2466""
","
","","","","","","2070.7999999523163","images/ball4.png","","","learning","-9","-9","1","1","practice","practice","practice","-1","","",""
"html-keyboard-response","31","197198","0.0-8.0-2.0-0.3","4041","1","17","Male","approach_avoid_spark_v1","""event"",""trial"",""time""
""fullscreenenter"",""1"",""2466""
","
","
","""event"",""trial"",""time""
""fullscreenenter"",""1"",""2466""
","
","","","","","","null","<div style=""font-size:60px;"">+</div>","null","","fixation","","","","","","","","","","",""
"aa-learning-trial","32","200221","0.0-8.0-2.0-1.3","4041","1","17","Male","approach_avoid_spark_v1","""event"",""trial"",""time""
""fullscreenenter"",""1"",""2466""
","
","
","""event"",""trial"",""time""
""fullscreenenter"",""1"",""2466""
","
","","","","","","2137.2999999523163","images/ball1.png","","","learning","-2","-2","1","1","practice","practice","practice","-1","","",""
"html-keyboard-response","33","200738","0.0-8.0-2.0-0.4","4041","1","17","Male","approach_avoid_spark_v1","""event"",""trial"",""time""
""fullscreenenter"",""1"",""2466""
","
","
","""event"",""trial"",""time""
""fullscreenenter"",""1"",""2466""
","
","","","","","","null","<div style=""font-size:60px;"">+</div>","null","","fixation","","","","","","","","","","",""
"aa-learning-trial","34","203752","0.0-8.0-2.0-1.4","4041","1","17","Male","approach_avoid_spark_v1","""event"",""trial"",""time""
""fullscreenenter"",""1"",""2466""
","
","
","""event"",""trial"",""time""
""fullscreenenter"",""1"",""2466""
","
","","","","","","1763.8999999761581","images/racket1.png","","","learning","-5","0","0","0","practice","practice","practice","-1","","",""
"html-keyboard-response","35","204266","0.0-8.0-2.0-0.5","4041","1","17","Male","approach_avoid_spark_v1","""event"",""trial"",""time""
""fullscreenenter"",""1"",""2466""
","
","
","""event"",""trial"",""time""
""fullscreenenter"",""1"",""2466""
","
","","","","","","null","<div style=""font-size:60px;"">+</div>","null","","fixation","","","","","","","","","","",""
"aa-learning-trial","36","207272","0.0-8.0-2.0-1.5","4041","1","17","Male","approach_avoid_spark_v1","""event"",""trial"",""time""
""fullscreenenter"",""1"",""2466""
","
","
","""event"",""trial"",""time""
""fullscreenenter"",""1"",""2466""
","
","","","","","","2433.9000000953674","images/racket3.png","","","learning","-2","-2","1","1","practice","practice","practice","-1","","",""
"html-keyboard-response","37","207775","0.0-8.0-2.0-0.6","4041","1","17","Male","approach_avoid_spark_v1","""event"",""trial"",""time""
""fullscreenenter"",""1"",""2466""
","
","
","""event"",""trial"",""time""
""fullscreenenter"",""1"",""2466""
","
","","","","","","null","<div style=""font-size:60px;"">+</div>","null","","fixation","","","","","","","","","","",""
"aa-learning-trial","38","210792","0.0-8.0-2.0-1.6","4041","1","17","Male","approach_avoid_spark_v1","""event"",""trial"",""time""
""fullscreenenter"",""1"",""2466""
","
","
","""event"",""trial"",""time""
""fullscreenenter"",""1"",""2466""
","
","","","","","","1471","images/ball3.png","","","learning","-7","-7","1","1","practice","practice","practice","-1","","",""
"html-keyboard-response","39","211332","0.0-8.0-2.0-0.7","4041","1","17","Male","approach_avoid_spark_v1","""event"",""trial"",""time""
""fullscreenenter"",""1"",""2466""
","
","
","""event"",""trial"",""time""
""fullscreenenter"",""1"",""2466""
","
","","","","","","null","<div style=""font-size:60px;"">+</div>","null","","fixation","","","","","","","","","","",""
"aa-learning-trial","40","214342","0.0-8.0-2.0-1.7","4041","1","17","Male","approach_avoid_spark_v1","""event"",""trial"",""time""
""fullscreenenter"",""1"",""2466""
","
","
","""event"",""trial"",""time""
""fullscreenenter"",""1"",""2466""
","
","","","","","","1337.5","images/racket4.png","","","learning","6","6","1","1","practice","practice","practice","-1","","",""
"html-keyboard-response","41","214879","0.0-8.0-2.0-0.8","4041","1","17","Male","approach_avoid_spark_v1","""event"",""trial"",""time""
""fullscreenenter"",""1"",""2466""
","
","
","""event"",""trial"",""time""
""fullscreenenter"",""1"",""2466""
","
","","","","","","null","<div style=""font-size:60px;"">+</div>","null","","fixation","","","","","","","","","","",""
"aa-learning-trial","42","217900","0.0-8.0-2.0-1.8","4041","1","17","Male","approach_avoid_spark_v1","""event"",""trial"",""time""
""fullscreenenter"",""1"",""2466""
","
","
","""event"",""trial"",""time""
""fullscreenenter"",""1"",""2466""
","
","","","","","","1795.6000000238419","images/ball3.png","","","learning","-8","-8","1","1","practice","practice","practice","-1","","",""
"html-keyboard-response","43","218407","0.0-8.0-2.0-0.9","4041","1","17","Male","approach_avoid_spark_v1","""event"",""trial"",""time""
""fullscreenenter"",""1"",""2466""
","
","
","""event"",""trial"",""time""
""fullscreenenter"",""1"",""2466""
","
","","","","","","null","<div style=""font-size:60px;"">+</div>","null","","fixation","","","","","","","","","","",""
"aa-learning-trial","44","221441","0.0-8.0-2.0-1.9","4041","1","17","Male","approach_avoid_spark_v1","""event"",""trial"",""time""
""fullscreenenter"",""1"",""2466""
","
","
","""event"",""trial"",""time""
""fullscreenenter"",""1"",""2466""
","
","","","","","","734.8000000715256","images/ball1.png","","","learning","-2","-2","1","1","practice","practice","practice","-1","","",""
"html-keyboard-response","45","221943","0.0-8.0-2.0-0.10","4041","1","17","Male","approach_avoid_spark_v1","""event"",""trial"",""time""
""fullscreenenter"",""1"",""2466""
","
","
","""event"",""trial"",""time""
""fullscreenenter"",""1"",""2466""
","
","","","","","","null","<div style=""font-size:60px;"">+</div>","null","","fixation","","","","","","","","","","",""
"aa-learning-trial","46","224950","0.0-8.0-2.0-1.10","4041","1","17","Male","approach_avoid_spark_v1","""event"",""trial"",""time""
""fullscreenenter"",""1"",""2466""
","
","
","""event"",""trial"",""time""
""fullscreenenter"",""1"",""2466""
","
","","","","","","762.1000000238419","images/ball1.png","","","learning","-8","0","0","0","practice","practice","practice","-1","","",""
"html-keyboard-response","47","225481","0.0-8.0-2.0-0.11","4041","1","17","Male","approach_avoid_spark_v1","""event"",""trial"",""time""
""fullscreenenter"",""1"",""2466""
","
","
","""event"",""trial"",""time""
""fullscreenenter"",""1"",""2466""
","
","","","","","","null","<div style=""font-size:60px;"">+</div>","null","","fixation","","","","","","","","","","",""
"aa-learning-trial","48","228513","0.0-8.0-2.0-1.11","4041","1","17","Male","approach_avoid_spark_v1","""event"",""trial"",""time""
""fullscreenenter"",""1"",""2466""
","
","
","""event"",""trial"",""time""
""fullscreenenter"",""1"",""2466""
","
","","","","","","396.6999999284744","images/ball3.png","","","learning","-5","-5","1","1","practice","practice","practice","-1","","",""
"html-button-response","49","231618","0.0-8.0-3.0","4041","1","17","Male","approach_avoid_spark_v1","""event"",""trial"",""time""
""fullscreenenter"",""1"",""2466""
","
","
","""event"",""trial"",""time""
""fullscreenenter"",""1"",""2466""
","
","","","","","","3102.6999999284744","<p> You earned -36 points in the practice round! </p>","0","","break","","","","","","","","","","",""
"learning-instructions","50","238841","0.0-8.0-4.0-0.0","4041","1","17","Male","approach_avoid_spark_v1","""event"",""trial"",""time""
""fullscreenenter"",""1"",""2466""
","
","
","""event"",""trial"",""time""
""fullscreenenter"",""1"",""2466""
","
","","","","","","942.7000000476837","<p> It's almost time to start the real game. </p><p> Before you start, we're going to ask you a few questions about how the game works. </p>","","0","instructions","","","","","","","","","","",""
"preload","51","239086","0.0-8.0-5.0","4041","1","17","Male","approach_avoid_spark_v1","""event"",""trial"",""time""
""fullscreenenter"",""1"",""2466""
","
","
","""event"",""trial"",""time""
""fullscreenenter"",""1"",""2466""
","
","true","false","[]","[]","[]","","","","","","","","","","","","","","","",""
"comp-q","52","246970","0.0-8.0-6.0-0.0","4041","1","17","Male","approach_avoid_spark_v1","""event"",""trial"",""time""
""fullscreenenter"",""1"",""2466""
","
","
","""event"",""trial"",""time""
""fullscreenenter"",""1"",""2466""
","
","","","","","","2883.3000000715256","<p> <b> True or False? </b> </p><p> If you see a number in GREY, that means you earned that many points. </p>","","1","comp_question","","","","","","","","","true","",""
"comp-q","53","256648","0.0-8.0-6.0-1.0","4041","1","17","Male","approach_avoid_spark_v1","""event"",""trial"",""time""
""fullscreenenter"",""1"",""2466""
","
","
","""event"",""trial"",""time""
""fullscreenenter"",""1"",""2466""
","
","","","","","","1251","<p><b> That's right! </b> If you see a grey number, it means you earned ZERO points. <br> The grey numbers show the points you WOULD HAVE earned if you had made the other choice. </p>","","0","comp_answer","","","","","","","","","","",""
"comp-q","54","261858","0.0-8.0-7.0-0.0","4041","1","17","Male","approach_avoid_spark_v1","""event"",""trial"",""time""
""fullscreenenter"",""1"",""2466""
","
","
","""event"",""trial"",""time""
""fullscreenenter"",""1"",""2466""
","
","","","","","","470.7000000476837","<p> <b> True or False? </b> </p><p> You will have as much time as you want to make each choice. </p>","","1","comp_question","","","","","","","","","true","",""
"comp-q","55","267185","0.0-8.0-7.0-1.0","4041","1","17","Male","approach_avoid_spark_v1","""event"",""trial"",""time""
""fullscreenenter"",""1"",""2466""
","
","
","""event"",""trial"",""time""
""fullscreenenter"",""1"",""2466""
","
","","","","","","1246","<p> <b> That's right! </b> You will only have 3 seconds to make each choice. </p>","","0","comp_answer","","","","","","","","","","",""
"comp-q","56","272451","0.0-8.0-8.0-0.0","4041","1","17","Male","approach_avoid_spark_v1","""event"",""trial"",""time""
""fullscreenenter"",""1"",""2466""
","
","
","""event"",""trial"",""time""
""fullscreenenter"",""1"",""2466""
","
","","","","","","561.5999999046326","<p> <b> True or False? </b> </p><p> You should use the '1' and '0' keys to make your choices. </p>","","0","comp_question","","","","","","","","","true","",""
"comp-q","57","277794","0.0-8.0-8.0-1.0","4041","1","17","Male","approach_avoid_spark_v1","""event"",""trial"",""time""
""fullscreenenter"",""1"",""2466""
","
","
","""event"",""trial"",""time""
""fullscreenenter"",""1"",""2466""
","
","","","","","","630","<p> <b> That's right! </b> You should use the '1' and '0' keys to make each choice. </p>","","0","comp_answer","","","","","","","","","","",""
"learning-instructions","58","285658","0.0-8.0-9.0-0.0","4041","1","17","Male","approach_avoid_spark_v1","""event"",""trial"",""time""
""fullscreenenter"",""1"",""2466""
","
","
","""event"",""trial"",""time""
""fullscreenenter"",""1"",""2466""
","
","","","","","","1439.4000000953674","<p> It's now time to start the real game. </p>Do your best, because the points you earn in the next rounds will influence your bonus payment. </p>","","0","instructions","","","","","","","","","","",""
"preload","59","285797","0.0-9.0-0.0","4041","1","17","Male","approach_avoid_spark_v1","""event"",""trial"",""time""
""fullscreenenter"",""1"",""2466""
","
","
","""event"",""trial"",""time""
""fullscreenenter"",""1"",""2466""
","
","true","false","[]","[]","[]","","","","","","","","","","","","","","","",""
"learning-instructions","60","290168","0.0-9.0-1.0-0.0","4041","1","17","Male","approach_avoid_spark_v1","""event"",""trial"",""time""
""fullscreenenter"",""1"",""2466""
","
","
","""event"",""trial"",""time""
""fullscreenenter"",""1"",""2466""
","
","","","","","","1251.1000000238419","<p> Your goal in this round is to take care of lots of animals. </p></div>","","0","instructions","","","","","","","","","","",""
"learning-instructions","61","299226","0.0-9.0-1.0-0.1","4041","1","17","Male","approach_avoid_spark_v1","""event"",""trial"",""time""
""fullscreenenter"",""1"",""2466""
","
","
","""event"",""trial"",""time""
""fullscreenenter"",""1"",""2466""
","
","","","","","","465.60000002384186","<p> Some animals want to be pet, while other animals want to be left alone.  </p><p> On each turn, you will see an animal.   </p><p> You need to decide whether to pet it or not.  </p>","","0","instructions","","","","","","","","","","",""
"learning-instructions","62","304224","0.0-9.0-1.0-0.2","4041","1","17","Male","approach_avoid_spark_v1","""event"",""trial"",""time""
""fullscreenenter"",""1"",""2466""
","
","
","""event"",""trial"",""time""
""fullscreenenter"",""1"",""2466""
","
","","","","","","574.1000000238419","<p> You can pet the animal by pressing 1 and leave the animal alone by pressing 0. </p><br><div class=""choice-instructions-grid""> <div class=""choice-option""><img src=""images/approach.png"" class=""choice-option-img"" stage=""instructions"" position=""0"" ><div class=""choice-option-text""> Press ""1."" </div></div><div class=""choice-option""><img src=""images/avoid.png"" class=""choice-option-img"" stage=""instructions"" position=""1"" ><div class=""choice-option-text""> Press ""0."" </div></div>","","0","instructions","","","","","","","","","","",""
"learning-instructions","63","312834","0.0-9.0-1.0-0.3","4041","1","17","Male","approach_avoid_spark_v1","""event"",""trial"",""time""
""fullscreenenter"",""1"",""2466""
","
","
","""event"",""trial"",""time""
""fullscreenenter"",""1"",""2466""
","
","","","","","","644.5999999046326","<p> If you pet an animal that wants to be pet, you will make it feel happy! </p><p> But if you pet an animal that wants to be left alone, you will make it feel angry. </p>","","0","instructions","","","","","","","","","","",""
"learning-instructions","64","324851","0.0-9.0-1.0-0.4","4041","1","17","Male","approach_avoid_spark_v1","""event"",""trial"",""time""
""fullscreenenter"",""1"",""2466""
","
","
","""event"",""trial"",""time""
""fullscreenenter"",""1"",""2466""
","
","","","","","","612.7999999523163","<p> You will earn points based on how you made the animal feel. </p><p> If you made it feel happy, you will WIN anywhere from 1 - 9 points, </p><p> but if you made it feel angry, you will LOSE anywhere from 1 - 9 points. </p>","","0","instructions","","","","","","","","","","",""
"learning-instructions","65","332098","0.0-9.0-1.0-0.5","4041","1","17","Male","approach_avoid_spark_v1","""event"",""trial"",""time""
""fullscreenenter"",""1"",""2466""
","
","
","""event"",""trial"",""time""
""fullscreenenter"",""1"",""2466""
","
","","","","","","529.0999999046326","<p> You will see how many points you won or lost in the center of the screen. </p><p> Here is what you would see if you won 5 points: </p><p style=""color:green;font-size:50px;font-weight:bolder"">5</p>","","0","instructions","","","","","","","","","","",""
"learning-instructions","66","335323","0.0-9.0-1.0-0.6","4041","1","17","Male","approach_avoid_spark_v1","""event"",""trial"",""time""
""fullscreenenter"",""1"",""2466""
","
","
","""event"",""trial"",""time""
""fullscreenenter"",""1"",""2466""
","
","","","","","","318.2000000476837","<p> And here is what you would see if you lost 3 points: </p><p style=""color:red;font-size:50px;font-weight:bolder"">-3</p>","","0","instructions","","","","","","","","","","",""
"learning-instructions","67","348411","0.0-9.0-1.0-0.7","4041","1","17","Male","approach_avoid_spark_v1","""event"",""trial"",""time""
""fullscreenenter"",""1"",""2466""
","
","
","""event"",""trial"",""time""
""fullscreenenter"",""1"",""2466""
","
","","","","","","237.09999990463257","<p> Some animals will become very happy or very angry. </p><p> These animals will make you win or lose LOTS of points. </p><p> Other animals have less strong feelings. </p><p> These animals will make you win or lose small amounts of points. </p>","","0","instructions","","","","","","","","","","",""
"learning-instructions","68","359258","0.0-9.0-1.0-0.8","4041","1","17","Male","approach_avoid_spark_v1","""event"",""trial"",""time""
""fullscreenenter"",""1"",""2466""
","
","
","""event"",""trial"",""time""
""fullscreenenter"",""1"",""2466""
","
","","","","","","413.09999990463257","<p> If you choose to leave the animal alone, you will not win or lose any points. </p><p>  However, in the center of the screen, you will see the number of points you WOULD HAVE won or lost if you had pet the animal. </p>","","0","instructions","","","","","","","","","","",""
"learning-instructions","69","371025","0.0-9.0-1.0-0.9","4041","1","17","Male","approach_avoid_spark_v1","""event"",""trial"",""time""
""fullscreenenter"",""1"",""2466""
","
","
","""event"",""trial"",""time""
""fullscreenenter"",""1"",""2466""
","
","","","","","","1049.8999999761581","<p> Here is what you might see if you did not pet the animal but the animal wanted to be pet: </p><p style=""color:grey; font-size:50px; display: inline-block; border-spacing: 15px; border-width:3px; border-style:solid; border-color:red"">  &nbsp; 6 &nbsp; </p><p> Remember, in this case, you would not win or lose ANY points because you did not pet the animal.  </p>","","0","instructions","","","","","","","","","","",""
"learning-instructions","70","377954","0.0-9.0-1.0-0.10","4041","1","17","Male","approach_avoid_spark_v1","""event"",""trial"",""time""
""fullscreenenter"",""1"",""2466""
","
","
","""event"",""trial"",""time""
""fullscreenenter"",""1"",""2466""
","
","","","","","","598.8999999761581","<p> Try to make the best choice for each animal because </p><p> at the end of the game, you will earn bonus money based on how many points you earned. </p>","","0","instructions","","","","","","","","","","",""
"learning-instructions","71","386652","0.0-9.0-1.0-0.11","4041","1","17","Male","approach_avoid_spark_v1","""event"",""trial"",""time""
""fullscreenenter"",""1"",""2466""
","
","
","""event"",""trial"",""time""
""fullscreenenter"",""1"",""2466""
","
","","","","","","515.1000000238419","<p> You will have 3 seconds to make each choice. Try to respond before time runs out! </p><p> You will lose 5 points each time you do not make a response. </p>","","0","instructions","","","","","","","","","","",""
"html-keyboard-response","72","387274","0.0-9.0-2.0-0.0","4041","1","17","Male","approach_avoid_spark_v1","""event"",""trial"",""time""
""fullscreenenter"",""1"",""2466""
","
","
","""event"",""trial"",""time""
""fullscreenenter"",""1"",""2466""
","
","","","","","","null","<div style=""font-size:60px;"">+</div>","null","","fixation","","","","","","","","","","",""
"aa-learning-trial","73","390280","0.0-9.0-2.0-1.0","4041","1","17","Male","approach_avoid_spark_v1","""event"",""trial"",""time""
""fullscreenenter"",""1"",""2466""
","
","
","""event"",""trial"",""time""
""fullscreenenter"",""1"",""2466""
","
","","","","","","1851.5","images/cat1.png","","","learning","2","2","1","1","cat","pets","1","0","","neutral","0"
"html-keyboard-response","74","390798","0.0-9.0-2.0-0.1","4041","1","17","Male","approach_avoid_spark_v1","""event"",""trial"",""time""
""fullscreenenter"",""1"",""2466""
","
","
","""event"",""trial"",""time""
""fullscreenenter"",""1"",""2466""
","
","","","","","","null","<div style=""font-size:60px;"">+</div>","null","","fixation","","","","","","","","","","",""
"aa-learning-trial","75","393820","0.0-9.0-2.0-1.1","4041","1","17","Male","approach_avoid_spark_v1","""event"",""trial"",""time""
""fullscreenenter"",""1"",""2466""
","
","
","""event"",""trial"",""time""
""fullscreenenter"",""1"",""2466""
","
","","","","","","1296.5","images/dog2.png","","","learning","-6","0","0","0","dog","pets","1","0","","bad","[-6]"
"html-keyboard-response","76","394338","0.0-9.0-2.0-0.2","4041","1","17","Male","approach_avoid_spark_v1","""event"",""trial"",""time""
""fullscreenenter"",""1"",""2466""
","
","
","""event"",""trial"",""time""
""fullscreenenter"",""1"",""2466""
","
","","","","","","null","<div style=""font-size:60px;"">+</div>","null","","fixation","","","","","","","","","","",""
"aa-learning-trial","77","397376","0.0-9.0-2.0-1.2","4041","1","17","Male","approach_avoid_spark_v1","""event"",""trial"",""time""
""fullscreenenter"",""1"",""2466""
","
","
","""event"",""trial"",""time""
""fullscreenenter"",""1"",""2466""
","
","","","","","","893.2000000476837","images/rabbit7.png","","","learning","1","1","1","1","rabbit","pets","1","0","","good","[3]"
"html-keyboard-response","78","397908","0.0-9.0-2.0-0.3","4041","1","17","Male","approach_avoid_spark_v1","""event"",""trial"",""time""
""fullscreenenter"",""1"",""2466""
","
","
","""event"",""trial"",""time""
""fullscreenenter"",""1"",""2466""
","
","","","","","","null","<div style=""font-size:60px;"">+</div>","null","","fixation","","","","","","","","","","",""
"aa-learning-trial","79","400957","0.0-9.0-2.0-1.3","4041","1","17","Male","approach_avoid_spark_v1","""event"",""trial"",""time""
""fullscreenenter"",""1"",""2466""
","
","
","""event"",""trial"",""time""
""fullscreenenter"",""1"",""2466""
","
","","","","","","620.5","images/cat1.png","","","learning","[1]","1","1","1","cat","pets","1","0","","neutral","0"
"html-keyboard-response","80","401489","0.0-9.0-2.0-0.4","4041","1","17","Male","approach_avoid_spark_v1","""event"",""trial"",""time""
""fullscreenenter"",""1"",""2466""
","
","
","""event"",""trial"",""time""
""fullscreenenter"",""1"",""2466""
","
","","","","","","null","<div style=""font-size:60px;"">+</div>","null","","fixation","","","","","","","","","","",""
"aa-learning-trial","81","404527","0.0-9.0-2.0-1.4","4041","1","17","Male","approach_avoid_spark_v1","""event"",""trial"",""time""
""fullscreenenter"",""1"",""2466""
","
","
","""event"",""trial"",""time""
""fullscreenenter"",""1"",""2466""
","
","","","","","","607.2000000476837","images/cat5.png","","","learning","2","2","1","1","cat","pets","1","0","","neutral","0"
"html-keyboard-response","82","405031","0.0-9.0-2.0-0.5","4041","1","17","Male","approach_avoid_spark_v1","""event"",""trial"",""time""
""fullscreenenter"",""1"",""2466""
","
","
","""event"",""trial"",""time""
""fullscreenenter"",""1"",""2466""
","
","","","","","","null","<div style=""font-size:60px;"">+</div>","null","","fixation","","","","","","","","","","",""
"aa-learning-trial","83","408040","0.0-9.0-2.0-1.5","4041","1","17","Male","approach_avoid_spark_v1","""event"",""trial"",""time""
""fullscreenenter"",""1"",""2466""
","
","
","""event"",""trial"",""time""
""fullscreenenter"",""1"",""2466""
","
","","","","","","1245.6000000238419","images/dog1.png","","","learning","-7","-7","1","1","dog","pets","1","0","","bad","[-6]"
"html-keyboard-response","84","408552","0.0-9.0-2.0-0.6","4041","1","17","Male","approach_avoid_spark_v1","""event"",""trial"",""time""
""fullscreenenter"",""1"",""2466""
","
","
","""event"",""trial"",""time""
""fullscreenenter"",""1"",""2466""
","
","","","","","","null","<div style=""font-size:60px;"">+</div>","null","","fixation","","","","","","","","","","",""
"aa-learning-trial","85","411561","0.0-9.0-2.0-1.6","4041","1","17","Male","approach_avoid_spark_v1","""event"",""trial"",""time""
""fullscreenenter"",""1"",""2466""
","
","
","""event"",""trial"",""time""
""fullscreenenter"",""1"",""2466""
","
","","","","","","538","images/cat2.png","","","learning","-1","-1","1","1","cat","pets","1","0","","neutral","0"
"html-keyboard-response","86","412103","0.0-9.0-2.0-0.7","4041","1","17","Male","approach_avoid_spark_v1","""event"",""trial"",""time""
""fullscreenenter"",""1"",""2466""
","
","
","""event"",""trial"",""time""
""fullscreenenter"",""1"",""2466""
","
","","","","","","null","<div style=""font-size:60px;"">+</div>","null","","fixation","","","","","","","","","","",""
"aa-learning-trial","87","415138","0.0-9.0-2.0-1.7","4041","1","17","Male","approach_avoid_spark_v1","""event"",""trial"",""time""
""fullscreenenter"",""1"",""2466""
","
","
","""event"",""trial"",""time""
""fullscreenenter"",""1"",""2466""
","
","","","","","","496.10000002384186","images/dog6.png","","","learning","-7","-7","1","1","dog","pets","1","0","","bad","[-6]"
"html-keyboard-response","88","415662","0.0-9.0-2.0-0.8","4041","1","17","Male","approach_avoid_spark_v1","""event"",""trial"",""time""
""fullscreenenter"",""1"",""2466""
","
","
","""event"",""trial"",""time""
""fullscreenenter"",""1"",""2466""
","
","","","","","","null","<div style=""font-size:60px;"">+</div>","null","","fixation","","","","","","","","","","",""
"aa-learning-trial","89","418671","0.0-9.0-2.0-1.8","4041","1","17","Male","approach_avoid_spark_v1","""event"",""trial"",""time""
""fullscreenenter"",""1"",""2466""
","
","
","""event"",""trial"",""time""
""fullscreenenter"",""1"",""2466""
","
","","","","","","1494.8999999761581","images/dog2.png","","","learning","-5","-5","1","1","dog","pets","1","0","","bad","[-6]"
"html-keyboard-response","90","419201","0.0-9.0-2.0-0.9","4041","1","17","Male","approach_avoid_spark_v1","""event"",""trial"",""time""
""fullscreenenter"",""1"",""2466""
","
","
","""event"",""trial"",""time""
""fullscreenenter"",""1"",""2466""
","
","","","","","","null","<div style=""font-size:60px;"">+</div>","null","","fixation","","","","","","","","","","",""
"aa-learning-trial","91","422239","0.0-9.0-2.0-1.9","4041","1","17","Male","approach_avoid_spark_v1","""event"",""trial"",""time""
""fullscreenenter"",""1"",""2466""
","
","
","""event"",""trial"",""time""
""fullscreenenter"",""1"",""2466""
","
","","","","","","648.2000000476837","images/cat5.png","","","learning","-2","-2","1","1","cat","pets","1","0","","neutral","0"
"html-keyboard-response","92","422770","0.0-9.0-2.0-0.10","4041","1","17","Male","approach_avoid_spark_v1","""event"",""trial"",""time""
""fullscreenenter"",""1"",""2466""
","
","
","""event"",""trial"",""time""
""fullscreenenter"",""1"",""2466""
","
","","","","","","null","<div style=""font-size:60px;"">+</div>","null","","fixation","","","","","","","","","","",""
"aa-learning-trial","93","425802","0.0-9.0-2.0-1.10","4041","1","17","Male","approach_avoid_spark_v1","""event"",""trial"",""time""
""fullscreenenter"",""1"",""2466""
","
","
","""event"",""trial"",""time""
""fullscreenenter"",""1"",""2466""
","
","","","","","","1031.2999999523163","images/dog6.png","","","learning","-6","-6","1","1","dog","pets","1","0","","bad","[-6]"
"html-keyboard-response","94","426336","0.0-9.0-2.0-0.11","4041","1","17","Male","approach_avoid_spark_v1","""event"",""trial"",""time""
""fullscreenenter"",""1"",""2466""
","
","
","""event"",""trial"",""time""
""fullscreenenter"",""1"",""2466""
","
","","","","","","null","<div style=""font-size:60px;"">+</div>","null","","fixation","","","","","","","","","","",""
"aa-learning-trial","95","429369","0.0-9.0-2.0-1.11","4041","1","17","Male","approach_avoid_spark_v1","""event"",""trial"",""time""
""fullscreenenter"",""1"",""2466""
","
","
","""event"",""trial"",""time""
""fullscreenenter"",""1"",""2466""
","
","","","","","","714.6000000238419","images/rabbit4.png","","","learning","3","0","0","0","rabbit","pets","1","0","","good","[3]"
"html-keyboard-response","96","429883","0.0-9.0-2.0-0.12","4041","1","17","Male","approach_avoid_spark_v1","""event"",""trial"",""time""
""fullscreenenter"",""1"",""2466""
","
","
","""event"",""trial"",""time""
""fullscreenenter"",""1"",""2466""
","
","","","","","","null","<div style=""font-size:60px;"">+</div>","null","","fixation","","","","","","","","","","",""
"aa-learning-trial","97","432915","0.0-9.0-2.0-1.12","4041","1","17","Male","approach_avoid_spark_v1","""event"",""trial"",""time""
""fullscreenenter"",""1"",""2466""
","
","
","""event"",""trial"",""time""
""fullscreenenter"",""1"",""2466""
","
","","","","","","845.8999999761581","images/rabbit7.png","","","learning","3","0","0","0","rabbit","pets","1","0","","good","[3]"
"html-keyboard-response","98","433448","0.0-9.0-2.0-0.13","4041","1","17","Male","approach_avoid_spark_v1","""event"",""trial"",""time""
""fullscreenenter"",""1"",""2466""
","
","
","""event"",""trial"",""time""
""fullscreenenter"",""1"",""2466""
","
","","","","","","null","<div style=""font-size:60px;"">+</div>","null","","fixation","","","","","","","","","","",""
"aa-learning-trial","99","436455","0.0-9.0-2.0-1.13","4041","1","17","Male","approach_avoid_spark_v1","""event"",""trial"",""time""
""fullscreenenter"",""1"",""2466""
","
","
","""event"",""trial"",""time""
""fullscreenenter"",""1"",""2466""
","
","","","","","","932.7999999523163","images/rabbit4.png","","","learning","2","0","0","0","rabbit","pets","1","0","","good","[3]"
"html-keyboard-response","100","436958","0.0-9.0-2.0-0.14","4041","1","17","Male","approach_avoid_spark_v1","""event"",""trial"",""time""
""fullscreenenter"",""1"",""2466""
","
","
","""event"",""trial"",""time""
""fullscreenenter"",""1"",""2466""
","
","","","","","","null","<div style=""font-size:60px;"">+</div>","null","","fixation","","","","","","","","","","",""
"aa-learning-trial","101","439967","0.0-9.0-2.0-1.14","4041","1","17","Male","approach_avoid_spark_v1","""event"",""trial"",""time""
""fullscreenenter"",""1"",""2466""
","
","
","""event"",""trial"",""time""
""fullscreenenter"",""1"",""2466""
","
","","","","","","874.7000000476837","images/rabbit8.png","","","learning","3","0","0","0","rabbit","pets","1","0","","good","[3]"
"html-keyboard-response","102","440471","0.0-9.0-2.0-0.15","4041","1","17","Male","approach_avoid_spark_v1","""event"",""trial"",""time""
""fullscreenenter"",""1"",""2466""
","
","
","""event"",""trial"",""time""
""fullscreenenter"",""1"",""2466""
","
","","","","","","null","<div style=""font-size:60px;"">+</div>","null","","fixation","","","","","","","","","","",""
"aa-learning-trial","103","443482","0.0-9.0-2.0-1.15","4041","1","17","Male","approach_avoid_spark_v1","""event"",""trial"",""time""
""fullscreenenter"",""1"",""2466""
","
","
","""event"",""trial"",""time""
""fullscreenenter"",""1"",""2466""
","
","","","","","","890.7000000476837","images/dog2.png","","","learning","-5","0","0","0","dog","pets","1","0","","bad","[-6]"
"html-keyboard-response","104","443991","0.0-9.0-2.0-0.16","4041","1","17","Male","approach_avoid_spark_v1","""event"",""trial"",""time""
""fullscreenenter"",""1"",""2466""
","
","
","""event"",""trial"",""time""
""fullscreenenter"",""1"",""2466""
","
","","","","","","null","<div style=""font-size:60px;"">+</div>","null","","fixation","","","","","","","","","","",""
"aa-learning-trial","105","447037","0.0-9.0-2.0-1.16","4041","1","17","Male","approach_avoid_spark_v1","""event"",""trial"",""time""
""fullscreenenter"",""1"",""2466""
","
","
","""event"",""trial"",""time""
""fullscreenenter"",""1"",""2466""
","
","","","","","","1002.6000000238419","images/dog2.png","","","learning","-6","0","0","0","dog","pets","1","0","","bad","[-6]"
"html-keyboard-response","106","447570","0.0-9.0-2.0-0.17","4041","1","17","Male","approach_avoid_spark_v1","""event"",""trial"",""time""
""fullscreenenter"",""1"",""2466""
","
","
","""event"",""trial"",""time""
""fullscreenenter"",""1"",""2466""
","
","","","","","","null","<div style=""font-size:60px;"">+</div>","null","","fixation","","","","","","","","","","",""
"aa-learning-trial","107","450575","0.0-9.0-2.0-1.17","4041","1","17","Male","approach_avoid_spark_v1","""event"",""trial"",""time""
""fullscreenenter"",""1"",""2466""
","
","
","""event"",""trial"",""time""
""fullscreenenter"",""1"",""2466""
","
","","","","","","1616.2000000476837","images/rabbit7.png","","","learning","1","1","1","1","rabbit","pets","1","0","","good","[3]"
"html-keyboard-response","108","451105","0.0-9.0-2.0-0.18","4041","1","17","Male","approach_avoid_spark_v1","""event"",""trial"",""time""
""fullscreenenter"",""1"",""2466""
","
","
","""event"",""trial"",""time""
""fullscreenenter"",""1"",""2466""
","
","","","","","","null","<div style=""font-size:60px;"">+</div>","null","","fixation","","","","","","","","","","",""
"aa-learning-trial","109","454114","0.0-9.0-2.0-1.18","4041","1","17","Male","approach_avoid_spark_v1","""event"",""trial"",""time""
""fullscreenenter"",""1"",""2466""
","
","
","""event"",""trial"",""time""
""fullscreenenter"",""1"",""2466""
","
","","","","","","967.8999999761581","images/dog2.png","","","learning","-7","-7","1","1","dog","pets","1","0","","bad","[-6]"
"html-keyboard-response","110","454649","0.0-9.0-2.0-0.19","4041","1","17","Male","approach_avoid_spark_v1","""event"",""trial"",""time""
""fullscreenenter"",""1"",""2466""
","
","
","""event"",""trial"",""time""
""fullscreenenter"",""1"",""2466""
","
","","","","","","null","<div style=""font-size:60px;"">+</div>","null","","fixation","","","","","","","","","","",""
"aa-learning-trial","111","457681","0.0-9.0-2.0-1.19","4041","1","17","Male","approach_avoid_spark_v1","""event"",""trial"",""time""
""fullscreenenter"",""1"",""2466""
","
","
","""event"",""trial"",""time""
""fullscreenenter"",""1"",""2466""
","
","","","","","","712.3999999761581","images/rabbit4.png","","","learning","6","6","1","1","rabbit","pets","1","0","","good","[3]"
"html-keyboard-response","112","458208","0.0-9.0-2.0-0.20","4041","1","17","Male","approach_avoid_spark_v1","""event"",""trial"",""time""
""fullscreenenter"",""1"",""2466""
","
","
","""event"",""trial"",""time""
""fullscreenenter"",""1"",""2466""
","
","","","","","","null","<div style=""font-size:60px;"">+</div>","null","","fixation","","","","","","","","","","",""
"aa-learning-trial","113","461242","0.0-9.0-2.0-1.20","4041","1","17","Male","approach_avoid_spark_v1","""event"",""trial"",""time""
""fullscreenenter"",""1"",""2466""
","
","
","""event"",""trial"",""time""
""fullscreenenter"",""1"",""2466""
","
","","","","","","774.3000000715256","images/rabbit7.png","","","learning","3","0","0","0","rabbit","pets","1","0","","good","[3]"
"html-keyboard-response","114","461778","0.0-9.0-2.0-0.21","4041","1","17","Male","approach_avoid_spark_v1","""event"",""trial"",""time""
""fullscreenenter"",""1"",""2466""
","
","
","""event"",""trial"",""time""
""fullscreenenter"",""1"",""2466""
","
","","","","","","null","<div style=""font-size:60px;"">+</div>","null","","fixation","","","","","","","","","","",""
"aa-learning-trial","115","464811","0.0-9.0-2.0-1.21","4041","1","17","Male","approach_avoid_spark_v1","""event"",""trial"",""time""
""fullscreenenter"",""1"",""2466""
","
","
","""event"",""trial"",""time""
""fullscreenenter"",""1"",""2466""
","
","","","","","","1238","images/dog3.png","","","learning","-7","-7","1","1","dog","pets","1","0","","bad","[-6]"
"html-keyboard-response","116","465319","0.0-9.0-2.0-0.22","4041","1","17","Male","approach_avoid_spark_v1","""event"",""trial"",""time""
""fullscreenenter"",""1"",""2466""
","
","
","""event"",""trial"",""time""
""fullscreenenter"",""1"",""2466""
","
","","","","","","null","<div style=""font-size:60px;"">+</div>","null","","fixation","","","","","","","","","","",""
"aa-learning-trial","117","468355","0.0-9.0-2.0-1.22","4041","1","17","Male","approach_avoid_spark_v1","""event"",""trial"",""time""
""fullscreenenter"",""1"",""2466""
","
","
","""event"",""trial"",""time""
""fullscreenenter"",""1"",""2466""
","
","","","","","","611.5","images/cat1.png","","","learning","-2","-2","1","1","cat","pets","1","0","","neutral","0"
"html-keyboard-response","118","468889","0.0-9.0-2.0-0.23","4041","1","17","Male","approach_avoid_spark_v1","""event"",""trial"",""time""
""fullscreenenter"",""1"",""2466""
","
","
","""event"",""trial"",""time""
""fullscreenenter"",""1"",""2466""
","
","","","","","","null","<div style=""font-size:60px;"">+</div>","null","","fixation","","","","","","","","","","",""
"aa-learning-trial","119","471922","0.0-9.0-2.0-1.23","4041","1","17","Male","approach_avoid_spark_v1","""event"",""trial"",""time""
""fullscreenenter"",""1"",""2466""
","
","
","""event"",""trial"",""time""
""fullscreenenter"",""1"",""2466""
","
","","","","","","564.3999999761581","images/rabbit5.png","","","learning","5","5","1","1","rabbit","pets","1","0","","good","[3]"
"html-keyboard-response","120","472459","0.0-9.0-2.0-0.24","4041","1","17","Male","approach_avoid_spark_v1","""event"",""trial"",""time""
""fullscreenenter"",""1"",""2466""
","
","
","""event"",""trial"",""time""
""fullscreenenter"",""1"",""2466""
","
","","","","","","null","<div style=""font-size:60px;"">+</div>","null","","fixation","","","","","","","","","","",""
"aa-learning-trial","121","475489","0.0-9.0-2.0-1.24","4041","1","17","Male","approach_avoid_spark_v1","""event"",""trial"",""time""
""fullscreenenter"",""1"",""2466""
","
","
","""event"",""trial"",""time""
""fullscreenenter"",""1"",""2466""
","
","","","","","","746","images/cat5.png","","","learning","-1","-1","1","1","cat","pets","1","0","","neutral","0"
"html-keyboard-response","122","476025","0.0-9.0-2.0-0.25","4041","1","17","Male","approach_avoid_spark_v1","""event"",""trial"",""time""
""fullscreenenter"",""1"",""2466""
","
","
","""event"",""trial"",""time""
""fullscreenenter"",""1"",""2466""
","
","","","","","","null","<div style=""font-size:60px;"">+</div>","null","","fixation","","","","","","","","","","",""
"aa-learning-trial","123","479057","0.0-9.0-2.0-1.25","4041","1","17","Male","approach_avoid_spark_v1","""event"",""trial"",""time""
""fullscreenenter"",""1"",""2466""
","
","
","""event"",""trial"",""time""
""fullscreenenter"",""1"",""2466""
","
","","","","","","626.6000000238419","images/cat3.png","","","learning","1","1","1","1","cat","pets","1","0","","neutral","0"
"html-keyboard-response","124","479599","0.0-9.0-2.0-0.26","4041","1","17","Male","approach_avoid_spark_v1","""event"",""trial"",""time""
""fullscreenenter"",""1"",""2466""
","
","
","""event"",""trial"",""time""
""fullscreenenter"",""1"",""2466""
","
","","","","","","null","<div style=""font-size:60px;"">+</div>","null","","fixation","","","","","","","","","","",""
"aa-learning-trial","125","482608","0.0-9.0-2.0-1.26","4041","1","17","Male","approach_avoid_spark_v1","""event"",""trial"",""time""
""fullscreenenter"",""1"",""2466""
","
","
","""event"",""trial"",""time""
""fullscreenenter"",""1"",""2466""
","
","","","","","","643.1000000238419","images/dog6.png","","","learning","-6","-6","1","1","dog","pets","1","0","","bad","[-6]"
"html-keyboard-response","126","483113","0.0-9.0-2.0-0.27","4041","1","17","Male","approach_avoid_spark_v1","""event"",""trial"",""time""
""fullscreenenter"",""1"",""2466""
","
","
","""event"",""trial"",""time""
""fullscreenenter"",""1"",""2466""
","
","","","","","","null","<div style=""font-size:60px;"">+</div>","null","","fixation","","","","","","","","","","",""
"aa-learning-trial","127","486119","0.0-9.0-2.0-1.27","4041","1","17","Male","approach_avoid_spark_v1","""event"",""trial"",""time""
""fullscreenenter"",""1"",""2466""
","
","
","""event"",""trial"",""time""
""fullscreenenter"",""1"",""2466""
","
","","","","","","469.7999999523163","images/cat2.png","","","learning","-1","-1","1","1","cat","pets","1","0","","neutral","0"
"html-keyboard-response","128","486623","0.0-9.0-2.0-0.28","4041","1","17","Male","approach_avoid_spark_v1","""event"",""trial"",""time""
""fullscreenenter"",""1"",""2466""
","
","
","""event"",""trial"",""time""
""fullscreenenter"",""1"",""2466""
","
","","","","","","null","<div style=""font-size:60px;"">+</div>","null","","fixation","","","","","","","","","","",""
"aa-learning-trial","129","489640","0.0-9.0-2.0-1.28","4041","1","17","Male","approach_avoid_spark_v1","""event"",""trial"",""time""
""fullscreenenter"",""1"",""2466""
","
","
","""event"",""trial"",""time""
""fullscreenenter"",""1"",""2466""
","
","","","","","","463.2999999523163","images/dog6.png","","","learning","-5","0","0","0","dog","pets","1","0","","bad","[-6]"
"html-keyboard-response","130","490169","0.0-9.0-2.0-0.29","4041","1","17","Male","approach_avoid_spark_v1","""event"",""trial"",""time""
""fullscreenenter"",""1"",""2466""
","
","
","""event"",""trial"",""time""
""fullscreenenter"",""1"",""2466""
","
","","","","","","null","<div style=""font-size:60px;"">+</div>","null","","fixation","","","","","","","","","","",""
"aa-learning-trial","131","493176","0.0-9.0-2.0-1.29","4041","1","17","Male","approach_avoid_spark_v1","""event"",""trial"",""time""
""fullscreenenter"",""1"",""2466""
","
","
","""event"",""trial"",""time""
""fullscreenenter"",""1"",""2466""
","
","","","","","","644.2999999523163","images/rabbit7.png","","","learning","1","1","1","1","rabbit","pets","1","0","","good","[3]"
"html-keyboard-response","132","493704","0.0-9.0-2.0-0.30","4041","1","17","Male","approach_avoid_spark_v1","""event"",""trial"",""time""
""fullscreenenter"",""1"",""2466""
","
","
","""event"",""trial"",""time""
""fullscreenenter"",""1"",""2466""
","
","","","","","","null","<div style=""font-size:60px;"">+</div>","null","","fixation","","","","","","","","","","",""
"aa-learning-trial","133","496745","0.0-9.0-2.0-1.30","4041","1","17","Male","approach_avoid_spark_v1","""event"",""trial"",""time""
""fullscreenenter"",""1"",""2466""
","
","
","""event"",""trial"",""time""
""fullscreenenter"",""1"",""2466""
","
","","","","","","721.7999999523163","images/cat5.png","","","learning","-1","-1","1","1","cat","pets","1","0","","neutral","0"
"html-keyboard-response","134","497273","0.0-9.0-2.0-0.31","4041","1","17","Male","approach_avoid_spark_v1","""event"",""trial"",""time""
""fullscreenenter"",""1"",""2466""
","
","
","""event"",""trial"",""time""
""fullscreenenter"",""1"",""2466""
","
","","","","","","null","<div style=""font-size:60px;"">+</div>","null","","fixation","","","","","","","","","","",""
"aa-learning-trial","135","500305","0.0-9.0-2.0-1.31","4041","1","17","Male","approach_avoid_spark_v1","""event"",""trial"",""time""
""fullscreenenter"",""1"",""2466""
","
","
","""event"",""trial"",""time""
""fullscreenenter"",""1"",""2466""
","
","","","","","","884.3999999761581","images/dog8.png","","","learning","-6","-6","1","1","dog","pets","1","0","","bad","[-6]"
"html-keyboard-response","136","500833","0.0-9.0-2.0-0.32","4041","1","17","Male","approach_avoid_spark_v1","""event"",""trial"",""time""
""fullscreenenter"",""1"",""2466""
","
","
","""event"",""trial"",""time""
""fullscreenenter"",""1"",""2466""
","
","","","","","","null","<div style=""font-size:60px;"">+</div>","null","","fixation","","","","","","","","","","",""
"aa-learning-trial","137","503841","0.0-9.0-2.0-1.32","4041","1","17","Male","approach_avoid_spark_v1","""event"",""trial"",""time""
""fullscreenenter"",""1"",""2466""
","
","
","""event"",""trial"",""time""
""fullscreenenter"",""1"",""2466""
","
","","","","","","385.89999997615814","images/rabbit4.png","","","learning","1","1","1","1","rabbit","pets","1","0","","good","[3]"
"html-keyboard-response","138","504351","0.0-9.0-2.0-0.33","4041","1","17","Male","approach_avoid_spark_v1","""event"",""trial"",""time""
""fullscreenenter"",""1"",""2466""
","
","
","""event"",""trial"",""time""
""fullscreenenter"",""1"",""2466""
","
","","","","","","null","<div style=""font-size:60px;"">+</div>","null","","fixation","","","","","","","","","","",""
"aa-learning-trial","139","507372","0.0-9.0-2.0-1.33","4041","1","17","Male","approach_avoid_spark_v1","""event"",""trial"",""time""
""fullscreenenter"",""1"",""2466""
","
","
","""event"",""trial"",""time""
""fullscreenenter"",""1"",""2466""
","
","","","","","","127.20000004768372","images/cat1.png","","","learning","-2","0","0","0","cat","pets","1","0","","neutral","0"
"html-keyboard-response","140","507879","0.0-9.0-2.0-0.34","4041","1","17","Male","approach_avoid_spark_v1","""event"",""trial"",""time""
""fullscreenenter"",""1"",""2466""
","
","
","""event"",""trial"",""time""
""fullscreenenter"",""1"",""2466""
","
","","","","","","null","<div style=""font-size:60px;"">+</div>","null","","fixation","","","","","","","","","","",""
"aa-learning-trial","141","510895","0.0-9.0-2.0-1.34","4041","1","17","Male","approach_avoid_spark_v1","""event"",""trial"",""time""
""fullscreenenter"",""1"",""2466""
","
","
","""event"",""trial"",""time""
""fullscreenenter"",""1"",""2466""
","
","","","","","","34.199999928474426","images/dog6.png","","","learning","-6","0","0","0","dog","pets","1","0","","bad","[-6]"
"html-keyboard-response","142","511399","0.0-9.0-2.0-0.35","4041","1","17","Male","approach_avoid_spark_v1","""event"",""trial"",""time""
""fullscreenenter"",""1"",""2466""
","
","
","""event"",""trial"",""time""
""fullscreenenter"",""1"",""2466""
","
","","","","","","null","<div style=""font-size:60px;"">+</div>","null","","fixation","","","","","","","","","","",""
"aa-learning-trial","143","514407","0.0-9.0-2.0-1.35","4041","1","17","Male","approach_avoid_spark_v1","""event"",""trial"",""time""
""fullscreenenter"",""1"",""2466""
","
","
","""event"",""trial"",""time""
""fullscreenenter"",""1"",""2466""
","
","","","","","","26.200000047683716","images/dog2.png","","","learning","-5","0","0","0","dog","pets","1","0","","bad","[-6]"
"html-keyboard-response","144","514923","0.0-9.0-2.0-0.36","4041","1","17","Male","approach_avoid_spark_v1","""event"",""trial"",""time""
""fullscreenenter"",""1"",""2466""
","
","
","""event"",""trial"",""time""
""fullscreenenter"",""1"",""2466""
","
","","","","","","null","<div style=""font-size:60px;"">+</div>","null","","fixation","","","","","","","","","","",""
"aa-learning-trial","145","517952","0.0-9.0-2.0-1.36","4041","1","17","Male","approach_avoid_spark_v1","""event"",""trial"",""time""
""fullscreenenter"",""1"",""2466""
","
","
","""event"",""trial"",""time""
""fullscreenenter"",""1"",""2466""
","
","","","","","","135.29999995231628","images/dog1.png","","","learning","-5","-5","1","1","dog","pets","1","0","","bad","[-6]"
"html-keyboard-response","146","518480","0.0-9.0-2.0-0.37","4041","1","17","Male","approach_avoid_spark_v1","""event"",""trial"",""time""
""fullscreenenter"",""1"",""2466""
","
","
","""event"",""trial"",""time""
""fullscreenenter"",""1"",""2466""
","
","","","","","","null","<div style=""font-size:60px;"">+</div>","null","","fixation","","","","","","","","","","",""
"aa-learning-trial","147","521486","0.0-9.0-2.0-1.37","4041","1","17","Male","approach_avoid_spark_v1","""event"",""trial"",""time""
""fullscreenenter"",""1"",""2466""
","
","
","""event"",""trial"",""time""
""fullscreenenter"",""1"",""2466""
","
","","","","","","190.89999997615814","images/rabbit8.png","","","learning","1","0","0","0","rabbit","pets","1","0","","good","[3]"
"html-keyboard-response","148","522018","0.0-9.0-2.0-0.38","4041","1","17","Male","approach_avoid_spark_v1","""event"",""trial"",""time""
""fullscreenenter"",""1"",""2466""
","
","
","""event"",""trial"",""time""
""fullscreenenter"",""1"",""2466""
","
","","","","","","null","<div style=""font-size:60px;"">+</div>","null","","fixation","","","","","","","","","","",""
"aa-learning-trial","149","525050","0.0-9.0-2.0-1.38","4041","1","17","Male","approach_avoid_spark_v1","""event"",""trial"",""time""
""fullscreenenter"",""1"",""2466""
","
","
","""event"",""trial"",""time""
""fullscreenenter"",""1"",""2466""
","
","","","","","","305.8000000715256","images/cat1.png","","","learning","[-1]","-1","1","1","cat","pets","1","0","","neutral","0"
"html-keyboard-response","150","525585","0.0-9.0-2.0-0.39","4041","1","17","Male","approach_avoid_spark_v1","""event"",""trial"",""time""
""fullscreenenter"",""1"",""2466""
","
","
","""event"",""trial"",""time""
""fullscreenenter"",""1"",""2466""
","
","","","","","","null","<div style=""font-size:60px;"">+</div>","null","","fixation","","","","","","","","","","",""
"aa-learning-trial","151","528618","0.0-9.0-2.0-1.39","4041","1","17","Male","approach_avoid_spark_v1","""event"",""trial"",""time""
""fullscreenenter"",""1"",""2466""
","
","
","""event"",""trial"",""time""
""fullscreenenter"",""1"",""2466""
","
","","","","","","13.5","images/cat1.png","","","learning","[-1]","-1","1","1","cat","pets","1","0","","neutral","0"
"html-keyboard-response","152","529154","0.0-9.0-2.0-0.40","4041","1","17","Male","approach_avoid_spark_v1","""event"",""trial"",""time""
""fullscreenenter"",""1"",""2466""
","
","
","""event"",""trial"",""time""
""fullscreenenter"",""1"",""2466""
","
","","","","","","null","<div style=""font-size:60px;"">+</div>","null","","fixation","","","","","","","","","","",""
"aa-learning-trial","153","532185","0.0-9.0-2.0-1.40","4041","1","17","Male","approach_avoid_spark_v1","""event"",""trial"",""time""
""fullscreenenter"",""1"",""2466""
","
","
","""event"",""trial"",""time""
""fullscreenenter"",""1"",""2466""
","
","","","","","","291.6999999284744","images/cat5.png","","","learning","-1","0","0","0","cat","pets","1","0","","neutral","0"
"html-keyboard-response","154","532722","0.0-9.0-2.0-0.41","4041","1","17","Male","approach_avoid_spark_v1","""event"",""trial"",""time""
""fullscreenenter"",""1"",""2466""
","
","
","""event"",""trial"",""time""
""fullscreenenter"",""1"",""2466""
","
","","","","","","null","<div style=""font-size:60px;"">+</div>","null","","fixation","","","","","","","","","","",""
"aa-learning-trial","155","535754","0.0-9.0-2.0-1.41","4041","1","17","Male","approach_avoid_spark_v1","""event"",""trial"",""time""
""fullscreenenter"",""1"",""2466""
","
","
","""event"",""trial"",""time""
""fullscreenenter"",""1"",""2466""
","
","","","","","","211.70000004768372","images/rabbit8.png","","","learning","1","1","1","1","rabbit","pets","1","0","","good","[3]"
"html-keyboard-response","156","536289","0.0-9.0-2.0-0.42","4041","1","17","Male","approach_avoid_spark_v1","""event"",""trial"",""time""
""fullscreenenter"",""1"",""2466""
","
","
","""event"",""trial"",""time""
""fullscreenenter"",""1"",""2466""
","
","","","","","","null","<div style=""font-size:60px;"">+</div>","null","","fixation","","","","","","","","","","",""
"aa-learning-trial","157","539339","0.0-9.0-2.0-1.42","4041","1","17","Male","approach_avoid_spark_v1","""event"",""trial"",""time""
""fullscreenenter"",""1"",""2466""
","
","
","""event"",""trial"",""time""
""fullscreenenter"",""1"",""2466""
","
","","","","","","445.90000009536743","images/rabbit4.png","","","learning","4","4","1","1","rabbit","pets","1","0","","good","[3]"
"html-keyboard-response","158","539873","0.0-9.0-2.0-0.43","4041","1","17","Male","approach_avoid_spark_v1","""event"",""trial"",""time""
""fullscreenenter"",""1"",""2466""
","
","
","""event"",""trial"",""time""
""fullscreenenter"",""1"",""2466""
","
","","","","","","null","<div style=""font-size:60px;"">+</div>","null","","fixation","","","","","","","","","","",""
"aa-learning-trial","159","542904","0.0-9.0-2.0-1.43","4041","1","17","Male","approach_avoid_spark_v1","""event"",""trial"",""time""
""fullscreenenter"",""1"",""2466""
","
","
","""event"",""trial"",""time""
""fullscreenenter"",""1"",""2466""
","
","","","","","","100.29999995231628","images/dog6.png","","","learning","-6","-6","1","1","dog","pets","1","0","","bad","[-6]"
"html-keyboard-response","160","543433","0.0-9.0-2.0-0.44","4041","1","17","Male","approach_avoid_spark_v1","""event"",""trial"",""time""
""fullscreenenter"",""1"",""2466""
","
","
","""event"",""trial"",""time""
""fullscreenenter"",""1"",""2466""
","
","","","","","","null","<div style=""font-size:60px;"">+</div>","null","","fixation","","","","","","","","","","",""
"aa-learning-trial","161","546439","0.0-9.0-2.0-1.44","4041","1","17","Male","approach_avoid_spark_v1","""event"",""trial"",""time""
""fullscreenenter"",""1"",""2466""
","
","
","""event"",""trial"",""time""
""fullscreenenter"",""1"",""2466""
","
","","","","","","757.5","images/rabbit7.png","","","learning","2","0","0","0","rabbit","pets","1","0","","good","[3]"
"html-keyboard-response","162","546969","0.0-9.0-2.0-0.45","4041","1","17","Male","approach_avoid_spark_v1","""event"",""trial"",""time""
""fullscreenenter"",""1"",""2466""
","
","
","""event"",""trial"",""time""
""fullscreenenter"",""1"",""2466""
","
","","","","","","null","<div style=""font-size:60px;"">+</div>","null","","fixation","","","","","","","","","","",""
"aa-learning-trial","163","550001","0.0-9.0-2.0-1.45","4041","1","17","Male","approach_avoid_spark_v1","""event"",""trial"",""time""
""fullscreenenter"",""1"",""2466""
","
","
","""event"",""trial"",""time""
""fullscreenenter"",""1"",""2466""
","
","","","","","","270","images/dog1.png","","","learning","-7","0","0","0","dog","pets","1","0","","bad","[-6]"
"html-keyboard-response","164","550525","0.0-9.0-2.0-0.46","4041","1","17","Male","approach_avoid_spark_v1","""event"",""trial"",""time""
""fullscreenenter"",""1"",""2466""
","
","
","""event"",""trial"",""time""
""fullscreenenter"",""1"",""2466""
","
","","","","","","null","<div style=""font-size:60px;"">+</div>","null","","fixation","","","","","","","","","","",""
"aa-learning-trial","165","553562","0.0-9.0-2.0-1.46","4041","1","17","Male","approach_avoid_spark_v1","""event"",""trial"",""time""
""fullscreenenter"",""1"",""2466""
","
","
","""event"",""trial"",""time""
""fullscreenenter"",""1"",""2466""
","
","","","","","","155.70000004768372","images/cat2.png","","","learning","-3","0","0","0","cat","pets","1","0","","neutral","0"
"html-keyboard-response","166","554097","0.0-9.0-2.0-0.47","4041","1","17","Male","approach_avoid_spark_v1","""event"",""trial"",""time""
""fullscreenenter"",""1"",""2466""
","
","
","""event"",""trial"",""time""
""fullscreenenter"",""1"",""2466""
","
","","","","","","null","<div style=""font-size:60px;"">+</div>","null","","fixation","","","","","","","","","","",""
"aa-learning-trial","167","557130","0.0-9.0-2.0-1.47","4041","1","17","Male","approach_avoid_spark_v1","""event"",""trial"",""time""
""fullscreenenter"",""1"",""2466""
","
","
","""event"",""trial"",""time""
""fullscreenenter"",""1"",""2466""
","
","","","","","","0.30000007152557373","images/rabbit2.png","","","learning","1","1","1","1","rabbit","pets","1","0","","good","[3]"
"html-keyboard-response","168","557664","0.0-9.0-2.0-0.48","4041","1","17","Male","approach_avoid_spark_v1","""event"",""trial"",""time""
""fullscreenenter"",""1"",""2466""
","
","
","""event"",""trial"",""time""
""fullscreenenter"",""1"",""2466""
","
","","","","","","null","<div style=""font-size:60px;"">+</div>","null","","fixation","","","","","","","","","","",""
"aa-learning-trial","169","560672","0.0-9.0-2.0-1.48","4041","1","17","Male","approach_avoid_spark_v1","""event"",""trial"",""time""
""fullscreenenter"",""1"",""2466""
","
","
","""event"",""trial"",""time""
""fullscreenenter"",""1"",""2466""
","
","","","","","","31.300000071525574","images/cat7.png","","","learning","2","2","1","1","cat","pets","1","0","","neutral","0"
"html-keyboard-response","170","561175","0.0-9.0-2.0-0.49","4041","1","17","Male","approach_avoid_spark_v1","""event"",""trial"",""time""
""fullscreenenter"",""1"",""2466""
","
","
","""event"",""trial"",""time""
""fullscreenenter"",""1"",""2466""
","
","","","","","","null","<div style=""font-size:60px;"">+</div>","null","","fixation","","","","","","","","","","",""
"aa-learning-trial","171","564211","0.0-9.0-2.0-1.49","4041","1","17","Male","approach_avoid_spark_v1","""event"",""trial"",""time""
""fullscreenenter"",""1"",""2466""
","
","
","""event"",""trial"",""time""
""fullscreenenter"",""1"",""2466""
","
","","","","","","108.80000007152557","images/rabbit4.png","","","learning","1","1","1","1","rabbit","pets","1","0","","good","[3]"
"html-keyboard-response","172","564717","0.0-9.0-2.0-0.50","4041","1","17","Male","approach_avoid_spark_v1","""event"",""trial"",""time""
""fullscreenenter"",""1"",""2466""
","
","
","""event"",""trial"",""time""
""fullscreenenter"",""1"",""2466""
","
","","","","","","null","<div style=""font-size:60px;"">+</div>","null","","fixation","","","","","","","","","","",""
"aa-learning-trial","173","567753","0.0-9.0-2.0-1.50","4041","1","17","Male","approach_avoid_spark_v1","""event"",""trial"",""time""
""fullscreenenter"",""1"",""2466""
","
","
","""event"",""trial"",""time""
""fullscreenenter"",""1"",""2466""
","
","","","","","","199.5","images/cat5.png","","","learning","-2","-2","1","1","cat","pets","1","0","","neutral","0"
"html-button-response","174","572859","0.0-9.0-3.0","4041","1","17","Male","approach_avoid_spark_v1","""event"",""trial"",""time""
""fullscreenenter"",""1"",""2466""
","
","
","""event"",""trial"",""time""
""fullscreenenter"",""1"",""2466""
","
","","","","","","5104.300000071526","<p> You have completed the round! <p> In this round, you earned -44 points! </p>","0","","break","","","","","","","","","","",""
"html-button-response","175","573585","0.0-10.0","4041","1","17","Male","approach_avoid_spark_v1","""event"",""trial"",""time""
""fullscreenenter"",""1"",""2466""
","
","
","""event"",""trial"",""time""
""fullscreenenter"",""1"",""2466""
","
","","","","","","724.2000000476837","<p> Now it's time to play another round. </p>","0","","transition_screen","","","","","","","","","","",""
"preload","176","573706","0.0-11.0-0.0","4041","1","17","Male","approach_avoid_spark_v1","""event"",""trial"",""time""
""fullscreenenter"",""1"",""2466""
","
","
","""event"",""trial"",""time""
""fullscreenenter"",""1"",""2466""
","
","true","false","[]","[]","[]","","","","","","","","","","","","","","","",""
"learning-instructions","177","578848","0.0-11.0-1.0-0.0","4041","1","17","Male","approach_avoid_spark_v1","""event"",""trial"",""time""
""fullscreenenter"",""1"",""2466""
","
","
","""event"",""trial"",""time""
""fullscreenenter"",""1"",""2466""
","
","","","","","","1106","<p> Your goal in this round is to take care of lots of farm animals. </p></div>","","0","instructions","","","","","","","","","","",""
"learning-instructions","178","591335","0.0-11.0-1.0-0.1","4041","1","17","Male","approach_avoid_spark_v1","""event"",""trial"",""time""
""fullscreenenter"",""1"",""2466""
","
","
","""event"",""trial"",""time""
""fullscreenenter"",""1"",""2466""
","
","","","","","","3439.6999999284744","<p> Some farm animals are hungry, while other farm animals are already full.  </p><p> On each turn, you will see a farm animal.   </p><p> You need to decide whether to feed it or not.  </p>","","0","instructions","","","","","","","","","","",""
"learning-instructions","179","597243","0.0-11.0-1.0-0.2","4041","1","17","Male","approach_avoid_spark_v1","""event"",""trial"",""time""
""fullscreenenter"",""1"",""2466""
","
","
","""event"",""trial"",""time""
""fullscreenenter"",""1"",""2466""
","
","","","","","","675.6999999284744","<p> You can feed the farm animal by pressing 1 and leave the farm animal alone by pressing 0. </p><br><div class=""choice-instructions-grid""> <div class=""choice-option""><img src=""images/approach.png"" class=""choice-option-img"" stage=""instructions"" position=""0"" ><div class=""choice-option-text""> Press ""1."" </div></div><div class=""choice-option""><img src=""images/avoid.png"" class=""choice-option-img"" stage=""instructions"" position=""1"" ><div class=""choice-option-text""> Press ""0."" </div></div>","","0","instructions","","","","","","","","","","",""
"learning-instructions","180","606481","0.0-11.0-1.0-0.3","4041","1","17","Male","approach_avoid_spark_v1","""event"",""trial"",""time""
""fullscreenenter"",""1"",""2466""
","
","
","""event"",""trial"",""time""
""fullscreenenter"",""1"",""2466""
","
","","","","","","576.5","<p> If you feed a hungry farm animal, you will make it feel satisfied! </p><p> But if you feed the farm animal and it was already full, you will make it feel sick. </p>","","0","instructions","","","","","","","","","","",""
"learning-instructions","181","618291","0.0-11.0-1.0-0.4","4041","1","17","Male","approach_avoid_spark_v1","""event"",""trial"",""time""
""fullscreenenter"",""1"",""2466""
","
","
","""event"",""trial"",""time""
""fullscreenenter"",""1"",""2466""
","
","","","","","","296.39999997615814","<p> You will earn points based on how you made the farm animal feel. </p><p> If you made it satisfied, you will WIN anywhere from 1 - 9 points, </p><p> but if you made it sick, you will LOSE anywhere from 1 - 9 points. </p>","","0","instructions","","","","","","","","","","",""
"learning-instructions","182","625947","0.0-11.0-1.0-0.5","4041","1","17","Male","approach_avoid_spark_v1","""event"",""trial"",""time""
""fullscreenenter"",""1"",""2466""
","
","
","""event"",""trial"",""time""
""fullscreenenter"",""1"",""2466""
","
","","","","","","935.0999999046326","<p> You will see how many points you won or lost in the center of the screen. </p><p> Here is what you would see if you won 5 points: </p><p style=""color:green;font-size:50px;font-weight:bolder"">5</p>","","0","instructions","","","","","","","","","","",""
"learning-instructions","183","630209","0.0-11.0-1.0-0.6","4041","1","17","Male","approach_avoid_spark_v1","""event"",""trial"",""time""
""fullscreenenter"",""1"",""2466""
","
","
","""event"",""trial"",""time""
""fullscreenenter"",""1"",""2466""
","
","","","","","","1303.6000000238419","<p> And here is what you would see if you lost 3 points: </p><p style=""color:red;font-size:50px;font-weight:bolder"">-3</p>","","0","instructions","","","","","","","","","","",""
"learning-instructions","184","645243","0.0-11.0-1.0-0.7","4041","1","17","Male","approach_avoid_spark_v1","""event"",""trial"",""time""
""fullscreenenter"",""1"",""2466""
","
","
","""event"",""trial"",""time""
""fullscreenenter"",""1"",""2466""
","
","","","","","","537.8999999761581","<p> Some farm animals will become very satisfied or very sick. </p><p> These farm animals will make you win or lose LOTS of points. </p><p> Other farm animals have less strong feelings. </p><p> These farm animals will make you win or lose small amounts of points. </p>","","0","instructions","","","","","","","","","","",""
"learning-instructions","185","656705","0.0-11.0-1.0-0.8","4041","1","17","Male","approach_avoid_spark_v1","""event"",""trial"",""time""
""fullscreenenter"",""1"",""2466""
","
","
","""event"",""trial"",""time""
""fullscreenenter"",""1"",""2466""
","
","","","","","","264.5","<p> If you choose to leave the farm animal alone, you will not win or lose any points. </p><p>  However, in the center of the screen, you will see the number of points you WOULD HAVE won or lost if you had fed the farm animal. </p>","","0","instructions","","","","","","","","","","",""
"learning-instructions","186","667657","0.0-11.0-1.0-0.9","4041","1","17","Male","approach_avoid_spark_v1","""event"",""trial"",""time""
""fullscreenenter"",""1"",""2466""
","
","
","""event"",""trial"",""time""
""fullscreenenter"",""1"",""2466""
","
","","","","","","344.7999999523163","<p> Here is what you might see if you did not feed the farm animal but the animal was hungry: </p><p style=""color:grey; font-size:50px; display: inline-block; border-spacing: 15px; border-width:3px; border-style:solid; border-color:red"">  &nbsp; 6 &nbsp; </p><p> Remember, in this case, you would not win or lose ANY points because you did not feed the farm animal.  </p>","","0","instructions","","","","","","","","","","",""
"learning-instructions","187","675821","0.0-11.0-1.0-0.10","4041","1","17","Male","approach_avoid_spark_v1","""event"",""trial"",""time""
""fullscreenenter"",""1"",""2466""
","
","
","""event"",""trial"",""time""
""fullscreenenter"",""1"",""2466""
","
","","","","","","1084.3000000715256","<p> Try to make the best choice for each farm animal because </p><p> at the end of the game, you will earn bonus money based on how many points you earned. </p>","","0","instructions","","","","","","","","","","",""
"learning-instructions","188","684906","0.0-11.0-1.0-0.11","4041","1","17","Male","approach_avoid_spark_v1","""event"",""trial"",""time""
""fullscreenenter"",""1"",""2466""
","
","
","""event"",""trial"",""time""
""fullscreenenter"",""1"",""2466""
","
","","","","","","758.8999999761581","<p> You will have 3 seconds to make each choice. Try to respond before time runs out! </p><p> You will lose 5 points each time you do not make a response. </p>","","0","instructions","","","","","","","","","","",""
"html-keyboard-response","189","685527","0.0-11.0-2.0-0.0","4041","1","17","Male","approach_avoid_spark_v1","""event"",""trial"",""time""
""fullscreenenter"",""1"",""2466""
","
","
","""event"",""trial"",""time""
""fullscreenenter"",""1"",""2466""
","
","","","","","","null","<div style=""font-size:60px;"">+</div>","null","","fixation","","","","","","","","","","",""
"aa-learning-trial","190","688547","0.0-11.0-2.0-1.0","4041","1","17","Male","approach_avoid_spark_v1","""event"",""trial"",""time""
""fullscreenenter"",""1"",""2466""
","
","
","""event"",""trial"",""time""
""fullscreenenter"",""1"",""2466""
","
","","","","","","978","images/goat4.png","","","learning","4","4","1","1","goat","animals","2","1","","bad","[-6]"
"html-keyboard-response","191","689087","0.0-11.0-2.0-0.1","4041","1","17","Male","approach_avoid_spark_v1","""event"",""trial"",""time""
""fullscreenenter"",""1"",""2466""
","
","
","""event"",""trial"",""time""
""fullscreenenter"",""1"",""2466""
","
","","","","","","null","<div style=""font-size:60px;"">+</div>","null","","fixation","","","","","","","","","","",""
"aa-learning-trial","192","692135","0.0-11.0-2.0-1.1","4041","1","17","Male","approach_avoid_spark_v1","""event"",""trial"",""time""
""fullscreenenter"",""1"",""2466""
","
","
","""event"",""trial"",""time""
""fullscreenenter"",""1"",""2466""
","
","","","","","","939.5999999046326","images/horse7.png","","","learning","3","3","1","1","horse","animals","2","1","","neutral","0"
"html-keyboard-response","193","692652","0.0-11.0-2.0-0.2","4041","1","17","Male","approach_avoid_spark_v1","""event"",""trial"",""time""
""fullscreenenter"",""1"",""2466""
","
","
","""event"",""trial"",""time""
""fullscreenenter"",""1"",""2466""
","
","","","","","","null","<div style=""font-size:60px;"">+</div>","null","","fixation","","","","","","","","","","",""
"aa-learning-trial","194","695685","0.0-11.0-2.0-1.2","4041","1","17","Male","approach_avoid_spark_v1","""event"",""trial"",""time""
""fullscreenenter"",""1"",""2466""
","
","
","""event"",""trial"",""time""
""fullscreenenter"",""1"",""2466""
","
","","","","","","539.7000000476837","images/cow7.png","","","learning","-2","0","0","0","cow","animals","2","1","","good","[3]"
"html-keyboard-response","195","696200","0.0-11.0-2.0-0.3","4041","1","17","Male","approach_avoid_spark_v1","""event"",""trial"",""time""
""fullscreenenter"",""1"",""2466""
","
","
","""event"",""trial"",""time""
""fullscreenenter"",""1"",""2466""
","
","","","","","","null","<div style=""font-size:60px;"">+</div>","null","","fixation","","","","","","","","","","",""
"aa-learning-trial","196","699240","0.0-11.0-2.0-1.3","4041","1","17","Male","approach_avoid_spark_v1","""event"",""trial"",""time""
""fullscreenenter"",""1"",""2466""
","
","
","""event"",""trial"",""time""
""fullscreenenter"",""1"",""2466""
","
","","","","","","427.09999990463257","images/cow7.png","","","learning","-2","-2","1","1","cow","animals","2","1","","good","[3]"
"html-keyboard-response","197","699746","0.0-11.0-2.0-0.4","4041","1","17","Male","approach_avoid_spark_v1","""event"",""trial"",""time""
""fullscreenenter"",""1"",""2466""
","
","
","""event"",""trial"",""time""
""fullscreenenter"",""1"",""2466""
","
","","","","","","null","<div style=""font-size:60px;"">+</div>","null","","fixation","","","","","","","","","","",""
"aa-learning-trial","198","702778","0.0-11.0-2.0-1.4","4041","1","17","Male","approach_avoid_spark_v1","""event"",""trial"",""time""
""fullscreenenter"",""1"",""2466""
","
","
","""event"",""trial"",""time""
""fullscreenenter"",""1"",""2466""
","
","","","","","","456.3000000715256","images/goat5.png","","","learning","8","8","1","1","goat","animals","2","1","","bad","[-6]"
"html-keyboard-response","199","703325","0.0-11.0-2.0-0.5","4041","1","17","Male","approach_avoid_spark_v1","""event"",""trial"",""time""
""fullscreenenter"",""1"",""2466""
","
","
","""event"",""trial"",""time""
""fullscreenenter"",""1"",""2466""
","
","","","","","","null","<div style=""font-size:60px;"">+</div>","null","","fixation","","","","","","","","","","",""
"aa-learning-trial","200","706370","0.0-11.0-2.0-1.5","4041","1","17","Male","approach_avoid_spark_v1","""event"",""trial"",""time""
""fullscreenenter"",""1"",""2466""
","
","
","""event"",""trial"",""time""
""fullscreenenter"",""1"",""2466""
","
","","","","","","480.39999997615814","images/horse2.png","","","learning","7","7","1","1","horse","animals","2","1","","neutral","0"
"html-keyboard-response","201","706914","0.0-11.0-2.0-0.6","4041","1","17","Male","approach_avoid_spark_v1","""event"",""trial"",""time""
""fullscreenenter"",""1"",""2466""
","
","
","""event"",""trial"",""time""
""fullscreenenter"",""1"",""2466""
","
","","","","","","null","<div style=""font-size:60px;"">+</div>","null","","fixation","","","","","","","","","","",""
"aa-learning-trial","202","709926","0.0-11.0-2.0-1.6","4041","1","17","Male","approach_avoid_spark_v1","""event"",""trial"",""time""
""fullscreenenter"",""1"",""2466""
","
","
","""event"",""trial"",""time""
""fullscreenenter"",""1"",""2466""
","
","","","","","","566.8000000715256","images/goat5.png","","","learning","8","8","1","1","goat","animals","2","1","","bad","[-6]"
"html-keyboard-response","203","710466","0.0-11.0-2.0-0.7","4041","1","17","Male","approach_avoid_spark_v1","""event"",""trial"",""time""
""fullscreenenter"",""1"",""2466""
","
","
","""event"",""trial"",""time""
""fullscreenenter"",""1"",""2466""
","
","","","","","","null","<div style=""font-size:60px;"">+</div>","null","","fixation","","","","","","","","","","",""
"aa-learning-trial","204","713475","0.0-11.0-2.0-1.7","4041","1","17","Male","approach_avoid_spark_v1","""event"",""trial"",""time""
""fullscreenenter"",""1"",""2466""
","
","
","""event"",""trial"",""time""
""fullscreenenter"",""1"",""2466""
","
","","","","","","570","images/horse1.png","","","learning","-1","-1","1","1","horse","animals","2","1","","neutral","0"
"html-keyboard-response","205","714016","0.0-11.0-2.0-0.8","4041","1","17","Male","approach_avoid_spark_v1","""event"",""trial"",""time""
""fullscreenenter"",""1"",""2466""
","
","
","""event"",""trial"",""time""
""fullscreenenter"",""1"",""2466""
","
","","","","","","null","<div style=""font-size:60px;"">+</div>","null","","fixation","","","","","","","","","","",""
"aa-learning-trial","206","717023","0.0-11.0-2.0-1.8","4041","1","17","Male","approach_avoid_spark_v1","""event"",""trial"",""time""
""fullscreenenter"",""1"",""2466""
","
","
","""event"",""trial"",""time""
""fullscreenenter"",""1"",""2466""
","
","","","","","","460.10000002384186","images/horse7.png","","","learning","3","3","1","1","horse","animals","2","1","","neutral","0"
"html-keyboard-response","207","717527","0.0-11.0-2.0-0.9","4041","1","17","Male","approach_avoid_spark_v1","""event"",""trial"",""time""
""fullscreenenter"",""1"",""2466""
","
","
","""event"",""trial"",""time""
""fullscreenenter"",""1"",""2466""
","
","","","","","","null","<div style=""font-size:60px;"">+</div>","null","","fixation","","","","","","","","","","",""
"aa-learning-trial","208","720544","0.0-11.0-2.0-1.9","4041","1","17","Male","approach_avoid_spark_v1","""event"",""trial"",""time""
""fullscreenenter"",""1"",""2466""
","
","
","""event"",""trial"",""time""
""fullscreenenter"",""1"",""2466""
","
","","","","","","555","images/goat8.png","","","learning","1","1","1","1","goat","animals","2","1","","bad","[-6]"
"html-keyboard-response","209","721073","0.0-11.0-2.0-0.10","4041","1","17","Male","approach_avoid_spark_v1","""event"",""trial"",""time""
""fullscreenenter"",""1"",""2466""
","
","
","""event"",""trial"",""time""
""fullscreenenter"",""1"",""2466""
","
","","","","","","null","<div style=""font-size:60px;"">+</div>","null","","fixation","","","","","","","","","","",""
"aa-learning-trial","210","724079","0.0-11.0-2.0-1.10","4041","1","17","Male","approach_avoid_spark_v1","""event"",""trial"",""time""
""fullscreenenter"",""1"",""2466""
","
","
","""event"",""trial"",""time""
""fullscreenenter"",""1"",""2466""
","
","","","","","","458.8000000715256","images/horse1.png","","","learning","-1","-1","1","1","horse","animals","2","1","","neutral","0"
"html-keyboard-response","211","724608","0.0-11.0-2.0-0.11","4041","1","17","Male","approach_avoid_spark_v1","""event"",""trial"",""time""
""fullscreenenter"",""1"",""2466""
","
","
","""event"",""trial"",""time""
""fullscreenenter"",""1"",""2466""
","
","","","","","","null","<div style=""font-size:60px;"">+</div>","null","","fixation","","","","","","","","","","",""
"aa-learning-trial","212","727640","0.0-11.0-2.0-1.11","4041","1","17","Male","approach_avoid_spark_v1","""event"",""trial"",""time""
""fullscreenenter"",""1"",""2466""
","
","
","""event"",""trial"",""time""
""fullscreenenter"",""1"",""2466""
","
","","","","","","414.10000002384186","images/cow6.png","","","learning","9","9","1","1","cow","animals","2","1","","good","[3]"
"html-keyboard-response","213","728142","0.0-11.0-2.0-0.12","4041","1","17","Male","approach_avoid_spark_v1","""event"",""trial"",""time""
""fullscreenenter"",""1"",""2466""
","
","
","""event"",""trial"",""time""
""fullscreenenter"",""1"",""2466""
","
","","","","","","null","<div style=""font-size:60px;"">+</div>","null","","fixation","","","","","","","","","","",""
"aa-learning-trial","214","731152","0.0-11.0-2.0-1.12","4041","1","17","Male","approach_avoid_spark_v1","""event"",""trial"",""time""
""fullscreenenter"",""1"",""2466""
","
","
","""event"",""trial"",""time""
""fullscreenenter"",""1"",""2466""
","
","","","","","","447.2999999523163","images/cow8.png","","","learning","-9","-9","1","1","cow","animals","2","1","","good","[3]"
"html-keyboard-response","215","731689","0.0-11.0-2.0-0.13","4041","1","17","Male","approach_avoid_spark_v1","""event"",""trial"",""time""
""fullscreenenter"",""1"",""2466""
","
","
","""event"",""trial"",""time""
""fullscreenenter"",""1"",""2466""
","
","","","","","","null","<div style=""font-size:60px;"">+</div>","null","","fixation","","","","","","","","","","",""
"aa-learning-trial","216","734722","0.0-11.0-2.0-1.13","4041","1","17","Male","approach_avoid_spark_v1","""event"",""trial"",""time""
""fullscreenenter"",""1"",""2466""
","
","
","""event"",""trial"",""time""
""fullscreenenter"",""1"",""2466""
","
","","","","","","440.89999997615814","images/goat8.png","","","learning","1","1","1","1","goat","animals","2","1","","bad","[-6]"
"html-keyboard-response","217","735257","0.0-11.0-2.0-0.14","4041","1","17","Male","approach_avoid_spark_v1","""event"",""trial"",""time""
""fullscreenenter"",""1"",""2466""
","
","
","""event"",""trial"",""time""
""fullscreenenter"",""1"",""2466""
","
","","","","","","null","<div style=""font-size:60px;"">+</div>","null","","fixation","","","","","","","","","","",""
"aa-learning-trial","218","738273","0.0-11.0-2.0-1.14","4041","1","17","Male","approach_avoid_spark_v1","""event"",""trial"",""time""
""fullscreenenter"",""1"",""2466""
","
","
","""event"",""trial"",""time""
""fullscreenenter"",""1"",""2466""
","
","","","","","","475.1999999284744","images/cow8.png","","","learning","-9","-9","1","1","cow","animals","2","1","","good","[3]"
"html-keyboard-response","219","738795","0.0-11.0-2.0-0.15","4041","1","17","Male","approach_avoid_spark_v1","""event"",""trial"",""time""
""fullscreenenter"",""1"",""2466""
","
","
","""event"",""trial"",""time""
""fullscreenenter"",""1"",""2466""
","
","","","","","","null","<div style=""font-size:60px;"">+</div>","null","","fixation","","","","","","","","","","",""
"aa-learning-trial","220","741807","0.0-11.0-2.0-1.15","4041","1","17","Male","approach_avoid_spark_v1","""event"",""trial"",""time""
""fullscreenenter"",""1"",""2466""
","
","
","""event"",""trial"",""time""
""fullscreenenter"",""1"",""2466""
","
","","","","","","715.2000000476837","images/goat7.png","","","learning","-7","-7","1","1","goat","animals","2","1","","bad","[-6]"
"html-keyboard-response","221","742311","0.0-11.0-2.0-0.16","4041","1","17","Male","approach_avoid_spark_v1","""event"",""trial"",""time""
""fullscreenenter"",""1"",""2466""
","
","
","""event"",""trial"",""time""
""fullscreenenter"",""1"",""2466""
","
","","","","","","null","<div style=""font-size:60px;"">+</div>","null","","fixation","","","","","","","","","","",""
"aa-learning-trial","222","745319","0.0-11.0-2.0-1.16","4041","1","17","Male","approach_avoid_spark_v1","""event"",""trial"",""time""
""fullscreenenter"",""1"",""2466""
","
","
","""event"",""trial"",""time""
""fullscreenenter"",""1"",""2466""
","
","","","","","","1105.8000000715256","images/cow7.png","","","learning","-2","0","0","0","cow","animals","2","1","","good","[3]"
"html-keyboard-response","223","745850","0.0-11.0-2.0-0.17","4041","1","17","Male","approach_avoid_spark_v1","""event"",""trial"",""time""
""fullscreenenter"",""1"",""2466""
","
","
","""event"",""trial"",""time""
""fullscreenenter"",""1"",""2466""
","
","","","","","","null","<div style=""font-size:60px;"">+</div>","null","","fixation","","","","","","","","","","",""
"aa-learning-trial","224","748879","0.0-11.0-2.0-1.17","4041","1","17","Male","approach_avoid_spark_v1","""event"",""trial"",""time""
""fullscreenenter"",""1"",""2466""
","
","
","""event"",""trial"",""time""
""fullscreenenter"",""1"",""2466""
","
","","","","","","449.39999997615814","images/goat8.png","","","learning","1","1","1","1","goat","animals","2","1","","bad","[-6]"
"html-keyboard-response","225","749382","0.0-11.0-2.0-0.18","4041","1","17","Male","approach_avoid_spark_v1","""event"",""trial"",""time""
""fullscreenenter"",""1"",""2466""
","
","
","""event"",""trial"",""time""
""fullscreenenter"",""1"",""2466""
","
","","","","","","null","<div style=""font-size:60px;"">+</div>","null","","fixation","","","","","","","","","","",""
"aa-learning-trial","226","752417","0.0-11.0-2.0-1.18","4041","1","17","Male","approach_avoid_spark_v1","""event"",""trial"",""time""
""fullscreenenter"",""1"",""2466""
","
","
","""event"",""trial"",""time""
""fullscreenenter"",""1"",""2466""
","
","","","","","","761.6000000238419","images/cow1.png","","","learning","-4","-4","1","1","cow","animals","2","1","","good","[3]"
"html-keyboard-response","227","752952","0.0-11.0-2.0-0.19","4041","1","17","Male","approach_avoid_spark_v1","""event"",""trial"",""time""
""fullscreenenter"",""1"",""2466""
","
","
","""event"",""trial"",""time""
""fullscreenenter"",""1"",""2466""
","
","","","","","","null","<div style=""font-size:60px;"">+</div>","null","","fixation","","","","","","","","","","",""
"aa-learning-trial","228","755959","0.0-11.0-2.0-1.19","4041","1","17","Male","approach_avoid_spark_v1","""event"",""trial"",""time""
""fullscreenenter"",""1"",""2466""
","
","
","""event"",""trial"",""time""
""fullscreenenter"",""1"",""2466""
","
","","","","","","896.0999999046326","images/horse1.png","","","learning","-1","0","0","0","horse","animals","2","1","","neutral","0"
"html-keyboard-response","229","756470","0.0-11.0-2.0-0.20","4041","1","17","Male","approach_avoid_spark_v1","""event"",""trial"",""time""
""fullscreenenter"",""1"",""2466""
","
","
","""event"",""trial"",""time""
""fullscreenenter"",""1"",""2466""
","
","","","","","","null","<div style=""font-size:60px;"">+</div>","null","","fixation","","","","","","","","","","",""
"aa-learning-trial","230","759479","0.0-11.0-2.0-1.20","4041","1","17","Male","approach_avoid_spark_v1","""event"",""trial"",""time""
""fullscreenenter"",""1"",""2466""
","
","
","""event"",""trial"",""time""
""fullscreenenter"",""1"",""2466""
","
","","","","","","496.2000000476837","images/goat4.png","","","learning","4","4","1","1","goat","animals","2","1","","bad","[-6]"
"html-keyboard-response","231","760007","0.0-11.0-2.0-0.21","4041","1","17","Male","approach_avoid_spark_v1","""event"",""trial"",""time""
""fullscreenenter"",""1"",""2466""
","
","
","""event"",""trial"",""time""
""fullscreenenter"",""1"",""2466""
","
","","","","","","null","<div style=""font-size:60px;"">+</div>","null","","fixation","","","","","","","","","","",""
"aa-learning-trial","232","763085","0.0-11.0-2.0-1.21","4041","1","17","Male","approach_avoid_spark_v1","""event"",""trial"",""time""
""fullscreenenter"",""1"",""2466""
","
","
","""event"",""trial"",""time""
""fullscreenenter"",""1"",""2466""
","
","","","","","","419.60000002384186","images/goat8.png","","","learning","1","1","1","1","goat","animals","2","1","","bad","[-6]"
"html-keyboard-response","233","763590","0.0-11.0-2.0-0.22","4041","1","17","Male","approach_avoid_spark_v1","""event"",""trial"",""time""
""fullscreenenter"",""1"",""2466""
","
","
","""event"",""trial"",""time""
""fullscreenenter"",""1"",""2466""
","
","","","","","","null","<div style=""font-size:60px;"">+</div>","null","","fixation","","","","","","","","","","",""
"aa-learning-trial","234","766624","0.0-11.0-2.0-1.22","4041","1","17","Male","approach_avoid_spark_v1","""event"",""trial"",""time""
""fullscreenenter"",""1"",""2466""
","
","
","""event"",""trial"",""time""
""fullscreenenter"",""1"",""2466""
","
","","","","","","385.2999999523163","images/goat8.png","","","learning","1","1","1","1","goat","animals","2","1","","bad","[-6]"
"html-keyboard-response","235","767160","0.0-11.0-2.0-0.23","4041","1","17","Male","approach_avoid_spark_v1","""event"",""trial"",""time""
""fullscreenenter"",""1"",""2466""
","
","
","""event"",""trial"",""time""
""fullscreenenter"",""1"",""2466""
","
","","","","","","null","<div style=""font-size:60px;"">+</div>","null","","fixation","","","","","","","","","","",""
"aa-learning-trial","236","770192","0.0-11.0-2.0-1.23","4041","1","17","Male","approach_avoid_spark_v1","""event"",""trial"",""time""
""fullscreenenter"",""1"",""2466""
","
","
","""event"",""trial"",""time""
""fullscreenenter"",""1"",""2466""
","
","","","","","","609.6999999284744","images/horse2.png","","","learning","7","7","1","1","horse","animals","2","1","","neutral","0"
"html-keyboard-response","237","770727","0.0-11.0-2.0-0.24","4041","1","17","Male","approach_avoid_spark_v1","""event"",""trial"",""time""
""fullscreenenter"",""1"",""2466""
","
","
","""event"",""trial"",""time""
""fullscreenenter"",""1"",""2466""
","
","","","","","","null","<div style=""font-size:60px;"">+</div>","null","","fixation","","","","","","","","","","",""
"aa-learning-trial","238","773760","0.0-11.0-2.0-1.24","4041","1","17","Male","approach_avoid_spark_v1","""event"",""trial"",""time""
""fullscreenenter"",""1"",""2466""
","
","
","""event"",""trial"",""time""
