"trial_type","trial_index","time_elapsed","internal_node_id","subject_id","task_condition","age","gender","task_version","interactions","blur_events","focus_events","fullscreenenter_events","fullscreenexit_events","success","timeout","failed_images","failed_audio","failed_video","rt","stimulus","response","button_pressed","task_part","approach_reward","points","key_press","option_selected","stim_cat","task_block","block_condition","block_number","correct","cat_type","mean_cat_reward"
"pavlovia","0","6","0.0-0.0","6417","1","11","Male","approach_avoid_spark_v1","""event"",""trial"",""time""
""fullscreenenter"",""1"",""2253""
","
","
","""event"",""trial"",""time""
""fullscreenenter"",""1"",""2253""
","
","","","","","","","","","","","","","","","","","","","","",""
"fullscreen","1","3108","0.0-1.0","6417","1","11","Male","approach_avoid_spark_v1","""event"",""trial"",""time""
""fullscreenenter"",""1"",""2253""
","
","
","""event"",""trial"",""time""
""fullscreenenter"",""1"",""2253""
","
","true","","","","","","","","","","","","","","","","","","","",""
"preload","2","17532","0.0-2.0","6417","1","11","Male","approach_avoid_spark_v1","""event"",""trial"",""time""
""fullscreenenter"",""1"",""2253""
","
","
","""event"",""trial"",""time""
""fullscreenenter"",""1"",""2253""
","
","true","false","[]","[]","[]","","","","","","","","","","","","","","","",""
"audio-keyboard-response","3","21042","0.0-3.0","6417","1","11","Male","approach_avoid_spark_v1","""event"",""trial"",""time""
""fullscreenenter"",""1"",""2253""
","
","
","""event"",""trial"",""time""
""fullscreenenter"",""1"",""2253""
","
","","","","","","3501.333333333333","audio/beep_loop.wav","m","","","","","","","","","","","","",""
"audio-button-response","4","23227","0.0-4.0","6417","1","11","Male","approach_avoid_spark_v1","""event"",""trial"",""time""
""fullscreenenter"",""1"",""2253""
","
","
","""event"",""trial"",""time""
""fullscreenenter"",""1"",""2253""
","
","","","","","","2179","audio/shark.wav","4","","","","","","","","","","","","",""
"audio-button-response","5","25731","0.0-5.0","6417","1","11","Male","approach_avoid_spark_v1","""event"",""trial"",""time""
""fullscreenenter"",""1"",""2253""
","
","
","""event"",""trial"",""time""
""fullscreenenter"",""1"",""2253""
","
","","","","","","1501","audio/turtle.wav","1","","","","","","","","","","","","",""
"preload","6","34414","0.0-6.0","6417","1","11","Male","approach_avoid_spark_v1","""event"",""trial"",""time""
""fullscreenenter"",""1"",""2253""
","
","
","""event"",""trial"",""time""
""fullscreenenter"",""1"",""2253""
","
","true","false","[]","[]","[]","","","","","","","","","","","","","","","",""
"html-keyboard-response","7","38245","0.0-7.0","6417","1","11","Male","approach_avoid_spark_v1","""event"",""trial"",""time""
""fullscreenenter"",""1"",""2253""
","
","
","""event"",""trial"",""time""
""fullscreenenter"",""1"",""2253""
","
","","","","","","3828.800000011921","Welcome to the experiment. Press any key to begin and to advance the instructions."," ","","","","","","","","","","","","",""
"learning-instructions","8","47548","0.0-8.0-0.0-0.0","6417","1","11","Male","approach_avoid_spark_v1","""event"",""trial"",""time""
""fullscreenenter"",""1"",""2253""
","
","
","""event"",""trial"",""time""
""fullscreenenter"",""1"",""2253""
","
","","","","","","2344.199999988079","<p> Welcome! Today you are going to play 6 different rounds of a decision-making game. </p><p> Use the mouse to click next to continue. </p>","","0","instructions","","","","","","","","","","",""
"learning-instructions","9","51627","0.0-8.0-0.0-0.1","6417","1","11","Male","approach_avoid_spark_v1","""event"",""trial"",""time""
""fullscreenenter"",""1"",""2253""
","
","
","""event"",""trial"",""time""
""fullscreenenter"",""1"",""2253""
","
","","","","","","1353.5","<p> You will start with a practice round to learn the rules. </p>","","0","instructions","","","","","","","","","","",""
"learning-instructions","10","56483","0.0-8.0-0.0-0.2","6417","1","11","Male","approach_avoid_spark_v1","""event"",""trial"",""time""
""fullscreenenter"",""1"",""2253""
","
","
","""event"",""trial"",""time""
""fullscreenenter"",""1"",""2253""
","
","","","","","","1399.7999999821186","<p> Your goal in this round is to give out sports equipment to kids. </p></div>","","0","instructions","","","","","","","","","","",""
"learning-instructions","11","65835","0.0-8.0-0.0-0.3","6417","1","11","Male","approach_avoid_spark_v1","""event"",""trial"",""time""
""fullscreenenter"",""1"",""2253""
","
","
","""event"",""trial"",""time""
""fullscreenenter"",""1"",""2253""
","
","","","","","","1801.199999988079","<p> The kids only like some of the equipment.  </p><p> On each turn, you will see a piece of sports equipment.   </p><p> You need to decide whether to give it to the kids or not.  </p>","","0","instructions","","","","","","","","","","",""
"learning-instructions","12","72074","0.0-8.0-0.0-0.4","6417","1","11","Male","approach_avoid_spark_v1","""event"",""trial"",""time""
""fullscreenenter"",""1"",""2253""
","
","
","""event"",""trial"",""time""
""fullscreenenter"",""1"",""2253""
","
","","","","","","1489.800000011921","<p> You can give them the equipment by pressing 1 and choose not to give it to them by pressing 0. </p><br><div class=""choice-instructions-grid""> <div class=""choice-option""><img src=""images/approach.png"" class=""choice-option-img"" stage=""instructions"" position=""0"" ><div class=""choice-option-text""> Press ""1."" </div></div><div class=""choice-option""><img src=""images/avoid.png"" class=""choice-option-img"" stage=""instructions"" position=""1"" ><div class=""choice-option-text""> Press ""0."" </div></div>","","0","instructions","","","","","","","","","","",""
"learning-instructions","13","82162","0.0-8.0-0.0-0.5","6417","1","11","Male","approach_avoid_spark_v1","""event"",""trial"",""time""
""fullscreenenter"",""1"",""2253""
","
","
","""event"",""trial"",""time""
""fullscreenenter"",""1"",""2253""
","
","","","","","","2689.300000011921","<p> If you give them a piece of equipment they like, they will be happy! </p><p> But if you give them a piece of equipment they do not like, they will be sad. </p>","","0","instructions","","","","","","","","","","",""
"learning-instructions","14","94402","0.0-8.0-0.0-0.6","6417","1","11","Male","approach_avoid_spark_v1","""event"",""trial"",""time""
""fullscreenenter"",""1"",""2253""
","
","
","""event"",""trial"",""time""
""fullscreenenter"",""1"",""2253""
","
","","","","","","1729.699999988079","<p> You will earn points based on how you make kids feel. </p><p> If you make them happy, you will WIN anywhere from 1 - 9 points, </p><p> but if you make them sad, you will LOSE anywhere from 1 - 9 points. </p>","","0","instructions","","","","","","","","","","",""
"learning-instructions","15","105066","0.0-8.0-0.0-0.7","6417","1","11","Male","approach_avoid_spark_v1","""event"",""trial"",""time""
""fullscreenenter"",""1"",""2253""
","
","
","""event"",""trial"",""time""
""fullscreenenter"",""1"",""2253""
","
","","","","","","1113.300000011921","<p> You will see how many points you won or lost in the center of the screen. </p><p> Here is what you would see if you won 6 points: </p><p style=""color:green;font-size:50px;font-weight:bolder"">6</p><p style=""color:green"">The text is GREEN because you WON points.</p>","","0","instructions","","","","","","","","","","",""
"learning-instructions","16","112697","0.0-8.0-0.0-0.8","6417","1","11","Male","approach_avoid_spark_v1","""event"",""trial"",""time""
""fullscreenenter"",""1"",""2253""
","
","
","""event"",""trial"",""time""
""fullscreenenter"",""1"",""2253""
","
","","","","","","2135","<p> And here is what you would see if you lost 4 points: </p><p style=""color:red;font-size:50px;font-weight:bolder"">-4</p><p style=""color:red"">The text is RED because you LOST points. </p>","","0","instructions","","","","","","","","","","",""
"learning-instructions","17","131394","0.0-8.0-0.0-0.9","6417","1","11","Male","approach_avoid_spark_v1","""event"",""trial"",""time""
""fullscreenenter"",""1"",""2253""
","
","
","""event"",""trial"",""time""
""fullscreenenter"",""1"",""2253""
","
","","","","","","3990.5","<p> Some of the equipment will make the kids VERY happy or sad. </p><p> These pieces of equipment will make you win or lose LOTS of points. </p><p> Other pieces of equipment will only make the kids a little happy or sad. </p><p> These pieces of equipment will make you win or lose small amounts of points. </p>","","0","instructions","","","","","","","","","","",""
"learning-instructions","18","142481","0.0-8.0-0.0-0.10","6417","1","11","Male","approach_avoid_spark_v1","""event"",""trial"",""time""
""fullscreenenter"",""1"",""2253""
","
","
","""event"",""trial"",""time""
""fullscreenenter"",""1"",""2253""
","
","","","","","","448.80000001192093","<p> If you choose not to give them the equipment, you will not win or lose any points. </p><p>  However, in the center of the screen, you will see the number of points you WOULD HAVE won or lost if you had given them the equipment. </p>","","0","instructions","","","","","","","","","","",""
"learning-instructions","19","165801","0.0-8.0-0.0-0.11","6417","1","11","Male","approach_avoid_spark_v1","""event"",""trial"",""time""
""fullscreenenter"",""1"",""2253""
","
","
","""event"",""trial"",""time""
""fullscreenenter"",""1"",""2253""
","
","","","","","","1769.4000000059605","<p> Here is what you might see if you did not give the equipment to the kids but it would have made them happy: </p><p style=""color:grey; font-size:50px; display: inline-block; border-spacing: 15px; border-width:3px; border-style:solid; border-color:red"">  &nbsp; 7 &nbsp; </p><p> Remember, in this case, you would not win or lose ANY points because you did not give them the equipment.  </p><p style=""color:grey"">The text is GREY because you earned ZERO points. </p><p style=""color:red"">However, choosing to give the kids the equipment would have made you win points. The box around the text is RED because you chose the worse option. </p>","","0","instructions","","","","","","","","","","",""
"learning-instructions","20","189305","0.0-8.0-0.0-0.12","6417","1","11","Male","approach_avoid_spark_v1","""event"",""trial"",""time""
""fullscreenenter"",""1"",""2253""
","
","
","""event"",""trial"",""time""
""fullscreenenter"",""1"",""2253""
","
","","","","","","2423.100000023842","<p> Here is what you might see if you did not give the equipment to the kids but it would have made them sad: </p><p style=""color:grey;font-size:50px; display: inline-block; border-spacing: 15px; border-width:3px; border-style:solid; border-color:green"">  &nbsp; -8 &nbsp; </p><p> Remember, in this case, you would not win or lose ANY points because you did not give them the equipment.  </p><p style=""color:grey"">The text is GREY because you earned ZERO points. </p><p  style=""color:green""> Choosing to give the kids the equipment would have made you lose points. The box around the text is GREEN because you chose the better option.</p>","","0","instructions","","","","","","","","","","",""
"learning-instructions","21","206760","0.0-8.0-0.0-0.13","6417","1","11","Male","approach_avoid_spark_v1","""event"",""trial"",""time""
""fullscreenenter"",""1"",""2253""
","
","
","""event"",""trial"",""time""
""fullscreenenter"",""1"",""2253""
","
","","","","","","7939.0999999940395","<p> You will have 3 seconds to make each choice. Try to respond before time runs out! </p><p> You will lose 5 points each time you do not make a response. </p>","","0","instructions","","","","","","","","","","",""
"learning-instructions","22","214017","0.0-8.0-0.0-0.14","6417","1","11","Male","approach_avoid_spark_v1","""event"",""trial"",""time""
""fullscreenenter"",""1"",""2253""
","
","
","""event"",""trial"",""time""
""fullscreenenter"",""1"",""2253""
","
","","","","","","1835.5","<p> This is just a practice round, but in the real game, your bonus payment will depend on your total number of points.","","0","instructions","","","","","","","","","","",""
"learning-instructions","23","224328","0.0-8.0-0.0-0.15","6417","1","11","Male","approach_avoid_spark_v1","""event"",""trial"",""time""
""fullscreenenter"",""1"",""2253""
","
","
","""event"",""trial"",""time""
""fullscreenenter"",""1"",""2253""
","
","","","","","","4536.600000023842","<p> Remember, you can give them the equipment by pressing 1 and choose not to give it to them by pressing 0. </p><br><div class=""choice-instructions-grid""> <div class=""choice-option""><img src=""images/approach.png"" class=""choice-option-img"" stage=""instructions"" position=""0"" ><div class=""choice-option-text""> Press ""1."" </div></div><div class=""choice-option""><img src=""images/avoid.png"" class=""choice-option-img"" stage=""instructions"" position=""1"" ><div class=""choice-option-text""> Press ""0."" </div></div>","","0","instructions","","","","","","","","","","",""
"html-button-response","24","226288","0.0-8.0-1.0","6417","1","11","Male","approach_avoid_spark_v1","""event"",""trial"",""time""
""fullscreenenter"",""1"",""2253""
","
","
","""event"",""trial"",""time""
""fullscreenenter"",""1"",""2253""
","
","","","","","","1856.5999999940395","<p> Ready to practice? </p>","0","","","","","","","","","","","","",""
"html-keyboard-response","25","226910","0.0-8.0-2.0-0.0","6417","1","11","Male","approach_avoid_spark_v1","""event"",""trial"",""time""
""fullscreenenter"",""1"",""2253""
","
","
","""event"",""trial"",""time""
""fullscreenenter"",""1"",""2253""
","
","","","","","","null","<div style=""font-size:60px;"">+</div>","null","","fixation","","","","","","","","","","",""
"aa-learning-trial","26","229920","0.0-8.0-2.0-1.0","6417","1","11","Male","approach_avoid_spark_v1","""event"",""trial"",""time""
""fullscreenenter"",""1"",""2253""
","
","
","""event"",""trial"",""time""
""fullscreenenter"",""1"",""2253""
","
","","","","","","2250.800000011921","images/ball3.png","","","learning","-4","-4","1","1","practice","practice","practice","-1","","",""
"html-keyboard-response","27","230430","0.0-8.0-2.0-0.1","6417","1","11","Male","approach_avoid_spark_v1","""event"",""trial"",""time""
""fullscreenenter"",""1"",""2253""
","
","
","""event"",""trial"",""time""
""fullscreenenter"",""1"",""2253""
","
","","","","","","null","<div style=""font-size:60px;"">+</div>","null","","fixation","","","","","","","","","","",""
"aa-learning-trial","28","233450","0.0-8.0-2.0-1.1","6417","1","11","Male","approach_avoid_spark_v1","""event"",""trial"",""time""
""fullscreenenter"",""1"",""2253""
","
","
","""event"",""trial"",""time""
""fullscreenenter"",""1"",""2253""
","
","","","","","","762.3000000119209","images/ball4.png","","","learning","5","5","1","1","practice","practice","practice","-1","","",""
"html-keyboard-response","29","233959","0.0-8.0-2.0-0.2","6417","1","11","Male","approach_avoid_spark_v1","""event"",""trial"",""time""
""fullscreenenter"",""1"",""2253""
","
","
","""event"",""trial"",""time""
""fullscreenenter"",""1"",""2253""
","
","","","","","","null","<div style=""font-size:60px;"">+</div>","null","","fixation","","","","","","","","","","",""
"aa-learning-trial","30","236978","0.0-8.0-2.0-1.2","6417","1","11","Male","approach_avoid_spark_v1","""event"",""trial"",""time""
""fullscreenenter"",""1"",""2253""
","
","
","""event"",""trial"",""time""
""fullscreenenter"",""1"",""2253""
","
","","","","","","1489.2999999821186","images/ball2.png","","","learning","8","0","0","0","practice","practice","practice","-1","","",""
"html-keyboard-response","31","237490","0.0-8.0-2.0-0.3","6417","1","11","Male","approach_avoid_spark_v1","""event"",""trial"",""time""
""fullscreenenter"",""1"",""2253""
","
","
","""event"",""trial"",""time""
""fullscreenenter"",""1"",""2253""
","
","","","","","","null","<div style=""font-size:60px;"">+</div>","null","","fixation","","","","","","","","","","",""
"aa-learning-trial","32","240500","0.0-8.0-2.0-1.3","6417","1","11","Male","approach_avoid_spark_v1","""event"",""trial"",""time""
""fullscreenenter"",""1"",""2253""
","
","
","""event"",""trial"",""time""
""fullscreenenter"",""1"",""2253""
","
","","","","","","2334.7999999821186","images/racket4.png","","","learning","6","-5","p","","practice","practice","practice","-1","","",""
"html-keyboard-response","33","241019","0.0-8.0-2.0-0.4","6417","1","11","Male","approach_avoid_spark_v1","""event"",""trial"",""time""
""fullscreenenter"",""1"",""2253""
","
","
","""event"",""trial"",""time""
""fullscreenenter"",""1"",""2253""
","
","","","","","","null","<div style=""font-size:60px;"">+</div>","null","","fixation","","","","","","","","","","",""
"aa-learning-trial","34","244039","0.0-8.0-2.0-1.4","6417","1","11","Male","approach_avoid_spark_v1","""event"",""trial"",""time""
""fullscreenenter"",""1"",""2253""
","
","
","""event"",""trial"",""time""
""fullscreenenter"",""1"",""2253""
","
","","","","","","1245.199999988079","images/racket2.png","","","learning","9","9","1","1","practice","practice","practice","-1","","",""
"html-keyboard-response","35","244549","0.0-8.0-2.0-0.5","6417","1","11","Male","approach_avoid_spark_v1","""event"",""trial"",""time""
""fullscreenenter"",""1"",""2253""
","
","
","""event"",""trial"",""time""
""fullscreenenter"",""1"",""2253""
","
","","","","","","null","<div style=""font-size:60px;"">+</div>","null","","fixation","","","","","","","","","","",""
"aa-learning-trial","36","247569","0.0-8.0-2.0-1.5","6417","1","11","Male","approach_avoid_spark_v1","""event"",""trial"",""time""
""fullscreenenter"",""1"",""2253""
","
","
","""event"",""trial"",""time""
""fullscreenenter"",""1"",""2253""
","
","","","","","","440.7000000178814","images/ball4.png","","","learning","-8","-5","p","","practice","practice","practice","-1","","",""
"html-keyboard-response","37","248079","0.0-8.0-2.0-0.6","6417","1","11","Male","approach_avoid_spark_v1","""event"",""trial"",""time""
""fullscreenenter"",""1"",""2253""
","
","
","""event"",""trial"",""time""
""fullscreenenter"",""1"",""2253""
","
","","","","","","null","<div style=""font-size:60px;"">+</div>","null","","fixation","","","","","","","","","","",""
"aa-learning-trial","38","251084","0.0-8.0-2.0-1.6","6417","1","11","Male","approach_avoid_spark_v1","""event"",""trial"",""time""
""fullscreenenter"",""1"",""2253""
","
","
","""event"",""trial"",""time""
""fullscreenenter"",""1"",""2253""
","
","","","","","","330.30000001192093","images/ball4.png","","","learning","2","2","1","1","practice","practice","practice","-1","","",""
"html-keyboard-response","39","251586","0.0-8.0-2.0-0.7","6417","1","11","Male","approach_avoid_spark_v1","""event"",""trial"",""time""
""fullscreenenter"",""1"",""2253""
","
","
","""event"",""trial"",""time""
""fullscreenenter"",""1"",""2253""
","
","","","","","","null","<div style=""font-size:60px;"">+</div>","null","","fixation","","","","","","","","","","",""
"aa-learning-trial","40","254591","0.0-8.0-2.0-1.7","6417","1","11","Male","approach_avoid_spark_v1","""event"",""trial"",""time""
""fullscreenenter"",""1"",""2253""
","
","
","""event"",""trial"",""time""
""fullscreenenter"",""1"",""2253""
","
","","","","","","568.8000000119209","images/ball2.png","","","learning","-2","-2","1","1","practice","practice","practice","-1","","",""
"html-keyboard-response","41","255093","0.0-8.0-2.0-0.8","6417","1","11","Male","approach_avoid_spark_v1","""event"",""trial"",""time""
""fullscreenenter"",""1"",""2253""
","
","
","""event"",""trial"",""time""
""fullscreenenter"",""1"",""2253""
","
","","","","","","null","<div style=""font-size:60px;"">+</div>","null","","fixation","","","","","","","","","","",""
"aa-learning-trial","42","258101","0.0-8.0-2.0-1.8","6417","1","11","Male","approach_avoid_spark_v1","""event"",""trial"",""time""
""fullscreenenter"",""1"",""2253""
","
","
","""event"",""trial"",""time""
""fullscreenenter"",""1"",""2253""
","
","","","","","","620.2000000178814","images/racket1.png","","","learning","5","5","1","1","practice","practice","practice","-1","","",""
"html-keyboard-response","43","258603","0.0-8.0-2.0-0.9","6417","1","11","Male","approach_avoid_spark_v1","""event"",""trial"",""time""
""fullscreenenter"",""1"",""2253""
","
","
","""event"",""trial"",""time""
""fullscreenenter"",""1"",""2253""
","
","","","","","","null","<div style=""font-size:60px;"">+</div>","null","","fixation","","","","","","","","","","",""
"aa-learning-trial","44","261607","0.0-8.0-2.0-1.9","6417","1","11","Male","approach_avoid_spark_v1","""event"",""trial"",""time""
""fullscreenenter"",""1"",""2253""
","
","
","""event"",""trial"",""time""
""fullscreenenter"",""1"",""2253""
","
","","","","","","127.7999999821186","images/ball3.png","","","learning","1","0","0","0","practice","practice","practice","-1","","",""
"html-keyboard-response","45","262109","0.0-8.0-2.0-0.10","6417","1","11","Male","approach_avoid_spark_v1","""event"",""trial"",""time""
""fullscreenenter"",""1"",""2253""
","
","
","""event"",""trial"",""time""
""fullscreenenter"",""1"",""2253""
","
","","","","","","null","<div style=""font-size:60px;"">+</div>","null","","fixation","","","","","","","","","","",""
"aa-learning-trial","46","265113","0.0-8.0-2.0-1.10","6417","1","11","Male","approach_avoid_spark_v1","""event"",""trial"",""time""
""fullscreenenter"",""1"",""2253""
","
","
","""event"",""trial"",""time""
""fullscreenenter"",""1"",""2253""
","
","","","","","","32.5","images/ball3.png","","","learning","-1","-1","1","1","practice","practice","practice","-1","","",""
"html-keyboard-response","47","265616","0.0-8.0-2.0-0.11","6417","1","11","Male","approach_avoid_spark_v1","""event"",""trial"",""time""
""fullscreenenter"",""1"",""2253""
","
","
","""event"",""trial"",""time""
""fullscreenenter"",""1"",""2253""
","
","","","","","","null","<div style=""font-size:60px;"">+</div>","null","","fixation","","","","","","","","","","",""
"aa-learning-trial","48","268621","0.0-8.0-2.0-1.11","6417","1","11","Male","approach_avoid_spark_v1","""event"",""trial"",""time""
""fullscreenenter"",""1"",""2253""
","
","
","""event"",""trial"",""time""
""fullscreenenter"",""1"",""2253""
","
","","","","","","133.90000000596046","images/ball1.png","","","learning","7","0","0","0","practice","practice","practice","-1","","",""
"html-button-response","49","272288","0.0-8.0-3.0","6417","1","11","Male","approach_avoid_spark_v1","""event"",""trial"",""time""
""fullscreenenter"",""1"",""2253""
","
","
","""event"",""trial"",""time""
""fullscreenenter"",""1"",""2253""
","
","","","","","","3663.7000000178814","<p> You earned 4 points in the practice round! </p>","0","","break","","","","","","","","","","",""
"learning-instructions","50","282160","0.0-8.0-4.0-0.0","6417","1","11","Male","approach_avoid_spark_v1","""event"",""trial"",""time""
""fullscreenenter"",""1"",""2253""
","
","
","""event"",""trial"",""time""
""fullscreenenter"",""1"",""2253""
","
","","","","","","3884.2000000178814","<p> It's almost time to start the real game. </p><p> Before you start, we're going to ask you a few questions about how the game works. </p>","","0","instructions","","","","","","","","","","",""
"preload","51","285134","0.0-8.0-5.0","6417","1","11","Male","approach_avoid_spark_v1","""event"",""trial"",""time""
""fullscreenenter"",""1"",""2253""
","
","
","""event"",""trial"",""time""
""fullscreenenter"",""1"",""2253""
","
","true","false","[]","[]","[]","","","","","","","","","","","","","","","",""
"comp-q","52","292056","0.0-8.0-6.0-0.0","6417","1","11","Male","approach_avoid_spark_v1","""event"",""trial"",""time""
""fullscreenenter"",""1"",""2253""
","
","
","""event"",""trial"",""time""
""fullscreenenter"",""1"",""2253""
","
","","","","","","1920.0999999940395","<p> <b> True or False? </b> </p><p> If you see a number in GREY, that means you earned that many points. </p>","","0","comp_question","","","","","","","","","false","",""
"comp-q","53","302927","0.0-8.0-6.0-1.0","6417","1","11","Male","approach_avoid_spark_v1","""event"",""trial"",""time""
""fullscreenenter"",""1"",""2253""
","
","
","""event"",""trial"",""time""
""fullscreenenter"",""1"",""2253""
","
","","","","","","2062.5","<p><b> Incorrect. </b> If you see a grey number, it means you earned ZERO points. <br> The grey numbers show the points you WOULD HAVE earned if you had made the other choice. </p>","","0","comp_answer","","","","","","","","","","",""
"comp-q","54","308712","0.0-8.0-6.1-0.1","6417","1","11","Male","approach_avoid_spark_v1","""event"",""trial"",""time""
""fullscreenenter"",""1"",""2253""
","
","
","""event"",""trial"",""time""
""fullscreenenter"",""1"",""2253""
","
","","","","","","676.7999999821186","<p> <b> True or False? </b> </p><p> If you see a number in GREY, that means you earned that many points. </p>","","1","comp_question","","","","","","","","","true","",""
"comp-q","55","318007","0.0-8.0-6.1-1.1","6417","1","11","Male","approach_avoid_spark_v1","""event"",""trial"",""time""
""fullscreenenter"",""1"",""2253""
","
","
","""event"",""trial"",""time""
""fullscreenenter"",""1"",""2253""
","
","","","","","","932.6999999880791","<p><b> That's right! </b> If you see a grey number, it means you earned ZERO points. <br> The grey numbers show the points you WOULD HAVE earned if you had made the other choice. </p>","","0","comp_answer","","","","","","","","","","",""
"comp-q","56","323631","0.0-8.0-7.0-0.0","6417","1","11","Male","approach_avoid_spark_v1","""event"",""trial"",""time""
""fullscreenenter"",""1"",""2253""
","
","
","""event"",""trial"",""time""
""fullscreenenter"",""1"",""2253""
","
","","","","","","936.0999999940395","<p> <b> True or False? </b> </p><p> You will have as much time as you want to make each choice. </p>","","1","comp_question","","","","","","","","","true","",""
"comp-q","57","329695","0.0-8.0-7.0-1.0","6417","1","11","Male","approach_avoid_spark_v1","""event"",""trial"",""time""
""fullscreenenter"",""1"",""2253""
","
","
","""event"",""trial"",""time""
""fullscreenenter"",""1"",""2253""
","
","","","","","","2030.800000011921","<p> <b> That's right! </b> You will only have 3 seconds to make each choice. </p>","","0","comp_answer","","","","","","","","","","",""
"comp-q","58","335247","0.0-8.0-8.0-0.0","6417","1","11","Male","approach_avoid_spark_v1","""event"",""trial"",""time""
""fullscreenenter"",""1"",""2253""
","
","
","""event"",""trial"",""time""
""fullscreenenter"",""1"",""2253""
","
","","","","","","872.5","<p> <b> True or False? </b> </p><p> You should use the '1' and '0' keys to make your choices. </p>","","0","comp_question","","","","","","","","","true","",""
"comp-q","59","341607","0.0-8.0-8.0-1.0","6417","1","11","Male","approach_avoid_spark_v1","""event"",""trial"",""time""
""fullscreenenter"",""1"",""2253""
","
","
","""event"",""trial"",""time""
""fullscreenenter"",""1"",""2253""
","
","","","","","","1742.5","<p> <b> That's right! </b> You should use the '1' and '0' keys to make each choice. </p>","","0","comp_answer","","","","","","","","","","",""
"learning-instructions","60","419206","0.0-8.0-9.0-0.0","6417","1","11","Male","approach_avoid_spark_v1","""event"",""trial"",""time""
""fullscreenenter"",""1"",""2253""
","
","
","""event"",""trial"",""time""
""fullscreenenter"",""1"",""2253""
","
","","","","","","71331.40000000596","<p> It's now time to start the real game. </p>Do your best, because the points you earn in the next rounds will influence your bonus payment. </p>","","0","instructions","","","","","","","","","","",""
"preload","61","419358","0.0-9.0-0.0","6417","1","11","Male","approach_avoid_spark_v1","""event"",""trial"",""time""
""fullscreenenter"",""1"",""2253""
","
","
","""event"",""trial"",""time""
""fullscreenenter"",""1"",""2253""
","
","true","false","[]","[]","[]","","","","","","","","","","","","","","","",""
"learning-instructions","62","426598","0.0-9.0-1.0-0.0","6417","1","11","Male","approach_avoid_spark_v1","""event"",""trial"",""time""
""fullscreenenter"",""1"",""2253""
","
","
","""event"",""trial"",""time""
""fullscreenenter"",""1"",""2253""
","
","","","","","","2083","<p> Your goal in this round is to decorate your friend's new house with furniture. </p></div>","","0","instructions","","","","","","","","","","",""
"learning-instructions","63","438534","0.0-9.0-1.0-0.1","6417","1","11","Male","approach_avoid_spark_v1","""event"",""trial"",""time""
""fullscreenenter"",""1"",""2253""
","
","
","""event"",""trial"",""time""
""fullscreenenter"",""1"",""2253""
","
","","","","","","1858.7999999821186","<p> Your friend likes some pieces of furniture but not others.  </p><p> On each turn, you will see a piece of furniture.   </p><p> You need to decide whether to put it in your friend's house or not.  </p>","","0","instructions","","","","","","","","","","",""
"learning-instructions","64","447006","0.0-9.0-1.0-0.2","6417","1","11","Male","approach_avoid_spark_v1","""event"",""trial"",""time""
""fullscreenenter"",""1"",""2253""
","
","
","""event"",""trial"",""time""
""fullscreenenter"",""1"",""2253""
","
","","","","","","2840.0999999940395","<p> You can put the furniture in her house by pressing 1 and deliver it elsewhere by pressing 0. </p><br><div class=""choice-instructions-grid""> <div class=""choice-option""><img src=""images/approach.png"" class=""choice-option-img"" stage=""instructions"" position=""0"" ><div class=""choice-option-text""> Press ""1."" </div></div><div class=""choice-option""><img src=""images/avoid.png"" class=""choice-option-img"" stage=""instructions"" position=""1"" ><div class=""choice-option-text""> Press ""0."" </div></div>","","0","instructions","","","","","","","","","","",""
"learning-instructions","65","457462","0.0-9.0-1.0-0.3","6417","1","11","Male","approach_avoid_spark_v1","""event"",""trial"",""time""
""fullscreenenter"",""1"",""2253""
","
","
","""event"",""trial"",""time""
""fullscreenenter"",""1"",""2253""
","
","","","","","","1667.2000000178814","<p> If you decorate your friend's house with furniture she likes, she will be happy! </p><p> But if you give her furniture that she does not like, she will be annoyed. </p>","","0","instructions","","","","","","","","","","",""
"learning-instructions","66","470965","0.0-9.0-1.0-0.4","6417","1","11","Male","approach_avoid_spark_v1","""event"",""trial"",""time""
""fullscreenenter"",""1"",""2253""
","
","
","""event"",""trial"",""time""
""fullscreenenter"",""1"",""2253""
","
","","","","","","1040.7000000178814","<p> You will earn points based on how you made your friend feel. </p><p> If you made her happy, you will WIN anywhere from 1 - 9 points, </p><p> but if you made her annoyed you will LOSE anywhere from 1 - 9 points. </p>","","0","instructions","","","","","","","","","","",""
"learning-instructions","67","481797","0.0-9.0-1.0-0.5","6417","1","11","Male","approach_avoid_spark_v1","""event"",""trial"",""time""
""fullscreenenter"",""1"",""2253""
","
","
","""event"",""trial"",""time""
""fullscreenenter"",""1"",""2253""
","
","","","","","","3303","<p> You will see how many points you won or lost in the center of the screen. </p><p> Here is what you would see if you won 5 points: </p><p style=""color:green;font-size:50px;font-weight:bolder"">5</p>","","0","instructions","","","","","","","","","","",""
"learning-instructions","68","492501","0.0-9.0-1.0-0.6","6417","1","11","Male","approach_avoid_spark_v1","""event"",""trial"",""time""
""fullscreenenter"",""1"",""2253""
","
","
","""event"",""trial"",""time""
""fullscreenenter"",""1"",""2253""
","
","","","","","","7267","<p> And here is what you would see if you lost 3 points: </p><p style=""color:red;font-size:50px;font-weight:bolder"">-3</p>","","0","instructions","","","","","","","","","","",""
"learning-instructions","69","515493","0.0-9.0-1.0-0.7","6417","1","11","Male","approach_avoid_spark_v1","""event"",""trial"",""time""
""fullscreenenter"",""1"",""2253""
","
","
","""event"",""trial"",""time""
""fullscreenenter"",""1"",""2253""
","
","","","","","","5589.300000011921","<p> Some pieces of furniture will make her feel very happy or very annoyed. </p><p> These pieces of furniture will make you win or lose LOTS of points. </p><p> Other pieces of furniture will only make her feel a little happy or a little annoyed. </p><p> These pieces of furniture will make you win or lose small amounts of points. </p>","","0","instructions","","","","","","","","","","",""
"learning-instructions","70","536324","0.0-9.0-1.0-0.8","6417","1","11","Male","approach_avoid_spark_v1","""event"",""trial"",""time""
""fullscreenenter"",""1"",""2253""
","
","
","""event"",""trial"",""time""
""fullscreenenter"",""1"",""2253""
","
","","","","","","8041.199999988079","<p> If you choose to deliver a piece of furniture elsewhere, you will not win or lose any points. </p><p>  However, in the center of the screen, you will see the number of points you WOULD HAVE won or lost if you had given the furniture to your friend. </p>","","0","instructions","","","","","","","","","","",""
"learning-instructions","71","551340","0.0-9.0-1.0-0.9","6417","1","11","Male","approach_avoid_spark_v1","""event"",""trial"",""time""
""fullscreenenter"",""1"",""2253""
","
","
","""event"",""trial"",""time""
""fullscreenenter"",""1"",""2253""
","
","","","","","","3546.699999988079","<p> Here is what you might see if you did not give a piece of furniture to your friend that would have made her happy: </p><p style=""color:grey; font-size:50px; display: inline-block; border-spacing: 15px; border-width:3px; border-style:solid; border-color:red"">  &nbsp; 6 &nbsp; </p><p> Remember, in this case, you would not win or lose ANY points because you did not give her the furniture.  </p>","","0","instructions","","","","","","","","","","",""
"learning-instructions","72","563124","0.0-9.0-1.0-0.10","6417","1","11","Male","approach_avoid_spark_v1","""event"",""trial"",""time""
""fullscreenenter"",""1"",""2253""
","
","
","""event"",""trial"",""time""
""fullscreenenter"",""1"",""2253""
","
","","","","","","4311.4000000059605","<p> Try to make the best choice for each piece of furniture because </p><p> at the end of the game, you will earn bonus money based on how many points you earned. </p>","","0","instructions","","","","","","","","","","",""
"learning-instructions","73","573460","0.0-9.0-1.0-0.11","6417","1","11","Male","approach_avoid_spark_v1","""event"",""trial"",""time""
""fullscreenenter"",""1"",""2253""
","
","
","""event"",""trial"",""time""
""fullscreenenter"",""1"",""2253""
","
","","","","","","2136.699999988079","<p> You will have 3 seconds to make each choice. Try to respond before time runs out! </p><p> You will lose 5 points each time you do not make a response. </p>","","0","instructions","","","","","","","","","","",""
"html-keyboard-response","74","574062","0.0-9.0-2.0-0.0","6417","1","11","Male","approach_avoid_spark_v1","""event"",""trial"",""time""
""fullscreenenter"",""1"",""2253""
","
","
","""event"",""trial"",""time""
""fullscreenenter"",""1"",""2253""
","
","","","","","","null","<div style=""font-size:60px;"">+</div>","null","","fixation","","","","","","","","","","",""
"aa-learning-trial","75","577069","0.0-9.0-2.0-1.0","6417","1","11","Male","approach_avoid_spark_v1","""event"",""trial"",""time""
""fullscreenenter"",""1"",""2253""
","
","
","""event"",""trial"",""time""
""fullscreenenter"",""1"",""2253""
","
","","","","","","1676.0999999940395","images/bed1.png","","","learning","3","3","1","1","bed","furniture","1","0","","good","[3]"
"html-keyboard-response","76","577571","0.0-9.0-2.0-0.1","6417","1","11","Male","approach_avoid_spark_v1","""event"",""trial"",""time""
""fullscreenenter"",""1"",""2253""
","
","
","""event"",""trial"",""time""
""fullscreenenter"",""1"",""2253""
","
","","","","","","null","<div style=""font-size:60px;"">+</div>","null","","fixation","","","","","","","","","","",""
"aa-learning-trial","77","580583","0.0-9.0-2.0-1.1","6417","1","11","Male","approach_avoid_spark_v1","""event"",""trial"",""time""
""fullscreenenter"",""1"",""2253""
","
","
","""event"",""trial"",""time""
""fullscreenenter"",""1"",""2253""
","
","","","","","","1009.7000000178814","images/sofa8.png","","","learning","-1","-1","1","1","sofa","furniture","1","0","","neutral","0"
"html-keyboard-response","78","581091","0.0-9.0-2.0-0.2","6417","1","11","Male","approach_avoid_spark_v1","""event"",""trial"",""time""
""fullscreenenter"",""1"",""2253""
","
","
","""event"",""trial"",""time""
""fullscreenenter"",""1"",""2253""
","
","","","","","","null","<div style=""font-size:60px;"">+</div>","null","","fixation","","","","","","","","","","",""
"aa-learning-trial","79","584112","0.0-9.0-2.0-1.2","6417","1","11","Male","approach_avoid_spark_v1","""event"",""trial"",""time""
""fullscreenenter"",""1"",""2253""
","
","
","""event"",""trial"",""time""
""fullscreenenter"",""1"",""2253""
","
","","","","","","1650.5","images/table6.png","","","learning","-5","0","0","0","table","furniture","1","0","","bad","[-5]"
"html-keyboard-response","80","584621","0.0-9.0-2.0-0.3","6417","1","11","Male","approach_avoid_spark_v1","""event"",""trial"",""time""
""fullscreenenter"",""1"",""2253""
","
","
","""event"",""trial"",""time""
""fullscreenenter"",""1"",""2253""
","
","","","","","","null","<div style=""font-size:60px;"">+</div>","null","","fixation","","","","","","","","","","",""
"aa-learning-trial","81","587632","0.0-9.0-2.0-1.3","6417","1","11","Male","approach_avoid_spark_v1","""event"",""trial"",""time""
""fullscreenenter"",""1"",""2253""
","
","
","""event"",""trial"",""time""
""fullscreenenter"",""1"",""2253""
","
","","","","","","15.199999988079071","images/bed3.png","","","learning","3","-5","-","","bed","furniture","1","0","","good","[3]"
"html-keyboard-response","82","588152","0.0-9.0-2.0-0.4","6417","1","11","Male","approach_avoid_spark_v1","""event"",""trial"",""time""
""fullscreenenter"",""1"",""2253""
","
","
","""event"",""trial"",""time""
""fullscreenenter"",""1"",""2253""
","
","","","","","","null","<div style=""font-size:60px;"">+</div>","null","","fixation","","","","","","","","","","",""
"aa-learning-trial","83","591172","0.0-9.0-2.0-1.4","6417","1","11","Male","approach_avoid_spark_v1","""event"",""trial"",""time""
""fullscreenenter"",""1"",""2253""
","
","
","""event"",""trial"",""time""
""fullscreenenter"",""1"",""2253""
","
","","","","","","1159.800000011921","images/table5.png","","","learning","-5","-5","1","1","table","furniture","1","0","","bad","[-5]"
"html-keyboard-response","84","591674","0.0-9.0-2.0-0.5","6417","1","11","Male","approach_avoid_spark_v1","""event"",""trial"",""time""
""fullscreenenter"",""1"",""2253""
","
","
","""event"",""trial"",""time""
""fullscreenenter"",""1"",""2253""
","
","","","","","","null","<div style=""font-size:60px;"">+</div>","null","","fixation","","","","","","","","","","",""
"aa-learning-trial","85","594682","0.0-9.0-2.0-1.5","6417","1","11","Male","approach_avoid_spark_v1","""event"",""trial"",""time""
""fullscreenenter"",""1"",""2253""
","
","
","""event"",""trial"",""time""
""fullscreenenter"",""1"",""2253""
","
","","","","","","894.5","images/sofa3.png","","","learning","1","1","1","1","sofa","furniture","1","0","","neutral","0"
"html-keyboard-response","86","595192","0.0-9.0-2.0-0.6","6417","1","11","Male","approach_avoid_spark_v1","""event"",""trial"",""time""
""fullscreenenter"",""1"",""2253""
","
","
","""event"",""trial"",""time""
""fullscreenenter"",""1"",""2253""
","
","","","","","","null","<div style=""font-size:60px;"">+</div>","null","","fixation","","","","","","","","","","",""
"aa-learning-trial","87","598211","0.0-9.0-2.0-1.6","6417","1","11","Male","approach_avoid_spark_v1","""event"",""trial"",""time""
""fullscreenenter"",""1"",""2253""
","
","
","""event"",""trial"",""time""
""fullscreenenter"",""1"",""2253""
","
","","","","","","1123.699999988079","images/table1.png","","","learning","-6","0","0","0","table","furniture","1","0","","bad","[-5]"
"html-keyboard-response","88","598721","0.0-9.0-2.0-0.7","6417","1","11","Male","approach_avoid_spark_v1","""event"",""trial"",""time""
""fullscreenenter"",""1"",""2253""
","
","
","""event"",""trial"",""time""
""fullscreenenter"",""1"",""2253""
","
","","","","","","null","<div style=""font-size:60px;"">+</div>","null","","fixation","","","","","","","","","","",""
"aa-learning-trial","89","601726","0.0-9.0-2.0-1.7","6417","1","11","Male","approach_avoid_spark_v1","""event"",""trial"",""time""
""fullscreenenter"",""1"",""2253""
","
","
","""event"",""trial"",""time""
""fullscreenenter"",""1"",""2253""
","
","","","","","","1124.2999999821186","images/sofa8.png","","","learning","-1","0","0","0","sofa","furniture","1","0","","neutral","0"
"html-keyboard-response","90","602228","0.0-9.0-2.0-0.8","6417","1","11","Male","approach_avoid_spark_v1","""event"",""trial"",""time""
""fullscreenenter"",""1"",""2253""
","
","
","""event"",""trial"",""time""
""fullscreenenter"",""1"",""2253""
","
","","","","","","null","<div style=""font-size:60px;"">+</div>","null","","fixation","","","","","","","","","","",""
"aa-learning-trial","91","605233","0.0-9.0-2.0-1.8","6417","1","11","Male","approach_avoid_spark_v1","""event"",""trial"",""time""
""fullscreenenter"",""1"",""2253""
","
","
","""event"",""trial"",""time""
""fullscreenenter"",""1"",""2253""
","
","","","","","","2933.199999988079","images/sofa5.png","","","learning","1","1","1","1","sofa","furniture","1","0","","neutral","0"
"html-keyboard-response","92","605735","0.0-9.0-2.0-0.9","6417","1","11","Male","approach_avoid_spark_v1","""event"",""trial"",""time""
""fullscreenenter"",""1"",""2253""
","
","
","""event"",""trial"",""time""
""fullscreenenter"",""1"",""2253""
","
","","","","","","null","<div style=""font-size:60px;"">+</div>","null","","fixation","","","","","","","","","","",""
"aa-learning-trial","93","608739","0.0-9.0-2.0-1.9","6417","1","11","Male","approach_avoid_spark_v1","""event"",""trial"",""time""
""fullscreenenter"",""1"",""2253""
","
","
","""event"",""trial"",""time""
""fullscreenenter"",""1"",""2253""
","
","","","","","","null","images/table1.png","","","learning","-8","-5","","null","table","furniture","1","0","","bad","[-5]"
"html-keyboard-response","94","609241","0.0-9.0-2.0-0.10","6417","1","11","Male","approach_avoid_spark_v1","""event"",""trial"",""time""
""fullscreenenter"",""1"",""2253""
","
","
","""event"",""trial"",""time""
""fullscreenenter"",""1"",""2253""
","
","","","","","","null","<div style=""font-size:60px;"">+</div>","null","","fixation","","","","","","","","","","",""
"aa-learning-trial","95","612246","0.0-9.0-2.0-1.10","6417","1","11","Male","approach_avoid_spark_v1","""event"",""trial"",""time""
""fullscreenenter"",""1"",""2253""
","
","
","""event"",""trial"",""time""
""fullscreenenter"",""1"",""2253""
","
","","","","","","1187.199999988079","images/bed3.png","","","learning","2","0","0","0","bed","furniture","1","0","","good","[3]"
"html-keyboard-response","96","612748","0.0-9.0-2.0-0.11","6417","1","11","Male","approach_avoid_spark_v1","""event"",""trial"",""time""
""fullscreenenter"",""1"",""2253""
","
","
","""event"",""trial"",""time""
""fullscreenenter"",""1"",""2253""
","
","","","","","","null","<div style=""font-size:60px;"">+</div>","null","","fixation","","","","","","","","","","",""
"aa-learning-trial","97","615752","0.0-9.0-2.0-1.11","6417","1","11","Male","approach_avoid_spark_v1","""event"",""trial"",""time""
""fullscreenenter"",""1"",""2253""
","
","
","""event"",""trial"",""time""
""fullscreenenter"",""1"",""2253""
","
","","","","","","866.5999999940395","images/table6.png","","","learning","-8","0","0","0","table","furniture","1","0","","bad","[-5]"
"html-keyboard-response","98","616254","0.0-9.0-2.0-0.12","6417","1","11","Male","approach_avoid_spark_v1","""event"",""trial"",""time""
""fullscreenenter"",""1"",""2253""
","
","
","""event"",""trial"",""time""
""fullscreenenter"",""1"",""2253""
","
","","","","","","null","<div style=""font-size:60px;"">+</div>","null","","fixation","","","","","","","","","","",""
"aa-learning-trial","99","619259","0.0-9.0-2.0-1.12","6417","1","11","Male","approach_avoid_spark_v1","""event"",""trial"",""time""
""fullscreenenter"",""1"",""2253""
","
","
","""event"",""trial"",""time""
""fullscreenenter"",""1"",""2253""
","
","","","","","","1433.300000011921","images/bed5.png","","","learning","2","0","0","0","bed","furniture","1","0","","good","[3]"
"html-keyboard-response","100","619761","0.0-9.0-2.0-0.13","6417","1","11","Male","approach_avoid_spark_v1","""event"",""trial"",""time""
""fullscreenenter"",""1"",""2253""
","
","
","""event"",""trial"",""time""
""fullscreenenter"",""1"",""2253""
","
","","","","","","null","<div style=""font-size:60px;"">+</div>","null","","fixation","","","","","","","","","","",""
"aa-learning-trial","101","622765","0.0-9.0-2.0-1.13","6417","1","11","Male","approach_avoid_spark_v1","""event"",""trial"",""time""
""fullscreenenter"",""1"",""2253""
","
","
","""event"",""trial"",""time""
""fullscreenenter"",""1"",""2253""
","
","","","","","","1113.2999999821186","images/sofa5.png","","","learning","[1]","1","1","1","sofa","furniture","1","0","","neutral","0"
"html-keyboard-response","102","623267","0.0-9.0-2.0-0.14","6417","1","11","Male","approach_avoid_spark_v1","""event"",""trial"",""time""
""fullscreenenter"",""1"",""2253""
","
","
","""event"",""trial"",""time""
""fullscreenenter"",""1"",""2253""
","
","","","","","","null","<div style=""font-size:60px;"">+</div>","null","","fixation","","","","","","","","","","",""
"aa-learning-trial","103","626272","0.0-9.0-2.0-1.14","6417","1","11","Male","approach_avoid_spark_v1","""event"",""trial"",""time""
""fullscreenenter"",""1"",""2253""
","
","
","""event"",""trial"",""time""
""fullscreenenter"",""1"",""2253""
","
","","","","","","416.5","images/bed5.png","","","learning","4","0","0","0","bed","furniture","1","0","","good","[3]"
"html-keyboard-response","104","626775","0.0-9.0-2.0-0.15","6417","1","11","Male","approach_avoid_spark_v1","""event"",""trial"",""time""
""fullscreenenter"",""1"",""2253""
","
","
","""event"",""trial"",""time""
""fullscreenenter"",""1"",""2253""
","
","","","","","","null","<div style=""font-size:60px;"">+</div>","null","","fixation","","","","","","","","","","",""
"aa-learning-trial","105","629780","0.0-9.0-2.0-1.15","6417","1","11","Male","approach_avoid_spark_v1","""event"",""trial"",""time""
""fullscreenenter"",""1"",""2253""
","
","
","""event"",""trial"",""time""
""fullscreenenter"",""1"",""2253""
","
","","","","","","1337.2000000178814","images/bed3.png","","","learning","2","0","0","0","bed","furniture","1","0","","good","[3]"
"html-keyboard-response","106","630282","0.0-9.0-2.0-0.16","6417","1","11","Male","approach_avoid_spark_v1","""event"",""trial"",""time""
""fullscreenenter"",""1"",""2253""
","
","
","""event"",""trial"",""time""
""fullscreenenter"",""1"",""2253""
","
","","","","","","null","<div style=""font-size:60px;"">+</div>","null","","fixation","","","","","","","","","","",""
"aa-learning-trial","107","633287","0.0-9.0-2.0-1.16","6417","1","11","Male","approach_avoid_spark_v1","""event"",""trial"",""time""
""fullscreenenter"",""1"",""2253""
","
","
","""event"",""trial"",""time""
""fullscreenenter"",""1"",""2253""
","
","","","","","","789.2999999821186","images/table5.png","","","learning","-6","0","0","0","table","furniture","1","0","","bad","[-5]"
"html-keyboard-response","108","633789","0.0-9.0-2.0-0.17","6417","1","11","Male","approach_avoid_spark_v1","""event"",""trial"",""time""
""fullscreenenter"",""1"",""2253""
","
","
","""event"",""trial"",""time""
""fullscreenenter"",""1"",""2253""
","
","","","","","","null","<div style=""font-size:60px;"">+</div>","null","","fixation","","","","","","","","","","",""
"aa-learning-trial","109","636793","0.0-9.0-2.0-1.17","6417","1","11","Male","approach_avoid_spark_v1","""event"",""trial"",""time""
""fullscreenenter"",""1"",""2253""
","
","
","""event"",""trial"",""time""
""fullscreenenter"",""1"",""2253""
","
","","","","","","1001.1999999880791","images/sofa5.png","","","learning","1","1","1","1","sofa","furniture","1","0","","neutral","0"
"html-keyboard-response","110","637294","0.0-9.0-2.0-0.18","6417","1","11","Male","approach_avoid_spark_v1","""event"",""trial"",""time""
""fullscreenenter"",""1"",""2253""
","
","
","""event"",""trial"",""time""
""fullscreenenter"",""1"",""2253""
","
","","","","","","null","<div style=""font-size:60px;"">+</div>","null","","fixation","","","","","","","","","","",""
"aa-learning-trial","111","640299","0.0-9.0-2.0-1.18","6417","1","11","Male","approach_avoid_spark_v1","""event"",""trial"",""time""
""fullscreenenter"",""1"",""2253""
","
","
","""event"",""trial"",""time""
""fullscreenenter"",""1"",""2253""
","
","","","","","","1479.199999988079","images/bed1.png","","","learning","5","5","1","1","bed","furniture","1","0","","good","[3]"
"html-keyboard-response","112","640801","0.0-9.0-2.0-0.19","6417","1","11","Male","approach_avoid_spark_v1","""event"",""trial"",""time""
""fullscreenenter"",""1"",""2253""
","
","
","""event"",""trial"",""time""
""fullscreenenter"",""1"",""2253""
","
","","","","","","null","<div style=""font-size:60px;"">+</div>","null","","fixation","","","","","","","","","","",""
"aa-learning-trial","113","643805","0.0-9.0-2.0-1.19","6417","1","11","Male","approach_avoid_spark_v1","""event"",""trial"",""time""
""fullscreenenter"",""1"",""2253""
","
","
","""event"",""trial"",""time""
""fullscreenenter"",""1"",""2253""
","
","","","","","","990.2999999821186","images/sofa8.png","","","learning","2","0","0","0","sofa","furniture","1","0","","neutral","0"
"html-keyboard-response","114","644307","0.0-9.0-2.0-0.20","6417","1","11","Male","approach_avoid_spark_v1","""event"",""trial"",""time""
""fullscreenenter"",""1"",""2253""
","
","
","""event"",""trial"",""time""
""fullscreenenter"",""1"",""2253""
","
","","","","","","null","<div style=""font-size:60px;"">+</div>","null","","fixation","","","","","","","","","","",""
"aa-learning-trial","115","647312","0.0-9.0-2.0-1.20","6417","1","11","Male","approach_avoid_spark_v1","""event"",""trial"",""time""
""fullscreenenter"",""1"",""2253""
","
","
","""event"",""trial"",""time""
""fullscreenenter"",""1"",""2253""
","
","","","","","","865.4000000059605","images/bed6.png","","","learning","1","0","0","0","bed","furniture","1","0","","good","[3]"
"html-keyboard-response","116","647814","0.0-9.0-2.0-0.21","6417","1","11","Male","approach_avoid_spark_v1","""event"",""trial"",""time""
""fullscreenenter"",""1"",""2253""
","
","
","""event"",""trial"",""time""
""fullscreenenter"",""1"",""2253""
","
","","","","","","null","<div style=""font-size:60px;"">+</div>","null","","fixation","","","","","","","","","","",""
"aa-learning-trial","117","650818","0.0-9.0-2.0-1.21","6417","1","11","Male","approach_avoid_spark_v1","""event"",""trial"",""time""
""fullscreenenter"",""1"",""2253""
","
","
","""event"",""trial"",""time""
""fullscreenenter"",""1"",""2253""
","
","","","","","","849.7000000178814","images/sofa3.png","","","learning","-2","-2","1","1","sofa","furniture","1","0","","neutral","0"
"html-keyboard-response","118","651320","0.0-9.0-2.0-0.22","6417","1","11","Male","approach_avoid_spark_v1","""event"",""trial"",""time""
""fullscreenenter"",""1"",""2253""
","
","
","""event"",""trial"",""time""
""fullscreenenter"",""1"",""2253""
","
","","","","","","null","<div style=""font-size:60px;"">+</div>","null","","fixation","","","","","","","","","","",""
"aa-learning-trial","119","654325","0.0-9.0-2.0-1.22","6417","1","11","Male","approach_avoid_spark_v1","""event"",""trial"",""time""
""fullscreenenter"",""1"",""2253""
","
","
","""event"",""trial"",""time""
""fullscreenenter"",""1"",""2253""
","
","","","","","","1071.2999999821186","images/bed5.png","","","learning","5","5","1","1","bed","furniture","1","0","","good","[3]"
"html-keyboard-response","120","654827","0.0-9.0-2.0-0.23","6417","1","11","Male","approach_avoid_spark_v1","""event"",""trial"",""time""
""fullscreenenter"",""1"",""2253""
","
","
","""event"",""trial"",""time""
""fullscreenenter"",""1"",""2253""
","
","","","","","","null","<div style=""font-size:60px;"">+</div>","null","","fixation","","","","","","","","","","",""
"aa-learning-trial","121","657832","0.0-9.0-2.0-1.23","6417","1","11","Male","approach_avoid_spark_v1","""event"",""trial"",""time""
""fullscreenenter"",""1"",""2253""
","
","
","""event"",""trial"",""time""
""fullscreenenter"",""1"",""2253""
","
","","","","","","1844.4000000059605","images/sofa5.png","","","learning","-1","-1","1","1","sofa","furniture","1","0","","neutral","0"
"html-keyboard-response","122","658334","0.0-9.0-2.0-0.24","6417","1","11","Male","approach_avoid_spark_v1","""event"",""trial"",""time""
""fullscreenenter"",""1"",""2253""
","
","
","""event"",""trial"",""time""
""fullscreenenter"",""1"",""2253""
","
","","","","","","null","<div style=""font-size:60px;"">+</div>","null","","fixation","","","","","","","","","","",""
"aa-learning-trial","123","661338","0.0-9.0-2.0-1.24","6417","1","11","Male","approach_avoid_spark_v1","""event"",""trial"",""time""
""fullscreenenter"",""1"",""2253""
","
","
","""event"",""trial"",""time""
""fullscreenenter"",""1"",""2253""
","
","","","","","","1571.6000000238419","images/bed3.png","","","learning","4","4","1","1","bed","furniture","1","0","","good","[3]"
"html-keyboard-response","124","661840","0.0-9.0-2.0-0.25","6417","1","11","Male","approach_avoid_spark_v1","""event"",""trial"",""time""
""fullscreenenter"",""1"",""2253""
","
","
","""event"",""trial"",""time""
""fullscreenenter"",""1"",""2253""
","
","","","","","","null","<div style=""font-size:60px;"">+</div>","null","","fixation","","","","","","","","","","",""
"aa-learning-trial","125","664844","0.0-9.0-2.0-1.25","6417","1","11","Male","approach_avoid_spark_v1","""event"",""trial"",""time""
""fullscreenenter"",""1"",""2253""
","
","
","""event"",""trial"",""time""
""fullscreenenter"",""1"",""2253""
","
","","","","","","885.5","images/table6.png","","","learning","-7","0","0","0","table","furniture","1","0","","bad","[-5]"
"html-keyboard-response","126","665346","0.0-9.0-2.0-0.26","6417","1","11","Male","approach_avoid_spark_v1","""event"",""trial"",""time""
""fullscreenenter"",""1"",""2253""
","
","
","""event"",""trial"",""time""
""fullscreenenter"",""1"",""2253""
","
","","","","","","null","<div style=""font-size:60px;"">+</div>","null","","fixation","","","","","","","","","","",""
"aa-learning-trial","127","668351","0.0-9.0-2.0-1.26","6417","1","11","Male","approach_avoid_spark_v1","""event"",""trial"",""time""
""fullscreenenter"",""1"",""2253""
","
","
","""event"",""trial"",""time""
""fullscreenenter"",""1"",""2253""
","
","","","","","","2013.5","images/sofa8.png","","","learning","-1","-1","1","1","sofa","furniture","1","0","","neutral","0"
"html-keyboard-response","128","668854","0.0-9.0-2.0-0.27","6417","1","11","Male","approach_avoid_spark_v1","""event"",""trial"",""time""
""fullscreenenter"",""1"",""2253""
","
","
","""event"",""trial"",""time""
""fullscreenenter"",""1"",""2253""
","
","","","","","","null","<div style=""font-size:60px;"">+</div>","null","","fixation","","","","","","","","","","",""
"aa-learning-trial","129","671859","0.0-9.0-2.0-1.27","6417","1","11","Male","approach_avoid_spark_v1","""event"",""trial"",""time""
""fullscreenenter"",""1"",""2253""
","
","
","""event"",""trial"",""time""
""fullscreenenter"",""1"",""2253""
","
","","","","","","2036","images/bed1.png","","","learning","2","0","0","0","bed","furniture","1","0","","good","[3]"
"html-keyboard-response","130","672360","0.0-9.0-2.0-0.28","6417","1","11","Male","approach_avoid_spark_v1","""event"",""trial"",""time""
""fullscreenenter"",""1"",""2253""
","
","
","""event"",""trial"",""time""
""fullscreenenter"",""1"",""2253""
","
","","","","","","null","<div style=""font-size:60px;"">+</div>","null","","fixation","","","","","","","","","","",""
"aa-learning-trial","131","675366","0.0-9.0-2.0-1.28","6417","1","11","Male","approach_avoid_spark_v1","""event"",""trial"",""time""
""fullscreenenter"",""1"",""2253""
","
","
","""event"",""trial"",""time""
""fullscreenenter"",""1"",""2253""
","
","","","","","","1349.199999988079","images/bed5.png","","","learning","4","4","1","1","bed","furniture","1","0","","good","[3]"
"html-keyboard-response","132","675868","0.0-9.0-2.0-0.29","6417","1","11","Male","approach_avoid_spark_v1","""event"",""trial"",""time""
""fullscreenenter"",""1"",""2253""
","
","
","""event"",""trial"",""time""
""fullscreenenter"",""1"",""2253""
","
","","","","","","null","<div style=""font-size:60px;"">+</div>","null","","fixation","","","","","","","","","","",""
"aa-learning-trial","133","678872","0.0-9.0-2.0-1.29","6417","1","11","Male","approach_avoid_spark_v1","""event"",""trial"",""time""
""fullscreenenter"",""1"",""2253""
","
","
","""event"",""trial"",""time""
""fullscreenenter"",""1"",""2253""
","
","","","","","","406.59999999403954","images/table1.png","","","learning","-8","-8","1","1","table","furniture","1","0","","bad","[-5]"
"html-keyboard-response","134","679374","0.0-9.0-2.0-0.30","6417","1","11","Male","approach_avoid_spark_v1","""event"",""trial"",""time""
""fullscreenenter"",""1"",""2253""
","
","
","""event"",""trial"",""time""
""fullscreenenter"",""1"",""2253""
","
","","","","","","null","<div style=""font-size:60px;"">+</div>","null","","fixation","","","","","","","","","","",""
"aa-learning-trial","135","682379","0.0-9.0-2.0-1.30","6417","1","11","Male","approach_avoid_spark_v1","""event"",""trial"",""time""
""fullscreenenter"",""1"",""2253""
","
","
","""event"",""trial"",""time""
""fullscreenenter"",""1"",""2253""
","
","","","","","","1168.8999999761581","images/bed3.png","","","learning","3","3","1","1","bed","furniture","1","0","","good","[3]"
"html-keyboard-response","136","682895","0.0-9.0-2.0-0.31","6417","1","11","Male","approach_avoid_spark_v1","""event"",""trial"",""time""
""fullscreenenter"",""1"",""2253""
","
","
","""event"",""trial"",""time""
""fullscreenenter"",""1"",""2253""
","
","","","","","","null","<div style=""font-size:60px;"">+</div>","null","","fixation","","","","","","","","","","",""
"aa-learning-trial","137","685899","0.0-9.0-2.0-1.31","6417","1","11","Male","approach_avoid_spark_v1","""event"",""trial"",""time""
""fullscreenenter"",""1"",""2253""
","
","
","""event"",""trial"",""time""
""fullscreenenter"",""1"",""2253""
","
","","","","","","950.7000000178814","images/table1.png","","","learning","-7","0","0","0","table","furniture","1","0","","bad","[-5]"
"html-keyboard-response","138","686401","0.0-9.0-2.0-0.32","6417","1","11","Male","approach_avoid_spark_v1","""event"",""trial"",""time""
""fullscreenenter"",""1"",""2253""
","
","
","""event"",""trial"",""time""
""fullscreenenter"",""1"",""2253""
","
","","","","","","null","<div style=""font-size:60px;"">+</div>","null","","fixation","","","","","","","","","","",""
"aa-learning-trial","139","689407","0.0-9.0-2.0-1.32","6417","1","11","Male","approach_avoid_spark_v1","""event"",""trial"",""time""
""fullscreenenter"",""1"",""2253""
","
","
","""event"",""trial"",""time""
""fullscreenenter"",""1"",""2253""
","
","","","","","","1023.5","images/sofa3.png","","","learning","[-1]","0","0","0","sofa","furniture","1","0","","neutral","0"
"html-keyboard-response","140","689909","0.0-9.0-2.0-0.33","6417","1","11","Male","approach_avoid_spark_v1","""event"",""trial"",""time""
""fullscreenenter"",""1"",""2253""
","
","
","""event"",""trial"",""time""
""fullscreenenter"",""1"",""2253""
","
","","","","","","null","<div style=""font-size:60px;"">+</div>","null","","fixation","","","","","","","","","","",""
"aa-learning-trial","141","692913","0.0-9.0-2.0-1.33","6417","1","11","Male","approach_avoid_spark_v1","""event"",""trial"",""time""
""fullscreenenter"",""1"",""2253""
","
","
","""event"",""trial"",""time""
""fullscreenenter"",""1"",""2253""
","
","","","","","","839.7999999821186","images/table7.png","","","learning","-2","0","0","0","table","furniture","1","0","","bad","[-5]"
"html-keyboard-response","142","693415","0.0-9.0-2.0-0.34","6417","1","11","Male","approach_avoid_spark_v1","""event"",""trial"",""time""
""fullscreenenter"",""1"",""2253""
","
","
","""event"",""trial"",""time""
""fullscreenenter"",""1"",""2253""
","
","","","","","","null","<div style=""font-size:60px;"">+</div>","null","","fixation","","","","","","","","","","",""
"aa-learning-trial","143","696421","0.0-9.0-2.0-1.34","6417","1","11","Male","approach_avoid_spark_v1","""event"",""trial"",""time""
""fullscreenenter"",""1"",""2253""
","
","
","""event"",""trial"",""time""
""fullscreenenter"",""1"",""2253""
","
","","","","","","950.2000000178814","images/bed5.png","","","learning","2","2","1","1","bed","furniture","1","0","","good","[3]"
"html-keyboard-response","144","696924","0.0-9.0-2.0-0.35","6417","1","11","Male","approach_avoid_spark_v1","""event"",""trial"",""time""
""fullscreenenter"",""1"",""2253""
","
","
","""event"",""trial"",""time""
""fullscreenenter"",""1"",""2253""
","
","","","","","","null","<div style=""font-size:60px;"">+</div>","null","","fixation","","","","","","","","","","",""
"aa-learning-trial","145","699929","0.0-9.0-2.0-1.35","6417","1","11","Male","approach_avoid_spark_v1","""event"",""trial"",""time""
""fullscreenenter"",""1"",""2253""
","
","
","""event"",""trial"",""time""
""fullscreenenter"",""1"",""2253""
","
","","","","","","803.7000000178814","images/sofa8.png","","","learning","[-1]","0","0","0","sofa","furniture","1","0","","neutral","0"
"html-keyboard-response","146","700431","0.0-9.0-2.0-0.36","6417","1","11","Male","approach_avoid_spark_v1","""event"",""trial"",""time""
""fullscreenenter"",""1"",""2253""
","
","
","""event"",""trial"",""time""
""fullscreenenter"",""1"",""2253""
","
","","","","","","null","<div style=""font-size:60px;"">+</div>","null","","fixation","","","","","","","","","","",""
"aa-learning-trial","147","703436","0.0-9.0-2.0-1.36","6417","1","11","Male","approach_avoid_spark_v1","""event"",""trial"",""time""
""fullscreenenter"",""1"",""2253""
","
","
","""event"",""trial"",""time""
""fullscreenenter"",""1"",""2253""
","
","","","","","","1052.7999999821186","images/sofa5.png","","","learning","2","0","0","0","sofa","furniture","1","0","","neutral","0"
"html-keyboard-response","148","703938","0.0-9.0-2.0-0.37","6417","1","11","Male","approach_avoid_spark_v1","""event"",""trial"",""time""
""fullscreenenter"",""1"",""2253""
","
","
","""event"",""trial"",""time""
""fullscreenenter"",""1"",""2253""
","
","","","","","","null","<div style=""font-size:60px;"">+</div>","null","","fixation","","","","","","","","","","",""
"aa-learning-trial","149","706943","0.0-9.0-2.0-1.37","6417","1","11","Male","approach_avoid_spark_v1","""event"",""trial"",""time""
""fullscreenenter"",""1"",""2253""
","
","
","""event"",""trial"",""time""
""fullscreenenter"",""1"",""2253""
","
","","","","","","672.1000000238419","images/table5.png","","","learning","-2","0","0","0","table","furniture","1","0","","bad","[-5]"
"html-keyboard-response","150","707445","0.0-9.0-2.0-0.38","6417","1","11","Male","approach_avoid_spark_v1","""event"",""trial"",""time""
""fullscreenenter"",""1"",""2253""
","
","
","""event"",""trial"",""time""
""fullscreenenter"",""1"",""2253""
","
","","","","","","null","<div style=""font-size:60px;"">+</div>","null","","fixation","","","","","","","","","","",""
"aa-learning-trial","151","710450","0.0-9.0-2.0-1.38","6417","1","11","Male","approach_avoid_spark_v1","""event"",""trial"",""time""
""fullscreenenter"",""1"",""2253""
","
","
","""event"",""trial"",""time""
""fullscreenenter"",""1"",""2253""
","
","","","","","","792.3000000119209","images/sofa8.png","","","learning","1","0","0","0","sofa","furniture","1","0","","neutral","0"
"html-keyboard-response","152","710953","0.0-9.0-2.0-0.39","6417","1","11","Male","approach_avoid_spark_v1","""event"",""trial"",""time""
""fullscreenenter"",""1"",""2253""
","
","
","""event"",""trial"",""time""
""fullscreenenter"",""1"",""2253""
","
","","","","","","null","<div style=""font-size:60px;"">+</div>","null","","fixation","","","","","","","","","","",""
"aa-learning-trial","153","713959","0.0-9.0-2.0-1.39","6417","1","11","Male","approach_avoid_spark_v1","""event"",""trial"",""time""
""fullscreenenter"",""1"",""2253""
","
","
","""event"",""trial"",""time""
""fullscreenenter"",""1"",""2253""
","
","","","","","","1267","images/bed3.png","","","learning","4","4","1","1","bed","furniture","1","0","","good","[3]"
"html-keyboard-response","154","714463","0.0-9.0-2.0-0.40","6417","1","11","Male","approach_avoid_spark_v1","""event"",""trial"",""time""
""fullscreenenter"",""1"",""2253""
","
","
","""event"",""trial"",""time""
""fullscreenenter"",""1"",""2253""
","
","","","","","","null","<div style=""font-size:60px;"">+</div>","null","","fixation","","","","","","","","","","",""
"aa-learning-trial","155","717468","0.0-9.0-2.0-1.40","6417","1","11","Male","approach_avoid_spark_v1","""event"",""trial"",""time""
""fullscreenenter"",""1"",""2253""
","
","
","""event"",""trial"",""time""
""fullscreenenter"",""1"",""2253""
","
","","","","","","862.7000000178814","images/table6.png","","","learning","-6","0","0","0","table","furniture","1","0","","bad","[-5]"
"html-keyboard-response","156","717970","0.0-9.0-2.0-0.41","6417","1","11","Male","approach_avoid_spark_v1","""event"",""trial"",""time""
""fullscreenenter"",""1"",""2253""
","
","
","""event"",""trial"",""time""
""fullscreenenter"",""1"",""2253""
","
","","","","","","null","<div style=""font-size:60px;"">+</div>","null","","fixation","","","","","","","","","","",""
"aa-learning-trial","157","720974","0.0-9.0-2.0-1.41","6417","1","11","Male","approach_avoid_spark_v1","""event"",""trial"",""time""
""fullscreenenter"",""1"",""2253""
","
","
","""event"",""trial"",""time""
""fullscreenenter"",""1"",""2253""
","
","","","","","","818","images/table8.png","","","learning","-6","0","0","0","table","furniture","1","0","","bad","[-5]"
"html-keyboard-response","158","721477","0.0-9.0-2.0-0.42","6417","1","11","Male","approach_avoid_spark_v1","""event"",""trial"",""time""
""fullscreenenter"",""1"",""2253""
","
","
","""event"",""trial"",""time""
""fullscreenenter"",""1"",""2253""
","
","","","","","","null","<div style=""font-size:60px;"">+</div>","null","","fixation","","","","","","","","","","",""
"aa-learning-trial","159","724482","0.0-9.0-2.0-1.42","6417","1","11","Male","approach_avoid_spark_v1","""event"",""trial"",""time""
""fullscreenenter"",""1"",""2253""
","
","
","""event"",""trial"",""time""
""fullscreenenter"",""1"",""2253""
","
","","","","","","720","images/table1.png","","","learning","-3","0","0","0","table","furniture","1","0","","bad","[-5]"
"html-keyboard-response","160","724984","0.0-9.0-2.0-0.43","6417","1","11","Male","approach_avoid_spark_v1","""event"",""trial"",""time""
""fullscreenenter"",""1"",""2253""
","
","
","""event"",""trial"",""time""
""fullscreenenter"",""1"",""2253""
","
","","","","","","null","<div style=""font-size:60px;"">+</div>","null","","fixation","","","","","","","","","","",""
"aa-learning-trial","161","727988","0.0-9.0-2.0-1.43","6417","1","11","Male","approach_avoid_spark_v1","""event"",""trial"",""time""
""fullscreenenter"",""1"",""2253""
","
","
","""event"",""trial"",""time""
""fullscreenenter"",""1"",""2253""
","
","","","","","","723.2000000178814","images/table6.png","","","learning","-4","0","0","0","table","furniture","1","0","","bad","[-5]"
"html-keyboard-response","162","728490","0.0-9.0-2.0-0.44","6417","1","11","Male","approach_avoid_spark_v1","""event"",""trial"",""time""
""fullscreenenter"",""1"",""2253""
","
","
","""event"",""trial"",""time""
""fullscreenenter"",""1"",""2253""
","
","","","","","","null","<div style=""font-size:60px;"">+</div>","null","","fixation","","","","","","","","","","",""
"aa-learning-trial","163","731495","0.0-9.0-2.0-1.44","6417","1","11","Male","approach_avoid_spark_v1","""event"",""trial"",""time""
""fullscreenenter"",""1"",""2253""
","
","
","""event"",""trial"",""time""
""fullscreenenter"",""1"",""2253""
","
","","","","","","2737.600000023842","images/sofa5.png","","","learning","[-1]","0","0","0","sofa","furniture","1","0","","neutral","0"
"html-keyboard-response","164","731997","0.0-9.0-2.0-0.45","6417","1","11","Male","approach_avoid_spark_v1","""event"",""trial"",""time""
""fullscreenenter"",""1"",""2253""
","
","
","""event"",""trial"",""time""
""fullscreenenter"",""1"",""2253""
","
","","","","","","null","<div style=""font-size:60px;"">+</div>","null","","fixation","","","","","","","","","","",""
"aa-learning-trial","165","735001","0.0-9.0-2.0-1.45","6417","1","11","Male","approach_avoid_spark_v1","""event"",""trial"",""time""
""fullscreenenter"",""1"",""2253""
","
","
","""event"",""trial"",""time""
""fullscreenenter"",""1"",""2253""
","
","","","","","","1784.1000000238419","images/bed2.png","","","learning","1","0","0","0","bed","furniture","1","0","","good","[3]"
"html-keyboard-response","166","735504","0.0-9.0-2.0-0.46","6417","1","11","Male","approach_avoid_spark_v1","""event"",""trial"",""time""
""fullscreenenter"",""1"",""2253""
","
","
","""event"",""trial"",""time""
""fullscreenenter"",""1"",""2253""
","
","","","","","","null","<div style=""font-size:60px;"">+</div>","null","","fixation","","","","","","","","","","",""
"aa-learning-trial","167","738508","0.0-9.0-2.0-1.46","6417","1","11","Male","approach_avoid_spark_v1","""event"",""trial"",""time""
""fullscreenenter"",""1"",""2253""
","
","
","""event"",""trial"",""time""
""fullscreenenter"",""1"",""2253""
","
","","","","","","927.8000000119209","images/sofa2.png","","","learning","1","0","0","0","sofa","furniture","1","0","","neutral","0"
"html-keyboard-response","168","739010","0.0-9.0-2.0-0.47","6417","1","11","Male","approach_avoid_spark_v1","""event"",""trial"",""time""
""fullscreenenter"",""1"",""2253""
","
","
","""event"",""trial"",""time""
""fullscreenenter"",""1"",""2253""
","
","","","","","","null","<div style=""font-size:60px;"">+</div>","null","","fixation","","","","","","","","","","",""
"aa-learning-trial","169","742028","0.0-9.0-2.0-1.47","6417","1","11","Male","approach_avoid_spark_v1","""event"",""trial"",""time""
""fullscreenenter"",""1"",""2253""
","
","
","""event"",""trial"",""time""
""fullscreenenter"",""1"",""2253""
","
","","","","","","804","images/bed5.png","","","learning","3","3","1","1","bed","furniture","1","0","","good","[3]"
"html-keyboard-response","170","742530","0.0-9.0-2.0-0.48","6417","1","11","Male","approach_avoid_spark_v1","""event"",""trial"",""time""
""fullscreenenter"",""1"",""2253""
","
","
","""event"",""trial"",""time""
""fullscreenenter"",""1"",""2253""
","
","","","","","","null","<div style=""font-size:60px;"">+</div>","null","","fixation","","","","","","","","","","",""
"aa-learning-trial","171","745535","0.0-9.0-2.0-1.48","6417","1","11","Male","approach_avoid_spark_v1","""event"",""trial"",""time""
""fullscreenenter"",""1"",""2253""
","
","
","""event"",""trial"",""time""
""fullscreenenter"",""1"",""2253""
","
","","","","","","744","images/table6.png","","","learning","-3","0","0","0","table","furniture","1","0","","bad","[-5]"
"html-keyboard-response","172","746037","0.0-9.0-2.0-0.49","6417","1","11","Male","approach_avoid_spark_v1","""event"",""trial"",""time""
""fullscreenenter"",""1"",""2253""
","
","
","""event"",""trial"",""time""
""fullscreenenter"",""1"",""2253""
","
","","","","","","null","<div style=""font-size:60px;"">+</div>","null","","fixation","","","","","","","","","","",""
"aa-learning-trial","173","749041","0.0-9.0-2.0-1.49","6417","1","11","Male","approach_avoid_spark_v1","""event"",""trial"",""time""
""fullscreenenter"",""1"",""2253""
","
","
","""event"",""trial"",""time""
""fullscreenenter"",""1"",""2253""
","
","","","","","","1328.5999999940395","images/sofa1.png","","","learning","-1","-1","1","1","sofa","furniture","1","0","","neutral","0"
"html-keyboard-response","174","749551","0.0-9.0-2.0-0.50","6417","1","11","Male","approach_avoid_spark_v1","""event"",""trial"",""time""
""fullscreenenter"",""1"",""2253""
","
","
","""event"",""trial"",""time""
""fullscreenenter"",""1"",""2253""
","
","","","","","","null","<div style=""font-size:60px;"">+</div>","null","","fixation","","","","","","","","","","",""
"aa-learning-trial","175","752555","0.0-9.0-2.0-1.50","6417","1","11","Male","approach_avoid_spark_v1","""event"",""trial"",""time""
""fullscreenenter"",""1"",""2253""
","
","
","""event"",""trial"",""time""
""fullscreenenter"",""1"",""2253""
","
","","","","","","623.1999999880791","images/table1.png","","","learning","-4","0","0","0","table","furniture","1","0","","bad","[-5]"
"html-button-response","176","756042","0.0-9.0-3.0","6417","1","11","Male","approach_avoid_spark_v1","""event"",""trial"",""time""
""fullscreenenter"",""1"",""2253""
","
","
","""event"",""trial"",""time""
""fullscreenenter"",""1"",""2253""
","
","","","","","","3484","<p> You have completed the round! <p> In this round, you earned 8 points! </p>","0","","break","","","","","","","","","","",""
"html-button-response","177","756946","0.0-10.0","6417","1","11","Male","approach_avoid_spark_v1","""event"",""trial"",""time""
""fullscreenenter"",""1"",""2253""
","
","
","""event"",""trial"",""time""
""fullscreenenter"",""1"",""2253""
","
","","","","","","903.1999999880791","<p> Now it's time to play another round. </p>","0","","transition_screen","","","","","","","","","","",""
"preload","178","757095","0.0-11.0-0.0","6417","1","11","Male","approach_avoid_spark_v1","""event"",""trial"",""time""
""fullscreenenter"",""1"",""2253""
","
","
","""event"",""trial"",""time""
""fullscreenenter"",""1"",""2253""
","
","true","false","[]","[]","[]","","","","","","","","","","","","","","","",""
"learning-instructions","179","763345","0.0-11.0-1.0-0.0","6417","1","11","Male","approach_avoid_spark_v1","""event"",""trial"",""time""
""fullscreenenter"",""1"",""2253""
","
","
","""event"",""trial"",""time""
""fullscreenenter"",""1"",""2253""
","
","","","","","","1754.2999999821186","<p> Your goal in this round is to take care of lots of farm animals. </p></div>","","0","instructions","","","","","","","","","","",""
"learning-instructions","180","774713","0.0-11.0-1.0-0.1","6417","1","11","Male","approach_avoid_spark_v1","""event"",""trial"",""time""
""fullscreenenter"",""1"",""2253""
","
","
","""event"",""trial"",""time""
""fullscreenenter"",""1"",""2253""
","
","","","","","","1121.5999999940395","<p> Some farm animals are hungry, while other farm animals are already full.  </p><p> On each turn, you will see a farm animal.   </p><p> You need to decide whether to feed it or not.  </p>","","0","instructions","","","","","","","","","","",""
"learning-instructions","181","780841","0.0-11.0-1.0-0.2","6417","1","11","Male","approach_avoid_spark_v1","""event"",""trial"",""time""
""fullscreenenter"",""1"",""2253""
","
","
","""event"",""trial"",""time""
""fullscreenenter"",""1"",""2253""
","
","","","","","","269.5","<p> You can feed the farm animal by pressing 1 and leave the farm animal alone by pressing 0. </p><br><div class=""choice-instructions-grid""> <div class=""choice-option""><img src=""images/approach.png"" class=""choice-option-img"" stage=""instructions"" position=""0"" ><div class=""choice-option-text""> Press ""1."" </div></div><div class=""choice-option""><img src=""images/avoid.png"" class=""choice-option-img"" stage=""instructions"" position=""1"" ><div class=""choice-option-text""> Press ""0."" </div></div>","","0","instructions","","","","","","","","","","",""
"learning-instructions","182","790697","0.0-11.0-1.0-0.3","6417","1","11","Male","approach_avoid_spark_v1","""event"",""trial"",""time""
""fullscreenenter"",""1"",""2253""
","
","
","""event"",""trial"",""time""
""fullscreenenter"",""1"",""2253""
","
","","","","","","356","<p> If you feed a hungry farm animal, you will make it feel satisfied! </p><p> But if you feed the farm animal and it was already full, you will make it feel sick. </p>","","0","instructions","","","","","","","","","","",""
"learning-instructions","183","803761","0.0-11.0-1.0-0.4","6417","1","11","Male","approach_avoid_spark_v1","""event"",""trial"",""time""
""fullscreenenter"",""1"",""2253""
","
","
","""event"",""trial"",""time""
""fullscreenenter"",""1"",""2253""
","
","","","","","","130.09999999403954","<p> You will earn points based on how you made the farm animal feel. </p><p> If you made it satisfied, you will WIN anywhere from 1 - 9 points, </p><p> but if you made it sick, you will LOSE anywhere from 1 - 9 points. </p>","","0","instructions","","","","","","","","","","",""
"learning-instructions","184","810745","0.0-11.0-1.0-0.5","6417","1","11","Male","approach_avoid_spark_v1","""event"",""trial"",""time""
""fullscreenenter"",""1"",""2253""
","
","
","""event"",""trial"",""time""
""fullscreenenter"",""1"",""2253""
","
","","","","","","323.90000000596046","<p> You will see how many points you won or lost in the center of the screen. </p><p> Here is what you would see if you won 5 points: </p><p style=""color:green;font-size:50px;font-weight:bolder"">5</p>","","0","instructions","","","","","","","","","","",""
"learning-instructions","185","813857","0.0-11.0-1.0-0.6","6417","1","11","Male","approach_avoid_spark_v1","""event"",""trial"",""time""
""fullscreenenter"",""1"",""2253""
","
","
","""event"",""trial"",""time""
""fullscreenenter"",""1"",""2253""
","
","","","","","","266.09999999403954","<p> And here is what you would see if you lost 3 points: </p><p style=""color:red;font-size:50px;font-weight:bolder"">-3</p>","","0","instructions","","","","","","","","","","",""
"learning-instructions","186","830857","0.0-11.0-1.0-0.7","6417","1","11","Male","approach_avoid_spark_v1","""event"",""trial"",""time""
""fullscreenenter"",""1"",""2253""
","
","
","""event"",""trial"",""time""
""fullscreenenter"",""1"",""2253""
","
","","","","","","425.7000000178814","<p> Some farm animals will become very satisfied or very sick. </p><p> These farm animals will make you win or lose LOTS of points. </p><p> Other farm animals have less strong feelings. </p><p> These farm animals will make you win or lose small amounts of points. </p>","","0","instructions","","","","","","","","","","",""
"learning-instructions","187","844392","0.0-11.0-1.0-0.8","6417","1","11","Male","approach_avoid_spark_v1","""event"",""trial"",""time""
""fullscreenenter"",""1"",""2253""
","
","
","""event"",""trial"",""time""
""fullscreenenter"",""1"",""2253""
","
","","","","","","1071.7999999821186","<p> If you choose to leave the farm animal alone, you will not win or lose any points. </p><p>  However, in the center of the screen, you will see the number of points you WOULD HAVE won or lost if you had fed the farm animal. </p>","","0","instructions","","","","","","","","","","",""
"learning-instructions","188","859648","0.0-11.0-1.0-0.9","6417","1","11","Male","approach_avoid_spark_v1","""event"",""trial"",""time""
""fullscreenenter"",""1"",""2253""
","
","
","""event"",""trial"",""time""
""fullscreenenter"",""1"",""2253""
","
","","","","","","3007.800000011921","<p> Here is what you might see if you did not feed the farm animal but the animal was hungry: </p><p style=""color:grey; font-size:50px; display: inline-block; border-spacing: 15px; border-width:3px; border-style:solid; border-color:red"">  &nbsp; 6 &nbsp; </p><p> Remember, in this case, you would not win or lose ANY points because you did not feed the farm animal.  </p>","","0","instructions","","","","","","","","","","",""
"learning-instructions","189","872480","0.0-11.0-1.0-0.10","6417","1","11","Male","approach_avoid_spark_v1","""event"",""trial"",""time""
""fullscreenenter"",""1"",""2253""
","
","
","""event"",""trial"",""time""
""fullscreenenter"",""1"",""2253""
","
","","","","","","3539.9000000059605","<p> Try to make the best choice for each farm animal because </p><p> at the end of the game, you will earn bonus money based on how many points you earned. </p>","","0","instructions","","","","","","","","","","",""
"learning-instructions","190","885896","0.0-11.0-1.0-0.11","6417","1","11","Male","approach_avoid_spark_v1","""event"",""trial"",""time""
""fullscreenenter"",""1"",""2253""
","
","
","""event"",""trial"",""time""
""fullscreenenter"",""1"",""2253""
","
","","","","","","5215.899999976158","<p> You will have 3 seconds to make each choice. Try to respond before time runs out! </p><p> You will lose 5 points each time you do not make a response. </p>","","0","instructions","","","","","","","","","","",""
"html-keyboard-response","191","886532","0.0-11.0-2.0-0.0","6417","1","11","Male","approach_avoid_spark_v1","""event"",""trial"",""time""
""fullscreenenter"",""1"",""2253""
","
","
","""event"",""trial"",""time""
""fullscreenenter"",""1"",""2253""
","
","","","","","","null","<div style=""font-size:60px;"">+</div>","null","","fixation","","","","","","","","","","",""
"aa-learning-trial","192","889536","0.0-11.0-2.0-1.0","6417","1","11","Male","approach_avoid_spark_v1","""event"",""trial"",""time""
""fullscreenenter"",""1"",""2253""
","
","
","""event"",""trial"",""time""
""fullscreenenter"",""1"",""2253""
","
","","","","","","null","images/cow5.png","","","learning","9","-5","","null","cow","animals","2","1","","neutral","0"
"html-keyboard-response","193","890038","0.0-11.0-2.0-0.1","6417","1","11","Male","approach_avoid_spark_v1","""event"",""trial"",""time""
""fullscreenenter"",""1"",""2253""
","
","
","""event"",""trial"",""time""
""fullscreenenter"",""1"",""2253""
","
","","","","","","null","<div style=""font-size:60px;"">+</div>","null","","fixation","","","","","","","","","","",""
"aa-learning-trial","194","893049","0.0-11.0-2.0-1.1","6417","1","11","Male","approach_avoid_spark_v1","""event"",""trial"",""time""
""fullscreenenter"",""1"",""2253""
","
","
","""event"",""trial"",""time""
""fullscreenenter"",""1"",""2253""
","
","","","","","","1337.0999999940395","images/goat3.png","","","learning","6","6","1","1","goat","animals","2","1","","good","[6]"
"html-keyboard-response","195","893558","0.0-11.0-2.0-0.2","6417","1","11","Male","approach_avoid_spark_v1","""event"",""trial"",""time""
""fullscreenenter"",""1"",""2253""
","
","
","""event"",""trial"",""time""
""fullscreenenter"",""1"",""2253""
","
","","","","","","null","<div style=""font-size:60px;"">+</div>","null","","fixation","","","","","","","","","","",""
"aa-learning-trial","196","896578","0.0-11.0-2.0-1.2","6417","1","11","Male","approach_avoid_spark_v1","""event"",""trial"",""time""
""fullscreenenter"",""1"",""2253""
","
","
","""event"",""trial"",""time""
""fullscreenenter"",""1"",""2253""
","
","","","","","","617.3000000119209","images/horse6.png","","","learning","-2","-2","1","1","horse","animals","2","1","","bad","[-6]"
"html-keyboard-response","197","897099","0.0-11.0-2.0-0.3","6417","1","11","Male","approach_avoid_spark_v1","""event"",""trial"",""time""
""fullscreenenter"",""1"",""2253""
","
","
","""event"",""trial"",""time""
""fullscreenenter"",""1"",""2253""
","
","","","","","","null","<div style=""font-size:60px;"">+</div>","null","","fixation","","","","","","","","","","",""
"aa-learning-trial","198","900109","0.0-11.0-2.0-1.3","6417","1","11","Male","approach_avoid_spark_v1","""event"",""trial"",""time""
""fullscreenenter"",""1"",""2253""
","
","
","""event"",""trial"",""time""
""fullscreenenter"",""1"",""2253""
","
","","","","","","873","images/horse8.png","","","learning","7","7","1","1","horse","animals","2","1","","bad","[-6]"
"html-keyboard-response","199","900628","0.0-11.0-2.0-0.4","6417","1","11","Male","approach_avoid_spark_v1","""event"",""trial"",""time""
""fullscreenenter"",""1"",""2253""
","
","
","""event"",""trial"",""time""
""fullscreenenter"",""1"",""2253""
","
","","","","","","null","<div style=""font-size:60px;"">+</div>","null","","fixation","","","","","","","","","","",""
"aa-learning-trial","200","903643","0.0-11.0-2.0-1.4","6417","1","11","Male","approach_avoid_spark_v1","""event"",""trial"",""time""
""fullscreenenter"",""1"",""2253""
","
","
","""event"",""trial"",""time""
""fullscreenenter"",""1"",""2253""
","
","","","","","","666.7999999821186","images/cow8.png","","","learning","1","0","0","0","cow","animals","2","1","","neutral","0"
"html-keyboard-response","201","904158","0.0-11.0-2.0-0.5","6417","1","11","Male","approach_avoid_spark_v1","""event"",""trial"",""time""
""fullscreenenter"",""1"",""2253""
","
","
","""event"",""trial"",""time""
""fullscreenenter"",""1"",""2253""
","
","","","","","","null","<div style=""font-size:60px;"">+</div>","null","","fixation","","","","","","","","","","",""
"aa-learning-trial","202","907178","0.0-11.0-2.0-1.5","6417","1","11","Male","approach_avoid_spark_v1","""event"",""trial"",""time""
""fullscreenenter"",""1"",""2253""
","
","
","""event"",""trial"",""time""
""fullscreenenter"",""1"",""2253""
","
","","","","","","1122.2000000178814","images/goat6.png","","","learning","-8","-5","tab","","goat","animals","2","1","","good","[6]"
"html-keyboard-response","203","907688","0.0-11.0-2.0-0.6","6417","1","11","Male","approach_avoid_spark_v1","""event"",""trial"",""time""
""fullscreenenter"",""1"",""2253""
","
","
","""event"",""trial"",""time""
""fullscreenenter"",""1"",""2253""
","
","","","","","","null","<div style=""font-size:60px;"">+</div>","null","","fixation","","","","","","","","","","",""
"aa-learning-trial","204","910708","0.0-11.0-2.0-1.6","6417","1","11","Male","approach_avoid_spark_v1","""event"",""trial"",""time""
""fullscreenenter"",""1"",""2253""
","
","
","""event"",""trial"",""time""
""fullscreenenter"",""1"",""2253""
","
","","","","","","1083.199999988079","images/horse3.png","","","learning","-5","0","0","0","horse","animals","2","1","","bad","[-6]"
"html-keyboard-response","205","911210","0.0-11.0-2.0-0.7","6417","1","11","Male","approach_avoid_spark_v1","""event"",""trial"",""time""
""fullscreenenter"",""1"",""2253""
","
","
","""event"",""trial"",""time""
""fullscreenenter"",""1"",""2253""
","
","","","","","","null","<div style=""font-size:60px;"">+</div>","null","","fixation","","","","","","","","","","",""
"aa-learning-trial","206","914215","0.0-11.0-2.0-1.7","6417","1","11","Male","approach_avoid_spark_v1","""event"",""trial"",""time""
""fullscreenenter"",""1"",""2253""
","
","
","""event"",""trial"",""time""
""fullscreenenter"",""1"",""2253""
","
","","","","","","1613.7000000178814","images/horse8.png","","","learning","7","0","0","0","horse","animals","2","1","","bad","[-6]"
"html-keyboard-response","207","914717","0.0-11.0-2.0-0.8","6417","1","11","Male","approach_avoid_spark_v1","""event"",""trial"",""time""
""fullscreenenter"",""1"",""2253""
","
","
","""event"",""trial"",""time""
""fullscreenenter"",""1"",""2253""
","
","","","","","","null","<div style=""font-size:60px;"">+</div>","null","","fixation","","","","","","","","","","",""
"aa-learning-trial","208","917722","0.0-11.0-2.0-1.8","6417","1","11","Male","approach_avoid_spark_v1","""event"",""trial"",""time""
""fullscreenenter"",""1"",""2253""
","
","
","""event"",""trial"",""time""
""fullscreenenter"",""1"",""2253""
","
","","","","","","710.6999999880791","images/cow5.png","","","learning","9","9","1","1","cow","animals","2","1","","neutral","0"
"html-keyboard-response","209","918224","0.0-11.0-2.0-0.9","6417","1","11","Male","approach_avoid_spark_v1","""event"",""trial"",""time""
""fullscreenenter"",""1"",""2253""
","
","
","""event"",""trial"",""time""
""fullscreenenter"",""1"",""2253""
","
","","","","","","null","<div style=""font-size:60px;"">+</div>","null","","fixation","","","","","","","","","","",""
"aa-learning-trial","210","921228","0.0-11.0-2.0-1.9","6417","1","11","Male","approach_avoid_spark_v1","""event"",""trial"",""time""
""fullscreenenter"",""1"",""2253""
","
","
","""event"",""trial"",""time""
""fullscreenenter"",""1"",""2253""
","
","","","","","","646.6999999880791","images/cow7.png","","","learning","-6","0","0","0","cow","animals","2","1","","neutral","0"
"html-keyboard-response","211","921730","0.0-11.0-2.0-0.10","6417","1","11","Male","approach_avoid_spark_v1","""event"",""trial"",""time""
""fullscreenenter"",""1"",""2253""
","
","
","""event"",""trial"",""time""
""fullscreenenter"",""1"",""2253""
","
","","","","","","null","<div style=""font-size:60px;"">+</div>","null","","fixation","","","","","","","","","","",""
"aa-learning-trial","212","924734","0.0-11.0-2.0-1.10","6417","1","11","Male","approach_avoid_spark_v1","""event"",""trial"",""time""
""fullscreenenter"",""1"",""2253""
","
","
","""event"",""trial"",""time""
""fullscreenenter"",""1"",""2253""
","
","","","","","","384.90000000596046","images/goat6.png","","","learning","-8","-8","1","1","goat","animals","2","1","","good","[6]"
"html-keyboard-response","213","925237","0.0-11.0-2.0-0.11","6417","1","11","Male","approach_avoid_spark_v1","""event"",""trial"",""time""
""fullscreenenter"",""1"",""2253""
","
","
","""event"",""trial"",""time""
""fullscreenenter"",""1"",""2253""
","
","","","","","","null","<div style=""font-size:60px;"">+</div>","null","","fixation","","","","","","","","","","",""
"aa-learning-trial","214","928242","0.0-11.0-2.0-1.11","6417","1","11","Male","approach_avoid_spark_v1","""event"",""trial"",""time""
""fullscreenenter"",""1"",""2253""
","
","
","""event"",""trial"",""time""
""fullscreenenter"",""1"",""2253""
","
","","","","","","507.19999998807907","images/goat7.png","","","learning","-4","0","0","0","goat","animals","2","1","","good","[6]"
"html-keyboard-response","215","928744","0.0-11.0-2.0-0.12","6417","1","11","Male","approach_avoid_spark_v1","""event"",""trial"",""time""
""fullscreenenter"",""1"",""2253""
","
","
","""event"",""trial"",""time""
""fullscreenenter"",""1"",""2253""
","
","","","","","","null","<div style=""font-size:60px;"">+</div>","null","","fixation","","","","","","","","","","",""
"aa-learning-trial","216","931748","0.0-11.0-2.0-1.12","6417","1","11","Male","approach_avoid_spark_v1","""event"",""trial"",""time""
""fullscreenenter"",""1"",""2253""
","
","
","""event"",""trial"",""time""
""fullscreenenter"",""1"",""2253""
","
","","","","","","371.30000001192093","images/horse6.png","","","learning","-2","0","0","0","horse","animals","2","1","","bad","[-6]"
"html-keyboard-response","217","932254","0.0-11.0-2.0-0.13","6417","1","11","Male","approach_avoid_spark_v1","""event"",""trial"",""time""
""fullscreenenter"",""1"",""2253""
","
","
","""event"",""trial"",""time""
""fullscreenenter"",""1"",""2253""
","
","","","","","","null","<div style=""font-size:60px;"">+</div>","null","","fixation","","","","","","","","","","",""
"aa-learning-trial","218","935258","0.0-11.0-2.0-1.13","6417","1","11","Male","approach_avoid_spark_v1","""event"",""trial"",""time""
""fullscreenenter"",""1"",""2253""
","
","
","""event"",""trial"",""time""
""fullscreenenter"",""1"",""2253""
","
","","","","","","611","images/goat7.png","","","learning","-4","-4","1","1","goat","animals","2","1","","good","[6]"
"html-keyboard-response","219","935760","0.0-11.0-2.0-0.14","6417","1","11","Male","approach_avoid_spark_v1","""event"",""trial"",""time""
""fullscreenenter"",""1"",""2253""
","
","
","""event"",""trial"",""time""
""fullscreenenter"",""1"",""2253""
","
","","","","","","null","<div style=""font-size:60px;"">+</div>","null","","fixation","","","","","","","","","","",""
"aa-learning-trial","220","938766","0.0-11.0-2.0-1.14","6417","1","11","Male","approach_avoid_spark_v1","""event"",""trial"",""time""
""fullscreenenter"",""1"",""2253""
","
","
","""event"",""trial"",""time""
""fullscreenenter"",""1"",""2253""
","
","","","","","","1324.4000000059605","images/cow8.png","","","learning","1","1","1","1","cow","animals","2","1","","neutral","0"
"html-keyboard-response","221","939268","0.0-11.0-2.0-0.15","6417","1","11","Male","approach_avoid_spark_v1","""event"",""trial"",""time""
""fullscreenenter"",""1"",""2253""
","
","
","""event"",""trial"",""time""
""fullscreenenter"",""1"",""2253""
","
","","","","","","null","<div style=""font-size:60px;"">+</div>","null","","fixation","","","","","","","","","","",""
"aa-learning-trial","222","942274","0.0-11.0-2.0-1.15","6417","1","11","Male","approach_avoid_spark_v1","""event"",""trial"",""time""
""fullscreenenter"",""1"",""2253""
","
","
","""event"",""trial"",""time""
""fullscreenenter"",""1"",""2253""
","
","","","","","","1199.5","images/horse2.png","","","learning","5","0","0","0","horse","animals","2","1","","bad","[-6]"
"html-keyboard-response","223","942777","0.0-11.0-2.0-0.16","6417","1","11","Male","approach_avoid_spark_v1","""event"",""trial"",""time""
""fullscreenenter"",""1"",""2253""
","
","
","""event"",""trial"",""time""
""fullscreenenter"",""1"",""2253""
","
","","","","","","null","<div style=""font-size:60px;"">+</div>","null","","fixation","","","","","","","","","","",""
"aa-learning-trial","224","945781","0.0-11.0-2.0-1.16","6417","1","11","Male","approach_avoid_spark_v1","""event"",""trial"",""time""
""fullscreenenter"",""1"",""2253""
","
","
","""event"",""trial"",""time""
""fullscreenenter"",""1"",""2253""
","
","","","","","","1230","images/horse6.png","","","learning","-2","-2","1","1","horse","animals","2","1","","bad","[-6]"
"html-keyboard-response","225","946285","0.0-11.0-2.0-0.17","6417","1","11","Male","approach_avoid_spark_v1","""event"",""trial"",""time""
""fullscreenenter"",""1"",""2253""
","
","
","""event"",""trial"",""time""
""fullscreenenter"",""1"",""2253""
","
","","","","","","null","<div style=""font-size:60px;"">+</div>","null","","fixation","","","","","","","","","","",""
"aa-learning-trial","226","949289","0.0-11.0-2.0-1.17","6417","1","11","Male","approach_avoid_spark_v1","""event"",""trial"",""time""
""fullscreenenter"",""1"",""2253""
","
","
","""event"",""trial"",""time""
""fullscreenenter"",""1"",""2253""
","
","","","","","","1096.0999999940395","images/horse8.png","","","learning","7","7","1","1","horse","animals","2","1","","bad","[-6]"
"html-keyboard-response","227","949790","0.0-11.0-2.0-0.18","6417","1","11","Male","approach_avoid_spark_v1","""event"",""trial"",""time""
""fullscreenenter"",""1"",""2253""
","
","
","""event"",""trial"",""time""
""fullscreenenter"",""1"",""2253""
","
","","","","","","null","<div style=""font-size:60px;"">+</div>","null","","fixation","","","","","","","","","","",""
"aa-learning-trial","228","952796","0.0-11.0-2.0-1.18","6417","1","11","Male","approach_avoid_spark_v1","""event"",""trial"",""time""
""fullscreenenter"",""1"",""2253""
","
","
","""event"",""trial"",""time""
""fullscreenenter"",""1"",""2253""
","
","","","","","","389.2000000178814","images/horse3.png","","","learning","-5","0","0","0","horse","animals","2","1","","bad","[-6]"
"html-keyboard-response","229","953298","0.0-11.0-2.0-0.19","6417","1","11","Male","approach_avoid_spark_v1","""event"",""trial"",""time""
""fullscreenenter"",""1"",""2253""
","
","
","""event"",""trial"",""time""
""fullscreenenter"",""1"",""2253""
","
","","","","","","null","<div style=""font-size:60px;"">+</div>","null","","fixation","","","","","","","","","","",""
"aa-learning-trial","230","956303","0.0-11.0-2.0-1.19","6417","1","11","Male","approach_avoid_spark_v1","""event"",""trial"",""time""
""fullscreenenter"",""1"",""2253""
","
","
","""event"",""trial"",""time""
""fullscreenenter"",""1"",""2253""
","
","","","","","","2344.7999999821186","images/horse6.png","","","learning","-2","-2","1","1","horse","animals","2","1","","bad","[-6]"
"html-keyboard-response","231","956805","0.0-11.0-2.0-0.20","6417","1","11","Male","approach_avoid_spark_v1","""event"",""trial"",""time""
""fullscreenenter"",""1"",""2253""
","
","
","""event"",""trial"",""time""
""fullscreenenter"",""1"",""2253""
","
","","","","","","null","<div style=""font-size:60px;"">+</div>","null","","fixation","","","","","","","","","","",""
"aa-learning-trial","232","959809","0.0-11.0-2.0-1.20","6417","1","11","Male","approach_avoid_spark_v1","""event"",""trial"",""time""
""fullscreenenter"",""1"",""2253""
","
","
","""event"",""trial"",""time""
""fullscreenenter"",""1"",""2253""
","
","","","","","","1145.5","images/goat6.png","","","learning","-8","0","0","0","goat","animals","2","1","","good","[6]"
"html-keyboard-response","233","960311","0.0-11.0-2.0-0.21","6417","1","11","Male","approach_avoid_spark_v1","""event"",""trial"",""time""
""fullscreenenter"",""1"",""2253""
","
","
","""event"",""trial"",""time""
""fullscreenenter"",""1"",""2253""
","
","","","","","","null","<div style=""font-size:60px;"">+</div>","null","","fixation","","","","","","","","","","",""
"aa-learning-trial","234","963314","0.0-11.0-2.0-1.21","6417","1","11","Male","approach_avoid_spark_v1","""event"",""trial"",""time""
""fullscreenenter"",""1"",""2253""
","
","
","""event"",""trial"",""time""
""fullscreenenter"",""1"",""2253""
","
","","","","","","480.69999998807907","images/cow5.png","","","learning","9","0","0","0","cow","animals","2","1","","neutral","0"
"html-keyboard-response","235","963817","0.0-11.0-2.0-0.22","6417","1","11","Male","approach_avoid_spark_v1","""event"",""trial"",""time""
""fullscreenenter"",""1"",""2253""
","
","
","""event"",""trial"",""time""
""fullscreenenter"",""1"",""2253""
","
","","","","","","null","<div style=""font-size:60px;"">+</div>","null","","fixation","","","","","","","","","","",""
"aa-learning-trial","236","966823","0.0-11.0-2.0-1.22","6417","1","11","Male","approach_avoid_spark_v1","""event"",""trial"",""time""
""fullscreenenter"",""1"",""2253""
","
","
","""event"",""trial"",""time""
""fullscreenenter"",""1"",""2253""
","
