"trial_type","trial_index","time_elapsed","internal_node_id","subject_id","task_condition","age","gender","task_version","interactions","blur_events","focus_events","fullscreenenter_events","fullscreenexit_events","success","timeout","failed_images","failed_audio","failed_video","rt","stimulus","response","button_pressed","task_part","approach_reward","points","key_press","option_selected","stim_cat","task_block","block_condition","block_number","correct","cat_type","mean_cat_reward"
"pavlovia","0","2","0.0-0.0","5639","2","23","Female","approach_avoid_spark_v1","""event"",""trial"",""time""
""fullscreenenter"",""1"",""3287""
","
","
","""event"",""trial"",""time""
""fullscreenenter"",""1"",""3287""
","
","","","","","","","","","","","","","","","","","","","","",""
"fullscreen","1","4281","0.0-1.0","5639","2","23","Female","approach_avoid_spark_v1","""event"",""trial"",""time""
""fullscreenenter"",""1"",""3287""
","
","
","""event"",""trial"",""time""
""fullscreenenter"",""1"",""3287""
","
","true","","","","","","","","","","","","","","","","","","","",""
"preload","2","5545","0.0-2.0","5639","2","23","Female","approach_avoid_spark_v1","""event"",""trial"",""time""
""fullscreenenter"",""1"",""3287""
","
","
","""event"",""trial"",""time""
""fullscreenenter"",""1"",""3287""
","
","true","false","[]","[]","[]","","","","","","","","","","","","","","","",""
"audio-keyboard-response","3","7072","0.0-3.0","5639","2","23","Female","approach_avoid_spark_v1","""event"",""trial"",""time""
""fullscreenenter"",""1"",""3287""
","
","
","""event"",""trial"",""time""
""fullscreenenter"",""1"",""3287""
","
","","","","","","1525.3333333333333","audio/beep_loop.wav"," ","","","","","","","","","","","","",""
"audio-button-response","4","11064","0.0-4.0","5639","2","23","Female","approach_avoid_spark_v1","""event"",""trial"",""time""
""fullscreenenter"",""1"",""3287""
","
","
","""event"",""trial"",""time""
""fullscreenenter"",""1"",""3287""
","
","","","","","","3989","audio/shark.wav","4","","","","","","","","","","","","",""
"audio-button-response","5","13361","0.0-5.0","5639","2","23","Female","approach_avoid_spark_v1","""event"",""trial"",""time""
""fullscreenenter"",""1"",""3287""
","
","
","""event"",""trial"",""time""
""fullscreenenter"",""1"",""3287""
","
","","","","","","1291","audio/turtle.wav","1","","","","","","","","","","","","",""
"preload","6","14889","0.0-6.0","5639","2","23","Female","approach_avoid_spark_v1","""event"",""trial"",""time""
""fullscreenenter"",""1"",""3287""
","
","
","""event"",""trial"",""time""
""fullscreenenter"",""1"",""3287""
","
","true","false","[]","[]","[]","","","","","","","","","","","","","","","",""
"html-keyboard-response","7","15971","0.0-7.0","5639","2","23","Female","approach_avoid_spark_v1","""event"",""trial"",""time""
""fullscreenenter"",""1"",""3287""
","
","
","""event"",""trial"",""time""
""fullscreenenter"",""1"",""3287""
","
","","","","","","1080.9000000059605","Welcome to the experiment. Press any key to begin and to advance the instructions."," ","","","","","","","","","","","","",""
"learning-instructions","8","26145","0.0-8.0-0.0-0.0","5639","2","23","Female","approach_avoid_spark_v1","""event"",""trial"",""time""
""fullscreenenter"",""1"",""3287""
","
","
","""event"",""trial"",""time""
""fullscreenenter"",""1"",""3287""
","
","","","","","","3216.7999999821186","<p> Welcome! Today you are going to play 6 different rounds of a decision-making game. </p><p> Use the mouse to click next to continue. </p>","","0","instructions","","","","","","","","","","",""
"learning-instructions","9","31998","0.0-8.0-0.0-0.1","5639","2","23","Female","approach_avoid_spark_v1","""event"",""trial"",""time""
""fullscreenenter"",""1"",""3287""
","
","
","""event"",""trial"",""time""
""fullscreenenter"",""1"",""3287""
","
","","","","","","3128.5999999940395","<p> You will start with a practice round to learn the rules. </p>","","0","instructions","","","","","","","","","","",""
"learning-instructions","10","36177","0.0-8.0-0.0-0.2","5639","2","23","Female","approach_avoid_spark_v1","""event"",""trial"",""time""
""fullscreenenter"",""1"",""3287""
","
","
","""event"",""trial"",""time""
""fullscreenenter"",""1"",""3287""
","
","","","","","","732","<p> Your goal in this round is to give out sports equipment to kids. </p></div>","","0","instructions","","","","","","","","","","",""
"learning-instructions","11","44281","0.0-8.0-0.0-0.3","5639","2","23","Female","approach_avoid_spark_v1","""event"",""trial"",""time""
""fullscreenenter"",""1"",""3287""
","
","
","""event"",""trial"",""time""
""fullscreenenter"",""1"",""3287""
","
","","","","","","558.5999999940395","<p> The kids only like some of the equipment.  </p><p> On each turn, you will see a piece of sports equipment.   </p><p> You need to decide whether to give it to the kids or not.  </p>","","0","instructions","","","","","","","","","","",""
"learning-instructions","12","49614","0.0-8.0-0.0-0.4","5639","2","23","Female","approach_avoid_spark_v1","""event"",""trial"",""time""
""fullscreenenter"",""1"",""3287""
","
","
","""event"",""trial"",""time""
""fullscreenenter"",""1"",""3287""
","
","","","","","","584.2999999821186","<p> You can give them the equipment by pressing 1 and choose not to give it to them by pressing 0. </p><br><div class=""choice-instructions-grid""> <div class=""choice-option""><img src=""images/approach.png"" class=""choice-option-img"" stage=""instructions"" position=""0"" ><div class=""choice-option-text""> Press ""1."" </div></div><div class=""choice-option""><img src=""images/avoid.png"" class=""choice-option-img"" stage=""instructions"" position=""1"" ><div class=""choice-option-text""> Press ""0."" </div></div>","","0","instructions","","","","","","","","","","",""
"learning-instructions","13","57511","0.0-8.0-0.0-0.5","5639","2","23","Female","approach_avoid_spark_v1","""event"",""trial"",""time""
""fullscreenenter"",""1"",""3287""
","
","
","""event"",""trial"",""time""
""fullscreenenter"",""1"",""3287""
","
","","","","","","513.8000000119209","<p> If you give them a piece of equipment they like, they will be happy! </p><p> But if you give them a piece of equipment they do not like, they will be sad. </p>","","0","instructions","","","","","","","","","","",""
"learning-instructions","14","68827","0.0-8.0-0.0-0.6","5639","2","23","Female","approach_avoid_spark_v1","""event"",""trial"",""time""
""fullscreenenter"",""1"",""3287""
","
","
","""event"",""trial"",""time""
""fullscreenenter"",""1"",""3287""
","
","","","","","","811.5","<p> You will earn points based on how you make kids feel. </p><p> If you make them happy, you will WIN anywhere from 1 - 9 points, </p><p> but if you make them sad, you will LOSE anywhere from 1 - 9 points. </p>","","0","instructions","","","","","","","","","","",""
"learning-instructions","15","79514","0.0-8.0-0.0-0.7","5639","2","23","Female","approach_avoid_spark_v1","""event"",""trial"",""time""
""fullscreenenter"",""1"",""3287""
","
","
","""event"",""trial"",""time""
""fullscreenenter"",""1"",""3287""
","
","","","","","","1135.5","<p> You will see how many points you won or lost in the center of the screen. </p><p> Here is what you would see if you won 6 points: </p><p style=""color:green;font-size:50px;font-weight:bolder"">6</p><p style=""color:green"">The text is GREEN because you WON points.</p>","","0","instructions","","","","","","","","","","",""
"learning-instructions","16","85197","0.0-8.0-0.0-0.8","5639","2","23","Female","approach_avoid_spark_v1","""event"",""trial"",""time""
""fullscreenenter"",""1"",""3287""
","
","
","""event"",""trial"",""time""
""fullscreenenter"",""1"",""3287""
","
","","","","","","178.69999998807907","<p> And here is what you would see if you lost 4 points: </p><p style=""color:red;font-size:50px;font-weight:bolder"">-4</p><p style=""color:red"">The text is RED because you LOST points. </p>","","0","instructions","","","","","","","","","","",""
"learning-instructions","17","101248","0.0-8.0-0.0-0.9","5639","2","23","Female","approach_avoid_spark_v1","""event"",""trial"",""time""
""fullscreenenter"",""1"",""3287""
","
","
","""event"",""trial"",""time""
""fullscreenenter"",""1"",""3287""
","
","","","","","","1339.199999988079","<p> Some of the equipment will make the kids VERY happy or sad. </p><p> These pieces of equipment will make you win or lose LOTS of points. </p><p> Other pieces of equipment will only make the kids a little happy or sad. </p><p> These pieces of equipment will make you win or lose small amounts of points. </p>","","0","instructions","","","","","","","","","","",""
"learning-instructions","18","113281","0.0-8.0-0.0-0.10","5639","2","23","Female","approach_avoid_spark_v1","""event"",""trial"",""time""
""fullscreenenter"",""1"",""3287""
","
","
","""event"",""trial"",""time""
""fullscreenenter"",""1"",""3287""
","
","","","","","","1404.5999999940395","<p> If you choose not to give them the equipment, you will not win or lose any points. </p><p>  However, in the center of the screen, you will see the number of points you WOULD HAVE won or lost if you had given them the equipment. </p>","","0","instructions","","","","","","","","","","",""
"learning-instructions","19","135229","0.0-8.0-0.0-0.11","5639","2","23","Female","approach_avoid_spark_v1","""event"",""trial"",""time""
""fullscreenenter"",""1"",""3287""
","
","
","""event"",""trial"",""time""
""fullscreenenter"",""1"",""3287""
","
","","","","","","421.90000000596046","<p> Here is what you might see if you did not give the equipment to the kids but it would have made them happy: </p><p style=""color:grey; font-size:50px; display: inline-block; border-spacing: 15px; border-width:3px; border-style:solid; border-color:red"">  &nbsp; 7 &nbsp; </p><p> Remember, in this case, you would not win or lose ANY points because you did not give them the equipment.  </p><p style=""color:grey"">The text is GREY because you earned ZERO points. </p><p style=""color:red"">However, choosing to give the kids the equipment would have made you win points. The box around the text is RED because you chose the worse option. </p>","","0","instructions","","","","","","","","","","",""
"learning-instructions","20","157016","0.0-8.0-0.0-0.12","5639","2","23","Female","approach_avoid_spark_v1","""event"",""trial"",""time""
""fullscreenenter"",""1"",""3287""
","
","
","""event"",""trial"",""time""
""fullscreenenter"",""1"",""3287""
","
","","","","","","712.5999999940395","<p> Here is what you might see if you did not give the equipment to the kids but it would have made them sad: </p><p style=""color:grey;font-size:50px; display: inline-block; border-spacing: 15px; border-width:3px; border-style:solid; border-color:green"">  &nbsp; -8 &nbsp; </p><p> Remember, in this case, you would not win or lose ANY points because you did not give them the equipment.  </p><p style=""color:grey"">The text is GREY because you earned ZERO points. </p><p  style=""color:green""> Choosing to give the kids the equipment would have made you lose points. The box around the text is GREEN because you chose the better option.</p>","","0","instructions","","","","","","","","","","",""
"learning-instructions","21","166237","0.0-8.0-0.0-0.13","5639","2","23","Female","approach_avoid_spark_v1","""event"",""trial"",""time""
""fullscreenenter"",""1"",""3287""
","
","
","""event"",""trial"",""time""
""fullscreenenter"",""1"",""3287""
","
","","","","","","727.3000000119209","<p> You will have 3 seconds to make each choice. Try to respond before time runs out! </p><p> You will lose 5 points each time you do not make a response. </p>","","0","instructions","","","","","","","","","","",""
"learning-instructions","22","172072","0.0-8.0-0.0-0.14","5639","2","23","Female","approach_avoid_spark_v1","""event"",""trial"",""time""
""fullscreenenter"",""1"",""3287""
","
","
","""event"",""trial"",""time""
""fullscreenenter"",""1"",""3287""
","
","","","","","","423.09999999403954","<p> This is just a practice round, but in the real game, your bonus payment will depend on your total number of points.","","0","instructions","","","","","","","","","","",""
"learning-instructions","23","178917","0.0-8.0-0.0-0.15","5639","2","23","Female","approach_avoid_spark_v1","""event"",""trial"",""time""
""fullscreenenter"",""1"",""3287""
","
","
","""event"",""trial"",""time""
""fullscreenenter"",""1"",""3287""
","
","","","","","","1080.9000000059605","<p> Remember, you can give them the equipment by pressing 1 and choose not to give it to them by pressing 0. </p><br><div class=""choice-instructions-grid""> <div class=""choice-option""><img src=""images/approach.png"" class=""choice-option-img"" stage=""instructions"" position=""0"" ><div class=""choice-option-text""> Press ""1."" </div></div><div class=""choice-option""><img src=""images/avoid.png"" class=""choice-option-img"" stage=""instructions"" position=""1"" ><div class=""choice-option-text""> Press ""0."" </div></div>","","0","instructions","","","","","","","","","","",""
"html-button-response","24","180237","0.0-8.0-1.0","5639","2","23","Female","approach_avoid_spark_v1","""event"",""trial"",""time""
""fullscreenenter"",""1"",""3287""
","
","
","""event"",""trial"",""time""
""fullscreenenter"",""1"",""3287""
","
","","","","","","1217.5","<p> Ready to practice? </p>","0","","","","","","","","","","","","",""
"html-keyboard-response","25","180845","0.0-8.0-2.0-0.0","5639","2","23","Female","approach_avoid_spark_v1","""event"",""trial"",""time""
""fullscreenenter"",""1"",""3287""
","
","
","""event"",""trial"",""time""
""fullscreenenter"",""1"",""3287""
","
","","","","","","null","<div style=""font-size:60px;"">+</div>","null","","fixation","","","","","","","","","","",""
"aa-learning-trial","26","183850","0.0-8.0-2.0-1.0","5639","2","23","Female","approach_avoid_spark_v1","""event"",""trial"",""time""
""fullscreenenter"",""1"",""3287""
","
","
","""event"",""trial"",""time""
""fullscreenenter"",""1"",""3287""
","
","","","","","","1332.800000011921","images/racket1.png","","","learning","4","4","1","1","practice","practice","practice","-1","","",""
"html-keyboard-response","27","184352","0.0-8.0-2.0-0.1","5639","2","23","Female","approach_avoid_spark_v1","""event"",""trial"",""time""
""fullscreenenter"",""1"",""3287""
","
","
","""event"",""trial"",""time""
""fullscreenenter"",""1"",""3287""
","
","","","","","","null","<div style=""font-size:60px;"">+</div>","null","","fixation","","","","","","","","","","",""
"aa-learning-trial","28","187359","0.0-8.0-2.0-1.1","5639","2","23","Female","approach_avoid_spark_v1","""event"",""trial"",""time""
""fullscreenenter"",""1"",""3287""
","
","
","""event"",""trial"",""time""
""fullscreenenter"",""1"",""3287""
","
","","","","","","648.4000000059605","images/racket1.png","","","learning","5","5","1","1","practice","practice","practice","-1","","",""
"html-keyboard-response","29","187860","0.0-8.0-2.0-0.2","5639","2","23","Female","approach_avoid_spark_v1","""event"",""trial"",""time""
""fullscreenenter"",""1"",""3287""
","
","
","""event"",""trial"",""time""
""fullscreenenter"",""1"",""3287""
","
","","","","","","null","<div style=""font-size:60px;"">+</div>","null","","fixation","","","","","","","","","","",""
"aa-learning-trial","30","190865","0.0-8.0-2.0-1.2","5639","2","23","Female","approach_avoid_spark_v1","""event"",""trial"",""time""
""fullscreenenter"",""1"",""3287""
","
","
","""event"",""trial"",""time""
""fullscreenenter"",""1"",""3287""
","
","","","","","","871.0999999940395","images/racket4.png","","","learning","7","7","1","1","practice","practice","practice","-1","","",""
"html-keyboard-response","31","191370","0.0-8.0-2.0-0.3","5639","2","23","Female","approach_avoid_spark_v1","""event"",""trial"",""time""
""fullscreenenter"",""1"",""3287""
","
","
","""event"",""trial"",""time""
""fullscreenenter"",""1"",""3287""
","
","","","","","","null","<div style=""font-size:60px;"">+</div>","null","","fixation","","","","","","","","","","",""
"aa-learning-trial","32","194375","0.0-8.0-2.0-1.3","5639","2","23","Female","approach_avoid_spark_v1","""event"",""trial"",""time""
""fullscreenenter"",""1"",""3287""
","
","
","""event"",""trial"",""time""
""fullscreenenter"",""1"",""3287""
","
","","","","","","617.2999999821186","images/racket2.png","","","learning","-6","-6","1","1","practice","practice","practice","-1","","",""
"html-keyboard-response","33","194877","0.0-8.0-2.0-0.4","5639","2","23","Female","approach_avoid_spark_v1","""event"",""trial"",""time""
""fullscreenenter"",""1"",""3287""
","
","
","""event"",""trial"",""time""
""fullscreenenter"",""1"",""3287""
","
","","","","","","null","<div style=""font-size:60px;"">+</div>","null","","fixation","","","","","","","","","","",""
"aa-learning-trial","34","197881","0.0-8.0-2.0-1.4","5639","2","23","Female","approach_avoid_spark_v1","""event"",""trial"",""time""
""fullscreenenter"",""1"",""3287""
","
","
","""event"",""trial"",""time""
""fullscreenenter"",""1"",""3287""
","
","","","","","","743.5999999940395","images/ball4.png","","","learning","-3","-3","1","1","practice","practice","practice","-1","","",""
"html-keyboard-response","35","198383","0.0-8.0-2.0-0.5","5639","2","23","Female","approach_avoid_spark_v1","""event"",""trial"",""time""
""fullscreenenter"",""1"",""3287""
","
","
","""event"",""trial"",""time""
""fullscreenenter"",""1"",""3287""
","
","","","","","","null","<div style=""font-size:60px;"">+</div>","null","","fixation","","","","","","","","","","",""
"aa-learning-trial","36","201386","0.0-8.0-2.0-1.5","5639","2","23","Female","approach_avoid_spark_v1","""event"",""trial"",""time""
""fullscreenenter"",""1"",""3287""
","
","
","""event"",""trial"",""time""
""fullscreenenter"",""1"",""3287""
","
","","","","","","816.2999999821186","images/ball1.png","","","learning","9","9","1","1","practice","practice","practice","-1","","",""
"html-keyboard-response","37","201888","0.0-8.0-2.0-0.6","5639","2","23","Female","approach_avoid_spark_v1","""event"",""trial"",""time""
""fullscreenenter"",""1"",""3287""
","
","
","""event"",""trial"",""time""
""fullscreenenter"",""1"",""3287""
","
","","","","","","null","<div style=""font-size:60px;"">+</div>","null","","fixation","","","","","","","","","","",""
"aa-learning-trial","38","204893","0.0-8.0-2.0-1.6","5639","2","23","Female","approach_avoid_spark_v1","""event"",""trial"",""time""
""fullscreenenter"",""1"",""3287""
","
","
","""event"",""trial"",""time""
""fullscreenenter"",""1"",""3287""
","
","","","","","","461.5","images/ball2.png","","","learning","-7","0","0","0","practice","practice","practice","-1","","",""
"html-keyboard-response","39","205395","0.0-8.0-2.0-0.7","5639","2","23","Female","approach_avoid_spark_v1","""event"",""trial"",""time""
""fullscreenenter"",""1"",""3287""
","
","
","""event"",""trial"",""time""
""fullscreenenter"",""1"",""3287""
","
","","","","","","null","<div style=""font-size:60px;"">+</div>","null","","fixation","","","","","","","","","","",""
"aa-learning-trial","40","208402","0.0-8.0-2.0-1.7","5639","2","23","Female","approach_avoid_spark_v1","""event"",""trial"",""time""
""fullscreenenter"",""1"",""3287""
","
","
","""event"",""trial"",""time""
""fullscreenenter"",""1"",""3287""
","
","","","","","","1104.699999988079","images/racket1.png","","","learning","4","4","1","1","practice","practice","practice","-1","","",""
"html-keyboard-response","41","208907","0.0-8.0-2.0-0.8","5639","2","23","Female","approach_avoid_spark_v1","""event"",""trial"",""time""
""fullscreenenter"",""1"",""3287""
","
","
","""event"",""trial"",""time""
""fullscreenenter"",""1"",""3287""
","
","","","","","","null","<div style=""font-size:60px;"">+</div>","null","","fixation","","","","","","","","","","",""
"aa-learning-trial","42","211912","0.0-8.0-2.0-1.8","5639","2","23","Female","approach_avoid_spark_v1","""event"",""trial"",""time""
""fullscreenenter"",""1"",""3287""
","
","
","""event"",""trial"",""time""
""fullscreenenter"",""1"",""3287""
","
","","","","","","781.7000000178814","images/ball2.png","","","learning","-3","-3","1","1","practice","practice","practice","-1","","",""
"html-keyboard-response","43","212416","0.0-8.0-2.0-0.9","5639","2","23","Female","approach_avoid_spark_v1","""event"",""trial"",""time""
""fullscreenenter"",""1"",""3287""
","
","
","""event"",""trial"",""time""
""fullscreenenter"",""1"",""3287""
","
","","","","","","null","<div style=""font-size:60px;"">+</div>","null","","fixation","","","","","","","","","","",""
"aa-learning-trial","44","215425","0.0-8.0-2.0-1.9","5639","2","23","Female","approach_avoid_spark_v1","""event"",""trial"",""time""
""fullscreenenter"",""1"",""3287""
","
","
","""event"",""trial"",""time""
""fullscreenenter"",""1"",""3287""
","
","","","","","","1058.4000000059605","images/racket1.png","","","learning","-2","-2","1","1","practice","practice","practice","-1","","",""
"html-keyboard-response","45","215931","0.0-8.0-2.0-0.10","5639","2","23","Female","approach_avoid_spark_v1","""event"",""trial"",""time""
""fullscreenenter"",""1"",""3287""
","
","
","""event"",""trial"",""time""
""fullscreenenter"",""1"",""3287""
","
","","","","","","null","<div style=""font-size:60px;"">+</div>","null","","fixation","","","","","","","","","","",""
"aa-learning-trial","46","218934","0.0-8.0-2.0-1.10","5639","2","23","Female","approach_avoid_spark_v1","""event"",""trial"",""time""
""fullscreenenter"",""1"",""3287""
","
","
","""event"",""trial"",""time""
""fullscreenenter"",""1"",""3287""
","
","","","","","","821.4000000059605","images/ball4.png","","","learning","1","0","0","0","practice","practice","practice","-1","","",""
"html-keyboard-response","47","219440","0.0-8.0-2.0-0.11","5639","2","23","Female","approach_avoid_spark_v1","""event"",""trial"",""time""
""fullscreenenter"",""1"",""3287""
","
","
","""event"",""trial"",""time""
""fullscreenenter"",""1"",""3287""
","
","","","","","","null","<div style=""font-size:60px;"">+</div>","null","","fixation","","","","","","","","","","",""
"aa-learning-trial","48","222444","0.0-8.0-2.0-1.11","5639","2","23","Female","approach_avoid_spark_v1","""event"",""trial"",""time""
""fullscreenenter"",""1"",""3287""
","
","
","""event"",""trial"",""time""
""fullscreenenter"",""1"",""3287""
","
","","","","","","1257.2000000178814","images/racket2.png","","","learning","-7","0","0","0","practice","practice","practice","-1","","",""
"html-button-response","49","223884","0.0-8.0-3.0","5639","2","23","Female","approach_avoid_spark_v1","""event"",""trial"",""time""
""fullscreenenter"",""1"",""3287""
","
","
","""event"",""trial"",""time""
""fullscreenenter"",""1"",""3287""
","
","","","","","","1437.7999999821186","<p> You earned 15 points in the practice round! </p>","0","","break","","","","","","","","","","",""
"learning-instructions","50","232055","0.0-8.0-4.0-0.0","5639","2","23","Female","approach_avoid_spark_v1","""event"",""trial"",""time""
""fullscreenenter"",""1"",""3287""
","
","
","""event"",""trial"",""time""
""fullscreenenter"",""1"",""3287""
","
","","","","","","2181","<p> It's almost time to start the real game. </p><p> Before you start, we're going to ask you a few questions about how the game works. </p>","","0","instructions","","","","","","","","","","",""
"preload","51","232399","0.0-8.0-5.0","5639","2","23","Female","approach_avoid_spark_v1","""event"",""trial"",""time""
""fullscreenenter"",""1"",""3287""
","
","
","""event"",""trial"",""time""
""fullscreenenter"",""1"",""3287""
","
","true","false","[]","[]","[]","","","","","","","","","","","","","","","",""
"comp-q","52","238685","0.0-8.0-6.0-0.0","5639","2","23","Female","approach_avoid_spark_v1","""event"",""trial"",""time""
""fullscreenenter"",""1"",""3287""
","
","
","""event"",""trial"",""time""
""fullscreenenter"",""1"",""3287""
","
","","","","","","1290.2000000178814","<p> <b> True or False? </b> </p><p> If you see a number in GREY, that means you earned that many points. </p>","","1","comp_question","","","","","","","","","true","",""
"comp-q","53","247971","0.0-8.0-6.0-1.0","5639","2","23","Female","approach_avoid_spark_v1","""event"",""trial"",""time""
""fullscreenenter"",""1"",""3287""
","
","
","""event"",""trial"",""time""
""fullscreenenter"",""1"",""3287""
","
","","","","","","929.4000000059605","<p><b> That's right! </b> If you see a grey number, it means you earned ZERO points. <br> The grey numbers show the points you WOULD HAVE earned if you had made the other choice. </p>","","0","comp_answer","","","","","","","","","","",""
"comp-q","54","253287","0.0-8.0-7.0-0.0","5639","2","23","Female","approach_avoid_spark_v1","""event"",""trial"",""time""
""fullscreenenter"",""1"",""3287""
","
","
","""event"",""trial"",""time""
""fullscreenenter"",""1"",""3287""
","
","","","","","","629.5","<p> <b> True or False? </b> </p><p> You will have as much time as you want to make each choice. </p>","","1","comp_question","","","","","","","","","true","",""
"comp-q","55","258355","0.0-8.0-7.0-1.0","5639","2","23","Female","approach_avoid_spark_v1","""event"",""trial"",""time""
""fullscreenenter"",""1"",""3287""
","
","
","""event"",""trial"",""time""
""fullscreenenter"",""1"",""3287""
","
","","","","","","1029.9000000059605","<p> <b> That's right! </b> You will only have 3 seconds to make each choice. </p>","","0","comp_answer","","","","","","","","","","",""
"comp-q","56","263601","0.0-8.0-8.0-0.0","5639","2","23","Female","approach_avoid_spark_v1","""event"",""trial"",""time""
""fullscreenenter"",""1"",""3287""
","
","
","""event"",""trial"",""time""
""fullscreenenter"",""1"",""3287""
","
","","","","","","591.2000000178814","<p> <b> True or False? </b> </p><p> You should use the '1' and '0' keys to make your choices. </p>","","0","comp_question","","","","","","","","","true","",""
"comp-q","57","269117","0.0-8.0-8.0-1.0","5639","2","23","Female","approach_avoid_spark_v1","""event"",""trial"",""time""
""fullscreenenter"",""1"",""3287""
","
","
","""event"",""trial"",""time""
""fullscreenenter"",""1"",""3287""
","
","","","","","","907.0999999940395","<p> <b> That's right! </b> You should use the '1' and '0' keys to make each choice. </p>","","0","comp_answer","","","","","","","","","","",""
"learning-instructions","58","276304","0.0-8.0-9.0-0.0","5639","2","23","Female","approach_avoid_spark_v1","""event"",""trial"",""time""
""fullscreenenter"",""1"",""3287""
","
","
","""event"",""trial"",""time""
""fullscreenenter"",""1"",""3287""
","
","","","","","","920.4000000059605","<p> It's now time to start the real game. </p>Do your best, because the points you earn in the next rounds will influence your bonus payment. </p>","","0","instructions","","","","","","","","","","",""
"preload","59","276420","0.0-9.0-0.0","5639","2","23","Female","approach_avoid_spark_v1","""event"",""trial"",""time""
""fullscreenenter"",""1"",""3287""
","
","
","""event"",""trial"",""time""
""fullscreenenter"",""1"",""3287""
","
","true","false","[]","[]","[]","","","","","","","","","","","","","","","",""
"learning-instructions","60","280888","0.0-9.0-1.0-0.0","5639","2","23","Female","approach_avoid_spark_v1","""event"",""trial"",""time""
""fullscreenenter"",""1"",""3287""
","
","
","""event"",""trial"",""time""
""fullscreenenter"",""1"",""3287""
","
","","","","","","794.8999999761581","<p> Your goal in this round is to take care of lots of farm animals. </p></div>","","0","instructions","","","","","","","","","","",""
"learning-instructions","61","290417","0.0-9.0-1.0-0.1","5639","2","23","Female","approach_avoid_spark_v1","""event"",""trial"",""time""
""fullscreenenter"",""1"",""3287""
","
","
","""event"",""trial"",""time""
""fullscreenenter"",""1"",""3287""
","
","","","","","","388.90000000596046","<p> Some farm animals are hungry, while other farm animals are already full.  </p><p> On each turn, you will see a farm animal.   </p><p> You need to decide whether to feed it or not.  </p>","","0","instructions","","","","","","","","","","",""
"learning-instructions","62","295988","0.0-9.0-1.0-0.2","5639","2","23","Female","approach_avoid_spark_v1","""event"",""trial"",""time""
""fullscreenenter"",""1"",""3287""
","
","
","""event"",""trial"",""time""
""fullscreenenter"",""1"",""3287""
","
","","","","","","348.90000000596046","<p> You can feed the farm animal by pressing 1 and leave the farm animal alone by pressing 0. </p><br><div class=""choice-instructions-grid""> <div class=""choice-option""><img src=""images/approach.png"" class=""choice-option-img"" stage=""instructions"" position=""0"" ><div class=""choice-option-text""> Press ""1."" </div></div><div class=""choice-option""><img src=""images/avoid.png"" class=""choice-option-img"" stage=""instructions"" position=""1"" ><div class=""choice-option-text""> Press ""0."" </div></div>","","0","instructions","","","","","","","","","","",""
"learning-instructions","63","305268","0.0-9.0-1.0-0.3","5639","2","23","Female","approach_avoid_spark_v1","""event"",""trial"",""time""
""fullscreenenter"",""1"",""3287""
","
","
","""event"",""trial"",""time""
""fullscreenenter"",""1"",""3287""
","
","","","","","","535.2000000178814","<p> If you feed a hungry farm animal, you will make it feel satisfied! </p><p> But if you feed the farm animal and it was already full, you will make it feel sick. </p>","","0","instructions","","","","","","","","","","",""
"learning-instructions","64","317133","0.0-9.0-1.0-0.4","5639","2","23","Female","approach_avoid_spark_v1","""event"",""trial"",""time""
""fullscreenenter"",""1"",""3287""
","
","
","""event"",""trial"",""time""
""fullscreenenter"",""1"",""3287""
","
","","","","","","337.40000000596046","<p> You will earn points based on how you made the farm animal feel. </p><p> If you made it satisfied, you will WIN anywhere from 1 - 9 points, </p><p> but if you made it sick, you will LOSE anywhere from 1 - 9 points. </p>","","0","instructions","","","","","","","","","","",""
"learning-instructions","65","324537","0.0-9.0-1.0-0.5","5639","2","23","Female","approach_avoid_spark_v1","""event"",""trial"",""time""
""fullscreenenter"",""1"",""3287""
","
","
","""event"",""trial"",""time""
""fullscreenenter"",""1"",""3287""
","
","","","","","","621.5999999940395","<p> You will see how many points you won or lost in the center of the screen. </p><p> Here is what you would see if you won 5 points: </p><p style=""color:green;font-size:50px;font-weight:bolder"">5</p>","","0","instructions","","","","","","","","","","",""
"learning-instructions","66","328917","0.0-9.0-1.0-0.6","5639","2","23","Female","approach_avoid_spark_v1","""event"",""trial"",""time""
""fullscreenenter"",""1"",""3287""
","
","
","""event"",""trial"",""time""
""fullscreenenter"",""1"",""3287""
","
","","","","","","1454.7999999821186","<p> And here is what you would see if you lost 3 points: </p><p style=""color:red;font-size:50px;font-weight:bolder"">-3</p>","","0","instructions","","","","","","","","","","",""
"learning-instructions","67","343951","0.0-9.0-1.0-0.7","5639","2","23","Female","approach_avoid_spark_v1","""event"",""trial"",""time""
""fullscreenenter"",""1"",""3287""
","
","
","""event"",""trial"",""time""
""fullscreenenter"",""1"",""3287""
","
","","","","","","488.69999998807907","<p> Some farm animals will become very satisfied or very sick. </p><p> These farm animals will make you win or lose LOTS of points. </p><p> Other farm animals have less strong feelings. </p><p> These farm animals will make you win or lose small amounts of points. </p>","","0","instructions","","","","","","","","","","",""
"learning-instructions","68","355883","0.0-9.0-1.0-0.8","5639","2","23","Female","approach_avoid_spark_v1","""event"",""trial"",""time""
""fullscreenenter"",""1"",""3287""
","
","
","""event"",""trial"",""time""
""fullscreenenter"",""1"",""3287""
","
","","","","","","714.2000000178814","<p> If you choose to leave the farm animal alone, you will not win or lose any points. </p><p>  However, in the center of the screen, you will see the number of points you WOULD HAVE won or lost if you had fed the farm animal. </p>","","0","instructions","","","","","","","","","","",""
"learning-instructions","69","367068","0.0-9.0-1.0-0.9","5639","2","23","Female","approach_avoid_spark_v1","""event"",""trial"",""time""
""fullscreenenter"",""1"",""3287""
","
","
","""event"",""trial"",""time""
""fullscreenenter"",""1"",""3287""
","
","","","","","","618.2999999821186","<p> Here is what you might see if you did not feed the farm animal but the animal was hungry: </p><p style=""color:grey; font-size:50px; display: inline-block; border-spacing: 15px; border-width:3px; border-style:solid; border-color:red"">  &nbsp; 6 &nbsp; </p><p> Remember, in this case, you would not win or lose ANY points because you did not feed the farm animal.  </p>","","0","instructions","","","","","","","","","","",""
"learning-instructions","70","374603","0.0-9.0-1.0-0.10","5639","2","23","Female","approach_avoid_spark_v1","""event"",""trial"",""time""
""fullscreenenter"",""1"",""3287""
","
","
","""event"",""trial"",""time""
""fullscreenenter"",""1"",""3287""
","
","","","","","","484.39999997615814","<p> Try to make the best choice for each farm animal because </p><p> at the end of the game, you will earn bonus money based on how many points you earned. </p>","","0","instructions","","","","","","","","","","",""
"learning-instructions","71","383371","0.0-9.0-1.0-0.11","5639","2","23","Female","approach_avoid_spark_v1","""event"",""trial"",""time""
""fullscreenenter"",""1"",""3287""
","
","
","""event"",""trial"",""time""
""fullscreenenter"",""1"",""3287""
","
","","","","","","580.2999999821186","<p> You will have 3 seconds to make each choice. Try to respond before time runs out! </p><p> You will lose 5 points each time you do not make a response. </p>","","0","instructions","","","","","","","","","","",""
"html-keyboard-response","72","383977","0.0-9.0-2.0-0.0","5639","2","23","Female","approach_avoid_spark_v1","""event"",""trial"",""time""
""fullscreenenter"",""1"",""3287""
","
","
","""event"",""trial"",""time""
""fullscreenenter"",""1"",""3287""
","
","","","","","","null","<div style=""font-size:60px;"">+</div>","null","","fixation","","","","","","","","","","",""
"aa-learning-trial","73","386982","0.0-9.0-2.0-1.0","5639","2","23","Female","approach_avoid_spark_v1","""event"",""trial"",""time""
""fullscreenenter"",""1"",""3287""
","
","
","""event"",""trial"",""time""
""fullscreenenter"",""1"",""3287""
","
","","","","","","1162.4000000059605","images/sheep8.png","","","learning","-6","-6","1","1","sheep","animals","2","0","","neutral","0"
"html-keyboard-response","74","387486","0.0-9.0-2.0-0.1","5639","2","23","Female","approach_avoid_spark_v1","""event"",""trial"",""time""
""fullscreenenter"",""1"",""3287""
","
","
","""event"",""trial"",""time""
""fullscreenenter"",""1"",""3287""
","
","","","","","","null","<div style=""font-size:60px;"">+</div>","null","","fixation","","","","","","","","","","",""
"aa-learning-trial","75","390493","0.0-9.0-2.0-1.1","5639","2","23","Female","approach_avoid_spark_v1","""event"",""trial"",""time""
""fullscreenenter"",""1"",""3287""
","
","
","""event"",""trial"",""time""
""fullscreenenter"",""1"",""3287""
","
","","","","","","932.7000000178814","images/horse8.png","","","learning","-2","-2","1","1","horse","animals","2","0","","good","[4]"
"html-keyboard-response","76","390997","0.0-9.0-2.0-0.2","5639","2","23","Female","approach_avoid_spark_v1","""event"",""trial"",""time""
""fullscreenenter"",""1"",""3287""
","
","
","""event"",""trial"",""time""
""fullscreenenter"",""1"",""3287""
","
","","","","","","null","<div style=""font-size:60px;"">+</div>","null","","fixation","","","","","","","","","","",""
"aa-learning-trial","77","394001","0.0-9.0-2.0-1.2","5639","2","23","Female","approach_avoid_spark_v1","""event"",""trial"",""time""
""fullscreenenter"",""1"",""3287""
","
","
","""event"",""trial"",""time""
""fullscreenenter"",""1"",""3287""
","
","","","","","","642.1000000238419","images/horse8.png","","","learning","-2","0","0","0","horse","animals","2","0","","good","[4]"
"html-keyboard-response","78","394504","0.0-9.0-2.0-0.3","5639","2","23","Female","approach_avoid_spark_v1","""event"",""trial"",""time""
""fullscreenenter"",""1"",""3287""
","
","
","""event"",""trial"",""time""
""fullscreenenter"",""1"",""3287""
","
","","","","","","null","<div style=""font-size:60px;"">+</div>","null","","fixation","","","","","","","","","","",""
"aa-learning-trial","79","397509","0.0-9.0-2.0-1.3","5639","2","23","Female","approach_avoid_spark_v1","""event"",""trial"",""time""
""fullscreenenter"",""1"",""3287""
","
","
","""event"",""trial"",""time""
""fullscreenenter"",""1"",""3287""
","
","","","","","","739.4000000059605","images/cow7.png","","","learning","7","7","1","1","cow","animals","2","0","","bad","[-5]"
"html-keyboard-response","80","398012","0.0-9.0-2.0-0.4","5639","2","23","Female","approach_avoid_spark_v1","""event"",""trial"",""time""
""fullscreenenter"",""1"",""3287""
","
","
","""event"",""trial"",""time""
""fullscreenenter"",""1"",""3287""
","
","","","","","","null","<div style=""font-size:60px;"">+</div>","null","","fixation","","","","","","","","","","",""
"aa-learning-trial","81","401016","0.0-9.0-2.0-1.4","5639","2","23","Female","approach_avoid_spark_v1","""event"",""trial"",""time""
""fullscreenenter"",""1"",""3287""
","
","
","""event"",""trial"",""time""
""fullscreenenter"",""1"",""3287""
","
","","","","","","811.2000000178814","images/sheep3.png","","","learning","-1","0","0","0","sheep","animals","2","0","","neutral","0"
"html-keyboard-response","82","401518","0.0-9.0-2.0-0.5","5639","2","23","Female","approach_avoid_spark_v1","""event"",""trial"",""time""
""fullscreenenter"",""1"",""3287""
","
","
","""event"",""trial"",""time""
""fullscreenenter"",""1"",""3287""
","
","","","","","","null","<div style=""font-size:60px;"">+</div>","null","","fixation","","","","","","","","","","",""
"aa-learning-trial","83","404525","0.0-9.0-2.0-1.5","5639","2","23","Female","approach_avoid_spark_v1","""event"",""trial"",""time""
""fullscreenenter"",""1"",""3287""
","
","
","""event"",""trial"",""time""
""fullscreenenter"",""1"",""3287""
","
","","","","","","1303.5999999940395","images/horse2.png","","","learning","8","0","0","0","horse","animals","2","0","","good","[4]"
"html-keyboard-response","84","405027","0.0-9.0-2.0-0.6","5639","2","23","Female","approach_avoid_spark_v1","""event"",""trial"",""time""
""fullscreenenter"",""1"",""3287""
","
","
","""event"",""trial"",""time""
""fullscreenenter"",""1"",""3287""
","
","","","","","","null","<div style=""font-size:60px;"">+</div>","null","","fixation","","","","","","","","","","",""
"aa-learning-trial","85","408034","0.0-9.0-2.0-1.6","5639","2","23","Female","approach_avoid_spark_v1","""event"",""trial"",""time""
""fullscreenenter"",""1"",""3287""
","
","
","""event"",""trial"",""time""
""fullscreenenter"",""1"",""3287""
","
","","","","","","688.5999999940395","images/horse2.png","","","learning","8","8","1","1","horse","animals","2","0","","good","[4]"
"html-keyboard-response","86","408536","0.0-9.0-2.0-0.7","5639","2","23","Female","approach_avoid_spark_v1","""event"",""trial"",""time""
""fullscreenenter"",""1"",""3287""
","
","
","""event"",""trial"",""time""
""fullscreenenter"",""1"",""3287""
","
","","","","","","null","<div style=""font-size:60px;"">+</div>","null","","fixation","","","","","","","","","","",""
"aa-learning-trial","87","411540","0.0-9.0-2.0-1.7","5639","2","23","Female","approach_avoid_spark_v1","""event"",""trial"",""time""
""fullscreenenter"",""1"",""3287""
","
","
","""event"",""trial"",""time""
""fullscreenenter"",""1"",""3287""
","
","","","","","","809.5999999940395","images/cow6.png","","","learning","-8","-8","1","1","cow","animals","2","0","","bad","[-5]"
"html-keyboard-response","88","412042","0.0-9.0-2.0-0.8","5639","2","23","Female","approach_avoid_spark_v1","""event"",""trial"",""time""
""fullscreenenter"",""1"",""3287""
","
","
","""event"",""trial"",""time""
""fullscreenenter"",""1"",""3287""
","
","","","","","","null","<div style=""font-size:60px;"">+</div>","null","","fixation","","","","","","","","","","",""
"aa-learning-trial","89","415046","0.0-9.0-2.0-1.8","5639","2","23","Female","approach_avoid_spark_v1","""event"",""trial"",""time""
""fullscreenenter"",""1"",""3287""
","
","
","""event"",""trial"",""time""
""fullscreenenter"",""1"",""3287""
","
","","","","","","1211.7000000178814","images/horse3.png","","","learning","3","0","0","0","horse","animals","2","0","","good","[4]"
"html-keyboard-response","90","415549","0.0-9.0-2.0-0.9","5639","2","23","Female","approach_avoid_spark_v1","""event"",""trial"",""time""
""fullscreenenter"",""1"",""3287""
","
","
","""event"",""trial"",""time""
""fullscreenenter"",""1"",""3287""
","
","","","","","","null","<div style=""font-size:60px;"">+</div>","null","","fixation","","","","","","","","","","",""
"aa-learning-trial","91","418556","0.0-9.0-2.0-1.9","5639","2","23","Female","approach_avoid_spark_v1","""event"",""trial"",""time""
""fullscreenenter"",""1"",""3287""
","
","
","""event"",""trial"",""time""
""fullscreenenter"",""1"",""3287""
","
","","","","","","1125.5","images/cow6.png","","","learning","-8","-8","1","1","cow","animals","2","0","","bad","[-5]"
"html-keyboard-response","92","419062","0.0-9.0-2.0-0.10","5639","2","23","Female","approach_avoid_spark_v1","""event"",""trial"",""time""
""fullscreenenter"",""1"",""3287""
","
","
","""event"",""trial"",""time""
""fullscreenenter"",""1"",""3287""
","
","","","","","","null","<div style=""font-size:60px;"">+</div>","null","","fixation","","","","","","","","","","",""
"aa-learning-trial","93","422070","0.0-9.0-2.0-1.10","5639","2","23","Female","approach_avoid_spark_v1","""event"",""trial"",""time""
""fullscreenenter"",""1"",""3287""
","
","
","""event"",""trial"",""time""
""fullscreenenter"",""1"",""3287""
","
","","","","","","1684.800000011921","images/cow7.png","","","learning","7","7","1","1","cow","animals","2","0","","bad","[-5]"
"html-keyboard-response","94","422572","0.0-9.0-2.0-0.11","5639","2","23","Female","approach_avoid_spark_v1","""event"",""trial"",""time""
""fullscreenenter"",""1"",""3287""
","
","
","""event"",""trial"",""time""
""fullscreenenter"",""1"",""3287""
","
","","","","","","null","<div style=""font-size:60px;"">+</div>","null","","fixation","","","","","","","","","","",""
"aa-learning-trial","95","425580","0.0-9.0-2.0-1.11","5639","2","23","Female","approach_avoid_spark_v1","""event"",""trial"",""time""
""fullscreenenter"",""1"",""3287""
","
","
","""event"",""trial"",""time""
""fullscreenenter"",""1"",""3287""
","
","","","","","","936.8000000119209","images/cow5.png","","","learning","2","2","1","1","cow","animals","2","0","","bad","[-5]"
"html-keyboard-response","96","426087","0.0-9.0-2.0-0.12","5639","2","23","Female","approach_avoid_spark_v1","""event"",""trial"",""time""
""fullscreenenter"",""1"",""3287""
","
","
","""event"",""trial"",""time""
""fullscreenenter"",""1"",""3287""
","
","","","","","","null","<div style=""font-size:60px;"">+</div>","null","","fixation","","","","","","","","","","",""
"aa-learning-trial","97","429095","0.0-9.0-2.0-1.12","5639","2","23","Female","approach_avoid_spark_v1","""event"",""trial"",""time""
""fullscreenenter"",""1"",""3287""
","
","
","""event"",""trial"",""time""
""fullscreenenter"",""1"",""3287""
","
","","","","","","1275.800000011921","images/sheep8.png","","","learning","-6","-6","1","1","sheep","animals","2","0","","neutral","0"
"html-keyboard-response","98","429601","0.0-9.0-2.0-0.13","5639","2","23","Female","approach_avoid_spark_v1","""event"",""trial"",""time""
""fullscreenenter"",""1"",""3287""
","
","
","""event"",""trial"",""time""
""fullscreenenter"",""1"",""3287""
","
","","","","","","null","<div style=""font-size:60px;"">+</div>","null","","fixation","","","","","","","","","","",""
"aa-learning-trial","99","432609","0.0-9.0-2.0-1.13","5639","2","23","Female","approach_avoid_spark_v1","""event"",""trial"",""time""
""fullscreenenter"",""1"",""3287""
","
","
","""event"",""trial"",""time""
""fullscreenenter"",""1"",""3287""
","
","","","","","","1346.2000000178814","images/sheep1.png","","","learning","-5","0","0","0","sheep","animals","2","0","","neutral","0"
"html-keyboard-response","100","433111","0.0-9.0-2.0-0.14","5639","2","23","Female","approach_avoid_spark_v1","""event"",""trial"",""time""
""fullscreenenter"",""1"",""3287""
","
","
","""event"",""trial"",""time""
""fullscreenenter"",""1"",""3287""
","
","","","","","","null","<div style=""font-size:60px;"">+</div>","null","","fixation","","","","","","","","","","",""
"aa-learning-trial","101","436118","0.0-9.0-2.0-1.14","5639","2","23","Female","approach_avoid_spark_v1","""event"",""trial"",""time""
""fullscreenenter"",""1"",""3287""
","
","
","""event"",""trial"",""time""
""fullscreenenter"",""1"",""3287""
","
","","","","","","875.1999999880791","images/sheep3.png","","","learning","-1","0","0","0","sheep","animals","2","0","","neutral","0"
"html-keyboard-response","102","436620","0.0-9.0-2.0-0.15","5639","2","23","Female","approach_avoid_spark_v1","""event"",""trial"",""time""
""fullscreenenter"",""1"",""3287""
","
","
","""event"",""trial"",""time""
""fullscreenenter"",""1"",""3287""
","
","","","","","","null","<div style=""font-size:60px;"">+</div>","null","","fixation","","","","","","","","","","",""
"aa-learning-trial","103","439628","0.0-9.0-2.0-1.15","5639","2","23","Female","approach_avoid_spark_v1","""event"",""trial"",""time""
""fullscreenenter"",""1"",""3287""
","
","
","""event"",""trial"",""time""
""fullscreenenter"",""1"",""3287""
","
","","","","","","465.80000001192093","images/sheep3.png","","","learning","-1","0","0","0","sheep","animals","2","0","","neutral","0"
"html-keyboard-response","104","440134","0.0-9.0-2.0-0.16","5639","2","23","Female","approach_avoid_spark_v1","""event"",""trial"",""time""
""fullscreenenter"",""1"",""3287""
","
","
","""event"",""trial"",""time""
""fullscreenenter"",""1"",""3287""
","
","","","","","","null","<div style=""font-size:60px;"">+</div>","null","","fixation","","","","","","","","","","",""
"aa-learning-trial","105","443142","0.0-9.0-2.0-1.16","5639","2","23","Female","approach_avoid_spark_v1","""event"",""trial"",""time""
""fullscreenenter"",""1"",""3287""
","
","
","""event"",""trial"",""time""
""fullscreenenter"",""1"",""3287""
","
","","","","","","766.6999999880791","images/sheep3.png","","","learning","-1","0","0","0","sheep","animals","2","0","","neutral","0"
"html-keyboard-response","106","443644","0.0-9.0-2.0-0.17","5639","2","23","Female","approach_avoid_spark_v1","""event"",""trial"",""time""
""fullscreenenter"",""1"",""3287""
","
","
","""event"",""trial"",""time""
""fullscreenenter"",""1"",""3287""
","
","","","","","","null","<div style=""font-size:60px;"">+</div>","null","","fixation","","","","","","","","","","",""
"aa-learning-trial","107","446651","0.0-9.0-2.0-1.17","5639","2","23","Female","approach_avoid_spark_v1","""event"",""trial"",""time""
""fullscreenenter"",""1"",""3287""
","
","
","""event"",""trial"",""time""
""fullscreenenter"",""1"",""3287""
","
","","","","","","1447.5999999940395","images/horse8.png","","","learning","-2","0","0","0","horse","animals","2","0","","good","[4]"
"html-keyboard-response","108","447158","0.0-9.0-2.0-0.18","5639","2","23","Female","approach_avoid_spark_v1","""event"",""trial"",""time""
""fullscreenenter"",""1"",""3287""
","
","
","""event"",""trial"",""time""
""fullscreenenter"",""1"",""3287""
","
","","","","","","null","<div style=""font-size:60px;"">+</div>","null","","fixation","","","","","","","","","","",""
"aa-learning-trial","109","450166","0.0-9.0-2.0-1.18","5639","2","23","Female","approach_avoid_spark_v1","""event"",""trial"",""time""
""fullscreenenter"",""1"",""3287""
","
","
","""event"",""trial"",""time""
""fullscreenenter"",""1"",""3287""
","
","","","","","","759.2000000178814","images/cow7.png","","","learning","7","7","1","1","cow","animals","2","0","","bad","[-5]"
"html-keyboard-response","110","450672","0.0-9.0-2.0-0.19","5639","2","23","Female","approach_avoid_spark_v1","""event"",""trial"",""time""
""fullscreenenter"",""1"",""3287""
","
","
","""event"",""trial"",""time""
""fullscreenenter"",""1"",""3287""
","
","","","","","","null","<div style=""font-size:60px;"">+</div>","null","","fixation","","","","","","","","","","",""
"aa-learning-trial","111","453680","0.0-9.0-2.0-1.19","5639","2","23","Female","approach_avoid_spark_v1","""event"",""trial"",""time""
""fullscreenenter"",""1"",""3287""
","
","
","""event"",""trial"",""time""
""fullscreenenter"",""1"",""3287""
","
","","","","","","494.89999997615814","images/cow7.png","","","learning","7","7","1","1","cow","animals","2","0","","bad","[-5]"
"html-keyboard-response","112","454183","0.0-9.0-2.0-0.20","5639","2","23","Female","approach_avoid_spark_v1","""event"",""trial"",""time""
""fullscreenenter"",""1"",""3287""
","
","
","""event"",""trial"",""time""
""fullscreenenter"",""1"",""3287""
","
","","","","","","null","<div style=""font-size:60px;"">+</div>","null","","fixation","","","","","","","","","","",""
"aa-learning-trial","113","457186","0.0-9.0-2.0-1.20","5639","2","23","Female","approach_avoid_spark_v1","""event"",""trial"",""time""
""fullscreenenter"",""1"",""3287""
","
","
","""event"",""trial"",""time""
""fullscreenenter"",""1"",""3287""
","
","","","","","","676.3000000119209","images/sheep3.png","","","learning","-1","0","0","0","sheep","animals","2","0","","neutral","0"
"html-keyboard-response","114","457692","0.0-9.0-2.0-0.21","5639","2","23","Female","approach_avoid_spark_v1","""event"",""trial"",""time""
""fullscreenenter"",""1"",""3287""
","
","
","""event"",""trial"",""time""
""fullscreenenter"",""1"",""3287""
","
","","","","","","null","<div style=""font-size:60px;"">+</div>","null","","fixation","","","","","","","","","","",""
"aa-learning-trial","115","460699","0.0-9.0-2.0-1.21","5639","2","23","Female","approach_avoid_spark_v1","""event"",""trial"",""time""
""fullscreenenter"",""1"",""3287""
","
","
","""event"",""trial"",""time""
""fullscreenenter"",""1"",""3287""
","
","","","","","","852.6000000238419","images/horse8.png","","","learning","-2","-2","1","1","horse","animals","2","0","","good","[4]"
"html-keyboard-response","116","461201","0.0-9.0-2.0-0.22","5639","2","23","Female","approach_avoid_spark_v1","""event"",""trial"",""time""
""fullscreenenter"",""1"",""3287""
","
","
","""event"",""trial"",""time""
""fullscreenenter"",""1"",""3287""
","
","","","","","","null","<div style=""font-size:60px;"">+</div>","null","","fixation","","","","","","","","","","",""
"aa-learning-trial","117","464209","0.0-9.0-2.0-1.22","5639","2","23","Female","approach_avoid_spark_v1","""event"",""trial"",""time""
""fullscreenenter"",""1"",""3287""
","
","
","""event"",""trial"",""time""
""fullscreenenter"",""1"",""3287""
","
","","","","","","889.3000000119209","images/sheep7.png","","","learning","6","6","1","1","sheep","animals","2","0","","neutral","0"
"html-keyboard-response","118","464714","0.0-9.0-2.0-0.23","5639","2","23","Female","approach_avoid_spark_v1","""event"",""trial"",""time""
""fullscreenenter"",""1"",""3287""
","
","
","""event"",""trial"",""time""
""fullscreenenter"",""1"",""3287""
","
","","","","","","null","<div style=""font-size:60px;"">+</div>","null","","fixation","","","","","","","","","","",""
"aa-learning-trial","119","467722","0.0-9.0-2.0-1.23","5639","2","23","Female","approach_avoid_spark_v1","""event"",""trial"",""time""
""fullscreenenter"",""1"",""3287""
","
","
","""event"",""trial"",""time""
""fullscreenenter"",""1"",""3287""
","
","","","","","","930.7000000178814","images/horse8.png","","","learning","-2","0","0","0","horse","animals","2","0","","good","[4]"
"html-keyboard-response","120","468224","0.0-9.0-2.0-0.24","5639","2","23","Female","approach_avoid_spark_v1","""event"",""trial"",""time""
""fullscreenenter"",""1"",""3287""
","
","
","""event"",""trial"",""time""
""fullscreenenter"",""1"",""3287""
","
","","","","","","null","<div style=""font-size:60px;"">+</div>","null","","fixation","","","","","","","","","","",""
"aa-learning-trial","121","471232","0.0-9.0-2.0-1.24","5639","2","23","Female","approach_avoid_spark_v1","""event"",""trial"",""time""
""fullscreenenter"",""1"",""3287""
","
","
","""event"",""trial"",""time""
""fullscreenenter"",""1"",""3287""
","
","","","","","","948.5","images/sheep8.png","","","learning","-6","0","0","0","sheep","animals","2","0","","neutral","0"
"html-keyboard-response","122","471734","0.0-9.0-2.0-0.25","5639","2","23","Female","approach_avoid_spark_v1","""event"",""trial"",""time""
""fullscreenenter"",""1"",""3287""
","
","
","""event"",""trial"",""time""
""fullscreenenter"",""1"",""3287""
","
","","","","","","null","<div style=""font-size:60px;"">+</div>","null","","fixation","","","","","","","","","","",""
"aa-learning-trial","123","474742","0.0-9.0-2.0-1.25","5639","2","23","Female","approach_avoid_spark_v1","""event"",""trial"",""time""
""fullscreenenter"",""1"",""3287""
","
","
","""event"",""trial"",""time""
""fullscreenenter"",""1"",""3287""
","
","","","","","","1103.7000000178814","images/cow2.png","","","learning","-3","-3","1","1","cow","animals","2","0","","bad","[-5]"
"html-keyboard-response","124","475248","0.0-9.0-2.0-0.26","5639","2","23","Female","approach_avoid_spark_v1","""event"",""trial"",""time""
""fullscreenenter"",""1"",""3287""
","
","
","""event"",""trial"",""time""
""fullscreenenter"",""1"",""3287""
","
","","","","","","null","<div style=""font-size:60px;"">+</div>","null","","fixation","","","","","","","","","","",""
"aa-learning-trial","125","478256","0.0-9.0-2.0-1.26","5639","2","23","Female","approach_avoid_spark_v1","""event"",""trial"",""time""
""fullscreenenter"",""1"",""3287""
","
","
","""event"",""trial"",""time""
""fullscreenenter"",""1"",""3287""
","
","","","","","","890.2999999821186","images/cow6.png","","","learning","-8","-8","1","1","cow","animals","2","0","","bad","[-5]"
"html-keyboard-response","126","478762","0.0-9.0-2.0-0.27","5639","2","23","Female","approach_avoid_spark_v1","""event"",""trial"",""time""
""fullscreenenter"",""1"",""3287""
","
","
","""event"",""trial"",""time""
""fullscreenenter"",""1"",""3287""
","
","","","","","","null","<div style=""font-size:60px;"">+</div>","null","","fixation","","","","","","","","","","",""
"aa-learning-trial","127","481771","0.0-9.0-2.0-1.27","5639","2","23","Female","approach_avoid_spark_v1","""event"",""trial"",""time""
""fullscreenenter"",""1"",""3287""
","
","
","""event"",""trial"",""time""
""fullscreenenter"",""1"",""3287""
","
","","","","","","691.1999999880791","images/sheep8.png","","","learning","-6","0","0","0","sheep","animals","2","0","","neutral","0"
"html-keyboard-response","128","482277","0.0-9.0-2.0-0.28","5639","2","23","Female","approach_avoid_spark_v1","""event"",""trial"",""time""
""fullscreenenter"",""1"",""3287""
","
","
","""event"",""trial"",""time""
""fullscreenenter"",""1"",""3287""
","
","","","","","","null","<div style=""font-size:60px;"">+</div>","null","","fixation","","","","","","","","","","",""
"aa-learning-trial","129","485281","0.0-9.0-2.0-1.28","5639","2","23","Female","approach_avoid_spark_v1","""event"",""trial"",""time""
""fullscreenenter"",""1"",""3287""
","
","
","""event"",""trial"",""time""
""fullscreenenter"",""1"",""3287""
","
","","","","","","1466.5999999940395","images/horse3.png","","","learning","3","3","1","1","horse","animals","2","0","","good","[4]"
"html-keyboard-response","130","485786","0.0-9.0-2.0-0.29","5639","2","23","Female","approach_avoid_spark_v1","""event"",""trial"",""time""
""fullscreenenter"",""1"",""3287""
","
","
","""event"",""trial"",""time""
""fullscreenenter"",""1"",""3287""
","
","","","","","","null","<div style=""font-size:60px;"">+</div>","null","","fixation","","","","","","","","","","",""
"aa-learning-trial","131","488795","0.0-9.0-2.0-1.29","5639","2","23","Female","approach_avoid_spark_v1","""event"",""trial"",""time""
""fullscreenenter"",""1"",""3287""
","
","
","""event"",""trial"",""time""
""fullscreenenter"",""1"",""3287""
","
","","","","","","1617.199999988079","images/cow6.png","","","learning","-8","-8","1","1","cow","animals","2","0","","bad","[-5]"
"html-keyboard-response","132","489301","0.0-9.0-2.0-0.30","5639","2","23","Female","approach_avoid_spark_v1","""event"",""trial"",""time""
""fullscreenenter"",""1"",""3287""
","
","
","""event"",""trial"",""time""
""fullscreenenter"",""1"",""3287""
","
","","","","","","null","<div style=""font-size:60px;"">+</div>","null","","fixation","","","","","","","","","","",""
"aa-learning-trial","133","492309","0.0-9.0-2.0-1.30","5639","2","23","Female","approach_avoid_spark_v1","""event"",""trial"",""time""
""fullscreenenter"",""1"",""3287""
","
","
","""event"",""trial"",""time""
""fullscreenenter"",""1"",""3287""
","
","","","","","","875.3999999761581","images/horse2.png","","","learning","8","8","1","1","horse","animals","2","0","","good","[4]"
"html-keyboard-response","134","492811","0.0-9.0-2.0-0.31","5639","2","23","Female","approach_avoid_spark_v1","""event"",""trial"",""time""
""fullscreenenter"",""1"",""3287""
","
","
","""event"",""trial"",""time""
""fullscreenenter"",""1"",""3287""
","
","","","","","","null","<div style=""font-size:60px;"">+</div>","null","","fixation","","","","","","","","","","",""
"aa-learning-trial","135","495820","0.0-9.0-2.0-1.31","5639","2","23","Female","approach_avoid_spark_v1","""event"",""trial"",""time""
""fullscreenenter"",""1"",""3287""
","
","
","""event"",""trial"",""time""
""fullscreenenter"",""1"",""3287""
","
","","","","","","607.4000000059605","images/cow7.png","","","learning","7","7","1","1","cow","animals","2","0","","bad","[-5]"
"html-keyboard-response","136","496324","0.0-9.0-2.0-0.32","5639","2","23","Female","approach_avoid_spark_v1","""event"",""trial"",""time""
""fullscreenenter"",""1"",""3287""
","
","
","""event"",""trial"",""time""
""fullscreenenter"",""1"",""3287""
","
","","","","","","null","<div style=""font-size:60px;"">+</div>","null","","fixation","","","","","","","","","","",""
"aa-learning-trial","137","499333","0.0-9.0-2.0-1.32","5639","2","23","Female","approach_avoid_spark_v1","""event"",""trial"",""time""
""fullscreenenter"",""1"",""3287""
","
","
","""event"",""trial"",""time""
""fullscreenenter"",""1"",""3287""
","
","","","","","","1173.5","images/sheep6.png","","","learning","5","0","0","0","sheep","animals","2","0","","neutral","0"
"html-keyboard-response","138","499835","0.0-9.0-2.0-0.33","5639","2","23","Female","approach_avoid_spark_v1","""event"",""trial"",""time""
""fullscreenenter"",""1"",""3287""
","
","
","""event"",""trial"",""time""
""fullscreenenter"",""1"",""3287""
","
","","","","","","null","<div style=""font-size:60px;"">+</div>","null","","fixation","","","","","","","","","","",""
"aa-learning-trial","139","502842","0.0-9.0-2.0-1.33","5639","2","23","Female","approach_avoid_spark_v1","""event"",""trial"",""time""
""fullscreenenter"",""1"",""3287""
","
","
","""event"",""trial"",""time""
""fullscreenenter"",""1"",""3287""
","
","","","","","","813.2000000178814","images/horse7.png","","","learning","-9","-9","1","1","horse","animals","2","0","","good","[4]"
"html-keyboard-response","140","503349","0.0-9.0-2.0-0.34","5639","2","23","Female","approach_avoid_spark_v1","""event"",""trial"",""time""
""fullscreenenter"",""1"",""3287""
","
","
","""event"",""trial"",""time""
""fullscreenenter"",""1"",""3287""
","
","","","","","","null","<div style=""font-size:60px;"">+</div>","null","","fixation","","","","","","","","","","",""
"aa-learning-trial","141","506357","0.0-9.0-2.0-1.34","5639","2","23","Female","approach_avoid_spark_v1","""event"",""trial"",""time""
""fullscreenenter"",""1"",""3287""
","
","
","""event"",""trial"",""time""
""fullscreenenter"",""1"",""3287""
","
","","","","","","839.2000000178814","images/cow6.png","","","learning","-8","-8","1","1","cow","animals","2","0","","bad","[-5]"
"html-keyboard-response","142","506859","0.0-9.0-2.0-0.35","5639","2","23","Female","approach_avoid_spark_v1","""event"",""trial"",""time""
""fullscreenenter"",""1"",""3287""
","
","
","""event"",""trial"",""time""
""fullscreenenter"",""1"",""3287""
","
","","","","","","null","<div style=""font-size:60px;"">+</div>","null","","fixation","","","","","","","","","","",""
"aa-learning-trial","143","509866","0.0-9.0-2.0-1.35","5639","2","23","Female","approach_avoid_spark_v1","""event"",""trial"",""time""
""fullscreenenter"",""1"",""3287""
","
","
","""event"",""trial"",""time""
""fullscreenenter"",""1"",""3287""
","
","","","","","","790.5999999940395","images/sheep8.png","","","learning","-6","0","0","0","sheep","animals","2","0","","neutral","0"
"html-keyboard-response","144","510373","0.0-9.0-2.0-0.36","5639","2","23","Female","approach_avoid_spark_v1","""event"",""trial"",""time""
""fullscreenenter"",""1"",""3287""
","
","
","""event"",""trial"",""time""
""fullscreenenter"",""1"",""3287""
","
","","","","","","null","<div style=""font-size:60px;"">+</div>","null","","fixation","","","","","","","","","","",""
"aa-learning-trial","145","513380","0.0-9.0-2.0-1.36","5639","2","23","Female","approach_avoid_spark_v1","""event"",""trial"",""time""
""fullscreenenter"",""1"",""3287""
","
","
","""event"",""trial"",""time""
""fullscreenenter"",""1"",""3287""
","
","","","","","","988.3000000119209","images/horse8.png","","","learning","-2","0","0","0","horse","animals","2","0","","good","[4]"
"html-keyboard-response","146","513882","0.0-9.0-2.0-0.37","5639","2","23","Female","approach_avoid_spark_v1","""event"",""trial"",""time""
""fullscreenenter"",""1"",""3287""
","
","
","""event"",""trial"",""time""
""fullscreenenter"",""1"",""3287""
","
","","","","","","null","<div style=""font-size:60px;"">+</div>","null","","fixation","","","","","","","","","","",""
"aa-learning-trial","147","516890","0.0-9.0-2.0-1.37","5639","2","23","Female","approach_avoid_spark_v1","""event"",""trial"",""time""
""fullscreenenter"",""1"",""3287""
","
","
","""event"",""trial"",""time""
""fullscreenenter"",""1"",""3287""
","
","","","","","","1016.7999999821186","images/horse3.png","","","learning","3","0","0","0","horse","animals","2","0","","good","[4]"
"html-keyboard-response","148","517397","0.0-9.0-2.0-0.38","5639","2","23","Female","approach_avoid_spark_v1","""event"",""trial"",""time""
""fullscreenenter"",""1"",""3287""
","
","
","""event"",""trial"",""time""
""fullscreenenter"",""1"",""3287""
","
","","","","","","null","<div style=""font-size:60px;"">+</div>","null","","fixation","","","","","","","","","","",""
"aa-learning-trial","149","520405","0.0-9.0-2.0-1.38","5639","2","23","Female","approach_avoid_spark_v1","""event"",""trial"",""time""
""fullscreenenter"",""1"",""3287""
","
","
","""event"",""trial"",""time""
""fullscreenenter"",""1"",""3287""
","
","","","","","","851.6000000238419","images/cow3.png","","","learning","4","4","1","1","cow","animals","2","0","","bad","[-5]"
"html-keyboard-response","150","520907","0.0-9.0-2.0-0.39","5639","2","23","Female","approach_avoid_spark_v1","""event"",""trial"",""time""
""fullscreenenter"",""1"",""3287""
","
","
","""event"",""trial"",""time""
""fullscreenenter"",""1"",""3287""
","
","","","","","","null","<div style=""font-size:60px;"">+</div>","null","","fixation","","","","","","","","","","",""
"aa-learning-trial","151","523914","0.0-9.0-2.0-1.39","5639","2","23","Female","approach_avoid_spark_v1","""event"",""trial"",""time""
""fullscreenenter"",""1"",""3287""
","
","
","""event"",""trial"",""time""
""fullscreenenter"",""1"",""3287""
","
","","","","","","1560.5","images/cow6.png","","","learning","-8","0","0","0","cow","animals","2","0","","bad","[-5]"
"html-keyboard-response","152","524415","0.0-9.0-2.0-0.40","5639","2","23","Female","approach_avoid_spark_v1","""event"",""trial"",""time""
""fullscreenenter"",""1"",""3287""
","
","
","""event"",""trial"",""time""
""fullscreenenter"",""1"",""3287""
","
","","","","","","null","<div style=""font-size:60px;"">+</div>","null","","fixation","","","","","","","","","","",""
"aa-learning-trial","153","527423","0.0-9.0-2.0-1.40","5639","2","23","Female","approach_avoid_spark_v1","""event"",""trial"",""time""
""fullscreenenter"",""1"",""3287""
","
","
","""event"",""trial"",""time""
""fullscreenenter"",""1"",""3287""
","
","","","","","","741.5999999940395","images/sheep8.png","","","learning","-6","0","0","0","sheep","animals","2","0","","neutral","0"
"html-keyboard-response","154","527926","0.0-9.0-2.0-0.41","5639","2","23","Female","approach_avoid_spark_v1","""event"",""trial"",""time""
""fullscreenenter"",""1"",""3287""
","
","
","""event"",""trial"",""time""
""fullscreenenter"",""1"",""3287""
","
","","","","","","null","<div style=""font-size:60px;"">+</div>","null","","fixation","","","","","","","","","","",""
"aa-learning-trial","155","530933","0.0-9.0-2.0-1.41","5639","2","23","Female","approach_avoid_spark_v1","""event"",""trial"",""time""
""fullscreenenter"",""1"",""3287""
","
","
","""event"",""trial"",""time""
""fullscreenenter"",""1"",""3287""
","
","","","","","","1118.4000000059605","images/sheep3.png","","","learning","-1","0","0","0","sheep","animals","2","0","","neutral","0"
"html-keyboard-response","156","531438","0.0-9.0-2.0-0.42","5639","2","23","Female","approach_avoid_spark_v1","""event"",""trial"",""time""
""fullscreenenter"",""1"",""3287""
","
","
","""event"",""trial"",""time""
""fullscreenenter"",""1"",""3287""
","
","","","","","","null","<div style=""font-size:60px;"">+</div>","null","","fixation","","","","","","","","","","",""
"aa-learning-trial","157","534447","0.0-9.0-2.0-1.42","5639","2","23","Female","approach_avoid_spark_v1","""event"",""trial"",""time""
""fullscreenenter"",""1"",""3287""
","
","
","""event"",""trial"",""time""
""fullscreenenter"",""1"",""3287""
","
","","","","","","954.4000000059605","images/sheep1.png","","","learning","-5","0","0","0","sheep","animals","2","0","","neutral","0"
"html-keyboard-response","158","534949","0.0-9.0-2.0-0.43","5639","2","23","Female","approach_avoid_spark_v1","""event"",""trial"",""time""
""fullscreenenter"",""1"",""3287""
","
","
","""event"",""trial"",""time""
""fullscreenenter"",""1"",""3287""
","
","","","","","","null","<div style=""font-size:60px;"">+</div>","null","","fixation","","","","","","","","","","",""
"aa-learning-trial","159","537956","0.0-9.0-2.0-1.43","5639","2","23","Female","approach_avoid_spark_v1","""event"",""trial"",""time""
""fullscreenenter"",""1"",""3287""
","
","
","""event"",""trial"",""time""
""fullscreenenter"",""1"",""3287""
","
","","","","","","946.3999999761581","images/horse2.png","","","learning","8","0","0","0","horse","animals","2","0","","good","[4]"
"html-keyboard-response","160","538459","0.0-9.0-2.0-0.44","5639","2","23","Female","approach_avoid_spark_v1","""event"",""trial"",""time""
""fullscreenenter"",""1"",""3287""
","
","
","""event"",""trial"",""time""
""fullscreenenter"",""1"",""3287""
","
","","","","","","null","<div style=""font-size:60px;"">+</div>","null","","fixation","","","","","","","","","","",""
"aa-learning-trial","161","541465","0.0-9.0-2.0-1.44","5639","2","23","Female","approach_avoid_spark_v1","""event"",""trial"",""time""
""fullscreenenter"",""1"",""3287""
","
","
","""event"",""trial"",""time""
""fullscreenenter"",""1"",""3287""
","
","","","","","","767.5","images/cow5.png","","","learning","2","2","1","1","cow","animals","2","0","","bad","[-5]"
"html-keyboard-response","162","541969","0.0-9.0-2.0-0.45","5639","2","23","Female","approach_avoid_spark_v1","""event"",""trial"",""time""
""fullscreenenter"",""1"",""3287""
","
","
","""event"",""trial"",""time""
""fullscreenenter"",""1"",""3287""
","
","","","","","","null","<div style=""font-size:60px;"">+</div>","null","","fixation","","","","","","","","","","",""
"aa-learning-trial","163","544975","0.0-9.0-2.0-1.45","5639","2","23","Female","approach_avoid_spark_v1","""event"",""trial"",""time""
""fullscreenenter"",""1"",""3287""
","
","
","""event"",""trial"",""time""
""fullscreenenter"",""1"",""3287""
","
","","","","","","547.5","images/cow7.png","","","learning","7","7","1","1","cow","animals","2","0","","bad","[-5]"
"html-keyboard-response","164","545481","0.0-9.0-2.0-0.46","5639","2","23","Female","approach_avoid_spark_v1","""event"",""trial"",""time""
""fullscreenenter"",""1"",""3287""
","
","
","""event"",""trial"",""time""
""fullscreenenter"",""1"",""3287""
","
","","","","","","null","<div style=""font-size:60px;"">+</div>","null","","fixation","","","","","","","","","","",""
"aa-learning-trial","165","548490","0.0-9.0-2.0-1.46","5639","2","23","Female","approach_avoid_spark_v1","""event"",""trial"",""time""
""fullscreenenter"",""1"",""3287""
","
","
","""event"",""trial"",""time""
""fullscreenenter"",""1"",""3287""
","
","","","","","","557.8999999761581","images/cow5.png","","","learning","2","2","1","1","cow","animals","2","0","","bad","[-5]"
"html-keyboard-response","166","548994","0.0-9.0-2.0-0.47","5639","2","23","Female","approach_avoid_spark_v1","""event"",""trial"",""time""
""fullscreenenter"",""1"",""3287""
","
","
","""event"",""trial"",""time""
""fullscreenenter"",""1"",""3287""
","
","","","","","","null","<div style=""font-size:60px;"">+</div>","null","","fixation","","","","","","","","","","",""
"aa-learning-trial","167","551998","0.0-9.0-2.0-1.47","5639","2","23","Female","approach_avoid_spark_v1","""event"",""trial"",""time""
""fullscreenenter"",""1"",""3287""
","
","
","""event"",""trial"",""time""
""fullscreenenter"",""1"",""3287""
","
","","","","","","1363.9000000059605","images/horse2.png","","","learning","8","0","0","0","horse","animals","2","0","","good","[4]"
"html-keyboard-response","168","552500","0.0-9.0-2.0-0.48","5639","2","23","Female","approach_avoid_spark_v1","""event"",""trial"",""time""
""fullscreenenter"",""1"",""3287""
","
","
","""event"",""trial"",""time""
""fullscreenenter"",""1"",""3287""
","
","","","","","","null","<div style=""font-size:60px;"">+</div>","null","","fixation","","","","","","","","","","",""
"aa-learning-trial","169","555508","0.0-9.0-2.0-1.48","5639","2","23","Female","approach_avoid_spark_v1","""event"",""trial"",""time""
""fullscreenenter"",""1"",""3287""
","
","
","""event"",""trial"",""time""
""fullscreenenter"",""1"",""3287""
","
","","","","","","953.5","images/sheep1.png","","","learning","-5","0","0","0","sheep","animals","2","0","","neutral","0"
"html-keyboard-response","170","556013","0.0-9.0-2.0-0.49","5639","2","23","Female","approach_avoid_spark_v1","""event"",""trial"",""time""
""fullscreenenter"",""1"",""3287""
","
","
","""event"",""trial"",""time""
""fullscreenenter"",""1"",""3287""
","
","","","","","","null","<div style=""font-size:60px;"">+</div>","null","","fixation","","","","","","","","","","",""
"aa-learning-trial","171","559018","0.0-9.0-2.0-1.49","5639","2","23","Female","approach_avoid_spark_v1","""event"",""trial"",""time""
""fullscreenenter"",""1"",""3287""
","
","
","""event"",""trial"",""time""
""fullscreenenter"",""1"",""3287""
","
","","","","","","851","images/horse2.png","","","learning","8","8","1","1","horse","animals","2","0","","good","[4]"
"html-keyboard-response","172","559523","0.0-9.0-2.0-0.50","5639","2","23","Female","approach_avoid_spark_v1","""event"",""trial"",""time""
""fullscreenenter"",""1"",""3287""
","
","
","""event"",""trial"",""time""
""fullscreenenter"",""1"",""3287""
","
","","","","","","null","<div style=""font-size:60px;"">+</div>","null","","fixation","","","","","","","","","","",""
"aa-learning-trial","173","562531","0.0-9.0-2.0-1.50","5639","2","23","Female","approach_avoid_spark_v1","""event"",""trial"",""time""
""fullscreenenter"",""1"",""3287""
","
","
","""event"",""trial"",""time""
""fullscreenenter"",""1"",""3287""
","
","","","","","","962.0999999940395","images/horse4.png","","","learning","-4","0","0","0","horse","animals","2","0","","good","[4]"
"html-button-response","174","564234","0.0-9.0-3.0","5639","2","23","Female","approach_avoid_spark_v1","""event"",""trial"",""time""
""fullscreenenter"",""1"",""3287""
","
","
","""event"",""trial"",""time""
""fullscreenenter"",""1"",""3287""
","
","","","","","","1700.4000000059605","<p> You have completed the round! <p> In this round, you earned 17 points! </p>","0","","break","","","","","","","","","","",""
"html-button-response","175","565685","0.0-10.0","5639","2","23","Female","approach_avoid_spark_v1","""event"",""trial"",""time""
""fullscreenenter"",""1"",""3287""
","
","
","""event"",""trial"",""time""
""fullscreenenter"",""1"",""3287""
","
","","","","","","1450.4000000059605","<p> Now it's time to play another round. </p>","0","","transition_screen","","","","","","","","","","",""
"preload","176","565812","0.0-11.0-0.0","5639","2","23","Female","approach_avoid_spark_v1","""event"",""trial"",""time""
""fullscreenenter"",""1"",""3287""
","
","
","""event"",""trial"",""time""
""fullscreenenter"",""1"",""3287""
","
","true","false","[]","[]","[]","","","","","","","","","","","","","","","",""
"learning-instructions","177","572021","0.0-11.0-1.0-0.0","5639","2","23","Female","approach_avoid_spark_v1","""event"",""trial"",""time""
""fullscreenenter"",""1"",""3287""
","
","
","""event"",""trial"",""time""
""fullscreenenter"",""1"",""3287""
","
","","","","","","3335.600000023842","<p> Your goal in this round is to eat tasty fruit. </p></div>","","0","instructions","","","","","","","","","","",""
"learning-instructions","178","583150","0.0-11.0-1.0-0.1","5639","2","23","Female","approach_avoid_spark_v1","""event"",""trial"",""time""
""fullscreenenter"",""1"",""3287""
","
","
","""event"",""trial"",""time""
""fullscreenenter"",""1"",""3287""
","
","","","","","","2245.600000023842","<p> Some of the fruits you will see are tasty. Others are rotten on the inside.  </p><p> On each turn, you will see a fruit.   </p><p> You need to decide whether to eat it or not.  </p>","","0","instructions","","","","","","","","","","",""
"learning-instructions","179","588937","0.0-11.0-1.0-0.2","5639","2","23","Female","approach_avoid_spark_v1","""event"",""trial"",""time""
""fullscreenenter"",""1"",""3287""
","
","
","""event"",""trial"",""time""
""fullscreenenter"",""1"",""3287""
","
","","","","","","1556.8999999761581","<p> You can eat the fruit by pressing 1 and choose not to eat it by pressing 0. </p><br><div class=""choice-instructions-grid""> <div class=""choice-option""><img src=""images/approach.png"" class=""choice-option-img"" stage=""instructions"" position=""0"" ><div class=""choice-option-text""> Press ""1."" </div></div><div class=""choice-option""><img src=""images/avoid.png"" class=""choice-option-img"" stage=""instructions"" position=""1"" ><div class=""choice-option-text""> Press ""0."" </div></div>","","0","instructions","","","","","","","","","","",""
"learning-instructions","180","596504","0.0-11.0-1.0-0.3","5639","2","23","Female","approach_avoid_spark_v1","""event"",""trial"",""time""
""fullscreenenter"",""1"",""3287""
","
","
","""event"",""trial"",""time""
""fullscreenenter"",""1"",""3287""
","
","","","","","","970.5999999940395","<p> If you eat the fruit and it was tasty, you will win points! </p><p> But if you eat the fruit and it was rotten, you will lose points. </p>","","0","instructions","","","","","","","","","","",""
"learning-instructions","181","607117","0.0-11.0-1.0-0.4","5639","2","23","Female","approach_avoid_spark_v1","""event"",""trial"",""time""
""fullscreenenter"",""1"",""3287""
","
","
","""event"",""trial"",""time""
""fullscreenenter"",""1"",""3287""
","
","","","","","","159.2999999821186","<p> You will earn points based on how tasty or rotten the fruit was. </p><p> If it was tasty, you will WIN anywhere from 1 - 9 points, </p><p> but if it was rotten, you will LOSE anywhere from 1 - 9 points. </p>","","0","instructions","","","","","","","","","","",""
"learning-instructions","182","613883","0.0-11.0-1.0-0.5","5639","2","23","Female","approach_avoid_spark_v1","""event"",""trial"",""time""
""fullscreenenter"",""1"",""3287""
","
","
","""event"",""trial"",""time""
""fullscreenenter"",""1"",""3287""
","
","","","","","","115.09999999403954","<p> You will see how many points you won or lost in the center of the screen. </p><p> Here is what you would see if you earned 5 points: </p><p style=""color:green;font-size:50px;font-weight:bolder"">5</p>","","0","instructions","","","","","","","","","","",""
"learning-instructions","183","617221","0.0-11.0-1.0-0.6","5639","2","23","Female","approach_avoid_spark_v1","""event"",""trial"",""time""
""fullscreenenter"",""1"",""3287""
","
","
","""event"",""trial"",""time""
""fullscreenenter"",""1"",""3287""
","
","","","","","","503.30000001192093","<p> And here is what you would see if you lost 3 points: </p><p style=""color:red;font-size:50px;font-weight:bolder"">-3</p>","","0","instructions","","","","","","","","","","",""
"learning-instructions","184","630933","0.0-11.0-1.0-0.7","5639","2","23","Female","approach_avoid_spark_v1","""event"",""trial"",""time""
""fullscreenenter"",""1"",""3287""
","
","
","""event"",""trial"",""time""
""fullscreenenter"",""1"",""3287""
","
","","","","","","866.5","<p> Some fruit is very tasty or very rotten. </p><p> These fruits will make you win or lose LOTS of points. </p><p> Other fruits are only kind of tasty or kind of rotten. </p><p> These fruits will make you win or lose small amounts of points. </p>","","0","instructions","","","","","","","","","","",""
"learning-instructions","185","640887","0.0-11.0-1.0-0.8","5639","2","23","Female","approach_avoid_spark_v1","""event"",""trial"",""time""
""fullscreenenter"",""1"",""3287""
","
","
","""event"",""trial"",""time""
""fullscreenenter"",""1"",""3287""
","
","","","","","","387.59999999403954","<p> If you choose to not eat the fruit, you will not win or lose any points. </p><p>  However, in the center of the screen, you will see the number of points you WOULD HAVE earned if you had eaten the fruit. </p>","","0","instructions","","","","","","","","","","",""
"learning-instructions","186","650470","0.0-11.0-1.0-0.9","5639","2","23","Female","approach_avoid_spark_v1","""event"",""trial"",""time""
""fullscreenenter"",""1"",""3287""
","
","
","""event"",""trial"",""time""
""fullscreenenter"",""1"",""3287""
","
","","","","","","558.0999999940395","<p> Here is what you might see if you did not eat the fruit but the fruit was tasty: </p><p style=""color:grey; font-size:50px; display: inline-block; border-spacing: 15px; border-width:3px; border-style:solid; border-color:red"">  &nbsp; 6 &nbsp; </p><p> Remember, in this case, you would not win or lose ANY points because you did not eat the fruit.  </p>","","0","instructions","","","","","","","","","","",""
"learning-instructions","187","657970","0.0-11.0-1.0-0.10","5639","2","23","Female","approach_avoid_spark_v1","""event"",""trial"",""time""
""fullscreenenter"",""1"",""3287""
","
","
","""event"",""trial"",""time""
""fullscreenenter"",""1"",""3287""
","
","","","","","","415.40000000596046","<p> Try to make the best choice for each fruit because </p><p> at the end of the game, you will earn bonus money based on how many points you earned. </p>","","0","instructions","","","","","","","","","","",""
"learning-instructions","188","668501","0.0-11.0-1.0-0.11","5639","2","23","Female","approach_avoid_spark_v1","""event"",""trial"",""time""
""fullscreenenter"",""1"",""3287""
","
","
","""event"",""trial"",""time""
""fullscreenenter"",""1"",""3287""
","
","","","","","","2343.699999988079","<p> You will have 3 seconds to make each choice. Try to respond before time runs out! </p><p> You will lose 5 points each time you do not make a response. </p>","","0","instructions","","","","","","","","","","",""
"html-keyboard-response","189","669107","0.0-11.0-2.0-0.0","5639","2","23","Female","approach_avoid_spark_v1","""event"",""trial"",""time""
""fullscreenenter"",""1"",""3287""
","
","
","""event"",""trial"",""time""
""fullscreenenter"",""1"",""3287""
","
","","","","","","null","<div style=""font-size:60px;"">+</div>","null","","fixation","","","","","","","","","","",""
"aa-learning-trial","190","672111","0.0-11.0-2.0-1.0","5639","2","23","Female","approach_avoid_spark_v1","""event"",""trial"",""time""
""fullscreenenter"",""1"",""3287""
","
","
","""event"",""trial"",""time""
""fullscreenenter"",""1"",""3287""
","
","","","","","","2983.4000000059605","images/orange6.png","","","learning","5","5","1","1","orange","fruit","1","1","","good","[5]"
"html-keyboard-response","191","672613","0.0-11.0-2.0-0.1","5639","2","23","Female","approach_avoid_spark_v1","""event"",""trial"",""time""
""fullscreenenter"",""1"",""3287""
","
","
","""event"",""trial"",""time""
""fullscreenenter"",""1"",""3287""
","
","","","","","","null","<div style=""font-size:60px;"">+</div>","null","","fixation","","","","","","","","","","",""
"aa-learning-trial","192","675617","0.0-11.0-2.0-1.1","5639","2","23","Female","approach_avoid_spark_v1","""event"",""trial"",""time""
""fullscreenenter"",""1"",""3287""
","
","
","""event"",""trial"",""time""
""fullscreenenter"",""1"",""3287""
","
","","","","","","1086.0999999940395","images/straw5.png","","","learning","-7","-7","1","1","straw","fruit","1","1","","bad","[-6]"
"html-keyboard-response","193","676123","0.0-11.0-2.0-0.2","5639","2","23","Female","approach_avoid_spark_v1","""event"",""trial"",""time""
""fullscreenenter"",""1"",""3287""
","
","
","""event"",""trial"",""time""
""fullscreenenter"",""1"",""3287""
","
","","","","","","null","<div style=""font-size:60px;"">+</div>","null","","fixation","","","","","","","","","","",""
"aa-learning-trial","194","679126","0.0-11.0-2.0-1.2","5639","2","23","Female","approach_avoid_spark_v1","""event"",""trial"",""time""
""fullscreenenter"",""1"",""3287""
","
","
","""event"",""trial"",""time""
""fullscreenenter"",""1"",""3287""
","
","","","","","","675.5999999940395","images/straw1.png","","","learning","-5","-5","1","1","straw","fruit","1","1","","bad","[-6]"
"html-keyboard-response","195","679631","0.0-11.0-2.0-0.3","5639","2","23","Female","approach_avoid_spark_v1","""event"",""trial"",""time""
""fullscreenenter"",""1"",""3287""
","
","
","""event"",""trial"",""time""
""fullscreenenter"",""1"",""3287""
","
","","","","","","null","<div style=""font-size:60px;"">+</div>","null","","fixation","","","","","","","","","","",""
"aa-learning-trial","196","682636","0.0-11.0-2.0-1.3","5639","2","23","Female","approach_avoid_spark_v1","""event"",""trial"",""time""
""fullscreenenter"",""1"",""3287""
","
","
","""event"",""trial"",""time""
""fullscreenenter"",""1"",""3287""
","
","","","","","","608.0999999940395","images/banana1.png","","","learning","[-1]","-1","1","1","banana","fruit","1","1","","neutral","0"
"html-keyboard-response","197","683140","0.0-11.0-2.0-0.4","5639","2","23","Female","approach_avoid_spark_v1","""event"",""trial"",""time""
""fullscreenenter"",""1"",""3287""
","
","
","""event"",""trial"",""time""
""fullscreenenter"",""1"",""3287""
","
","","","","","","null","<div style=""font-size:60px;"">+</div>","null","","fixation","","","","","","","","","","",""
"aa-learning-trial","198","686146","0.0-11.0-2.0-1.4","5639","2","23","Female","approach_avoid_spark_v1","""event"",""trial"",""time""
""fullscreenenter"",""1"",""3287""
","
","
","""event"",""trial"",""time""
""fullscreenenter"",""1"",""3287""
","
","","","","","","348.2999999821186","images/orange8.png","","","learning","6","6","1","1","orange","fruit","1","1","","good","[5]"
"html-keyboard-response","199","686648","0.0-11.0-2.0-0.5","5639","2","23","Female","approach_avoid_spark_v1","""event"",""trial"",""time""
""fullscreenenter"",""1"",""3287""
","
","
","""event"",""trial"",""time""
""fullscreenenter"",""1"",""3287""
","
","","","","","","null","<div style=""font-size:60px;"">+</div>","null","","fixation","","","","","","","","","","",""
"aa-learning-trial","200","689652","0.0-11.0-2.0-1.5","5639","2","23","Female","approach_avoid_spark_v1","""event"",""trial"",""time""
""fullscreenenter"",""1"",""3287""
","
","
","""event"",""trial"",""time""
""fullscreenenter"",""1"",""3287""
","
","","","","","","824.4000000059605","images/banana4.png","","","learning","-1","-1","1","1","banana","fruit","1","1","","neutral","0"
"html-keyboard-response","201","690158","0.0-11.0-2.0-0.6","5639","2","23","Female","approach_avoid_spark_v1","""event"",""trial"",""time""
""fullscreenenter"",""1"",""3287""
","
","
","""event"",""trial"",""time""
""fullscreenenter"",""1"",""3287""
","
","","","","","","null","<div style=""font-size:60px;"">+</div>","null","","fixation","","","","","","","","","","",""
"aa-learning-trial","202","693165","0.0-11.0-2.0-1.6","5639","2","23","Female","approach_avoid_spark_v1","""event"",""trial"",""time""
""fullscreenenter"",""1"",""3287""
","
","
","""event"",""trial"",""time""
""fullscreenenter"",""1"",""3287""
","
","","","","","","849.5999999940395","images/orange7.png","","","learning","6","0","0","0","orange","fruit","1","1","","good","[5]"
"html-keyboard-response","203","693668","0.0-11.0-2.0-0.7","5639","2","23","Female","approach_avoid_spark_v1","""event"",""trial"",""time""
""fullscreenenter"",""1"",""3287""
","
","
","""event"",""trial"",""time""
""fullscreenenter"",""1"",""3287""
","
","","","","","","null","<div style=""font-size:60px;"">+</div>","null","","fixation","","","","","","","","","","",""
"aa-learning-trial","204","696675","0.0-11.0-2.0-1.7","5639","2","23","Female","approach_avoid_spark_v1","""event"",""trial"",""time""
""fullscreenenter"",""1"",""3287""
","
","
","""event"",""trial"",""time""
""fullscreenenter"",""1"",""3287""
","
","","","","","","578","images/orange8.png","","","learning","3","0","0","0","orange","fruit","1","1","","good","[5]"
"html-keyboard-response","205","697181","0.0-11.0-2.0-0.8","5639","2","23","Female","approach_avoid_spark_v1","""event"",""trial"",""time""
""fullscreenenter"",""1"",""3287""
","
","
","""event"",""trial"",""time""
""fullscreenenter"",""1"",""3287""
","
","","","","","","null","<div style=""font-size:60px;"">+</div>","null","","fixation","","","","","","","","","","",""
"aa-learning-trial","206","700186","0.0-11.0-2.0-1.8","5639","2","23","Female","approach_avoid_spark_v1","""event"",""trial"",""time""
""fullscreenenter"",""1"",""3287""
","
","
","""event"",""trial"",""time""
""fullscreenenter"",""1"",""3287""
","
","","","","","","915","images/banana1.png","","","learning","-1","0","0","0","banana","fruit","1","1","","neutral","0"
"html-keyboard-response","207","700691","0.0-11.0-2.0-0.9","5639","2","23","Female","approach_avoid_spark_v1","""event"",""trial"",""time""
""fullscreenenter"",""1"",""3287""
","
","
","""event"",""trial"",""time""
""fullscreenenter"",""1"",""3287""
","
","","","","","","null","<div style=""font-size:60px;"">+</div>","null","","fixation","","","","","","","","","","",""
"aa-learning-trial","208","703698","0.0-11.0-2.0-1.9","5639","2","23","Female","approach_avoid_spark_v1","""event"",""trial"",""time""
""fullscreenenter"",""1"",""3287""
","
","
","""event"",""trial"",""time""
""fullscreenenter"",""1"",""3287""
","
","","","","","","898.5","images/banana2.png","","","learning","4","4","1","1","banana","fruit","1","1","","neutral","0"
"html-keyboard-response","209","704205","0.0-11.0-2.0-0.10","5639","2","23","Female","approach_avoid_spark_v1","""event"",""trial"",""time""
""fullscreenenter"",""1"",""3287""
","
","
","""event"",""trial"",""time""
""fullscreenenter"",""1"",""3287""
","
","","","","","","null","<div style=""font-size:60px;"">+</div>","null","","fixation","","","","","","","","","","",""
"aa-learning-trial","210","707213","0.0-11.0-2.0-1.10","5639","2","23","Female","approach_avoid_spark_v1","""event"",""trial"",""time""
""fullscreenenter"",""1"",""3287""
","
","
","""event"",""trial"",""time""
""fullscreenenter"",""1"",""3287""
","
","","","","","","889.5","images/orange6.png","","","learning","6","6","1","1","orange","fruit","1","1","","good","[5]"
"html-keyboard-response","211","707719","0.0-11.0-2.0-0.11","5639","2","23","Female","approach_avoid_spark_v1","""event"",""trial"",""time""
""fullscreenenter"",""1"",""3287""
","
","
","""event"",""trial"",""time""
""fullscreenenter"",""1"",""3287""
","
","","","","","","null","<div style=""font-size:60px;"">+</div>","null","","fixation","","","","","","","","","","",""
"aa-learning-trial","212","710724","0.0-11.0-2.0-1.11","5639","2","23","Female","approach_avoid_spark_v1","""event"",""trial"",""time""
""fullscreenenter"",""1"",""3287""
","
","
","""event"",""trial"",""time""
""fullscreenenter"",""1"",""3287""
","
","","","","","","844","images/banana2.png","","","learning","2","2","1","1","banana","fruit","1","1","","neutral","0"
"html-keyboard-response","213","711231","0.0-11.0-2.0-0.12","5639","2","23","Female","approach_avoid_spark_v1","""event"",""trial"",""time""
""fullscreenenter"",""1"",""3287""
","
","
","""event"",""trial"",""time""
""fullscreenenter"",""1"",""3287""
","
","","","","","","null","<div style=""font-size:60px;"">+</div>","null","","fixation","","","","","","","","","","",""
"aa-learning-trial","214","714237","0.0-11.0-2.0-1.12","5639","2","23","Female","approach_avoid_spark_v1","""event"",""trial"",""time""
""fullscreenenter"",""1"",""3287""
","
","
","""event"",""trial"",""time""
""fullscreenenter"",""1"",""3287""
","
","","","","","","873.5","images/straw5.png","","","learning","-8","-8","1","1","straw","fruit","1","1","","bad","[-6]"
"html-keyboard-response","215","714744","0.0-11.0-2.0-0.13","5639","2","23","Female","approach_avoid_spark_v1","""event"",""trial"",""time""
""fullscreenenter"",""1"",""3287""
","
","
","""event"",""trial"",""time""
""fullscreenenter"",""1"",""3287""
","
","","","","","","null","<div style=""font-size:60px;"">+</div>","null","","fixation","","","","","","","","","","",""
"aa-learning-trial","216","717752","0.0-11.0-2.0-1.13","5639","2","23","Female","approach_avoid_spark_v1","""event"",""trial"",""time""
""fullscreenenter"",""1"",""3287""
","
","
","""event"",""trial"",""time""
""fullscreenenter"",""1"",""3287""
","
","","","","","","585.5","images/straw1.png","","","learning","-10","0","0","0","straw","fruit","1","1","","bad","[-6]"
"html-keyboard-response","217","718258","0.0-11.0-2.0-0.14","5639","2","23","Female","approach_avoid_spark_v1","""event"",""trial"",""time""
""fullscreenenter"",""1"",""3287""
","
","
","""event"",""trial"",""time""
""fullscreenenter"",""1"",""3287""
","
","","","","","","null","<div style=""font-size:60px;"">+</div>","null","","fixation","","","","","","","","","","",""
"aa-learning-trial","218","721266","0.0-11.0-2.0-1.14","5639","2","23","Female","approach_avoid_spark_v1","""event"",""trial"",""time""
""fullscreenenter"",""1"",""3287""
","
","
","""event"",""trial"",""time""
""fullscreenenter"",""1"",""3287""
","
","","","","","","974.4000000059605","images/straw7.png","","","learning","-6","0","0","0","straw","fruit","1","1","","bad","[-6]"
"html-keyboard-response","219","721773","0.0-11.0-2.0-0.15","5639","2","23","Female","approach_avoid_spark_v1","""event"",""trial"",""time""
""fullscreenenter"",""1"",""3287""
","
","
","""event"",""trial"",""time""
""fullscreenenter"",""1"",""3287""
","
","","","","","","null","<div style=""font-size:60px;"">+</div>","null","","fixation","","","","","","","","","","",""
"aa-learning-trial","220","724781","0.0-11.0-2.0-1.15","5639","2","23","Female","approach_avoid_spark_v1","""event"",""trial"",""time""
""fullscreenenter"",""1"",""3287""
","
","
","""event"",""trial"",""time""
""fullscreenenter"",""1"",""3287""
","
","","","","","","460.2000000178814","images/straw5.png","","","learning","-5","0","0","0","straw","fruit","1","1","","bad","[-6]"
"html-keyboard-response","221","725287","0.0-11.0-2.0-0.16","5639","2","23","Female","approach_avoid_spark_v1","""event"",""trial"",""time""
""fullscreenenter"",""1"",""3287""
","
","
","""event"",""trial"",""time""
""fullscreenenter"",""1"",""3287""
","
","","","","","","null","<div style=""font-size:60px;"">+</div>","null","","fixation","","","","","","","","","","",""
"aa-learning-trial","222","728294","0.0-11.0-2.0-1.16","5639","2","23","Female","approach_avoid_spark_v1","""event"",""trial"",""time""
""fullscreenenter"",""1"",""3287""
","
","
","""event"",""trial"",""time""
""fullscreenenter"",""1"",""3287""
","
","","","","","","550.7999999821186","images/orange6.png","","","learning","7","7","1","1","orange","fruit","1","1","","good","[5]"
"html-keyboard-response","223","728798","0.0-11.0-2.0-0.17","5639","2","23","Female","approach_avoid_spark_v1","""event"",""trial"",""time""
""fullscreenenter"",""1"",""3287""
","
","
","""event"",""trial"",""time""
""fullscreenenter"",""1"",""3287""
","
","","","","","","null","<div style=""font-size:60px;"">+</div>","null","","fixation","","","","","","","","","","",""
"aa-learning-trial","224","731805","0.0-11.0-2.0-1.17","5639","2","23","Female","approach_avoid_spark_v1","""event"",""trial"",""time""
""fullscreenenter"",""1"",""3287""
","
","
","""event"",""trial"",""time""
""fullscreenenter"",""1"",""3287""
","
","","","","","","678.5999999940395","images/banana2.png","","","learning","[-1]","-1","1","1","banana","fruit","1","1","","neutral","0"
"html-keyboard-response","225","732311","0.0-11.0-2.0-0.18","5639","2","23","Female","approach_avoid_spark_v1","""event"",""trial"",""time""
""fullscreenenter"",""1"",""3287""
","
","
","""event"",""trial"",""time""
""fullscreenenter"",""1"",""3287""
","
","","","","","","null","<div style=""font-size:60px;"">+</div>","null","","fixation","","","","","","","","","","",""
"aa-learning-trial","226","735319","0.0-11.0-2.0-1.18","5639","2","23","Female","approach_avoid_spark_v1","""event"",""trial"",""time""
""fullscreenenter"",""1"",""3287""
","
","
","""event"",""trial"",""time""
""fullscreenenter"",""1"",""3287""
","
","","","","","","765.5999999940395","images/straw5.png","","","learning","-3","0","0","0","straw","fruit","1","1","","bad","[-6]"
"html-keyboard-response","227","735826","0.0-11.0-2.0-0.19","5639","2","23","Female","approach_avoid_spark_v1","""event"",""trial"",""time""
""fullscreenenter"",""1"",""3287""
","
","
","""event"",""trial"",""time""
""fullscreenenter"",""1"",""3287""
","
","","","","","","null","<div style=""font-size:60px;"">+</div>","null","","fixation","","","","","","","","","","",""
"aa-learning-trial","228","738833","0.0-11.0-2.0-1.19","5639","2","23","Female","approach_avoid_spark_v1","""event"",""trial"",""time""
""fullscreenenter"",""1"",""3287""
","
","
","""event"",""trial"",""time""
""fullscreenenter"",""1"",""3287""
","
","","","","","","628.4000000059605","images/orange2.png","","","learning","6","6","1","1","orange","fruit","1","1","","good","[5]"
"html-keyboard-response","229","739336","0.0-11.0-2.0-0.20","5639","2","23","Female","approach_avoid_spark_v1","""event"",""trial"",""time""
""fullscreenenter"",""1"",""3287""
","
","
","""event"",""trial"",""time""
""fullscreenenter"",""1"",""3287""
","
","","","","","","null","<div style=""font-size:60px;"">+</div>","null","","fixation","","","","","","","","","","",""
"aa-learning-trial","230","742343","0.0-11.0-2.0-1.20","5639","2","23","Female","approach_avoid_spark_v1","""event"",""trial"",""time""
""fullscreenenter"",""1"",""3287""
","
","
","""event"",""trial"",""time""
""fullscreenenter"",""1"",""3287""
","
","","","","","","569.8000000119209","images/orange6.png","","","learning","4","4","1","1","orange","fruit","1","1","","good","[5]"
"html-keyboard-response","231","742849","0.0-11.0-2.0-0.21","5639","2","23","Female","approach_avoid_spark_v1","""event"",""trial"",""time""
""fullscreenenter"",""1"",""3287""
","
","
","""event"",""trial"",""time""
""fullscreenenter"",""1"",""3287""
","
","","","","","","null","<div style=""font-size:60px;"">+</div>","null","","fixation","","","","","","","","","","",""
"aa-learning-trial","232","745854","0.0-11.0-2.0-1.21","5639","2","23","Female","approach_avoid_spark_v1","""event"",""trial"",""time""
""fullscreenenter"",""1"",""3287""
","
","
","""event"",""trial"",""time""
""fullscreenenter"",""1"",""3287""
","
","","","","","","624.4000000059605","images/banana1.png","","","learning","-2","-2","1","1","banana","fruit","1","1","","neutral","0"
"html-keyboard-response","233","746359","0.0-11.0-2.0-0.22","5639","2","23","Female","approach_avoid_spark_v1","""event"",""trial"",""time""
""fullscreenenter"",""1"",""3287""
","
","
","""event"",""trial"",""time""
""fullscreenenter"",""1"",""3287""
","
","","","","","","null","<div style=""font-size:60px;"">+</div>","null","","fixation","","","","","","","","","","",""
"aa-learning-trial","234","749366","0.0-11.0-2.0-1.22","5639","2","23","Female","approach_avoid_spark_v1","""event"",""trial"",""time""
""fullscreenenter"",""1"",""3287""
","
","
","""event"",""trial"",""time""
""fullscreenenter"",""1"",""3287""
","
","","","","","","585.1999999880791","images/banana2.png","","","learning","[1]","1","1","1","banana","fruit","1","1","","neutral","0"
"html-keyboard-response","235","749868","0.0-11.0-2.0-0.23","5639","2","23","Female","approach_avoid_spark_v1","""event"",""trial"",""time""
""fullscreenenter"",""1"",""3287""
","
","
","""event"",""trial"",""time""
""fullscreenenter"",""1"",""3287""
","
","","","","","","null","<div style=""font-size:60px;"">+</div>","null","","fixation","","","","","","","","","","",""
"aa-learning-trial","236","752876","0.0-11.0-2.0-1.23","5639","2","23","Female","approach_avoid_spark_v1","""event"",""trial"",""time""
""fullscreenenter"",""1"",""3287""
","
","
","""event"",""trial"",""time""
""fullscreenenter"",""1"",""3287""
","
