"trial_type","trial_index","time_elapsed","internal_node_id","subject_id","task_condition","age","gender","task_version","interactions","blur_events","focus_events","fullscreenenter_events","fullscreenexit_events","success","timeout","failed_images","failed_audio","failed_video","rt","stimulus","response","button_pressed","task_part","approach_reward","points","key_press","option_selected","stim_cat","task_block","block_condition","block_number","correct","cat_type","mean_cat_reward"
"pavlovia","0","3","0.0-0.0","5640","2","23","Female","approach_avoid_spark_v1","""event"",""trial"",""time""
""fullscreenenter"",""1"",""2057""
","
","
","""event"",""trial"",""time""
""fullscreenenter"",""1"",""2057""
","
","","","","","","","","","","","","","","","","","","","","",""
"fullscreen","1","3058","0.0-1.0","5640","2","23","Female","approach_avoid_spark_v1","""event"",""trial"",""time""
""fullscreenenter"",""1"",""2057""
","
","
","""event"",""trial"",""time""
""fullscreenenter"",""1"",""2057""
","
","true","","","","","","","","","","","","","","","","","","","",""
"preload","2","6491","0.0-2.0","5640","2","23","Female","approach_avoid_spark_v1","""event"",""trial"",""time""
""fullscreenenter"",""1"",""2057""
","
","
","""event"",""trial"",""time""
""fullscreenenter"",""1"",""2057""
","
","true","false","[]","[]","[]","","","","","","","","","","","","","","","",""
"audio-keyboard-response","3","8999","0.0-3.0","5640","2","23","Female","approach_avoid_spark_v1","""event"",""trial"",""time""
""fullscreenenter"",""1"",""2057""
","
","
","""event"",""trial"",""time""
""fullscreenenter"",""1"",""2057""
","
","","","","","","2512.0000000000005","audio/beep_loop.wav"," ","","","","","","","","","","","","",""
"audio-button-response","4","10896","0.0-4.0","5640","2","23","Female","approach_avoid_spark_v1","""event"",""trial"",""time""
""fullscreenenter"",""1"",""2057""
","
","
","""event"",""trial"",""time""
""fullscreenenter"",""1"",""2057""
","
","","","","","","1899","audio/shark.wav","4","","","","","","","","","","","","",""
"audio-button-response","5","14175","0.0-5.0","5640","2","23","Female","approach_avoid_spark_v1","""event"",""trial"",""time""
""fullscreenenter"",""1"",""2057""
","
","
","""event"",""trial"",""time""
""fullscreenenter"",""1"",""2057""
","
","","","","","","2259","audio/turtle.wav","1","","","","","","","","","","","","",""
"preload","6","16711","0.0-6.0","5640","2","23","Female","approach_avoid_spark_v1","""event"",""trial"",""time""
""fullscreenenter"",""1"",""2057""
","
","
","""event"",""trial"",""time""
""fullscreenenter"",""1"",""2057""
","
","true","false","[]","[]","[]","","","","","","","","","","","","","","","",""
"html-keyboard-response","7","20780","0.0-7.0","5640","2","23","Female","approach_avoid_spark_v1","""event"",""trial"",""time""
""fullscreenenter"",""1"",""2057""
","
","
","""event"",""trial"",""time""
""fullscreenenter"",""1"",""2057""
","
","","","","","","4068.399999856949","Welcome to the experiment. Press any key to begin and to advance the instructions."," ","","","","","","","","","","","","",""
"learning-instructions","8","30015","0.0-8.0-0.0-0.0","5640","2","23","Female","approach_avoid_spark_v1","""event"",""trial"",""time""
""fullscreenenter"",""1"",""2057""
","
","
","""event"",""trial"",""time""
""fullscreenenter"",""1"",""2057""
","
","","","","","","2278.899999856949","<p> Welcome! Today you are going to play 6 different rounds of a decision-making game. </p><p> Use the mouse to click next to continue. </p>","","0","instructions","","","","","","","","","","",""
"learning-instructions","9","33286","0.0-8.0-0.0-0.1","5640","2","23","Female","approach_avoid_spark_v1","""event"",""trial"",""time""
""fullscreenenter"",""1"",""2057""
","
","
","""event"",""trial"",""time""
""fullscreenenter"",""1"",""2057""
","
","","","","","","519.9000000953674","<p> You will start with a practice round to learn the rules. </p>","","0","instructions","","","","","","","","","","",""
"learning-instructions","10","37205","0.0-8.0-0.0-0.2","5640","2","23","Female","approach_avoid_spark_v1","""event"",""trial"",""time""
""fullscreenenter"",""1"",""2057""
","
","
","""event"",""trial"",""time""
""fullscreenenter"",""1"",""2057""
","
","","","","","","449.59999990463257","<p> Your goal in this round is to give out sports equipment to kids. </p></div>","","0","instructions","","","","","","","","","","",""
"learning-instructions","11","45197","0.0-8.0-0.0-0.3","5640","2","23","Female","approach_avoid_spark_v1","""event"",""trial"",""time""
""fullscreenenter"",""1"",""2057""
","
","
","""event"",""trial"",""time""
""fullscreenenter"",""1"",""2057""
","
","","","","","","441","<p> The kids only like some of the equipment.  </p><p> On each turn, you will see a piece of sports equipment.   </p><p> You need to decide whether to give it to the kids or not.  </p>","","0","instructions","","","","","","","","","","",""
"learning-instructions","12","51391","0.0-8.0-0.0-0.4","5640","2","23","Female","approach_avoid_spark_v1","""event"",""trial"",""time""
""fullscreenenter"",""1"",""2057""
","
","
","""event"",""trial"",""time""
""fullscreenenter"",""1"",""2057""
","
","","","","","","1434.7999999523163","<p> You can give them the equipment by pressing 1 and choose not to give it to them by pressing 0. </p><br><div class=""choice-instructions-grid""> <div class=""choice-option""><img src=""images/approach.png"" class=""choice-option-img"" stage=""instructions"" position=""0"" ><div class=""choice-option-text""> Press ""1."" </div></div><div class=""choice-option""><img src=""images/avoid.png"" class=""choice-option-img"" stage=""instructions"" position=""1"" ><div class=""choice-option-text""> Press ""0."" </div></div>","","0","instructions","","","","","","","","","","",""
"learning-instructions","13","59267","0.0-8.0-0.0-0.5","5640","2","23","Female","approach_avoid_spark_v1","""event"",""trial"",""time""
""fullscreenenter"",""1"",""2057""
","
","
","""event"",""trial"",""time""
""fullscreenenter"",""1"",""2057""
","
","","","","","","481","<p> If you give them a piece of equipment they like, they will be happy! </p><p> But if you give them a piece of equipment they do not like, they will be sad. </p>","","0","instructions","","","","","","","","","","",""
"learning-instructions","14","70461","0.0-8.0-0.0-0.6","5640","2","23","Female","approach_avoid_spark_v1","""event"",""trial"",""time""
""fullscreenenter"",""1"",""2057""
","
","
","""event"",""trial"",""time""
""fullscreenenter"",""1"",""2057""
","
","","","","","","675","<p> You will earn points based on how you make kids feel. </p><p> If you make them happy, you will WIN anywhere from 1 - 9 points, </p><p> but if you make them sad, you will LOSE anywhere from 1 - 9 points. </p>","","0","instructions","","","","","","","","","","",""
"learning-instructions","15","80371","0.0-8.0-0.0-0.7","5640","2","23","Female","approach_avoid_spark_v1","""event"",""trial"",""time""
""fullscreenenter"",""1"",""2057""
","
","
","""event"",""trial"",""time""
""fullscreenenter"",""1"",""2057""
","
","","","","","","355.39999985694885","<p> You will see how many points you won or lost in the center of the screen. </p><p> Here is what you would see if you won 6 points: </p><p style=""color:green;font-size:50px;font-weight:bolder"">6</p><p style=""color:green"">The text is GREEN because you WON points.</p>","","0","instructions","","","","","","","","","","",""
"learning-instructions","16","86968","0.0-8.0-0.0-0.8","5640","2","23","Female","approach_avoid_spark_v1","""event"",""trial"",""time""
""fullscreenenter"",""1"",""2057""
","
","
","""event"",""trial"",""time""
""fullscreenenter"",""1"",""2057""
","
","","","","","","1081.7000000476837","<p> And here is what you would see if you lost 4 points: </p><p style=""color:red;font-size:50px;font-weight:bolder"">-4</p><p style=""color:red"">The text is RED because you LOST points. </p>","","0","instructions","","","","","","","","","","",""
"learning-instructions","17","102251","0.0-8.0-0.0-0.9","5640","2","23","Female","approach_avoid_spark_v1","""event"",""trial"",""time""
""fullscreenenter"",""1"",""2057""
","
","
","""event"",""trial"",""time""
""fullscreenenter"",""1"",""2057""
","
","","","","","","555.8999998569489","<p> Some of the equipment will make the kids VERY happy or sad. </p><p> These pieces of equipment will make you win or lose LOTS of points. </p><p> Other pieces of equipment will only make the kids a little happy or sad. </p><p> These pieces of equipment will make you win or lose small amounts of points. </p>","","0","instructions","","","","","","","","","","",""
"learning-instructions","18","113660","0.0-8.0-0.0-0.10","5640","2","23","Female","approach_avoid_spark_v1","""event"",""trial"",""time""
""fullscreenenter"",""1"",""2057""
","
","
","""event"",""trial"",""time""
""fullscreenenter"",""1"",""2057""
","
","","","","","","783.5","<p> If you choose not to give them the equipment, you will not win or lose any points. </p><p>  However, in the center of the screen, you will see the number of points you WOULD HAVE won or lost if you had given them the equipment. </p>","","0","instructions","","","","","","","","","","",""
"learning-instructions","19","135646","0.0-8.0-0.0-0.11","5640","2","23","Female","approach_avoid_spark_v1","""event"",""trial"",""time""
""fullscreenenter"",""1"",""2057""
","
","
","""event"",""trial"",""time""
""fullscreenenter"",""1"",""2057""
","
","","","","","","450.2999999523163","<p> Here is what you might see if you did not give the equipment to the kids but it would have made them happy: </p><p style=""color:grey; font-size:50px; display: inline-block; border-spacing: 15px; border-width:3px; border-style:solid; border-color:red"">  &nbsp; 7 &nbsp; </p><p> Remember, in this case, you would not win or lose ANY points because you did not give them the equipment.  </p><p style=""color:grey"">The text is GREY because you earned ZERO points. </p><p style=""color:red"">However, choosing to give the kids the equipment would have made you win points. The box around the text is RED because you chose the worse option. </p>","","0","instructions","","","","","","","","","","",""
"learning-instructions","20","157240","0.0-8.0-0.0-0.12","5640","2","23","Female","approach_avoid_spark_v1","""event"",""trial"",""time""
""fullscreenenter"",""1"",""2057""
","
","
","""event"",""trial"",""time""
""fullscreenenter"",""1"",""2057""
","
","","","","","","504.7999999523163","<p> Here is what you might see if you did not give the equipment to the kids but it would have made them sad: </p><p style=""color:grey;font-size:50px; display: inline-block; border-spacing: 15px; border-width:3px; border-style:solid; border-color:green"">  &nbsp; -8 &nbsp; </p><p> Remember, in this case, you would not win or lose ANY points because you did not give them the equipment.  </p><p style=""color:grey"">The text is GREY because you earned ZERO points. </p><p  style=""color:green""> Choosing to give the kids the equipment would have made you lose points. The box around the text is GREEN because you chose the better option.</p>","","0","instructions","","","","","","","","","","",""
"learning-instructions","21","169644","0.0-8.0-0.0-0.13","5640","2","23","Female","approach_avoid_spark_v1","""event"",""trial"",""time""
""fullscreenenter"",""1"",""2057""
","
","
","""event"",""trial"",""time""
""fullscreenenter"",""1"",""2057""
","
","","","","","","3459.199999809265","<p> You will have 3 seconds to make each choice. Try to respond before time runs out! </p><p> You will lose 5 points each time you do not make a response. </p>","","0","instructions","","","","","","","","","","",""
"learning-instructions","22","175393","0.0-8.0-0.0-0.14","5640","2","23","Female","approach_avoid_spark_v1","""event"",""trial"",""time""
""fullscreenenter"",""1"",""2057""
","
","
","""event"",""trial"",""time""
""fullscreenenter"",""1"",""2057""
","
","","","","","","327.90000009536743","<p> This is just a practice round, but in the real game, your bonus payment will depend on your total number of points.","","0","instructions","","","","","","","","","","",""
"learning-instructions","23","182209","0.0-8.0-0.0-0.15","5640","2","23","Female","approach_avoid_spark_v1","""event"",""trial"",""time""
""fullscreenenter"",""1"",""2057""
","
","
","""event"",""trial"",""time""
""fullscreenenter"",""1"",""2057""
","
","","","","","","1044","<p> Remember, you can give them the equipment by pressing 1 and choose not to give it to them by pressing 0. </p><br><div class=""choice-instructions-grid""> <div class=""choice-option""><img src=""images/approach.png"" class=""choice-option-img"" stage=""instructions"" position=""0"" ><div class=""choice-option-text""> Press ""1."" </div></div><div class=""choice-option""><img src=""images/avoid.png"" class=""choice-option-img"" stage=""instructions"" position=""1"" ><div class=""choice-option-text""> Press ""0."" </div></div>","","0","instructions","","","","","","","","","","",""
"html-button-response","24","184533","0.0-8.0-1.0","5640","2","23","Female","approach_avoid_spark_v1","""event"",""trial"",""time""
""fullscreenenter"",""1"",""2057""
","
","
","""event"",""trial"",""time""
""fullscreenenter"",""1"",""2057""
","
","","","","","","2203.9000000953674","<p> Ready to practice? </p>","0","","","","","","","","","","","","",""
"html-keyboard-response","25","185157","0.0-8.0-2.0-0.0","5640","2","23","Female","approach_avoid_spark_v1","""event"",""trial"",""time""
""fullscreenenter"",""1"",""2057""
","
","
","""event"",""trial"",""time""
""fullscreenenter"",""1"",""2057""
","
","","","","","","null","<div style=""font-size:60px;"">+</div>","null","","fixation","","","","","","","","","","",""
"aa-learning-trial","26","188172","0.0-8.0-2.0-1.0","5640","2","23","Female","approach_avoid_spark_v1","""event"",""trial"",""time""
""fullscreenenter"",""1"",""2057""
","
","
","""event"",""trial"",""time""
""fullscreenenter"",""1"",""2057""
","
","","","","","","868","images/racket3.png","","","learning","5","5","1","1","practice","practice","practice","-1","","",""
"html-keyboard-response","27","188696","0.0-8.0-2.0-0.1","5640","2","23","Female","approach_avoid_spark_v1","""event"",""trial"",""time""
""fullscreenenter"",""1"",""2057""
","
","
","""event"",""trial"",""time""
""fullscreenenter"",""1"",""2057""
","
","","","","","","null","<div style=""font-size:60px;"">+</div>","null","","fixation","","","","","","","","","","",""
"aa-learning-trial","28","191714","0.0-8.0-2.0-1.1","5640","2","23","Female","approach_avoid_spark_v1","""event"",""trial"",""time""
""fullscreenenter"",""1"",""2057""
","
","
","""event"",""trial"",""time""
""fullscreenenter"",""1"",""2057""
","
","","","","","","1136.4000000953674","images/ball2.png","","","learning","-4","-4","1","1","practice","practice","practice","-1","","",""
"html-keyboard-response","29","192228","0.0-8.0-2.0-0.2","5640","2","23","Female","approach_avoid_spark_v1","""event"",""trial"",""time""
""fullscreenenter"",""1"",""2057""
","
","
","""event"",""trial"",""time""
""fullscreenenter"",""1"",""2057""
","
","","","","","","null","<div style=""font-size:60px;"">+</div>","null","","fixation","","","","","","","","","","",""
"aa-learning-trial","30","195241","0.0-8.0-2.0-1.2","5640","2","23","Female","approach_avoid_spark_v1","""event"",""trial"",""time""
""fullscreenenter"",""1"",""2057""
","
","
","""event"",""trial"",""time""
""fullscreenenter"",""1"",""2057""
","
","","","","","","777.7000000476837","images/racket4.png","","","learning","-7","-7","1","1","practice","practice","practice","-1","","",""
"html-keyboard-response","31","195757","0.0-8.0-2.0-0.3","5640","2","23","Female","approach_avoid_spark_v1","""event"",""trial"",""time""
""fullscreenenter"",""1"",""2057""
","
","
","""event"",""trial"",""time""
""fullscreenenter"",""1"",""2057""
","
","","","","","","null","<div style=""font-size:60px;"">+</div>","null","","fixation","","","","","","","","","","",""
"aa-learning-trial","32","198777","0.0-8.0-2.0-1.3","5640","2","23","Female","approach_avoid_spark_v1","""event"",""trial"",""time""
""fullscreenenter"",""1"",""2057""
","
","
","""event"",""trial"",""time""
""fullscreenenter"",""1"",""2057""
","
","","","","","","1201","images/ball4.png","","","learning","9","0","0","0","practice","practice","practice","-1","","",""
"html-keyboard-response","33","199291","0.0-8.0-2.0-0.4","5640","2","23","Female","approach_avoid_spark_v1","""event"",""trial"",""time""
""fullscreenenter"",""1"",""2057""
","
","
","""event"",""trial"",""time""
""fullscreenenter"",""1"",""2057""
","
","","","","","","null","<div style=""font-size:60px;"">+</div>","null","","fixation","","","","","","","","","","",""
"aa-learning-trial","34","202300","0.0-8.0-2.0-1.4","5640","2","23","Female","approach_avoid_spark_v1","""event"",""trial"",""time""
""fullscreenenter"",""1"",""2057""
","
","
","""event"",""trial"",""time""
""fullscreenenter"",""1"",""2057""
","
","","","","","","1431","images/ball2.png","","","learning","-3","0","0","0","practice","practice","practice","-1","","",""
"html-keyboard-response","35","202815","0.0-8.0-2.0-0.5","5640","2","23","Female","approach_avoid_spark_v1","""event"",""trial"",""time""
""fullscreenenter"",""1"",""2057""
","
","
","""event"",""trial"",""time""
""fullscreenenter"",""1"",""2057""
","
","","","","","","null","<div style=""font-size:60px;"">+</div>","null","","fixation","","","","","","","","","","",""
"aa-learning-trial","36","205832","0.0-8.0-2.0-1.5","5640","2","23","Female","approach_avoid_spark_v1","""event"",""trial"",""time""
""fullscreenenter"",""1"",""2057""
","
","
","""event"",""trial"",""time""
""fullscreenenter"",""1"",""2057""
","
","","","","","","731.0999999046326","images/ball1.png","","","learning","3","3","1","1","practice","practice","practice","-1","","",""
"html-keyboard-response","37","206337","0.0-8.0-2.0-0.6","5640","2","23","Female","approach_avoid_spark_v1","""event"",""trial"",""time""
""fullscreenenter"",""1"",""2057""
","
","
","""event"",""trial"",""time""
""fullscreenenter"",""1"",""2057""
","
","","","","","","null","<div style=""font-size:60px;"">+</div>","null","","fixation","","","","","","","","","","",""
"aa-learning-trial","38","209355","0.0-8.0-2.0-1.6","5640","2","23","Female","approach_avoid_spark_v1","""event"",""trial"",""time""
""fullscreenenter"",""1"",""2057""
","
","
","""event"",""trial"",""time""
""fullscreenenter"",""1"",""2057""
","
","","","","","","774.8999998569489","images/ball3.png","","","learning","5","5","1","1","practice","practice","practice","-1","","",""
"html-keyboard-response","39","209864","0.0-8.0-2.0-0.7","5640","2","23","Female","approach_avoid_spark_v1","""event"",""trial"",""time""
""fullscreenenter"",""1"",""2057""
","
","
","""event"",""trial"",""time""
""fullscreenenter"",""1"",""2057""
","
","","","","","","null","<div style=""font-size:60px;"">+</div>","null","","fixation","","","","","","","","","","",""
"aa-learning-trial","40","212873","0.0-8.0-2.0-1.7","5640","2","23","Female","approach_avoid_spark_v1","""event"",""trial"",""time""
""fullscreenenter"",""1"",""2057""
","
","
","""event"",""trial"",""time""
""fullscreenenter"",""1"",""2057""
","
","","","","","","862.7999999523163","images/racket3.png","","","learning","-2","-2","1","1","practice","practice","practice","-1","","",""
"html-keyboard-response","41","213377","0.0-8.0-2.0-0.8","5640","2","23","Female","approach_avoid_spark_v1","""event"",""trial"",""time""
""fullscreenenter"",""1"",""2057""
","
","
","""event"",""trial"",""time""
""fullscreenenter"",""1"",""2057""
","
","","","","","","null","<div style=""font-size:60px;"">+</div>","null","","fixation","","","","","","","","","","",""
"aa-learning-trial","42","216385","0.0-8.0-2.0-1.8","5640","2","23","Female","approach_avoid_spark_v1","""event"",""trial"",""time""
""fullscreenenter"",""1"",""2057""
","
","
","""event"",""trial"",""time""
""fullscreenenter"",""1"",""2057""
","
","","","","","","635","images/racket3.png","","","learning","-6","-6","1","1","practice","practice","practice","-1","","",""
"html-keyboard-response","43","216890","0.0-8.0-2.0-0.9","5640","2","23","Female","approach_avoid_spark_v1","""event"",""trial"",""time""
""fullscreenenter"",""1"",""2057""
","
","
","""event"",""trial"",""time""
""fullscreenenter"",""1"",""2057""
","
","","","","","","null","<div style=""font-size:60px;"">+</div>","null","","fixation","","","","","","","","","","",""
"aa-learning-trial","44","219898","0.0-8.0-2.0-1.9","5640","2","23","Female","approach_avoid_spark_v1","""event"",""trial"",""time""
""fullscreenenter"",""1"",""2057""
","
","
","""event"",""trial"",""time""
""fullscreenenter"",""1"",""2057""
","
","","","","","","719.7999999523163","images/racket4.png","","","learning","-7","-7","1","1","practice","practice","practice","-1","","",""
"html-keyboard-response","45","220402","0.0-8.0-2.0-0.10","5640","2","23","Female","approach_avoid_spark_v1","""event"",""trial"",""time""
""fullscreenenter"",""1"",""2057""
","
","
","""event"",""trial"",""time""
""fullscreenenter"",""1"",""2057""
","
","","","","","","null","<div style=""font-size:60px;"">+</div>","null","","fixation","","","","","","","","","","",""
"aa-learning-trial","46","223410","0.0-8.0-2.0-1.10","5640","2","23","Female","approach_avoid_spark_v1","""event"",""trial"",""time""
""fullscreenenter"",""1"",""2057""
","
","
","""event"",""trial"",""time""
""fullscreenenter"",""1"",""2057""
","
","","","","","","630.1999998092651","images/racket3.png","","","learning","-4","-4","1","1","practice","practice","practice","-1","","",""
"html-keyboard-response","47","223913","0.0-8.0-2.0-0.11","5640","2","23","Female","approach_avoid_spark_v1","""event"",""trial"",""time""
""fullscreenenter"",""1"",""2057""
","
","
","""event"",""trial"",""time""
""fullscreenenter"",""1"",""2057""
","
","","","","","","null","<div style=""font-size:60px;"">+</div>","null","","fixation","","","","","","","","","","",""
"aa-learning-trial","48","226922","0.0-8.0-2.0-1.11","5640","2","23","Female","approach_avoid_spark_v1","""event"",""trial"",""time""
""fullscreenenter"",""1"",""2057""
","
","
","""event"",""trial"",""time""
""fullscreenenter"",""1"",""2057""
","
","","","","","","501.2000000476837","images/ball3.png","","","learning","5","5","1","1","practice","practice","practice","-1","","",""
"html-button-response","49","229523","0.0-8.0-3.0","5640","2","23","Female","approach_avoid_spark_v1","""event"",""trial"",""time""
""fullscreenenter"",""1"",""2057""
","
","
","""event"",""trial"",""time""
""fullscreenenter"",""1"",""2057""
","
","","","","","","2600.2000000476837","<p> You earned -12 points in the practice round! </p>","0","","break","","","","","","","","","","",""
"learning-instructions","50","237307","0.0-8.0-4.0-0.0","5640","2","23","Female","approach_avoid_spark_v1","""event"",""trial"",""time""
""fullscreenenter"",""1"",""2057""
","
","
","""event"",""trial"",""time""
""fullscreenenter"",""1"",""2057""
","
","","","","","","1822.9000000953674","<p> It's almost time to start the real game. </p><p> Before you start, we're going to ask you a few questions about how the game works. </p>","","0","instructions","","","","","","","","","","",""
"preload","51","238414","0.0-8.0-5.0","5640","2","23","Female","approach_avoid_spark_v1","""event"",""trial"",""time""
""fullscreenenter"",""1"",""2057""
","
","
","""event"",""trial"",""time""
""fullscreenenter"",""1"",""2057""
","
","true","false","[]","[]","[]","","","","","","","","","","","","","","","",""
"comp-q","52","244744","0.0-8.0-6.0-0.0","5640","2","23","Female","approach_avoid_spark_v1","""event"",""trial"",""time""
""fullscreenenter"",""1"",""2057""
","
","
","""event"",""trial"",""time""
""fullscreenenter"",""1"",""2057""
","
","","","","","","1331","<p> <b> True or False? </b> </p><p> If you see a number in GREY, that means you earned that many points. </p>","","1","comp_question","","","","","","","","","true","",""
"comp-q","53","254176","0.0-8.0-6.0-1.0","5640","2","23","Female","approach_avoid_spark_v1","""event"",""trial"",""time""
""fullscreenenter"",""1"",""2057""
","
","
","""event"",""trial"",""time""
""fullscreenenter"",""1"",""2057""
","
","","","","","","1063.5","<p><b> That's right! </b> If you see a grey number, it means you earned ZERO points. <br> The grey numbers show the points you WOULD HAVE earned if you had made the other choice. </p>","","0","comp_answer","","","","","","","","","","",""
"comp-q","54","259946","0.0-8.0-7.0-0.0","5640","2","23","Female","approach_avoid_spark_v1","""event"",""trial"",""time""
""fullscreenenter"",""1"",""2057""
","
","
","""event"",""trial"",""time""
""fullscreenenter"",""1"",""2057""
","
","","","","","","1062.3999998569489","<p> <b> True or False? </b> </p><p> You will have as much time as you want to make each choice. </p>","","1","comp_question","","","","","","","","","true","",""
"comp-q","55","266830","0.0-8.0-7.0-1.0","5640","2","23","Female","approach_avoid_spark_v1","""event"",""trial"",""time""
""fullscreenenter"",""1"",""2057""
","
","
","""event"",""trial"",""time""
""fullscreenenter"",""1"",""2057""
","
","","","","","","2827.5","<p> <b> That's right! </b> You will only have 3 seconds to make each choice. </p>","","0","comp_answer","","","","","","","","","","",""
"comp-q","56","271909","0.0-8.0-8.0-0.0","5640","2","23","Female","approach_avoid_spark_v1","""event"",""trial"",""time""
""fullscreenenter"",""1"",""2057""
","
","
","""event"",""trial"",""time""
""fullscreenenter"",""1"",""2057""
","
","","","","","","406.2000000476837","<p> <b> True or False? </b> </p><p> You should use the '1' and '0' keys to make your choices. </p>","","0","comp_question","","","","","","","","","true","",""
"comp-q","57","278528","0.0-8.0-8.0-1.0","5640","2","23","Female","approach_avoid_spark_v1","""event"",""trial"",""time""
""fullscreenenter"",""1"",""2057""
","
","
","""event"",""trial"",""time""
""fullscreenenter"",""1"",""2057""
","
","","","","","","2005.3000001907349","<p> <b> That's right! </b> You should use the '1' and '0' keys to make each choice. </p>","","0","comp_answer","","","","","","","","","","",""
"learning-instructions","58","286034","0.0-8.0-9.0-0.0","5640","2","23","Female","approach_avoid_spark_v1","""event"",""trial"",""time""
""fullscreenenter"",""1"",""2057""
","
","
","""event"",""trial"",""time""
""fullscreenenter"",""1"",""2057""
","
","","","","","","1230.7999999523163","<p> It's now time to start the real game. </p>Do your best, because the points you earn in the next rounds will influence your bonus payment. </p>","","0","instructions","","","","","","","","","","",""
"preload","59","286306","0.0-9.0-0.0","5640","2","23","Female","approach_avoid_spark_v1","""event"",""trial"",""time""
""fullscreenenter"",""1"",""2057""
","
","
","""event"",""trial"",""time""
""fullscreenenter"",""1"",""2057""
","
","true","false","[]","[]","[]","","","","","","","","","","","","","","","",""
"learning-instructions","60","291139","0.0-9.0-1.0-0.0","5640","2","23","Female","approach_avoid_spark_v1","""event"",""trial"",""time""
""fullscreenenter"",""1"",""2057""
","
","
","""event"",""trial"",""time""
""fullscreenenter"",""1"",""2057""
","
","","","","","","1686.4000000953674","<p> Your goal in this round is to eat tasty fruit. </p></div>","","0","instructions","","","","","","","","","","",""
"learning-instructions","61","302499","0.0-9.0-1.0-0.1","5640","2","23","Female","approach_avoid_spark_v1","""event"",""trial"",""time""
""fullscreenenter"",""1"",""2057""
","
","
","""event"",""trial"",""time""
""fullscreenenter"",""1"",""2057""
","
","","","","","","1856.7000000476837","<p> Some of the fruits you will see are tasty. Others are rotten on the inside.  </p><p> On each turn, you will see a fruit.   </p><p> You need to decide whether to eat it or not.  </p>","","0","instructions","","","","","","","","","","",""
"learning-instructions","62","307618","0.0-9.0-1.0-0.2","5640","2","23","Female","approach_avoid_spark_v1","""event"",""trial"",""time""
""fullscreenenter"",""1"",""2057""
","
","
","""event"",""trial"",""time""
""fullscreenenter"",""1"",""2057""
","
","","","","","","434.09999990463257","<p> You can eat the fruit by pressing 1 and choose not to eat it by pressing 0. </p><br><div class=""choice-instructions-grid""> <div class=""choice-option""><img src=""images/approach.png"" class=""choice-option-img"" stage=""instructions"" position=""0"" ><div class=""choice-option-text""> Press ""1."" </div></div><div class=""choice-option""><img src=""images/avoid.png"" class=""choice-option-img"" stage=""instructions"" position=""1"" ><div class=""choice-option-text""> Press ""0."" </div></div>","","0","instructions","","","","","","","","","","",""
"learning-instructions","63","315255","0.0-9.0-1.0-0.3","5640","2","23","Female","approach_avoid_spark_v1","""event"",""trial"",""time""
""fullscreenenter"",""1"",""2057""
","
","
","""event"",""trial"",""time""
""fullscreenenter"",""1"",""2057""
","
","","","","","","391.7999999523163","<p> If you eat the fruit and it was tasty, you will win points! </p><p> But if you eat the fruit and it was rotten, you will lose points. </p>","","0","instructions","","","","","","","","","","",""
"learning-instructions","64","326661","0.0-9.0-1.0-0.4","5640","2","23","Female","approach_avoid_spark_v1","""event"",""trial"",""time""
""fullscreenenter"",""1"",""2057""
","
","
","""event"",""trial"",""time""
""fullscreenenter"",""1"",""2057""
","
","","","","","","448","<p> You will earn points based on how tasty or rotten the fruit was. </p><p> If it was tasty, you will WIN anywhere from 1 - 9 points, </p><p> but if it was rotten, you will LOSE anywhere from 1 - 9 points. </p>","","0","instructions","","","","","","","","","","",""
"learning-instructions","65","334878","0.0-9.0-1.0-0.5","5640","2","23","Female","approach_avoid_spark_v1","""event"",""trial"",""time""
""fullscreenenter"",""1"",""2057""
","
","
","""event"",""trial"",""time""
""fullscreenenter"",""1"",""2057""
","
","","","","","","784.7000000476837","<p> You will see how many points you won or lost in the center of the screen. </p><p> Here is what you would see if you earned 5 points: </p><p style=""color:green;font-size:50px;font-weight:bolder"">5</p>","","0","instructions","","","","","","","","","","",""
"learning-instructions","66","338581","0.0-9.0-1.0-0.6","5640","2","23","Female","approach_avoid_spark_v1","""event"",""trial"",""time""
""fullscreenenter"",""1"",""2057""
","
","
","""event"",""trial"",""time""
""fullscreenenter"",""1"",""2057""
","
","","","","","","358.5","<p> And here is what you would see if you lost 3 points: </p><p style=""color:red;font-size:50px;font-weight:bolder"">-3</p>","","0","instructions","","","","","","","","","","",""
"learning-instructions","67","355076","0.0-9.0-1.0-0.7","5640","2","23","Female","approach_avoid_spark_v1","""event"",""trial"",""time""
""fullscreenenter"",""1"",""2057""
","
","
","""event"",""trial"",""time""
""fullscreenenter"",""1"",""2057""
","
","","","","","","343.09999990463257","<p> Some fruit is very tasty or very rotten. </p><p> These fruits will make you win or lose LOTS of points. </p><p> Other fruits are only kind of tasty or kind of rotten. </p><p> These fruits will make you win or lose small amounts of points. </p>","","0","instructions","","","","","","","","","","",""
"learning-instructions","68","366687","0.0-9.0-1.0-0.8","5640","2","23","Female","approach_avoid_spark_v1","""event"",""trial"",""time""
""fullscreenenter"",""1"",""2057""
","
","
","""event"",""trial"",""time""
""fullscreenenter"",""1"",""2057""
","
","","","","","","374.2999999523163","<p> If you choose to not eat the fruit, you will not win or lose any points. </p><p>  However, in the center of the screen, you will see the number of points you WOULD HAVE earned if you had eaten the fruit. </p>","","0","instructions","","","","","","","","","","",""
"learning-instructions","69","377386","0.0-9.0-1.0-0.9","5640","2","23","Female","approach_avoid_spark_v1","""event"",""trial"",""time""
""fullscreenenter"",""1"",""2057""
","
","
","""event"",""trial"",""time""
""fullscreenenter"",""1"",""2057""
","
","","","","","","263.40000009536743","<p> Here is what you might see if you did not eat the fruit but the fruit was tasty: </p><p style=""color:grey; font-size:50px; display: inline-block; border-spacing: 15px; border-width:3px; border-style:solid; border-color:red"">  &nbsp; 6 &nbsp; </p><p> Remember, in this case, you would not win or lose ANY points because you did not eat the fruit.  </p>","","0","instructions","","","","","","","","","","",""
"learning-instructions","70","385785","0.0-9.0-1.0-0.10","5640","2","23","Female","approach_avoid_spark_v1","""event"",""trial"",""time""
""fullscreenenter"",""1"",""2057""
","
","
","""event"",""trial"",""time""
""fullscreenenter"",""1"",""2057""
","
","","","","","","392.09999990463257","<p> Try to make the best choice for each fruit because </p><p> at the end of the game, you will earn bonus money based on how many points you earned. </p>","","0","instructions","","","","","","","","","","",""
"learning-instructions","71","394348","0.0-9.0-1.0-0.11","5640","2","23","Female","approach_avoid_spark_v1","""event"",""trial"",""time""
""fullscreenenter"",""1"",""2057""
","
","
","""event"",""trial"",""time""
""fullscreenenter"",""1"",""2057""
","
","","","","","","366.40000009536743","<p> You will have 3 seconds to make each choice. Try to respond before time runs out! </p><p> You will lose 5 points each time you do not make a response. </p>","","0","instructions","","","","","","","","","","",""
"html-keyboard-response","72","394980","0.0-9.0-2.0-0.0","5640","2","23","Female","approach_avoid_spark_v1","""event"",""trial"",""time""
""fullscreenenter"",""1"",""2057""
","
","
","""event"",""trial"",""time""
""fullscreenenter"",""1"",""2057""
","
","","","","","","null","<div style=""font-size:60px;"">+</div>","null","","fixation","","","","","","","","","","",""
"aa-learning-trial","73","397989","0.0-9.0-2.0-1.0","5640","2","23","Female","approach_avoid_spark_v1","""event"",""trial"",""time""
""fullscreenenter"",""1"",""2057""
","
","
","""event"",""trial"",""time""
""fullscreenenter"",""1"",""2057""
","
","","","","","","1156.2000000476837","images/apple3.png","","","learning","4","4","1","1","apple","fruit","2","0","","neutral","0"
"html-keyboard-response","74","398499","0.0-9.0-2.0-0.1","5640","2","23","Female","approach_avoid_spark_v1","""event"",""trial"",""time""
""fullscreenenter"",""1"",""2057""
","
","
","""event"",""trial"",""time""
""fullscreenenter"",""1"",""2057""
","
","","","","","","null","<div style=""font-size:60px;"">+</div>","null","","fixation","","","","","","","","","","",""
"aa-learning-trial","75","401520","0.0-9.0-2.0-1.1","5640","2","23","Female","approach_avoid_spark_v1","""event"",""trial"",""time""
""fullscreenenter"",""1"",""2057""
","
","
","""event"",""trial"",""time""
""fullscreenenter"",""1"",""2057""
","
","","","","","","606.4000000953674","images/apple5.png","","","learning","7","7","1","1","apple","fruit","2","0","","neutral","0"
"html-keyboard-response","76","402033","0.0-9.0-2.0-0.2","5640","2","23","Female","approach_avoid_spark_v1","""event"",""trial"",""time""
""fullscreenenter"",""1"",""2057""
","
","
","""event"",""trial"",""time""
""fullscreenenter"",""1"",""2057""
","
","","","","","","null","<div style=""font-size:60px;"">+</div>","null","","fixation","","","","","","","","","","",""
"aa-learning-trial","77","405046","0.0-9.0-2.0-1.2","5640","2","23","Female","approach_avoid_spark_v1","""event"",""trial"",""time""
""fullscreenenter"",""1"",""2057""
","
","
","""event"",""trial"",""time""
""fullscreenenter"",""1"",""2057""
","
","","","","","","535","images/straw5.png","","","learning","-2","-2","1","1","straw","fruit","2","0","","good","[4]"
"html-keyboard-response","78","405568","0.0-9.0-2.0-0.3","5640","2","23","Female","approach_avoid_spark_v1","""event"",""trial"",""time""
""fullscreenenter"",""1"",""2057""
","
","
","""event"",""trial"",""time""
""fullscreenenter"",""1"",""2057""
","
","","","","","","null","<div style=""font-size:60px;"">+</div>","null","","fixation","","","","","","","","","","",""
"aa-learning-trial","79","408577","0.0-9.0-2.0-1.3","5640","2","23","Female","approach_avoid_spark_v1","""event"",""trial"",""time""
""fullscreenenter"",""1"",""2057""
","
","
","""event"",""trial"",""time""
""fullscreenenter"",""1"",""2057""
","
","","","","","","534.2999999523163","images/apple8.png","","","learning","-3","-3","1","1","apple","fruit","2","0","","neutral","0"
"html-keyboard-response","80","409086","0.0-9.0-2.0-0.4","5640","2","23","Female","approach_avoid_spark_v1","""event"",""trial"",""time""
""fullscreenenter"",""1"",""2057""
","
","
","""event"",""trial"",""time""
""fullscreenenter"",""1"",""2057""
","
","","","","","","null","<div style=""font-size:60px;"">+</div>","null","","fixation","","","","","","","","","","",""
"aa-learning-trial","81","412095","0.0-9.0-2.0-1.4","5640","2","23","Female","approach_avoid_spark_v1","""event"",""trial"",""time""
""fullscreenenter"",""1"",""2057""
","
","
","""event"",""trial"",""time""
""fullscreenenter"",""1"",""2057""
","
","","","","","","513.7999999523163","images/straw5.png","","","learning","-2","-2","1","1","straw","fruit","2","0","","good","[4]"
"html-keyboard-response","82","412605","0.0-9.0-2.0-0.5","5640","2","23","Female","approach_avoid_spark_v1","""event"",""trial"",""time""
""fullscreenenter"",""1"",""2057""
","
","
","""event"",""trial"",""time""
""fullscreenenter"",""1"",""2057""
","
","","","","","","null","<div style=""font-size:60px;"">+</div>","null","","fixation","","","","","","","","","","",""
"aa-learning-trial","83","415619","0.0-9.0-2.0-1.5","5640","2","23","Female","approach_avoid_spark_v1","""event"",""trial"",""time""
""fullscreenenter"",""1"",""2057""
","
","
","""event"",""trial"",""time""
""fullscreenenter"",""1"",""2057""
","
","","","","","","685.1999998092651","images/banana1.png","","","learning","-4","-4","1","1","banana","fruit","2","0","","bad","[-6]"
"html-keyboard-response","84","416121","0.0-9.0-2.0-0.6","5640","2","23","Female","approach_avoid_spark_v1","""event"",""trial"",""time""
""fullscreenenter"",""1"",""2057""
","
","
","""event"",""trial"",""time""
""fullscreenenter"",""1"",""2057""
","
","","","","","","null","<div style=""font-size:60px;"">+</div>","null","","fixation","","","","","","","","","","",""
"aa-learning-trial","85","419131","0.0-9.0-2.0-1.6","5640","2","23","Female","approach_avoid_spark_v1","""event"",""trial"",""time""
""fullscreenenter"",""1"",""2057""
","
","
","""event"",""trial"",""time""
""fullscreenenter"",""1"",""2057""
","
","","","","","","816.9000000953674","images/banana8.png","","","learning","8","8","1","1","banana","fruit","2","0","","bad","[-6]"
"html-keyboard-response","86","419637","0.0-9.0-2.0-0.7","5640","2","23","Female","approach_avoid_spark_v1","""event"",""trial"",""time""
""fullscreenenter"",""1"",""2057""
","
","
","""event"",""trial"",""time""
""fullscreenenter"",""1"",""2057""
","
","","","","","","null","<div style=""font-size:60px;"">+</div>","null","","fixation","","","","","","","","","","",""
"aa-learning-trial","87","422658","0.0-9.0-2.0-1.7","5640","2","23","Female","approach_avoid_spark_v1","""event"",""trial"",""time""
""fullscreenenter"",""1"",""2057""
","
","
","""event"",""trial"",""time""
""fullscreenenter"",""1"",""2057""
","
","","","","","","786.5999999046326","images/banana3.png","","","learning","2","2","1","1","banana","fruit","2","0","","bad","[-6]"
"html-keyboard-response","88","423173","0.0-9.0-2.0-0.8","5640","2","23","Female","approach_avoid_spark_v1","""event"",""trial"",""time""
""fullscreenenter"",""1"",""2057""
","
","
","""event"",""trial"",""time""
""fullscreenenter"",""1"",""2057""
","
","","","","","","null","<div style=""font-size:60px;"">+</div>","null","","fixation","","","","","","","","","","",""
"aa-learning-trial","89","426178","0.0-9.0-2.0-1.8","5640","2","23","Female","approach_avoid_spark_v1","""event"",""trial"",""time""
""fullscreenenter"",""1"",""2057""
","
","
","""event"",""trial"",""time""
""fullscreenenter"",""1"",""2057""
","
","","","","","","640.5","images/banana3.png","","","learning","2","2","1","1","banana","fruit","2","0","","bad","[-6]"
"html-keyboard-response","90","426683","0.0-9.0-2.0-0.9","5640","2","23","Female","approach_avoid_spark_v1","""event"",""trial"",""time""
""fullscreenenter"",""1"",""2057""
","
","
","""event"",""trial"",""time""
""fullscreenenter"",""1"",""2057""
","
","","","","","","null","<div style=""font-size:60px;"">+</div>","null","","fixation","","","","","","","","","","",""
"aa-learning-trial","91","429690","0.0-9.0-2.0-1.9","5640","2","23","Female","approach_avoid_spark_v1","""event"",""trial"",""time""
""fullscreenenter"",""1"",""2057""
","
","
","""event"",""trial"",""time""
""fullscreenenter"",""1"",""2057""
","
","","","","","","826.3000001907349","images/apple5.png","","","learning","7","0","0","0","apple","fruit","2","0","","neutral","0"
"html-keyboard-response","92","430195","0.0-9.0-2.0-0.10","5640","2","23","Female","approach_avoid_spark_v1","""event"",""trial"",""time""
""fullscreenenter"",""1"",""2057""
","
","
","""event"",""trial"",""time""
""fullscreenenter"",""1"",""2057""
","
","","","","","","null","<div style=""font-size:60px;"">+</div>","null","","fixation","","","","","","","","","","",""
"aa-learning-trial","93","433201","0.0-9.0-2.0-1.10","5640","2","23","Female","approach_avoid_spark_v1","""event"",""trial"",""time""
""fullscreenenter"",""1"",""2057""
","
","
","""event"",""trial"",""time""
""fullscreenenter"",""1"",""2057""
","
","","","","","","995.7999999523163","images/straw3.png","","","learning","-5","0","0","0","straw","fruit","2","0","","good","[4]"
"html-keyboard-response","94","433706","0.0-9.0-2.0-0.11","5640","2","23","Female","approach_avoid_spark_v1","""event"",""trial"",""time""
""fullscreenenter"",""1"",""2057""
","
","
","""event"",""trial"",""time""
""fullscreenenter"",""1"",""2057""
","
","","","","","","null","<div style=""font-size:60px;"">+</div>","null","","fixation","","","","","","","","","","",""
"aa-learning-trial","95","436715","0.0-9.0-2.0-1.11","5640","2","23","Female","approach_avoid_spark_v1","""event"",""trial"",""time""
""fullscreenenter"",""1"",""2057""
","
","
","""event"",""trial"",""time""
""fullscreenenter"",""1"",""2057""
","
","","","","","","719.5999999046326","images/straw3.png","","","learning","-5","0","0","0","straw","fruit","2","0","","good","[4]"
"html-keyboard-response","96","437218","0.0-9.0-2.0-0.12","5640","2","23","Female","approach_avoid_spark_v1","""event"",""trial"",""time""
""fullscreenenter"",""1"",""2057""
","
","
","""event"",""trial"",""time""
""fullscreenenter"",""1"",""2057""
","
","","","","","","null","<div style=""font-size:60px;"">+</div>","null","","fixation","","","","","","","","","","",""
"aa-learning-trial","97","440226","0.0-9.0-2.0-1.12","5640","2","23","Female","approach_avoid_spark_v1","""event"",""trial"",""time""
""fullscreenenter"",""1"",""2057""
","
","
","""event"",""trial"",""time""
""fullscreenenter"",""1"",""2057""
","
","","","","","","1357","images/banana8.png","","","learning","8","0","0","0","banana","fruit","2","0","","bad","[-6]"
"html-keyboard-response","98","440730","0.0-9.0-2.0-0.13","5640","2","23","Female","approach_avoid_spark_v1","""event"",""trial"",""time""
""fullscreenenter"",""1"",""2057""
","
","
","""event"",""trial"",""time""
""fullscreenenter"",""1"",""2057""
","
","","","","","","null","<div style=""font-size:60px;"">+</div>","null","","fixation","","","","","","","","","","",""
"aa-learning-trial","99","443738","0.0-9.0-2.0-1.13","5640","2","23","Female","approach_avoid_spark_v1","""event"",""trial"",""time""
""fullscreenenter"",""1"",""2057""
","
","
","""event"",""trial"",""time""
""fullscreenenter"",""1"",""2057""
","
","","","","","","979.5","images/apple8.png","","","learning","-3","0","0","0","apple","fruit","2","0","","neutral","0"
"html-keyboard-response","100","444241","0.0-9.0-2.0-0.14","5640","2","23","Female","approach_avoid_spark_v1","""event"",""trial"",""time""
""fullscreenenter"",""1"",""2057""
","
","
","""event"",""trial"",""time""
""fullscreenenter"",""1"",""2057""
","
","","","","","","null","<div style=""font-size:60px;"">+</div>","null","","fixation","","","","","","","","","","",""
"aa-learning-trial","101","447250","0.0-9.0-2.0-1.14","5640","2","23","Female","approach_avoid_spark_v1","""event"",""trial"",""time""
""fullscreenenter"",""1"",""2057""
","
","
","""event"",""trial"",""time""
""fullscreenenter"",""1"",""2057""
","
","","","","","","960.2999999523163","images/straw7.png","","","learning","-8","-8","1","1","straw","fruit","2","0","","good","[4]"
"html-keyboard-response","102","447754","0.0-9.0-2.0-0.15","5640","2","23","Female","approach_avoid_spark_v1","""event"",""trial"",""time""
""fullscreenenter"",""1"",""2057""
","
","
","""event"",""trial"",""time""
""fullscreenenter"",""1"",""2057""
","
","","","","","","null","<div style=""font-size:60px;"">+</div>","null","","fixation","","","","","","","","","","",""
"aa-learning-trial","103","450762","0.0-9.0-2.0-1.15","5640","2","23","Female","approach_avoid_spark_v1","""event"",""trial"",""time""
""fullscreenenter"",""1"",""2057""
","
","
","""event"",""trial"",""time""
""fullscreenenter"",""1"",""2057""
","
","","","","","","714","images/banana3.png","","","learning","2","2","1","1","banana","fruit","2","0","","bad","[-6]"
"html-keyboard-response","104","451266","0.0-9.0-2.0-0.16","5640","2","23","Female","approach_avoid_spark_v1","""event"",""trial"",""time""
""fullscreenenter"",""1"",""2057""
","
","
","""event"",""trial"",""time""
""fullscreenenter"",""1"",""2057""
","
","","","","","","null","<div style=""font-size:60px;"">+</div>","null","","fixation","","","","","","","","","","",""
"aa-learning-trial","105","454273","0.0-9.0-2.0-1.16","5640","2","23","Female","approach_avoid_spark_v1","""event"",""trial"",""time""
""fullscreenenter"",""1"",""2057""
","
","
","""event"",""trial"",""time""
""fullscreenenter"",""1"",""2057""
","
","","","","","","802.2999999523163","images/straw6.png","","","learning","5","0","0","0","straw","fruit","2","0","","good","[4]"
"html-keyboard-response","106","454777","0.0-9.0-2.0-0.17","5640","2","23","Female","approach_avoid_spark_v1","""event"",""trial"",""time""
""fullscreenenter"",""1"",""2057""
","
","
","""event"",""trial"",""time""
""fullscreenenter"",""1"",""2057""
","
","","","","","","null","<div style=""font-size:60px;"">+</div>","null","","fixation","","","","","","","","","","",""
"aa-learning-trial","107","457787","0.0-9.0-2.0-1.17","5640","2","23","Female","approach_avoid_spark_v1","""event"",""trial"",""time""
""fullscreenenter"",""1"",""2057""
","
","
","""event"",""trial"",""time""
""fullscreenenter"",""1"",""2057""
","
","","","","","","863.0999999046326","images/apple5.png","","","learning","7","7","1","1","apple","fruit","2","0","","neutral","0"
"html-keyboard-response","108","458289","0.0-9.0-2.0-0.18","5640","2","23","Female","approach_avoid_spark_v1","""event"",""trial"",""time""
""fullscreenenter"",""1"",""2057""
","
","
","""event"",""trial"",""time""
""fullscreenenter"",""1"",""2057""
","
","","","","","","null","<div style=""font-size:60px;"">+</div>","null","","fixation","","","","","","","","","","",""
"aa-learning-trial","109","461298","0.0-9.0-2.0-1.18","5640","2","23","Female","approach_avoid_spark_v1","""event"",""trial"",""time""
""fullscreenenter"",""1"",""2057""
","
","
","""event"",""trial"",""time""
""fullscreenenter"",""1"",""2057""
","
","","","","","","778","images/banana8.png","","","learning","8","8","1","1","banana","fruit","2","0","","bad","[-6]"
"html-keyboard-response","110","461803","0.0-9.0-2.0-0.19","5640","2","23","Female","approach_avoid_spark_v1","""event"",""trial"",""time""
""fullscreenenter"",""1"",""2057""
","
","
","""event"",""trial"",""time""
""fullscreenenter"",""1"",""2057""
","
","","","","","","null","<div style=""font-size:60px;"">+</div>","null","","fixation","","","","","","","","","","",""
"aa-learning-trial","111","464810","0.0-9.0-2.0-1.19","5640","2","23","Female","approach_avoid_spark_v1","""event"",""trial"",""time""
""fullscreenenter"",""1"",""2057""
","
","
","""event"",""trial"",""time""
""fullscreenenter"",""1"",""2057""
","
","","","","","","983.2999999523163","images/straw3.png","","","learning","-5","-5","1","1","straw","fruit","2","0","","good","[4]"
"html-keyboard-response","112","465314","0.0-9.0-2.0-0.20","5640","2","23","Female","approach_avoid_spark_v1","""event"",""trial"",""time""
""fullscreenenter"",""1"",""2057""
","
","
","""event"",""trial"",""time""
""fullscreenenter"",""1"",""2057""
","
","","","","","","null","<div style=""font-size:60px;"">+</div>","null","","fixation","","","","","","","","","","",""
"aa-learning-trial","113","468322","0.0-9.0-2.0-1.20","5640","2","23","Female","approach_avoid_spark_v1","""event"",""trial"",""time""
""fullscreenenter"",""1"",""2057""
","
","
","""event"",""trial"",""time""
""fullscreenenter"",""1"",""2057""
","
","","","","","","842.3000001907349","images/apple2.png","","","learning","-9","-9","1","1","apple","fruit","2","0","","neutral","0"
"html-keyboard-response","114","468827","0.0-9.0-2.0-0.21","5640","2","23","Female","approach_avoid_spark_v1","""event"",""trial"",""time""
""fullscreenenter"",""1"",""2057""
","
","
","""event"",""trial"",""time""
""fullscreenenter"",""1"",""2057""
","
","","","","","","null","<div style=""font-size:60px;"">+</div>","null","","fixation","","","","","","","","","","",""
"aa-learning-trial","115","471834","0.0-9.0-2.0-1.21","5640","2","23","Female","approach_avoid_spark_v1","""event"",""trial"",""time""
""fullscreenenter"",""1"",""2057""
","
","
","""event"",""trial"",""time""
""fullscreenenter"",""1"",""2057""
","
","","","","","","706.2000000476837","images/apple8.png","","","learning","-3","0","0","0","apple","fruit","2","0","","neutral","0"
"html-keyboard-response","116","472337","0.0-9.0-2.0-0.22","5640","2","23","Female","approach_avoid_spark_v1","""event"",""trial"",""time""
""fullscreenenter"",""1"",""2057""
","
","
","""event"",""trial"",""time""
""fullscreenenter"",""1"",""2057""
","
","","","","","","null","<div style=""font-size:60px;"">+</div>","null","","fixation","","","","","","","","","","",""
"aa-learning-trial","117","475346","0.0-9.0-2.0-1.22","5640","2","23","Female","approach_avoid_spark_v1","""event"",""trial"",""time""
""fullscreenenter"",""1"",""2057""
","
","
","""event"",""trial"",""time""
""fullscreenenter"",""1"",""2057""
","
","","","","","","1012.5","images/straw7.png","","","learning","-8","-8","1","1","straw","fruit","2","0","","good","[4]"
"html-keyboard-response","118","475849","0.0-9.0-2.0-0.23","5640","2","23","Female","approach_avoid_spark_v1","""event"",""trial"",""time""
""fullscreenenter"",""1"",""2057""
","
","
","""event"",""trial"",""time""
""fullscreenenter"",""1"",""2057""
","
","","","","","","null","<div style=""font-size:60px;"">+</div>","null","","fixation","","","","","","","","","","",""
"aa-learning-trial","119","478858","0.0-9.0-2.0-1.23","5640","2","23","Female","approach_avoid_spark_v1","""event"",""trial"",""time""
""fullscreenenter"",""1"",""2057""
","
","
","""event"",""trial"",""time""
""fullscreenenter"",""1"",""2057""
","
","","","","","","795.2999999523163","images/banana3.png","","","learning","2","2","1","1","banana","fruit","2","0","","bad","[-6]"
"html-keyboard-response","120","479362","0.0-9.0-2.0-0.24","5640","2","23","Female","approach_avoid_spark_v1","""event"",""trial"",""time""
""fullscreenenter"",""1"",""2057""
","
","
","""event"",""trial"",""time""
""fullscreenenter"",""1"",""2057""
","
","","","","","","null","<div style=""font-size:60px;"">+</div>","null","","fixation","","","","","","","","","","",""
"aa-learning-trial","121","482369","0.0-9.0-2.0-1.24","5640","2","23","Female","approach_avoid_spark_v1","""event"",""trial"",""time""
""fullscreenenter"",""1"",""2057""
","
","
","""event"",""trial"",""time""
""fullscreenenter"",""1"",""2057""
","
","","","","","","499.5","images/banana3.png","","","learning","2","2","1","1","banana","fruit","2","0","","bad","[-6]"
"html-keyboard-response","122","482875","0.0-9.0-2.0-0.25","5640","2","23","Female","approach_avoid_spark_v1","""event"",""trial"",""time""
""fullscreenenter"",""1"",""2057""
","
","
","""event"",""trial"",""time""
""fullscreenenter"",""1"",""2057""
","
","","","","","","null","<div style=""font-size:60px;"">+</div>","null","","fixation","","","","","","","","","","",""
"aa-learning-trial","123","485883","0.0-9.0-2.0-1.25","5640","2","23","Female","approach_avoid_spark_v1","""event"",""trial"",""time""
""fullscreenenter"",""1"",""2057""
","
","
","""event"",""trial"",""time""
""fullscreenenter"",""1"",""2057""
","
","","","","","","712.5999999046326","images/straw7.png","","","learning","-8","0","0","0","straw","fruit","2","0","","good","[4]"
"html-keyboard-response","124","486386","0.0-9.0-2.0-0.26","5640","2","23","Female","approach_avoid_spark_v1","""event"",""trial"",""time""
""fullscreenenter"",""1"",""2057""
","
","
","""event"",""trial"",""time""
""fullscreenenter"",""1"",""2057""
","
","","","","","","null","<div style=""font-size:60px;"">+</div>","null","","fixation","","","","","","","","","","",""
"aa-learning-trial","125","489401","0.0-9.0-2.0-1.26","5640","2","23","Female","approach_avoid_spark_v1","""event"",""trial"",""time""
""fullscreenenter"",""1"",""2057""
","
","
","""event"",""trial"",""time""
""fullscreenenter"",""1"",""2057""
","
","","","","","","972.7999999523163","images/banana8.png","","","learning","8","8","1","1","banana","fruit","2","0","","bad","[-6]"
"html-keyboard-response","126","489907","0.0-9.0-2.0-0.27","5640","2","23","Female","approach_avoid_spark_v1","""event"",""trial"",""time""
""fullscreenenter"",""1"",""2057""
","
","
","""event"",""trial"",""time""
""fullscreenenter"",""1"",""2057""
","
","","","","","","null","<div style=""font-size:60px;"">+</div>","null","","fixation","","","","","","","","","","",""
"aa-learning-trial","127","492914","0.0-9.0-2.0-1.27","5640","2","23","Female","approach_avoid_spark_v1","""event"",""trial"",""time""
""fullscreenenter"",""1"",""2057""
","
","
","""event"",""trial"",""time""
""fullscreenenter"",""1"",""2057""
","
","","","","","","592.6999998092651","images/apple8.png","","","learning","-3","0","0","0","apple","fruit","2","0","","neutral","0"
"html-keyboard-response","128","493419","0.0-9.0-2.0-0.28","5640","2","23","Female","approach_avoid_spark_v1","""event"",""trial"",""time""
""fullscreenenter"",""1"",""2057""
","
","
","""event"",""trial"",""time""
""fullscreenenter"",""1"",""2057""
","
","","","","","","null","<div style=""font-size:60px;"">+</div>","null","","fixation","","","","","","","","","","",""
"aa-learning-trial","129","496425","0.0-9.0-2.0-1.28","5640","2","23","Female","approach_avoid_spark_v1","""event"",""trial"",""time""
""fullscreenenter"",""1"",""2057""
","
","
","""event"",""trial"",""time""
""fullscreenenter"",""1"",""2057""
","
","","","","","","625.0999999046326","images/banana8.png","","","learning","8","8","1","1","banana","fruit","2","0","","bad","[-6]"
"html-keyboard-response","130","496930","0.0-9.0-2.0-0.29","5640","2","23","Female","approach_avoid_spark_v1","""event"",""trial"",""time""
""fullscreenenter"",""1"",""2057""
","
","
","""event"",""trial"",""time""
""fullscreenenter"",""1"",""2057""
","
","","","","","","null","<div style=""font-size:60px;"">+</div>","null","","fixation","","","","","","","","","","",""
"aa-learning-trial","131","499938","0.0-9.0-2.0-1.29","5640","2","23","Female","approach_avoid_spark_v1","""event"",""trial"",""time""
""fullscreenenter"",""1"",""2057""
","
","
","""event"",""trial"",""time""
""fullscreenenter"",""1"",""2057""
","
","","","","","","706.3999998569489","images/straw5.png","","","learning","-2","-2","1","1","straw","fruit","2","0","","good","[4]"
"html-keyboard-response","132","500443","0.0-9.0-2.0-0.30","5640","2","23","Female","approach_avoid_spark_v1","""event"",""trial"",""time""
""fullscreenenter"",""1"",""2057""
","
","
","""event"",""trial"",""time""
""fullscreenenter"",""1"",""2057""
","
","","","","","","null","<div style=""font-size:60px;"">+</div>","null","","fixation","","","","","","","","","","",""
"aa-learning-trial","133","503450","0.0-9.0-2.0-1.30","5640","2","23","Female","approach_avoid_spark_v1","""event"",""trial"",""time""
""fullscreenenter"",""1"",""2057""
","
","
","""event"",""trial"",""time""
""fullscreenenter"",""1"",""2057""
","
","","","","","","761.3999998569489","images/apple5.png","","","learning","7","7","1","1","apple","fruit","2","0","","neutral","0"
"html-keyboard-response","134","503954","0.0-9.0-2.0-0.31","5640","2","23","Female","approach_avoid_spark_v1","""event"",""trial"",""time""
""fullscreenenter"",""1"",""2057""
","
","
","""event"",""trial"",""time""
""fullscreenenter"",""1"",""2057""
","
","","","","","","null","<div style=""font-size:60px;"">+</div>","null","","fixation","","","","","","","","","","",""
"aa-learning-trial","135","506962","0.0-9.0-2.0-1.31","5640","2","23","Female","approach_avoid_spark_v1","""event"",""trial"",""time""
""fullscreenenter"",""1"",""2057""
","
","
","""event"",""trial"",""time""
""fullscreenenter"",""1"",""2057""
","
","","","","","","645.7999999523163","images/apple8.png","","","learning","-3","0","0","0","apple","fruit","2","0","","neutral","0"
"html-keyboard-response","136","507466","0.0-9.0-2.0-0.32","5640","2","23","Female","approach_avoid_spark_v1","""event"",""trial"",""time""
""fullscreenenter"",""1"",""2057""
","
","
","""event"",""trial"",""time""
""fullscreenenter"",""1"",""2057""
","
","","","","","","null","<div style=""font-size:60px;"">+</div>","null","","fixation","","","","","","","","","","",""
"aa-learning-trial","137","510486","0.0-9.0-2.0-1.32","5640","2","23","Female","approach_avoid_spark_v1","""event"",""trial"",""time""
""fullscreenenter"",""1"",""2057""
","
","
","""event"",""trial"",""time""
""fullscreenenter"",""1"",""2057""
","
","","","","","","771.2999999523163","images/apple4.png","","","learning","1","1","1","1","apple","fruit","2","0","","neutral","0"
"html-keyboard-response","138","511001","0.0-9.0-2.0-0.33","5640","2","23","Female","approach_avoid_spark_v1","""event"",""trial"",""time""
""fullscreenenter"",""1"",""2057""
","
","
","""event"",""trial"",""time""
""fullscreenenter"",""1"",""2057""
","
","","","","","","null","<div style=""font-size:60px;"">+</div>","null","","fixation","","","","","","","","","","",""
"aa-learning-trial","139","514010","0.0-9.0-2.0-1.33","5640","2","23","Female","approach_avoid_spark_v1","""event"",""trial"",""time""
""fullscreenenter"",""1"",""2057""
","
","
","""event"",""trial"",""time""
""fullscreenenter"",""1"",""2057""
","
","","","","","","1287.1999998092651","images/banana2.png","","","learning","-7","0","0","0","banana","fruit","2","0","","bad","[-6]"
"html-keyboard-response","140","514514","0.0-9.0-2.0-0.34","5640","2","23","Female","approach_avoid_spark_v1","""event"",""trial"",""time""
""fullscreenenter"",""1"",""2057""
","
","
","""event"",""trial"",""time""
""fullscreenenter"",""1"",""2057""
","
","","","","","","null","<div style=""font-size:60px;"">+</div>","null","","fixation","","","","","","","","","","",""
"aa-learning-trial","141","517521","0.0-9.0-2.0-1.34","5640","2","23","Female","approach_avoid_spark_v1","""event"",""trial"",""time""
""fullscreenenter"",""1"",""2057""
","
","
","""event"",""trial"",""time""
""fullscreenenter"",""1"",""2057""
","
","","","","","","974","images/banana1.png","","","learning","-4","0","0","0","banana","fruit","2","0","","bad","[-6]"
"html-keyboard-response","142","518026","0.0-9.0-2.0-0.35","5640","2","23","Female","approach_avoid_spark_v1","""event"",""trial"",""time""
""fullscreenenter"",""1"",""2057""
","
","
","""event"",""trial"",""time""
""fullscreenenter"",""1"",""2057""
","
","","","","","","null","<div style=""font-size:60px;"">+</div>","null","","fixation","","","","","","","","","","",""
"aa-learning-trial","143","521033","0.0-9.0-2.0-1.35","5640","2","23","Female","approach_avoid_spark_v1","""event"",""trial"",""time""
""fullscreenenter"",""1"",""2057""
","
","
","""event"",""trial"",""time""
""fullscreenenter"",""1"",""2057""
","
","","","","","","993.4000000953674","images/straw3.png","","","learning","-5","-5","1","1","straw","fruit","2","0","","good","[4]"
"html-keyboard-response","144","521537","0.0-9.0-2.0-0.36","5640","2","23","Female","approach_avoid_spark_v1","""event"",""trial"",""time""
""fullscreenenter"",""1"",""2057""
","
","
","""event"",""trial"",""time""
""fullscreenenter"",""1"",""2057""
","
","","","","","","null","<div style=""font-size:60px;"">+</div>","null","","fixation","","","","","","","","","","",""
"aa-learning-trial","145","524545","0.0-9.0-2.0-1.36","5640","2","23","Female","approach_avoid_spark_v1","""event"",""trial"",""time""
""fullscreenenter"",""1"",""2057""
","
","
","""event"",""trial"",""time""
""fullscreenenter"",""1"",""2057""
","
","","","","","","763.4000000953674","images/straw5.png","","","learning","-2","0","0","0","straw","fruit","2","0","","good","[4]"
"html-keyboard-response","146","525049","0.0-9.0-2.0-0.37","5640","2","23","Female","approach_avoid_spark_v1","""event"",""trial"",""time""
""fullscreenenter"",""1"",""2057""
","
","
","""event"",""trial"",""time""
""fullscreenenter"",""1"",""2057""
","
","","","","","","null","<div style=""font-size:60px;"">+</div>","null","","fixation","","","","","","","","","","",""
"aa-learning-trial","147","528057","0.0-9.0-2.0-1.37","5640","2","23","Female","approach_avoid_spark_v1","""event"",""trial"",""time""
""fullscreenenter"",""1"",""2057""
","
","
","""event"",""trial"",""time""
""fullscreenenter"",""1"",""2057""
","
","","","","","","550.4000000953674","images/apple5.png","","","learning","7","7","1","1","apple","fruit","2","0","","neutral","0"
"html-keyboard-response","148","528561","0.0-9.0-2.0-0.38","5640","2","23","Female","approach_avoid_spark_v1","""event"",""trial"",""time""
""fullscreenenter"",""1"",""2057""
","
","
","""event"",""trial"",""time""
""fullscreenenter"",""1"",""2057""
","
","","","","","","null","<div style=""font-size:60px;"">+</div>","null","","fixation","","","","","","","","","","",""
"aa-learning-trial","149","531569","0.0-9.0-2.0-1.38","5640","2","23","Female","approach_avoid_spark_v1","""event"",""trial"",""time""
""fullscreenenter"",""1"",""2057""
","
","
","""event"",""trial"",""time""
""fullscreenenter"",""1"",""2057""
","
","","","","","","808.0999999046326","images/straw1.png","","","learning","9","9","1","1","straw","fruit","2","0","","good","[4]"
"html-keyboard-response","150","532073","0.0-9.0-2.0-0.39","5640","2","23","Female","approach_avoid_spark_v1","""event"",""trial"",""time""
""fullscreenenter"",""1"",""2057""
","
","
","""event"",""trial"",""time""
""fullscreenenter"",""1"",""2057""
","
","","","","","","null","<div style=""font-size:60px;"">+</div>","null","","fixation","","","","","","","","","","",""
"aa-learning-trial","151","535081","0.0-9.0-2.0-1.39","5640","2","23","Female","approach_avoid_spark_v1","""event"",""trial"",""time""
""fullscreenenter"",""1"",""2057""
","
","
","""event"",""trial"",""time""
""fullscreenenter"",""1"",""2057""
","
","","","","","","640.4000000953674","images/straw5.png","","","learning","-2","0","0","0","straw","fruit","2","0","","good","[4]"
"html-keyboard-response","152","535585","0.0-9.0-2.0-0.40","5640","2","23","Female","approach_avoid_spark_v1","""event"",""trial"",""time""
""fullscreenenter"",""1"",""2057""
","
","
","""event"",""trial"",""time""
""fullscreenenter"",""1"",""2057""
","
","","","","","","null","<div style=""font-size:60px;"">+</div>","null","","fixation","","","","","","","","","","",""
"aa-learning-trial","153","538593","0.0-9.0-2.0-1.40","5640","2","23","Female","approach_avoid_spark_v1","""event"",""trial"",""time""
""fullscreenenter"",""1"",""2057""
","
","
","""event"",""trial"",""time""
""fullscreenenter"",""1"",""2057""
","
","","","","","","825.7000000476837","images/banana8.png","","","learning","8","8","1","1","banana","fruit","2","0","","bad","[-6]"
"html-keyboard-response","154","539097","0.0-9.0-2.0-0.41","5640","2","23","Female","approach_avoid_spark_v1","""event"",""trial"",""time""
""fullscreenenter"",""1"",""2057""
","
","
","""event"",""trial"",""time""
""fullscreenenter"",""1"",""2057""
","
","","","","","","null","<div style=""font-size:60px;"">+</div>","null","","fixation","","","","","","","","","","",""
"aa-learning-trial","155","542105","0.0-9.0-2.0-1.41","5640","2","23","Female","approach_avoid_spark_v1","""event"",""trial"",""time""
""fullscreenenter"",""1"",""2057""
","
","
","""event"",""trial"",""time""
""fullscreenenter"",""1"",""2057""
","
","","","","","","816","images/banana5.png","","","learning","3","3","1","1","banana","fruit","2","0","","bad","[-6]"
"html-keyboard-response","156","542609","0.0-9.0-2.0-0.42","5640","2","23","Female","approach_avoid_spark_v1","""event"",""trial"",""time""
""fullscreenenter"",""1"",""2057""
","
","
","""event"",""trial"",""time""
""fullscreenenter"",""1"",""2057""
","
","","","","","","null","<div style=""font-size:60px;"">+</div>","null","","fixation","","","","","","","","","","",""
"aa-learning-trial","157","545617","0.0-9.0-2.0-1.42","5640","2","23","Female","approach_avoid_spark_v1","""event"",""trial"",""time""
""fullscreenenter"",""1"",""2057""
","
","
","""event"",""trial"",""time""
""fullscreenenter"",""1"",""2057""
","
","","","","","","592.6000001430511","images/banana1.png","","","learning","-4","0","0","0","banana","fruit","2","0","","bad","[-6]"
"html-keyboard-response","158","546121","0.0-9.0-2.0-0.43","5640","2","23","Female","approach_avoid_spark_v1","""event"",""trial"",""time""
""fullscreenenter"",""1"",""2057""
","
","
","""event"",""trial"",""time""
""fullscreenenter"",""1"",""2057""
","
","","","","","","null","<div style=""font-size:60px;"">+</div>","null","","fixation","","","","","","","","","","",""
"aa-learning-trial","159","549129","0.0-9.0-2.0-1.43","5640","2","23","Female","approach_avoid_spark_v1","""event"",""trial"",""time""
""fullscreenenter"",""1"",""2057""
","
","
","""event"",""trial"",""time""
""fullscreenenter"",""1"",""2057""
","
","","","","","","1459.2000000476837","images/apple3.png","","","learning","4","0","0","0","apple","fruit","2","0","","neutral","0"
"html-keyboard-response","160","549633","0.0-9.0-2.0-0.44","5640","2","23","Female","approach_avoid_spark_v1","""event"",""trial"",""time""
""fullscreenenter"",""1"",""2057""
","
","
","""event"",""trial"",""time""
""fullscreenenter"",""1"",""2057""
","
","","","","","","null","<div style=""font-size:60px;"">+</div>","null","","fixation","","","","","","","","","","",""
"aa-learning-trial","161","552642","0.0-9.0-2.0-1.44","5640","2","23","Female","approach_avoid_spark_v1","""event"",""trial"",""time""
""fullscreenenter"",""1"",""2057""
","
","
","""event"",""trial"",""time""
""fullscreenenter"",""1"",""2057""
","
","","","","","","685.7999999523163","images/apple8.png","","","learning","-3","0","0","0","apple","fruit","2","0","","neutral","0"
"html-keyboard-response","162","553145","0.0-9.0-2.0-0.45","5640","2","23","Female","approach_avoid_spark_v1","""event"",""trial"",""time""
""fullscreenenter"",""1"",""2057""
","
","
","""event"",""trial"",""time""
""fullscreenenter"",""1"",""2057""
","
","","","","","","null","<div style=""font-size:60px;"">+</div>","null","","fixation","","","","","","","","","","",""
"aa-learning-trial","163","556153","0.0-9.0-2.0-1.45","5640","2","23","Female","approach_avoid_spark_v1","""event"",""trial"",""time""
""fullscreenenter"",""1"",""2057""
","
","
","""event"",""trial"",""time""
""fullscreenenter"",""1"",""2057""
","
","","","","","","535.2999999523163","images/apple5.png","","","learning","7","7","1","1","apple","fruit","2","0","","neutral","0"
"html-keyboard-response","164","556657","0.0-9.0-2.0-0.46","5640","2","23","Female","approach_avoid_spark_v1","""event"",""trial"",""time""
""fullscreenenter"",""1"",""2057""
","
","
","""event"",""trial"",""time""
""fullscreenenter"",""1"",""2057""
","
","","","","","","null","<div style=""font-size:60px;"">+</div>","null","","fixation","","","","","","","","","","",""
"aa-learning-trial","165","559666","0.0-9.0-2.0-1.46","5640","2","23","Female","approach_avoid_spark_v1","""event"",""trial"",""time""
""fullscreenenter"",""1"",""2057""
","
","
","""event"",""trial"",""time""
""fullscreenenter"",""1"",""2057""
","
","","","","","","1003.5","images/straw3.png","","","learning","-5","0","0","0","straw","fruit","2","0","","good","[4]"
"html-keyboard-response","166","560169","0.0-9.0-2.0-0.47","5640","2","23","Female","approach_avoid_spark_v1","""event"",""trial"",""time""
""fullscreenenter"",""1"",""2057""
","
","
","""event"",""trial"",""time""
""fullscreenenter"",""1"",""2057""
","
","","","","","","null","<div style=""font-size:60px;"">+</div>","null","","fixation","","","","","","","","","","",""
"aa-learning-trial","167","563178","0.0-9.0-2.0-1.47","5640","2","23","Female","approach_avoid_spark_v1","""event"",""trial"",""time""
""fullscreenenter"",""1"",""2057""
","
","
","""event"",""trial"",""time""
""fullscreenenter"",""1"",""2057""
","
","","","","","","576.2999999523163","images/straw3.png","","","learning","-5","0","0","0","straw","fruit","2","0","","good","[4]"
"html-keyboard-response","168","563681","0.0-9.0-2.0-0.48","5640","2","23","Female","approach_avoid_spark_v1","""event"",""trial"",""time""
""fullscreenenter"",""1"",""2057""
","
","
","""event"",""trial"",""time""
""fullscreenenter"",""1"",""2057""
","
","","","","","","null","<div style=""font-size:60px;"">+</div>","null","","fixation","","","","","","","","","","",""
"aa-learning-trial","169","566689","0.0-9.0-2.0-1.48","5640","2","23","Female","approach_avoid_spark_v1","""event"",""trial"",""time""
""fullscreenenter"",""1"",""2057""
","
","
","""event"",""trial"",""time""
""fullscreenenter"",""1"",""2057""
","
","","","","","","1061.7999999523163","images/banana3.png","","","learning","2","0","0","0","banana","fruit","2","0","","bad","[-6]"
"html-keyboard-response","170","567193","0.0-9.0-2.0-0.49","5640","2","23","Female","approach_avoid_spark_v1","""event"",""trial"",""time""
""fullscreenenter"",""1"",""2057""
","
","
","""event"",""trial"",""time""
""fullscreenenter"",""1"",""2057""
","
","","","","","","null","<div style=""font-size:60px;"">+</div>","null","","fixation","","","","","","","","","","",""
"aa-learning-trial","171","570201","0.0-9.0-2.0-1.49","5640","2","23","Female","approach_avoid_spark_v1","""event"",""trial"",""time""
""fullscreenenter"",""1"",""2057""
","
","
","""event"",""trial"",""time""
""fullscreenenter"",""1"",""2057""
","
","","","","","","709.1000001430511","images/straw5.png","","","learning","-2","0","0","0","straw","fruit","2","0","","good","[4]"
"html-keyboard-response","172","570705","0.0-9.0-2.0-0.50","5640","2","23","Female","approach_avoid_spark_v1","""event"",""trial"",""time""
""fullscreenenter"",""1"",""2057""
","
","
","""event"",""trial"",""time""
""fullscreenenter"",""1"",""2057""
","
","","","","","","null","<div style=""font-size:60px;"">+</div>","null","","fixation","","","","","","","","","","",""
"aa-learning-trial","173","573713","0.0-9.0-2.0-1.50","5640","2","23","Female","approach_avoid_spark_v1","""event"",""trial"",""time""
""fullscreenenter"",""1"",""2057""
","
","
","""event"",""trial"",""time""
""fullscreenenter"",""1"",""2057""
","
","","","","","","1059.1999998092651","images/apple3.png","","","learning","4","4","1","1","apple","fruit","2","0","","neutral","0"
"html-button-response","174","577012","0.0-9.0-3.0","5640","2","23","Female","approach_avoid_spark_v1","""event"",""trial"",""time""
""fullscreenenter"",""1"",""2057""
","
","
","""event"",""trial"",""time""
""fullscreenenter"",""1"",""2057""
","
","","","","","","3298","<p> You have completed the round! <p> In this round, you earned 58 points! </p>","0","","break","","","","","","","","","","",""
"html-button-response","175","578212","0.0-10.0","5640","2","23","Female","approach_avoid_spark_v1","""event"",""trial"",""time""
""fullscreenenter"",""1"",""2057""
","
","
","""event"",""trial"",""time""
""fullscreenenter"",""1"",""2057""
","
","","","","","","1198.5","<p> Now it's time to play another round. </p>","0","","transition_screen","","","","","","","","","","",""
"preload","176","578321","0.0-11.0-0.0","5640","2","23","Female","approach_avoid_spark_v1","""event"",""trial"",""time""
""fullscreenenter"",""1"",""2057""
","
","
","""event"",""trial"",""time""
""fullscreenenter"",""1"",""2057""
","
","true","false","[]","[]","[]","","","","","","","","","","","","","","","",""
"learning-instructions","177","588914","0.0-11.0-1.0-0.0","5640","2","23","Female","approach_avoid_spark_v1","""event"",""trial"",""time""
""fullscreenenter"",""1"",""2057""
","
","
","""event"",""trial"",""time""
""fullscreenenter"",""1"",""2057""
","
","","","","","","5002.299999952316","<p> Your goal in this round is to take your friend for rides in different vehicles. </p></div>","","0","instructions","","","","","","","","","","",""
"learning-instructions","178","599730","0.0-11.0-1.0-0.1","5640","2","23","Female","approach_avoid_spark_v1","""event"",""trial"",""time""
""fullscreenenter"",""1"",""2057""
","
","
","""event"",""trial"",""time""
""fullscreenenter"",""1"",""2057""
","
","","","","","","828.2999999523163","<p> Your friend enjoys riding in some vehicles but not in others.  </p><p> On each turn, you will see a vehicle.   </p><p> You need to decide whether to take your friend for a ride or not.  </p>","","0","instructions","","","","","","","","","","",""
"learning-instructions","179","607254","0.0-11.0-1.0-0.2","5640","2","23","Female","approach_avoid_spark_v1","""event"",""trial"",""time""
""fullscreenenter"",""1"",""2057""
","
","
","""event"",""trial"",""time""
""fullscreenenter"",""1"",""2057""
","
","","","","","","772","<p> You can take your friend for a ride in the vehicle by pressing 1 and skip the ride by pressing 0. </p><br><div class=""choice-instructions-grid""> <div class=""choice-option""><img src=""images/approach.png"" class=""choice-option-img"" stage=""instructions"" position=""0"" ><div class=""choice-option-text""> Press ""1."" </div></div><div class=""choice-option""><img src=""images/avoid.png"" class=""choice-option-img"" stage=""instructions"" position=""1"" ><div class=""choice-option-text""> Press ""0."" </div></div>","","0","instructions","","","","","","","","","","",""
"learning-instructions","180","618783","0.0-11.0-1.0-0.3","5640","2","23","Female","approach_avoid_spark_v1","""event"",""trial"",""time""
""fullscreenenter"",""1"",""2057""
","
","
","""event"",""trial"",""time""
""fullscreenenter"",""1"",""2057""
","
","","","","","","1020.9000000953674","<p> If you take them for a ride in a vehicle they like, they will be thrilled! </p><p> But if you take them for a ride in a vehicle they do not like, they will be upset. </p>","","0","instructions","","","","","","","","","","",""
"learning-instructions","181","632805","0.0-11.0-1.0-0.4","5640","2","23","Female","approach_avoid_spark_v1","""event"",""trial"",""time""
""fullscreenenter"",""1"",""2057""
","
","
","""event"",""trial"",""time""
""fullscreenenter"",""1"",""2057""
","
","","","","","","812.9000000953674","<p> You will earn points based on how you made your friend feel. </p><p> If you made him thrilled, you will WIN anywhere from 1 - 9 points, </p><p> but if you made him upset, you will LOSE anywhere from 1 - 9 points. </p>","","0","instructions","","","","","","","","","","",""
"learning-instructions","182","639881","0.0-11.0-1.0-0.5","5640","2","23","Female","approach_avoid_spark_v1","""event"",""trial"",""time""
""fullscreenenter"",""1"",""2057""
","
","
","""event"",""trial"",""time""
""fullscreenenter"",""1"",""2057""
","
","","","","","","418.40000009536743","<p> You will see how many points you won or lost in the center of the screen. </p><p> Here is what you would see if you won 5 points: </p><p style=""color:green;font-size:50px;font-weight:bolder"">5</p>","","0","instructions","","","","","","","","","","",""
"learning-instructions","183","643333","0.0-11.0-1.0-0.6","5640","2","23","Female","approach_avoid_spark_v1","""event"",""trial"",""time""
""fullscreenenter"",""1"",""2057""
","
","
","""event"",""trial"",""time""
""fullscreenenter"",""1"",""2057""
","
","","","","","","601.0999999046326","<p> And here is what you would see if you lost 3 points: </p><p style=""color:red;font-size:50px;font-weight:bolder"">-3</p>","","0","instructions","","","","","","","","","","",""
"learning-instructions","184","660628","0.0-11.0-1.0-0.7","5640","2","23","Female","approach_avoid_spark_v1","""event"",""trial"",""time""
""fullscreenenter"",""1"",""2057""
","
","
","""event"",""trial"",""time""
""fullscreenenter"",""1"",""2057""
","
","","","","","","665.7999999523163","<p> Some vehicles will make your friend REALLY thrilled or upset. </p><p> These vehicles will make you win or lose LOTS of points. </p><p> Other vehicles will only make him feel a little thrilled or upset. </p><p> These vehicles will make you win or lose small amounts of points. </p>","","0","instructions","","","","","","","","","","",""
"learning-instructions","185","673579","0.0-11.0-1.0-0.8","5640","2","23","Female","approach_avoid_spark_v1","""event"",""trial"",""time""
""fullscreenenter"",""1"",""2057""
","
","
","""event"",""trial"",""time""
""fullscreenenter"",""1"",""2057""
","
","","","","","","446.60000014305115","<p> If you choose to skip the ride, you will not win or lose any points. </p><p>  However, in the center of the screen, you will see the number of points you WOULD HAVE won or lost if you had taken your friend for a ride. </p>","","0","instructions","","","","","","","","","","",""
"learning-instructions","186","684951","0.0-11.0-1.0-0.9","5640","2","23","Female","approach_avoid_spark_v1","""event"",""trial"",""time""
""fullscreenenter"",""1"",""2057""
","
","
","""event"",""trial"",""time""
""fullscreenenter"",""1"",""2057""
","
","","","","","","338.59999990463257","<p> Here is what you might see if you did not take your friend for a ride but he would have enjoyed it: </p><p style=""color:grey; font-size:50px; display: inline-block; border-spacing: 15px; border-width:3px; border-style:solid; border-color:red"">  &nbsp; 6 &nbsp; </p><p> Remember, in this case, you would not win or lose ANY points because you skipped the ride.  </p>","","0","instructions","","","","","","","","","","",""
"learning-instructions","187","692782","0.0-11.0-1.0-0.10","5640","2","23","Female","approach_avoid_spark_v1","""event"",""trial"",""time""
""fullscreenenter"",""1"",""2057""
","
","
","""event"",""trial"",""time""
""fullscreenenter"",""1"",""2057""
","
","","","","","","309.59999990463257","<p> Try to make the best choice for each vehicle because </p><p> at the end of the game, you will earn bonus money based on how many points you earned. </p>","","0","instructions","","","","","","","","","","",""
"learning-instructions","188","701319","0.0-11.0-1.0-0.11","5640","2","23","Female","approach_avoid_spark_v1","""event"",""trial"",""time""
""fullscreenenter"",""1"",""2057""
","
","
","""event"",""trial"",""time""
""fullscreenenter"",""1"",""2057""
","
","","","","","","337.5","<p> You will have 3 seconds to make each choice. Try to respond before time runs out! </p><p> You will lose 5 points each time you do not make a response. </p>","","0","instructions","","","","","","","","","","",""
"html-keyboard-response","189","701946","0.0-11.0-2.0-0.0","5640","2","23","Female","approach_avoid_spark_v1","""event"",""trial"",""time""
""fullscreenenter"",""1"",""2057""
","
","
","""event"",""trial"",""time""
""fullscreenenter"",""1"",""2057""
","
","","","","","","null","<div style=""font-size:60px;"">+</div>","null","","fixation","","","","","","","","","","",""
"aa-learning-trial","190","704956","0.0-11.0-2.0-1.0","5640","2","23","Female","approach_avoid_spark_v1","""event"",""trial"",""time""
""fullscreenenter"",""1"",""2057""
","
","
","""event"",""trial"",""time""
""fullscreenenter"",""1"",""2057""
","
","","","","","","1009.2000000476837","images/train4.png","","","learning","-4","0","0","0","train","vehicles","1","1","","bad","[-6]"
"html-keyboard-response","191","705462","0.0-11.0-2.0-0.1","5640","2","23","Female","approach_avoid_spark_v1","""event"",""trial"",""time""
""fullscreenenter"",""1"",""2057""
","
","
","""event"",""trial"",""time""
""fullscreenenter"",""1"",""2057""
","
","","","","","","null","<div style=""font-size:60px;"">+</div>","null","","fixation","","","","","","","","","","",""
"aa-learning-trial","192","708472","0.0-11.0-2.0-1.1","5640","2","23","Female","approach_avoid_spark_v1","""event"",""trial"",""time""
""fullscreenenter"",""1"",""2057""
","
","
","""event"",""trial"",""time""
""fullscreenenter"",""1"",""2057""
","
","","","","","","989.6000001430511","images/truck4.png","","","learning","2","0","0","0","truck","vehicles","1","1","","neutral","0"
"html-keyboard-response","193","708980","0.0-11.0-2.0-0.2","5640","2","23","Female","approach_avoid_spark_v1","""event"",""trial"",""time""
""fullscreenenter"",""1"",""2057""
","
","
","""event"",""trial"",""time""
""fullscreenenter"",""1"",""2057""
","
","","","","","","null","<div style=""font-size:60px;"">+</div>","null","","fixation","","","","","","","","","","",""
"aa-learning-trial","194","712000","0.0-11.0-2.0-1.2","5640","2","23","Female","approach_avoid_spark_v1","""event"",""trial"",""time""
""fullscreenenter"",""1"",""2057""
","
","
","""event"",""trial"",""time""
""fullscreenenter"",""1"",""2057""
","
","","","","","","630.5","images/truck1.png","","","learning","-2","0","0","0","truck","vehicles","1","1","","neutral","0"
"html-keyboard-response","195","712514","0.0-11.0-2.0-0.3","5640","2","23","Female","approach_avoid_spark_v1","""event"",""trial"",""time""
""fullscreenenter"",""1"",""2057""
","
","
","""event"",""trial"",""time""
""fullscreenenter"",""1"",""2057""
","
","","","","","","null","<div style=""font-size:60px;"">+</div>","null","","fixation","","","","","","","","","","",""
"aa-learning-trial","196","715536","0.0-11.0-2.0-1.3","5640","2","23","Female","approach_avoid_spark_v1","""event"",""trial"",""time""
""fullscreenenter"",""1"",""2057""
","
","
","""event"",""trial"",""time""
""fullscreenenter"",""1"",""2057""
","
","","","","","","828.5999999046326","images/plane8.png","","","learning","8","8","1","1","plane","vehicles","1","1","","good","[5]"
"html-keyboard-response","197","716050","0.0-11.0-2.0-0.4","5640","2","23","Female","approach_avoid_spark_v1","""event"",""trial"",""time""
""fullscreenenter"",""1"",""2057""
","
","
","""event"",""trial"",""time""
""fullscreenenter"",""1"",""2057""
","
","","","","","","null","<div style=""font-size:60px;"">+</div>","null","","fixation","","","","","","","","","","",""
"aa-learning-trial","198","719062","0.0-11.0-2.0-1.4","5640","2","23","Female","approach_avoid_spark_v1","""event"",""trial"",""time""
""fullscreenenter"",""1"",""2057""
","
","
","""event"",""trial"",""time""
""fullscreenenter"",""1"",""2057""
","
","","","","","","777.5999999046326","images/truck5.png","","","learning","-1","-1","1","1","truck","vehicles","1","1","","neutral","0"
"html-keyboard-response","199","719580","0.0-11.0-2.0-0.5","5640","2","23","Female","approach_avoid_spark_v1","""event"",""trial"",""time""
""fullscreenenter"",""1"",""2057""
","
","
","""event"",""trial"",""time""
""fullscreenenter"",""1"",""2057""
","
","","","","","","null","<div style=""font-size:60px;"">+</div>","null","","fixation","","","","","","","","","","",""
"aa-learning-trial","200","722586","0.0-11.0-2.0-1.5","5640","2","23","Female","approach_avoid_spark_v1","""event"",""trial"",""time""
""fullscreenenter"",""1"",""2057""
","
","
","""event"",""trial"",""time""
""fullscreenenter"",""1"",""2057""
","
","","","","","","780.3999998569489","images/train3.png","","","learning","-2","-2","1","1","train","vehicles","1","1","","bad","[-6]"
"html-keyboard-response","201","723102","0.0-11.0-2.0-0.6","5640","2","23","Female","approach_avoid_spark_v1","""event"",""trial"",""time""
""fullscreenenter"",""1"",""2057""
","
","
","""event"",""trial"",""time""
""fullscreenenter"",""1"",""2057""
","
","","","","","","null","<div style=""font-size:60px;"">+</div>","null","","fixation","","","","","","","","","","",""
"aa-learning-trial","202","726110","0.0-11.0-2.0-1.6","5640","2","23","Female","approach_avoid_spark_v1","""event"",""trial"",""time""
""fullscreenenter"",""1"",""2057""
","
","
","""event"",""trial"",""time""
""fullscreenenter"",""1"",""2057""
","
","","","","","","756.2999999523163","images/truck4.png","","","learning","[1]","1","1","1","truck","vehicles","1","1","","neutral","0"
"html-keyboard-response","203","726632","0.0-11.0-2.0-0.7","5640","2","23","Female","approach_avoid_spark_v1","""event"",""trial"",""time""
""fullscreenenter"",""1"",""2057""
","
","
","""event"",""trial"",""time""
""fullscreenenter"",""1"",""2057""
","
","","","","","","null","<div style=""font-size:60px;"">+</div>","null","","fixation","","","","","","","","","","",""
"aa-learning-trial","204","729644","0.0-11.0-2.0-1.7","5640","2","23","Female","approach_avoid_spark_v1","""event"",""trial"",""time""
""fullscreenenter"",""1"",""2057""
","
","
","""event"",""trial"",""time""
""fullscreenenter"",""1"",""2057""
","
","","","","","","485.69999980926514","images/plane8.png","","","learning","5","5","1","1","plane","vehicles","1","1","","good","[5]"
"html-keyboard-response","205","730153","0.0-11.0-2.0-0.8","5640","2","23","Female","approach_avoid_spark_v1","""event"",""trial"",""time""
""fullscreenenter"",""1"",""2057""
","
","
","""event"",""trial"",""time""
""fullscreenenter"",""1"",""2057""
","
","","","","","","null","<div style=""font-size:60px;"">+</div>","null","","fixation","","","","","","","","","","",""
"aa-learning-trial","206","733161","0.0-11.0-2.0-1.8","5640","2","23","Female","approach_avoid_spark_v1","""event"",""trial"",""time""
""fullscreenenter"",""1"",""2057""
","
","
","""event"",""trial"",""time""
""fullscreenenter"",""1"",""2057""
","
","","","","","","1167.4000000953674","images/plane1.png","","","learning","4","0","0","0","plane","vehicles","1","1","","good","[5]"
"html-keyboard-response","207","733666","0.0-11.0-2.0-0.9","5640","2","23","Female","approach_avoid_spark_v1","""event"",""trial"",""time""
""fullscreenenter"",""1"",""2057""
","
","
","""event"",""trial"",""time""
""fullscreenenter"",""1"",""2057""
","
","","","","","","null","<div style=""font-size:60px;"">+</div>","null","","fixation","","","","","","","","","","",""
"aa-learning-trial","208","736673","0.0-11.0-2.0-1.9","5640","2","23","Female","approach_avoid_spark_v1","""event"",""trial"",""time""
""fullscreenenter"",""1"",""2057""
","
","
","""event"",""trial"",""time""
""fullscreenenter"",""1"",""2057""
","
","","","","","","876.2000000476837","images/train1.png","","","learning","-5","0","0","0","train","vehicles","1","1","","bad","[-6]"
"html-keyboard-response","209","737177","0.0-11.0-2.0-0.10","5640","2","23","Female","approach_avoid_spark_v1","""event"",""trial"",""time""
""fullscreenenter"",""1"",""2057""
","
","
","""event"",""trial"",""time""
""fullscreenenter"",""1"",""2057""
","
","","","","","","null","<div style=""font-size:60px;"">+</div>","null","","fixation","","","","","","","","","","",""
"aa-learning-trial","210","740185","0.0-11.0-2.0-1.10","5640","2","23","Female","approach_avoid_spark_v1","""event"",""trial"",""time""
""fullscreenenter"",""1"",""2057""
","
","
","""event"",""trial"",""time""
""fullscreenenter"",""1"",""2057""
","
","","","","","","893.6000001430511","images/plane5.png","","","learning","4","0","0","0","plane","vehicles","1","1","","good","[5]"
"html-keyboard-response","211","740689","0.0-11.0-2.0-0.11","5640","2","23","Female","approach_avoid_spark_v1","""event"",""trial"",""time""
""fullscreenenter"",""1"",""2057""
","
","
","""event"",""trial"",""time""
""fullscreenenter"",""1"",""2057""
","
","","","","","","null","<div style=""font-size:60px;"">+</div>","null","","fixation","","","","","","","","","","",""
"aa-learning-trial","212","743697","0.0-11.0-2.0-1.11","5640","2","23","Female","approach_avoid_spark_v1","""event"",""trial"",""time""
""fullscreenenter"",""1"",""2057""
","
","
","""event"",""trial"",""time""
""fullscreenenter"",""1"",""2057""
","
","","","","","","1007.7000000476837","images/train1.png","","","learning","-7","0","0","0","train","vehicles","1","1","","bad","[-6]"
"html-keyboard-response","213","744202","0.0-11.0-2.0-0.12","5640","2","23","Female","approach_avoid_spark_v1","""event"",""trial"",""time""
""fullscreenenter"",""1"",""2057""
","
","
","""event"",""trial"",""time""
""fullscreenenter"",""1"",""2057""
","
","","","","","","null","<div style=""font-size:60px;"">+</div>","null","","fixation","","","","","","","","","","",""
"aa-learning-trial","214","747209","0.0-11.0-2.0-1.12","5640","2","23","Female","approach_avoid_spark_v1","""event"",""trial"",""time""
""fullscreenenter"",""1"",""2057""
","
","
","""event"",""trial"",""time""
""fullscreenenter"",""1"",""2057""
","
","","","","","","829.0999999046326","images/train4.png","","","learning","-4","0","0","0","train","vehicles","1","1","","bad","[-6]"
"html-keyboard-response","215","747714","0.0-11.0-2.0-0.13","5640","2","23","Female","approach_avoid_spark_v1","""event"",""trial"",""time""
""fullscreenenter"",""1"",""2057""
","
","
","""event"",""trial"",""time""
""fullscreenenter"",""1"",""2057""
","
","","","","","","null","<div style=""font-size:60px;"">+</div>","null","","fixation","","","","","","","","","","",""
"aa-learning-trial","216","750721","0.0-11.0-2.0-1.13","5640","2","23","Female","approach_avoid_spark_v1","""event"",""trial"",""time""
""fullscreenenter"",""1"",""2057""
","
","
","""event"",""trial"",""time""
""fullscreenenter"",""1"",""2057""
","
","","","","","","1037.0999999046326","images/truck1.png","","","learning","-3","0","0","0","truck","vehicles","1","1","","neutral","0"
"html-keyboard-response","217","751225","0.0-11.0-2.0-0.14","5640","2","23","Female","approach_avoid_spark_v1","""event"",""trial"",""time""
""fullscreenenter"",""1"",""2057""
","
","
","""event"",""trial"",""time""
""fullscreenenter"",""1"",""2057""
","
","","","","","","null","<div style=""font-size:60px;"">+</div>","null","","fixation","","","","","","","","","","",""
"aa-learning-trial","218","754233","0.0-11.0-2.0-1.14","5640","2","23","Female","approach_avoid_spark_v1","""event"",""trial"",""time""
""fullscreenenter"",""1"",""2057""
","
","
","""event"",""trial"",""time""
""fullscreenenter"",""1"",""2057""
","
","","","","","","1400.4000000953674","images/plane5.png","","","learning","4","0","0","0","plane","vehicles","1","1","","good","[5]"
"html-keyboard-response","219","754737","0.0-11.0-2.0-0.15","5640","2","23","Female","approach_avoid_spark_v1","""event"",""trial"",""time""
""fullscreenenter"",""1"",""2057""
","
","
","""event"",""trial"",""time""
""fullscreenenter"",""1"",""2057""
","
","","","","","","null","<div style=""font-size:60px;"">+</div>","null","","fixation","","","","","","","","","","",""
"aa-learning-trial","220","757745","0.0-11.0-2.0-1.15","5640","2","23","Female","approach_avoid_spark_v1","""event"",""trial"",""time""
""fullscreenenter"",""1"",""2057""
","
","
","""event"",""trial"",""time""
""fullscreenenter"",""1"",""2057""
","
","","","","","","696.0999999046326","images/truck4.png","","","learning","-2","-2","1","1","truck","vehicles","1","1","","neutral","0"
"html-keyboard-response","221","758250","0.0-11.0-2.0-0.16","5640","2","23","Female","approach_avoid_spark_v1","""event"",""trial"",""time""
""fullscreenenter"",""1"",""2057""
","
","
","""event"",""trial"",""time""
""fullscreenenter"",""1"",""2057""
","
","","","","","","null","<div style=""font-size:60px;"">+</div>","null","","fixation","","","","","","","","","","",""
"aa-learning-trial","222","761258","0.0-11.0-2.0-1.16","5640","2","23","Female","approach_avoid_spark_v1","""event"",""trial"",""time""
""fullscreenenter"",""1"",""2057""
","
","
","""event"",""trial"",""time""
""fullscreenenter"",""1"",""2057""
","
","","","","","","505.7000000476837","images/plane8.png","","","learning","4","4","1","1","plane","vehicles","1","1","","good","[5]"
"html-keyboard-response","223","761762","0.0-11.0-2.0-0.17","5640","2","23","Female","approach_avoid_spark_v1","""event"",""trial"",""time""
""fullscreenenter"",""1"",""2057""
","
","
","""event"",""trial"",""time""
""fullscreenenter"",""1"",""2057""
","
","","","","","","null","<div style=""font-size:60px;"">+</div>","null","","fixation","","","","","","","","","","",""
"aa-learning-trial","224","764770","0.0-11.0-2.0-1.17","5640","2","23","Female","approach_avoid_spark_v1","""event"",""trial"",""time""
""fullscreenenter"",""1"",""2057""
","
","
","""event"",""trial"",""time""
""fullscreenenter"",""1"",""2057""
","
","","","","","","740","images/train1.png","","","learning","-6","0","0","0","train","vehicles","1","1","","bad","[-6]"
"html-keyboard-response","225","765274","0.0-11.0-2.0-0.18","5640","2","23","Female","approach_avoid_spark_v1","""event"",""trial"",""time""
""fullscreenenter"",""1"",""2057""
","
","
","""event"",""trial"",""time""
""fullscreenenter"",""1"",""2057""
","
","","","","","","null","<div style=""font-size:60px;"">+</div>","null","","fixation","","","","","","","","","","",""
"aa-learning-trial","226","768281","0.0-11.0-2.0-1.18","5640","2","23","Female","approach_avoid_spark_v1","""event"",""trial"",""time""
""fullscreenenter"",""1"",""2057""
","
","
","""event"",""trial"",""time""
""fullscreenenter"",""1"",""2057""
","
","","","","","","944","images/train6.png","","","learning","-5","0","0","0","train","vehicles","1","1","","bad","[-6]"
"html-keyboard-response","227","768786","0.0-11.0-2.0-0.19","5640","2","23","Female","approach_avoid_spark_v1","""event"",""trial"",""time""
""fullscreenenter"",""1"",""2057""
","
","
","""event"",""trial"",""time""
""fullscreenenter"",""1"",""2057""
","
","","","","","","null","<div style=""font-size:60px;"">+</div>","null","","fixation","","","","","","","","","","",""
"aa-learning-trial","228","771794","0.0-11.0-2.0-1.19","5640","2","23","Female","approach_avoid_spark_v1","""event"",""trial"",""time""
""fullscreenenter"",""1"",""2057""
","
","
","""event"",""trial"",""time""
""fullscreenenter"",""1"",""2057""
","
","","","","","","785.4000000953674","images/truck1.png","","","learning","-1","0","0","0","truck","vehicles","1","1","","neutral","0"
"html-keyboard-response","229","772298","0.0-11.0-2.0-0.20","5640","2","23","Female","approach_avoid_spark_v1","""event"",""trial"",""time""
""fullscreenenter"",""1"",""2057""
","
","
","""event"",""trial"",""time""
""fullscreenenter"",""1"",""2057""
","
","","","","","","null","<div style=""font-size:60px;"">+</div>","null","","fixation","","","","","","","","","","",""
"aa-learning-trial","230","775306","0.0-11.0-2.0-1.20","5640","2","23","Female","approach_avoid_spark_v1","""event"",""trial"",""time""
""fullscreenenter"",""1"",""2057""
","
","
","""event"",""trial"",""time""
""fullscreenenter"",""1"",""2057""
","
","","","","","","917.5","images/plane4.png","","","learning","6","6","1","1","plane","vehicles","1","1","","good","[5]"
"html-keyboard-response","231","775809","0.0-11.0-2.0-0.21","5640","2","23","Female","approach_avoid_spark_v1","""event"",""trial"",""time""
""fullscreenenter"",""1"",""2057""
","
","
","""event"",""trial"",""time""
""fullscreenenter"",""1"",""2057""
","
","","","","","","null","<div style=""font-size:60px;"">+</div>","null","","fixation","","","","","","","","","","",""
"aa-learning-trial","232","778818","0.0-11.0-2.0-1.21","5640","2","23","Female","approach_avoid_spark_v1","""event"",""trial"",""time""
""fullscreenenter"",""1"",""2057""
","
","
","""event"",""trial"",""time""
""fullscreenenter"",""1"",""2057""
","
","","","","","","580","images/plane1.png","","","learning","4","4","1","1","plane","vehicles","1","1","","good","[5]"
"html-keyboard-response","233","779322","0.0-11.0-2.0-0.22","5640","2","23","Female","approach_avoid_spark_v1","""event"",""trial"",""time""
""fullscreenenter"",""1"",""2057""
","
","
","""event"",""trial"",""time""
""fullscreenenter"",""1"",""2057""
","
","","","","","","null","<div style=""font-size:60px;"">+</div>","null","","fixation","","","","","","","","","","",""
"aa-learning-trial","234","782330","0.0-11.0-2.0-1.22","5640","2","23","Female","approach_avoid_spark_v1","""event"",""trial"",""time""
""fullscreenenter"",""1"",""2057""
","
","
","""event"",""trial"",""time""
""fullscreenenter"",""1"",""2057""
","
","","","","","","728.6000001430511","images/truck1.png","","","learning","-1","0","0","0","truck","vehicles","1","1","","neutral","0"
"html-keyboard-response","235","782834","0.0-11.0-2.0-0.23","5640","2","23","Female","approach_avoid_spark_v1","""event"",""trial"",""time""
""fullscreenenter"",""1"",""2057""
","
","
","""event"",""trial"",""time""
""fullscreenenter"",""1"",""2057""
","
","","","","","","null","<div style=""font-size:60px;"">+</div>","null","","fixation","","","","","","","","","","",""
"aa-learning-trial","236","785842","0.0-11.0-2.0-1.23","5640","2","23","Female","approach_avoid_spark_v1","""event"",""trial"",""time""
""fullscreenenter"",""1"",""2057""
","
","
","""event"",""trial"",""time""
""fullscreenenter"",""1"",""2057""
","
","","","","","","975.5","images/plane2.png","","","learning","5","0","0","0","plane","vehicles","1","1","","good","[5]"
