"trial_type","trial_index","time_elapsed","internal_node_id","subject_id","task_condition","age","gender","task_version","interactions","blur_events","focus_events","fullscreenenter_events","fullscreenexit_events","success","timeout","failed_images","failed_audio","failed_video","rt","stimulus","response","button_pressed","task_part","approach_reward","points","key_press","option_selected","stim_cat","task_block","block_condition","block_number","correct","cat_type","mean_cat_reward"
"pavlovia","0","7","0.0-0.0","7148","1","21","Male","approach_avoid_spark_v1","""event"",""trial"",""time""
""fullscreenenter"",""1"",""3518""
","
","
","""event"",""trial"",""time""
""fullscreenenter"",""1"",""3518""
","
","","","","","","","","","","","","","","","","","","","","",""
"fullscreen","1","4378","0.0-1.0","7148","1","21","Male","approach_avoid_spark_v1","""event"",""trial"",""time""
""fullscreenenter"",""1"",""3518""
""blur"",""2"",""5454""
","""event"",""trial"",""time""
""blur"",""2"",""5454""
","
","""event"",""trial"",""time""
""fullscreenenter"",""1"",""3518""
","
","true","","","","","","","","","","","","","","","","","","","",""
"preload","2","28100","0.0-2.0","7148","1","21","Male","approach_avoid_spark_v1","""event"",""trial"",""time""
""fullscreenenter"",""1"",""3518""
""blur"",""2"",""5454""
""focus"",""3"",""41852""
","""event"",""trial"",""time""
""blur"",""2"",""5454""
","""event"",""trial"",""time""
""focus"",""3"",""41852""
","""event"",""trial"",""time""
""fullscreenenter"",""1"",""3518""
","
","true","false","[]","[]","[]","","","","","","","","","","","","","","","",""
"audio-keyboard-response","3","45732","0.0-3.0","7148","1","21","Male","approach_avoid_spark_v1","""event"",""trial"",""time""
""fullscreenenter"",""1"",""3518""
""blur"",""2"",""5454""
""focus"",""3"",""41852""
","""event"",""trial"",""time""
""blur"",""2"",""5454""
","""event"",""trial"",""time""
""focus"",""3"",""41852""
","""event"",""trial"",""time""
""fullscreenenter"",""1"",""3518""
","
","","","","","","0","audio/beep_loop.wav"," ","","","","","","","","","","","","",""
"audio-button-response","4","48348","0.0-4.0","7148","1","21","Male","approach_avoid_spark_v1","""event"",""trial"",""time""
""fullscreenenter"",""1"",""3518""
""blur"",""2"",""5454""
""focus"",""3"",""41852""
","""event"",""trial"",""time""
""blur"",""2"",""5454""
","""event"",""trial"",""time""
""focus"",""3"",""41852""
","""event"",""trial"",""time""
""fullscreenenter"",""1"",""3518""
","
","","","","","","2337","audio/shark.wav","4","","","","","","","","","","","","",""
"audio-button-response","5","50637","0.0-5.0","7148","1","21","Male","approach_avoid_spark_v1","""event"",""trial"",""time""
""fullscreenenter"",""1"",""3518""
""blur"",""2"",""5454""
""focus"",""3"",""41852""
","""event"",""trial"",""time""
""blur"",""2"",""5454""
","""event"",""trial"",""time""
""focus"",""3"",""41852""
","""event"",""trial"",""time""
""fullscreenenter"",""1"",""3518""
","
","","","","","","1286","audio/turtle.wav","1","","","","","","","","","","","","",""
"preload","6","57370","0.0-6.0","7148","1","21","Male","approach_avoid_spark_v1","""event"",""trial"",""time""
""fullscreenenter"",""1"",""3518""
""blur"",""2"",""5454""
""focus"",""3"",""41852""
","""event"",""trial"",""time""
""blur"",""2"",""5454""
","""event"",""trial"",""time""
""focus"",""3"",""41852""
","""event"",""trial"",""time""
""fullscreenenter"",""1"",""3518""
","
","true","false","[]","[]","[]","","","","","","","","","","","","","","","",""
"html-keyboard-response","7","60046","0.0-7.0","7148","1","21","Male","approach_avoid_spark_v1","""event"",""trial"",""time""
""fullscreenenter"",""1"",""3518""
""blur"",""2"",""5454""
""focus"",""3"",""41852""
","""event"",""trial"",""time""
""blur"",""2"",""5454""
","""event"",""trial"",""time""
""focus"",""3"",""41852""
","""event"",""trial"",""time""
""fullscreenenter"",""1"",""3518""
","
","","","","","","2673.9999999999927","Welcome to the experiment. Press any key to begin and to advance the instructions."," ","","","","","","","","","","","","",""
"learning-instructions","8","68585","0.0-8.0-0.0-0.0","7148","1","21","Male","approach_avoid_spark_v1","""event"",""trial"",""time""
""fullscreenenter"",""1"",""3518""
""blur"",""2"",""5454""
""focus"",""3"",""41852""
","""event"",""trial"",""time""
""blur"",""2"",""5454""
","""event"",""trial"",""time""
""focus"",""3"",""41852""
","""event"",""trial"",""time""
""fullscreenenter"",""1"",""3518""
","
","","","","","","1580","<p> Welcome! Today you are going to play 6 different rounds of a decision-making game. </p><p> Use the mouse to click next to continue. </p>","","0","instructions","","","","","","","","","","",""
"learning-instructions","9","72395","0.0-8.0-0.0-0.1","7148","1","21","Male","approach_avoid_spark_v1","""event"",""trial"",""time""
""fullscreenenter"",""1"",""3518""
""blur"",""2"",""5454""
""focus"",""3"",""41852""
","""event"",""trial"",""time""
""blur"",""2"",""5454""
","""event"",""trial"",""time""
""focus"",""3"",""41852""
","""event"",""trial"",""time""
""fullscreenenter"",""1"",""3518""
","
","","","","","","1086","<p> You will start with a practice round to learn the rules. </p>","","0","instructions","","","","","","","","","","",""
"learning-instructions","10","76773","0.0-8.0-0.0-0.2","7148","1","21","Male","approach_avoid_spark_v1","""event"",""trial"",""time""
""fullscreenenter"",""1"",""3518""
""blur"",""2"",""5454""
""focus"",""3"",""41852""
","""event"",""trial"",""time""
""blur"",""2"",""5454""
","""event"",""trial"",""time""
""focus"",""3"",""41852""
","""event"",""trial"",""time""
""fullscreenenter"",""1"",""3518""
","
","","","","","","933.0000000000146","<p> Your goal in this round is to give out sports equipment to kids. </p></div>","","0","instructions","","","","","","","","","","",""
"learning-instructions","11","85413","0.0-8.0-0.0-0.3","7148","1","21","Male","approach_avoid_spark_v1","""event"",""trial"",""time""
""fullscreenenter"",""1"",""3518""
""blur"",""2"",""5454""
""focus"",""3"",""41852""
","""event"",""trial"",""time""
""blur"",""2"",""5454""
","""event"",""trial"",""time""
""focus"",""3"",""41852""
","""event"",""trial"",""time""
""fullscreenenter"",""1"",""3518""
","
","","","","","","1097.0000000000146","<p> The kids only like some of the equipment.  </p><p> On each turn, you will see a piece of sports equipment.   </p><p> You need to decide whether to give it to the kids or not.  </p>","","0","instructions","","","","","","","","","","",""
"learning-instructions","12","91112","0.0-8.0-0.0-0.4","7148","1","21","Male","approach_avoid_spark_v1","""event"",""trial"",""time""
""fullscreenenter"",""1"",""3518""
""blur"",""2"",""5454""
""focus"",""3"",""41852""
","""event"",""trial"",""time""
""blur"",""2"",""5454""
","""event"",""trial"",""time""
""focus"",""3"",""41852""
","""event"",""trial"",""time""
""fullscreenenter"",""1"",""3518""
","
","","","","","","953","<p> You can give them the equipment by pressing 1 and choose not to give it to them by pressing 0. </p><br><div class=""choice-instructions-grid""> <div class=""choice-option""><img src=""images/approach.png"" class=""choice-option-img"" stage=""instructions"" position=""0"" ><div class=""choice-option-text""> Press ""1."" </div></div><div class=""choice-option""><img src=""images/avoid.png"" class=""choice-option-img"" stage=""instructions"" position=""1"" ><div class=""choice-option-text""> Press ""0."" </div></div>","","0","instructions","","","","","","","","","","",""
"learning-instructions","13","99050","0.0-8.0-0.0-0.5","7148","1","21","Male","approach_avoid_spark_v1","""event"",""trial"",""time""
""fullscreenenter"",""1"",""3518""
""blur"",""2"",""5454""
""focus"",""3"",""41852""
","""event"",""trial"",""time""
""blur"",""2"",""5454""
","""event"",""trial"",""time""
""focus"",""3"",""41852""
","""event"",""trial"",""time""
""fullscreenenter"",""1"",""3518""
","
","","","","","","559.0000000000146","<p> If you give them a piece of equipment they like, they will be happy! </p><p> But if you give them a piece of equipment they do not like, they will be sad. </p>","","0","instructions","","","","","","","","","","",""
"learning-instructions","14","110330","0.0-8.0-0.0-0.6","7148","1","21","Male","approach_avoid_spark_v1","""event"",""trial"",""time""
""fullscreenenter"",""1"",""3518""
""blur"",""2"",""5454""
""focus"",""3"",""41852""
","""event"",""trial"",""time""
""blur"",""2"",""5454""
","""event"",""trial"",""time""
""focus"",""3"",""41852""
","""event"",""trial"",""time""
""fullscreenenter"",""1"",""3518""
","
","","","","","","776.9999999999854","<p> You will earn points based on how you make kids feel. </p><p> If you make them happy, you will WIN anywhere from 1 - 9 points, </p><p> but if you make them sad, you will LOSE anywhere from 1 - 9 points. </p>","","0","instructions","","","","","","","","","","",""
"learning-instructions","15","120474","0.0-8.0-0.0-0.7","7148","1","21","Male","approach_avoid_spark_v1","""event"",""trial"",""time""
""fullscreenenter"",""1"",""3518""
""blur"",""2"",""5454""
""focus"",""3"",""41852""
","""event"",""trial"",""time""
""blur"",""2"",""5454""
","""event"",""trial"",""time""
""focus"",""3"",""41852""
","""event"",""trial"",""time""
""fullscreenenter"",""1"",""3518""
","
","","","","","","590","<p> You will see how many points you won or lost in the center of the screen. </p><p> Here is what you would see if you won 6 points: </p><p style=""color:green;font-size:50px;font-weight:bolder"">6</p><p style=""color:green"">The text is GREEN because you WON points.</p>","","0","instructions","","","","","","","","","","",""
"learning-instructions","16","126641","0.0-8.0-0.0-0.8","7148","1","21","Male","approach_avoid_spark_v1","""event"",""trial"",""time""
""fullscreenenter"",""1"",""3518""
""blur"",""2"",""5454""
""focus"",""3"",""41852""
","""event"",""trial"",""time""
""blur"",""2"",""5454""
","""event"",""trial"",""time""
""focus"",""3"",""41852""
","""event"",""trial"",""time""
""fullscreenenter"",""1"",""3518""
","
","","","","","","668.0000000000146","<p> And here is what you would see if you lost 4 points: </p><p style=""color:red;font-size:50px;font-weight:bolder"">-4</p><p style=""color:red"">The text is RED because you LOST points. </p>","","0","instructions","","","","","","","","","","",""
"learning-instructions","17","141815","0.0-8.0-0.0-0.9","7148","1","21","Male","approach_avoid_spark_v1","""event"",""trial"",""time""
""fullscreenenter"",""1"",""3518""
""blur"",""2"",""5454""
""focus"",""3"",""41852""
","""event"",""trial"",""time""
""blur"",""2"",""5454""
","""event"",""trial"",""time""
""focus"",""3"",""41852""
","""event"",""trial"",""time""
""fullscreenenter"",""1"",""3518""
","
","","","","","","467","<p> Some of the equipment will make the kids VERY happy or sad. </p><p> These pieces of equipment will make you win or lose LOTS of points. </p><p> Other pieces of equipment will only make the kids a little happy or sad. </p><p> These pieces of equipment will make you win or lose small amounts of points. </p>","","0","instructions","","","","","","","","","","",""
"learning-instructions","18","153211","0.0-8.0-0.0-0.10","7148","1","21","Male","approach_avoid_spark_v1","""event"",""trial"",""time""
""fullscreenenter"",""1"",""3518""
""blur"",""2"",""5454""
""focus"",""3"",""41852""
","""event"",""trial"",""time""
""blur"",""2"",""5454""
","""event"",""trial"",""time""
""focus"",""3"",""41852""
","""event"",""trial"",""time""
""fullscreenenter"",""1"",""3518""
","
","","","","","","777","<p> If you choose not to give them the equipment, you will not win or lose any points. </p><p>  However, in the center of the screen, you will see the number of points you WOULD HAVE won or lost if you had given them the equipment. </p>","","0","instructions","","","","","","","","","","",""
"learning-instructions","19","175304","0.0-8.0-0.0-0.11","7148","1","21","Male","approach_avoid_spark_v1","""event"",""trial"",""time""
""fullscreenenter"",""1"",""3518""
""blur"",""2"",""5454""
""focus"",""3"",""41852""
","""event"",""trial"",""time""
""blur"",""2"",""5454""
","""event"",""trial"",""time""
""focus"",""3"",""41852""
","""event"",""trial"",""time""
""fullscreenenter"",""1"",""3518""
","
","","","","","","572","<p> Here is what you might see if you did not give the equipment to the kids but it would have made them happy: </p><p style=""color:grey; font-size:50px; display: inline-block; border-spacing: 15px; border-width:3px; border-style:solid; border-color:red"">  &nbsp; 7 &nbsp; </p><p> Remember, in this case, you would not win or lose ANY points because you did not give them the equipment.  </p><p style=""color:grey"">The text is GREY because you earned ZERO points. </p><p style=""color:red"">However, choosing to give the kids the equipment would have made you win points. The box around the text is RED because you chose the worse option. </p>","","0","instructions","","","","","","","","","","",""
"learning-instructions","20","197179","0.0-8.0-0.0-0.12","7148","1","21","Male","approach_avoid_spark_v1","""event"",""trial"",""time""
""fullscreenenter"",""1"",""3518""
""blur"",""2"",""5454""
""focus"",""3"",""41852""
","""event"",""trial"",""time""
""blur"",""2"",""5454""
","""event"",""trial"",""time""
""focus"",""3"",""41852""
","""event"",""trial"",""time""
""fullscreenenter"",""1"",""3518""
","
","","","","","","806","<p> Here is what you might see if you did not give the equipment to the kids but it would have made them sad: </p><p style=""color:grey;font-size:50px; display: inline-block; border-spacing: 15px; border-width:3px; border-style:solid; border-color:green"">  &nbsp; -8 &nbsp; </p><p> Remember, in this case, you would not win or lose ANY points because you did not give them the equipment.  </p><p style=""color:grey"">The text is GREY because you earned ZERO points. </p><p  style=""color:green""> Choosing to give the kids the equipment would have made you lose points. The box around the text is GREEN because you chose the better option.</p>","","0","instructions","","","","","","","","","","",""
"learning-instructions","21","206722","0.0-8.0-0.0-0.13","7148","1","21","Male","approach_avoid_spark_v1","""event"",""trial"",""time""
""fullscreenenter"",""1"",""3518""
""blur"",""2"",""5454""
""focus"",""3"",""41852""
","""event"",""trial"",""time""
""blur"",""2"",""5454""
","""event"",""trial"",""time""
""focus"",""3"",""41852""
","""event"",""trial"",""time""
""fullscreenenter"",""1"",""3518""
","
","","","","","","692","<p> You will have 3 seconds to make each choice. Try to respond before time runs out! </p><p> You will lose 5 points each time you do not make a response. </p>","","0","instructions","","","","","","","","","","",""
"learning-instructions","22","213373","0.0-8.0-0.0-0.14","7148","1","21","Male","approach_avoid_spark_v1","""event"",""trial"",""time""
""fullscreenenter"",""1"",""3518""
""blur"",""2"",""5454""
""focus"",""3"",""41852""
","""event"",""trial"",""time""
""blur"",""2"",""5454""
","""event"",""trial"",""time""
""focus"",""3"",""41852""
","""event"",""trial"",""time""
""fullscreenenter"",""1"",""3518""
","
","","","","","","1244","<p> This is just a practice round, but in the real game, your bonus payment will depend on your total number of points.","","0","instructions","","","","","","","","","","",""
"learning-instructions","23","219773","0.0-8.0-0.0-0.15","7148","1","21","Male","approach_avoid_spark_v1","""event"",""trial"",""time""
""fullscreenenter"",""1"",""3518""
""blur"",""2"",""5454""
""focus"",""3"",""41852""
","""event"",""trial"",""time""
""blur"",""2"",""5454""
","""event"",""trial"",""time""
""focus"",""3"",""41852""
","""event"",""trial"",""time""
""fullscreenenter"",""1"",""3518""
","
","","","","","","644.0000000000291","<p> Remember, you can give them the equipment by pressing 1 and choose not to give it to them by pressing 0. </p><br><div class=""choice-instructions-grid""> <div class=""choice-option""><img src=""images/approach.png"" class=""choice-option-img"" stage=""instructions"" position=""0"" ><div class=""choice-option-text""> Press ""1."" </div></div><div class=""choice-option""><img src=""images/avoid.png"" class=""choice-option-img"" stage=""instructions"" position=""1"" ><div class=""choice-option-text""> Press ""0."" </div></div>","","0","instructions","","","","","","","","","","",""
"html-button-response","24","222263","0.0-8.0-1.0","7148","1","21","Male","approach_avoid_spark_v1","""event"",""trial"",""time""
""fullscreenenter"",""1"",""3518""
""blur"",""2"",""5454""
""focus"",""3"",""41852""
","""event"",""trial"",""time""
""blur"",""2"",""5454""
","""event"",""trial"",""time""
""focus"",""3"",""41852""
","""event"",""trial"",""time""
""fullscreenenter"",""1"",""3518""
","
","","","","","","2388","<p> Ready to practice? </p>","0","","","","","","","","","","","","",""
"html-keyboard-response","25","222867","0.0-8.0-2.0-0.0","7148","1","21","Male","approach_avoid_spark_v1","""event"",""trial"",""time""
""fullscreenenter"",""1"",""3518""
""blur"",""2"",""5454""
""focus"",""3"",""41852""
","""event"",""trial"",""time""
""blur"",""2"",""5454""
","""event"",""trial"",""time""
""focus"",""3"",""41852""
","""event"",""trial"",""time""
""fullscreenenter"",""1"",""3518""
","
","","","","","","null","<div style=""font-size:60px;"">+</div>","null","","fixation","","","","","","","","","","",""
"aa-learning-trial","26","225870","0.0-8.0-2.0-1.0","7148","1","21","Male","approach_avoid_spark_v1","""event"",""trial"",""time""
""fullscreenenter"",""1"",""3518""
""blur"",""2"",""5454""
""focus"",""3"",""41852""
","""event"",""trial"",""time""
""blur"",""2"",""5454""
","""event"",""trial"",""time""
""focus"",""3"",""41852""
","""event"",""trial"",""time""
""fullscreenenter"",""1"",""3518""
","
","","","","","","1010.9999999999709","images/ball4.png","","","learning","5","5","1","1","practice","practice","practice","-1","","",""
"html-keyboard-response","27","226372","0.0-8.0-2.0-0.1","7148","1","21","Male","approach_avoid_spark_v1","""event"",""trial"",""time""
""fullscreenenter"",""1"",""3518""
""blur"",""2"",""5454""
""focus"",""3"",""41852""
","""event"",""trial"",""time""
""blur"",""2"",""5454""
","""event"",""trial"",""time""
""focus"",""3"",""41852""
","""event"",""trial"",""time""
""fullscreenenter"",""1"",""3518""
","
","","","","","","null","<div style=""font-size:60px;"">+</div>","null","","fixation","","","","","","","","","","",""
"aa-learning-trial","28","229374","0.0-8.0-2.0-1.1","7148","1","21","Male","approach_avoid_spark_v1","""event"",""trial"",""time""
""fullscreenenter"",""1"",""3518""
""blur"",""2"",""5454""
""focus"",""3"",""41852""
","""event"",""trial"",""time""
""blur"",""2"",""5454""
","""event"",""trial"",""time""
""focus"",""3"",""41852""
","""event"",""trial"",""time""
""fullscreenenter"",""1"",""3518""
","
","","","","","","917","images/racket1.png","","","learning","-6","-6","1","1","practice","practice","practice","-1","","",""
"html-keyboard-response","29","229875","0.0-8.0-2.0-0.2","7148","1","21","Male","approach_avoid_spark_v1","""event"",""trial"",""time""
""fullscreenenter"",""1"",""3518""
""blur"",""2"",""5454""
""focus"",""3"",""41852""
","""event"",""trial"",""time""
""blur"",""2"",""5454""
","""event"",""trial"",""time""
""focus"",""3"",""41852""
","""event"",""trial"",""time""
""fullscreenenter"",""1"",""3518""
","
","","","","","","null","<div style=""font-size:60px;"">+</div>","null","","fixation","","","","","","","","","","",""
"aa-learning-trial","30","232878","0.0-8.0-2.0-1.2","7148","1","21","Male","approach_avoid_spark_v1","""event"",""trial"",""time""
""fullscreenenter"",""1"",""3518""
""blur"",""2"",""5454""
""focus"",""3"",""41852""
","""event"",""trial"",""time""
""blur"",""2"",""5454""
","""event"",""trial"",""time""
""focus"",""3"",""41852""
","""event"",""trial"",""time""
""fullscreenenter"",""1"",""3518""
","
","","","","","","663","images/ball2.png","","","learning","6","6","1","1","practice","practice","practice","-1","","",""
"html-keyboard-response","31","233380","0.0-8.0-2.0-0.3","7148","1","21","Male","approach_avoid_spark_v1","""event"",""trial"",""time""
""fullscreenenter"",""1"",""3518""
""blur"",""2"",""5454""
""focus"",""3"",""41852""
","""event"",""trial"",""time""
""blur"",""2"",""5454""
","""event"",""trial"",""time""
""focus"",""3"",""41852""
","""event"",""trial"",""time""
""fullscreenenter"",""1"",""3518""
","
","","","","","","null","<div style=""font-size:60px;"">+</div>","null","","fixation","","","","","","","","","","",""
"aa-learning-trial","32","236381","0.0-8.0-2.0-1.3","7148","1","21","Male","approach_avoid_spark_v1","""event"",""trial"",""time""
""fullscreenenter"",""1"",""3518""
""blur"",""2"",""5454""
""focus"",""3"",""41852""
","""event"",""trial"",""time""
""blur"",""2"",""5454""
","""event"",""trial"",""time""
""focus"",""3"",""41852""
","""event"",""trial"",""time""
""fullscreenenter"",""1"",""3518""
","
","","","","","","604.9999999999709","images/racket4.png","","","learning","-8","0","0","0","practice","practice","practice","-1","","",""
"html-keyboard-response","33","236883","0.0-8.0-2.0-0.4","7148","1","21","Male","approach_avoid_spark_v1","""event"",""trial"",""time""
""fullscreenenter"",""1"",""3518""
""blur"",""2"",""5454""
""focus"",""3"",""41852""
","""event"",""trial"",""time""
""blur"",""2"",""5454""
","""event"",""trial"",""time""
""focus"",""3"",""41852""
","""event"",""trial"",""time""
""fullscreenenter"",""1"",""3518""
","
","","","","","","null","<div style=""font-size:60px;"">+</div>","null","","fixation","","","","","","","","","","",""
"aa-learning-trial","34","239885","0.0-8.0-2.0-1.4","7148","1","21","Male","approach_avoid_spark_v1","""event"",""trial"",""time""
""fullscreenenter"",""1"",""3518""
""blur"",""2"",""5454""
""focus"",""3"",""41852""
","""event"",""trial"",""time""
""blur"",""2"",""5454""
","""event"",""trial"",""time""
""focus"",""3"",""41852""
","""event"",""trial"",""time""
""fullscreenenter"",""1"",""3518""
","
","","","","","","755","images/racket3.png","","","learning","3","0","0","0","practice","practice","practice","-1","","",""
"html-keyboard-response","35","240386","0.0-8.0-2.0-0.5","7148","1","21","Male","approach_avoid_spark_v1","""event"",""trial"",""time""
""fullscreenenter"",""1"",""3518""
""blur"",""2"",""5454""
""focus"",""3"",""41852""
","""event"",""trial"",""time""
""blur"",""2"",""5454""
","""event"",""trial"",""time""
""focus"",""3"",""41852""
","""event"",""trial"",""time""
""fullscreenenter"",""1"",""3518""
","
","","","","","","null","<div style=""font-size:60px;"">+</div>","null","","fixation","","","","","","","","","","",""
"aa-learning-trial","36","243388","0.0-8.0-2.0-1.5","7148","1","21","Male","approach_avoid_spark_v1","""event"",""trial"",""time""
""fullscreenenter"",""1"",""3518""
""blur"",""2"",""5454""
""focus"",""3"",""41852""
","""event"",""trial"",""time""
""blur"",""2"",""5454""
","""event"",""trial"",""time""
""focus"",""3"",""41852""
","""event"",""trial"",""time""
""fullscreenenter"",""1"",""3518""
","
","","","","","","747","images/ball3.png","","","learning","2","2","1","1","practice","practice","practice","-1","","",""
"html-keyboard-response","37","243890","0.0-8.0-2.0-0.6","7148","1","21","Male","approach_avoid_spark_v1","""event"",""trial"",""time""
""fullscreenenter"",""1"",""3518""
""blur"",""2"",""5454""
""focus"",""3"",""41852""
","""event"",""trial"",""time""
""blur"",""2"",""5454""
","""event"",""trial"",""time""
""focus"",""3"",""41852""
","""event"",""trial"",""time""
""fullscreenenter"",""1"",""3518""
","
","","","","","","null","<div style=""font-size:60px;"">+</div>","null","","fixation","","","","","","","","","","",""
"aa-learning-trial","38","246891","0.0-8.0-2.0-1.6","7148","1","21","Male","approach_avoid_spark_v1","""event"",""trial"",""time""
""fullscreenenter"",""1"",""3518""
""blur"",""2"",""5454""
""focus"",""3"",""41852""
","""event"",""trial"",""time""
""blur"",""2"",""5454""
","""event"",""trial"",""time""
""focus"",""3"",""41852""
","""event"",""trial"",""time""
""fullscreenenter"",""1"",""3518""
","
","","","","","","683","images/ball3.png","","","learning","-8","-8","1","1","practice","practice","practice","-1","","",""
"html-keyboard-response","39","247393","0.0-8.0-2.0-0.7","7148","1","21","Male","approach_avoid_spark_v1","""event"",""trial"",""time""
""fullscreenenter"",""1"",""3518""
""blur"",""2"",""5454""
""focus"",""3"",""41852""
","""event"",""trial"",""time""
""blur"",""2"",""5454""
","""event"",""trial"",""time""
""focus"",""3"",""41852""
","""event"",""trial"",""time""
""fullscreenenter"",""1"",""3518""
","
","","","","","","null","<div style=""font-size:60px;"">+</div>","null","","fixation","","","","","","","","","","",""
"aa-learning-trial","40","250395","0.0-8.0-2.0-1.7","7148","1","21","Male","approach_avoid_spark_v1","""event"",""trial"",""time""
""fullscreenenter"",""1"",""3518""
""blur"",""2"",""5454""
""focus"",""3"",""41852""
","""event"",""trial"",""time""
""blur"",""2"",""5454""
","""event"",""trial"",""time""
""focus"",""3"",""41852""
","""event"",""trial"",""time""
""fullscreenenter"",""1"",""3518""
","
","","","","","","922","images/ball2.png","","","learning","-7","-7","1","1","practice","practice","practice","-1","","",""
"html-keyboard-response","41","250897","0.0-8.0-2.0-0.8","7148","1","21","Male","approach_avoid_spark_v1","""event"",""trial"",""time""
""fullscreenenter"",""1"",""3518""
""blur"",""2"",""5454""
""focus"",""3"",""41852""
","""event"",""trial"",""time""
""blur"",""2"",""5454""
","""event"",""trial"",""time""
""focus"",""3"",""41852""
","""event"",""trial"",""time""
""fullscreenenter"",""1"",""3518""
","
","","","","","","null","<div style=""font-size:60px;"">+</div>","null","","fixation","","","","","","","","","","",""
"aa-learning-trial","42","253898","0.0-8.0-2.0-1.8","7148","1","21","Male","approach_avoid_spark_v1","""event"",""trial"",""time""
""fullscreenenter"",""1"",""3518""
""blur"",""2"",""5454""
""focus"",""3"",""41852""
","""event"",""trial"",""time""
""blur"",""2"",""5454""
","""event"",""trial"",""time""
""focus"",""3"",""41852""
","""event"",""trial"",""time""
""fullscreenenter"",""1"",""3518""
","
","","","","","","1197.000000000029","images/ball3.png","","","learning","-2","-2","1","1","practice","practice","practice","-1","","",""
"html-keyboard-response","43","254400","0.0-8.0-2.0-0.9","7148","1","21","Male","approach_avoid_spark_v1","""event"",""trial"",""time""
""fullscreenenter"",""1"",""3518""
""blur"",""2"",""5454""
""focus"",""3"",""41852""
","""event"",""trial"",""time""
""blur"",""2"",""5454""
","""event"",""trial"",""time""
""focus"",""3"",""41852""
","""event"",""trial"",""time""
""fullscreenenter"",""1"",""3518""
","
","","","","","","null","<div style=""font-size:60px;"">+</div>","null","","fixation","","","","","","","","","","",""
"aa-learning-trial","44","257401","0.0-8.0-2.0-1.9","7148","1","21","Male","approach_avoid_spark_v1","""event"",""trial"",""time""
""fullscreenenter"",""1"",""3518""
""blur"",""2"",""5454""
""focus"",""3"",""41852""
","""event"",""trial"",""time""
""blur"",""2"",""5454""
","""event"",""trial"",""time""
""focus"",""3"",""41852""
","""event"",""trial"",""time""
""fullscreenenter"",""1"",""3518""
","
","","","","","","1337.999999999971","images/ball4.png","","","learning","-8","-8","1","1","practice","practice","practice","-1","","",""
"html-keyboard-response","45","257903","0.0-8.0-2.0-0.10","7148","1","21","Male","approach_avoid_spark_v1","""event"",""trial"",""time""
""fullscreenenter"",""1"",""3518""
""blur"",""2"",""5454""
""focus"",""3"",""41852""
","""event"",""trial"",""time""
""blur"",""2"",""5454""
","""event"",""trial"",""time""
""focus"",""3"",""41852""
","""event"",""trial"",""time""
""fullscreenenter"",""1"",""3518""
","
","","","","","","null","<div style=""font-size:60px;"">+</div>","null","","fixation","","","","","","","","","","",""
"aa-learning-trial","46","260905","0.0-8.0-2.0-1.10","7148","1","21","Male","approach_avoid_spark_v1","""event"",""trial"",""time""
""fullscreenenter"",""1"",""3518""
""blur"",""2"",""5454""
""focus"",""3"",""41852""
","""event"",""trial"",""time""
""blur"",""2"",""5454""
","""event"",""trial"",""time""
""focus"",""3"",""41852""
","""event"",""trial"",""time""
""fullscreenenter"",""1"",""3518""
","
","","","","","","822.0000000000291","images/racket4.png","","","learning","-6","0","0","0","practice","practice","practice","-1","","",""
"html-keyboard-response","47","261406","0.0-8.0-2.0-0.11","7148","1","21","Male","approach_avoid_spark_v1","""event"",""trial"",""time""
""fullscreenenter"",""1"",""3518""
""blur"",""2"",""5454""
""focus"",""3"",""41852""
","""event"",""trial"",""time""
""blur"",""2"",""5454""
","""event"",""trial"",""time""
""focus"",""3"",""41852""
","""event"",""trial"",""time""
""fullscreenenter"",""1"",""3518""
","
","","","","","","null","<div style=""font-size:60px;"">+</div>","null","","fixation","","","","","","","","","","",""
"aa-learning-trial","48","264408","0.0-8.0-2.0-1.11","7148","1","21","Male","approach_avoid_spark_v1","""event"",""trial"",""time""
""fullscreenenter"",""1"",""3518""
""blur"",""2"",""5454""
""focus"",""3"",""41852""
","""event"",""trial"",""time""
""blur"",""2"",""5454""
","""event"",""trial"",""time""
""focus"",""3"",""41852""
","""event"",""trial"",""time""
""fullscreenenter"",""1"",""3518""
","
","","","","","","1197.9999999999418","images/racket2.png","","","learning","7","0","0","0","practice","practice","practice","-1","","",""
"html-button-response","49","268303","0.0-8.0-3.0","7148","1","21","Male","approach_avoid_spark_v1","""event"",""trial"",""time""
""fullscreenenter"",""1"",""3518""
""blur"",""2"",""5454""
""focus"",""3"",""41852""
","""event"",""trial"",""time""
""blur"",""2"",""5454""
","""event"",""trial"",""time""
""focus"",""3"",""41852""
","""event"",""trial"",""time""
""fullscreenenter"",""1"",""3518""
","
","","","","","","3895","<p> You earned -18 points in the practice round! </p>","0","","break","","","","","","","","","","",""
"learning-instructions","50","276041","0.0-8.0-4.0-0.0","7148","1","21","Male","approach_avoid_spark_v1","""event"",""trial"",""time""
""fullscreenenter"",""1"",""3518""
""blur"",""2"",""5454""
""focus"",""3"",""41852""
","""event"",""trial"",""time""
""blur"",""2"",""5454""
","""event"",""trial"",""time""
""focus"",""3"",""41852""
","""event"",""trial"",""time""
""fullscreenenter"",""1"",""3518""
","
","","","","","","1781","<p> It's almost time to start the real game. </p><p> Before you start, we're going to ask you a few questions about how the game works. </p>","","0","instructions","","","","","","","","","","",""
"preload","51","278657","0.0-8.0-5.0","7148","1","21","Male","approach_avoid_spark_v1","""event"",""trial"",""time""
""fullscreenenter"",""1"",""3518""
""blur"",""2"",""5454""
""focus"",""3"",""41852""
","""event"",""trial"",""time""
""blur"",""2"",""5454""
","""event"",""trial"",""time""
""focus"",""3"",""41852""
","""event"",""trial"",""time""
""fullscreenenter"",""1"",""3518""
","
","true","false","[]","[]","[]","","","","","","","","","","","","","","","",""
"comp-q","52","285433","0.0-8.0-6.0-0.0","7148","1","21","Male","approach_avoid_spark_v1","""event"",""trial"",""time""
""fullscreenenter"",""1"",""3518""
""blur"",""2"",""5454""
""focus"",""3"",""41852""
","""event"",""trial"",""time""
""blur"",""2"",""5454""
","""event"",""trial"",""time""
""focus"",""3"",""41852""
","""event"",""trial"",""time""
""fullscreenenter"",""1"",""3518""
","
","","","","","","1779","<p> <b> True or False? </b> </p><p> If you see a number in GREY, that means you earned that many points. </p>","","1","comp_question","","","","","","","","","true","",""
"comp-q","53","296245","0.0-8.0-6.0-1.0","7148","1","21","Male","approach_avoid_spark_v1","""event"",""trial"",""time""
""fullscreenenter"",""1"",""3518""
""blur"",""2"",""5454""
""focus"",""3"",""41852""
","""event"",""trial"",""time""
""blur"",""2"",""5454""
","""event"",""trial"",""time""
""focus"",""3"",""41852""
","""event"",""trial"",""time""
""fullscreenenter"",""1"",""3518""
","
","","","","","","2453","<p><b> That's right! </b> If you see a grey number, it means you earned ZERO points. <br> The grey numbers show the points you WOULD HAVE earned if you had made the other choice. </p>","","0","comp_answer","","","","","","","","","","",""
"comp-q","54","301476","0.0-8.0-7.0-0.0","7148","1","21","Male","approach_avoid_spark_v1","""event"",""trial"",""time""
""fullscreenenter"",""1"",""3518""
""blur"",""2"",""5454""
""focus"",""3"",""41852""
","""event"",""trial"",""time""
""blur"",""2"",""5454""
","""event"",""trial"",""time""
""focus"",""3"",""41852""
","""event"",""trial"",""time""
""fullscreenenter"",""1"",""3518""
","
","","","","","","541","<p> <b> True or False? </b> </p><p> You will have as much time as you want to make each choice. </p>","","1","comp_question","","","","","","","","","true","",""
"comp-q","55","306472","0.0-8.0-7.0-1.0","7148","1","21","Male","approach_avoid_spark_v1","""event"",""trial"",""time""
""fullscreenenter"",""1"",""3518""
""blur"",""2"",""5454""
""focus"",""3"",""41852""
","""event"",""trial"",""time""
""blur"",""2"",""5454""
","""event"",""trial"",""time""
""focus"",""3"",""41852""
","""event"",""trial"",""time""
""fullscreenenter"",""1"",""3518""
","
","","","","","","961","<p> <b> That's right! </b> You will only have 3 seconds to make each choice. </p>","","0","comp_answer","","","","","","","","","","",""
"comp-q","56","311636","0.0-8.0-8.0-0.0","7148","1","21","Male","approach_avoid_spark_v1","""event"",""trial"",""time""
""fullscreenenter"",""1"",""3518""
""blur"",""2"",""5454""
""focus"",""3"",""41852""
","""event"",""trial"",""time""
""blur"",""2"",""5454""
","""event"",""trial"",""time""
""focus"",""3"",""41852""
","""event"",""trial"",""time""
""fullscreenenter"",""1"",""3518""
","
","","","","","","512","<p> <b> True or False? </b> </p><p> You should use the '1' and '0' keys to make your choices. </p>","","0","comp_question","","","","","","","","","true","",""
"comp-q","57","317401","0.0-8.0-8.0-1.0","7148","1","21","Male","approach_avoid_spark_v1","""event"",""trial"",""time""
""fullscreenenter"",""1"",""3518""
""blur"",""2"",""5454""
""focus"",""3"",""41852""
","""event"",""trial"",""time""
""blur"",""2"",""5454""
","""event"",""trial"",""time""
""focus"",""3"",""41852""
","""event"",""trial"",""time""
""fullscreenenter"",""1"",""3518""
","
","","","","","","1158.9999999999418","<p> <b> That's right! </b> You should use the '1' and '0' keys to make each choice. </p>","","0","comp_answer","","","","","","","","","","",""
"learning-instructions","58","325356","0.0-8.0-9.0-0.0","7148","1","21","Male","approach_avoid_spark_v1","""event"",""trial"",""time""
""fullscreenenter"",""1"",""3518""
""blur"",""2"",""5454""
""focus"",""3"",""41852""
","""event"",""trial"",""time""
""blur"",""2"",""5454""
","""event"",""trial"",""time""
""focus"",""3"",""41852""
","""event"",""trial"",""time""
""fullscreenenter"",""1"",""3518""
","
","","","","","","1687","<p> It's now time to start the real game. </p>Do your best, because the points you earn in the next rounds will influence your bonus payment. </p>","","0","instructions","","","","","","","","","","",""
"preload","59","325466","0.0-9.0-0.0","7148","1","21","Male","approach_avoid_spark_v1","""event"",""trial"",""time""
""fullscreenenter"",""1"",""3518""
""blur"",""2"",""5454""
""focus"",""3"",""41852""
","""event"",""trial"",""time""
""blur"",""2"",""5454""
","""event"",""trial"",""time""
""focus"",""3"",""41852""
","""event"",""trial"",""time""
""fullscreenenter"",""1"",""3518""
","
","true","false","[]","[]","[]","","","","","","","","","","","","","","","",""
"learning-instructions","60","332158","0.0-9.0-1.0-0.0","7148","1","21","Male","approach_avoid_spark_v1","""event"",""trial"",""time""
""fullscreenenter"",""1"",""3518""
""blur"",""2"",""5454""
""focus"",""3"",""41852""
","""event"",""trial"",""time""
""blur"",""2"",""5454""
","""event"",""trial"",""time""
""focus"",""3"",""41852""
","""event"",""trial"",""time""
""fullscreenenter"",""1"",""3518""
","
","","","","","","2283.000000000058","<p> Your goal in this round is to decorate your friend's new house with furniture. </p></div>","","0","instructions","","","","","","","","","","",""
"learning-instructions","61","343338","0.0-9.0-1.0-0.1","7148","1","21","Male","approach_avoid_spark_v1","""event"",""trial"",""time""
""fullscreenenter"",""1"",""3518""
""blur"",""2"",""5454""
""focus"",""3"",""41852""
","""event"",""trial"",""time""
""blur"",""2"",""5454""
","""event"",""trial"",""time""
""focus"",""3"",""41852""
","""event"",""trial"",""time""
""fullscreenenter"",""1"",""3518""
","
","","","","","","1472","<p> Your friend likes some pieces of furniture but not others.  </p><p> On each turn, you will see a piece of furniture.   </p><p> You need to decide whether to put it in your friend's house or not.  </p>","","0","instructions","","","","","","","","","","",""
"learning-instructions","62","350423","0.0-9.0-1.0-0.2","7148","1","21","Male","approach_avoid_spark_v1","""event"",""trial"",""time""
""fullscreenenter"",""1"",""3518""
""blur"",""2"",""5454""
""focus"",""3"",""41852""
","""event"",""trial"",""time""
""blur"",""2"",""5454""
","""event"",""trial"",""time""
""focus"",""3"",""41852""
","""event"",""trial"",""time""
""fullscreenenter"",""1"",""3518""
","
","","","","","","1581","<p> You can put the furniture in her house by pressing 1 and deliver it elsewhere by pressing 0. </p><br><div class=""choice-instructions-grid""> <div class=""choice-option""><img src=""images/approach.png"" class=""choice-option-img"" stage=""instructions"" position=""0"" ><div class=""choice-option-text""> Press ""1."" </div></div><div class=""choice-option""><img src=""images/avoid.png"" class=""choice-option-img"" stage=""instructions"" position=""1"" ><div class=""choice-option-text""> Press ""0."" </div></div>","","0","instructions","","","","","","","","","","",""
"learning-instructions","63","360367","0.0-9.0-1.0-0.3","7148","1","21","Male","approach_avoid_spark_v1","""event"",""trial"",""time""
""fullscreenenter"",""1"",""3518""
""blur"",""2"",""5454""
""focus"",""3"",""41852""
","""event"",""trial"",""time""
""blur"",""2"",""5454""
","""event"",""trial"",""time""
""focus"",""3"",""41852""
","""event"",""trial"",""time""
""fullscreenenter"",""1"",""3518""
","
","","","","","","1407","<p> If you decorate your friend's house with furniture she likes, she will be happy! </p><p> But if you give her furniture that she does not like, she will be annoyed. </p>","","0","instructions","","","","","","","","","","",""
"learning-instructions","64","373301","0.0-9.0-1.0-0.4","7148","1","21","Male","approach_avoid_spark_v1","""event"",""trial"",""time""
""fullscreenenter"",""1"",""3518""
""blur"",""2"",""5454""
""focus"",""3"",""41852""
","""event"",""trial"",""time""
""blur"",""2"",""5454""
","""event"",""trial"",""time""
""focus"",""3"",""41852""
","""event"",""trial"",""time""
""fullscreenenter"",""1"",""3518""
","
","","","","","","980","<p> You will earn points based on how you made your friend feel. </p><p> If you made her happy, you will WIN anywhere from 1 - 9 points, </p><p> but if you made her annoyed you will LOSE anywhere from 1 - 9 points. </p>","","0","instructions","","","","","","","","","","",""
"learning-instructions","65","382058","0.0-9.0-1.0-0.5","7148","1","21","Male","approach_avoid_spark_v1","""event"",""trial"",""time""
""fullscreenenter"",""1"",""3518""
""blur"",""2"",""5454""
""focus"",""3"",""41852""
","""event"",""trial"",""time""
""blur"",""2"",""5454""
","""event"",""trial"",""time""
""focus"",""3"",""41852""
","""event"",""trial"",""time""
""fullscreenenter"",""1"",""3518""
","
","","","","","","1444.0000000000582","<p> You will see how many points you won or lost in the center of the screen. </p><p> Here is what you would see if you won 5 points: </p><p style=""color:green;font-size:50px;font-weight:bolder"">5</p>","","0","instructions","","","","","","","","","","",""
"learning-instructions","66","385835","0.0-9.0-1.0-0.6","7148","1","21","Male","approach_avoid_spark_v1","""event"",""trial"",""time""
""fullscreenenter"",""1"",""3518""
""blur"",""2"",""5454""
""focus"",""3"",""41852""
","""event"",""trial"",""time""
""blur"",""2"",""5454""
","""event"",""trial"",""time""
""focus"",""3"",""41852""
","""event"",""trial"",""time""
""fullscreenenter"",""1"",""3518""
","
","","","","","","458","<p> And here is what you would see if you lost 3 points: </p><p style=""color:red;font-size:50px;font-weight:bolder"">-3</p>","","0","instructions","","","","","","","","","","",""
"learning-instructions","67","403749","0.0-9.0-1.0-0.7","7148","1","21","Male","approach_avoid_spark_v1","""event"",""trial"",""time""
""fullscreenenter"",""1"",""3518""
""blur"",""2"",""5454""
""focus"",""3"",""41852""
","""event"",""trial"",""time""
""blur"",""2"",""5454""
","""event"",""trial"",""time""
""focus"",""3"",""41852""
","""event"",""trial"",""time""
""fullscreenenter"",""1"",""3518""
","
","","","","","","738.9999999999418","<p> Some pieces of furniture will make her feel very happy or very annoyed. </p><p> These pieces of furniture will make you win or lose LOTS of points. </p><p> Other pieces of furniture will only make her feel a little happy or a little annoyed. </p><p> These pieces of furniture will make you win or lose small amounts of points. </p>","","0","instructions","","","","","","","","","","",""
"learning-instructions","68","417854","0.0-9.0-1.0-0.8","7148","1","21","Male","approach_avoid_spark_v1","""event"",""trial"",""time""
""fullscreenenter"",""1"",""3518""
""blur"",""2"",""5454""
""focus"",""3"",""41852""
","""event"",""trial"",""time""
""blur"",""2"",""5454""
","""event"",""trial"",""time""
""focus"",""3"",""41852""
","""event"",""trial"",""time""
""fullscreenenter"",""1"",""3518""
","
","","","","","","1164","<p> If you choose to deliver a piece of furniture elsewhere, you will not win or lose any points. </p><p>  However, in the center of the screen, you will see the number of points you WOULD HAVE won or lost if you had given the furniture to your friend. </p>","","0","instructions","","","","","","","","","","",""
"learning-instructions","69","430471","0.0-9.0-1.0-0.9","7148","1","21","Male","approach_avoid_spark_v1","""event"",""trial"",""time""
""fullscreenenter"",""1"",""3518""
""blur"",""2"",""5454""
""focus"",""3"",""41852""
","""event"",""trial"",""time""
""blur"",""2"",""5454""
","""event"",""trial"",""time""
""focus"",""3"",""41852""
","""event"",""trial"",""time""
""fullscreenenter"",""1"",""3518""
","
","","","","","","1263","<p> Here is what you might see if you did not give a piece of furniture to your friend that would have made her happy: </p><p style=""color:grey; font-size:50px; display: inline-block; border-spacing: 15px; border-width:3px; border-style:solid; border-color:red"">  &nbsp; 6 &nbsp; </p><p> Remember, in this case, you would not win or lose ANY points because you did not give her the furniture.  </p>","","0","instructions","","","","","","","","","","",""
"learning-instructions","70","438794","0.0-9.0-1.0-0.10","7148","1","21","Male","approach_avoid_spark_v1","""event"",""trial"",""time""
""fullscreenenter"",""1"",""3518""
""blur"",""2"",""5454""
""focus"",""3"",""41852""
","""event"",""trial"",""time""
""blur"",""2"",""5454""
","""event"",""trial"",""time""
""focus"",""3"",""41852""
","""event"",""trial"",""time""
""fullscreenenter"",""1"",""3518""
","
","","","","","","994","<p> Try to make the best choice for each piece of furniture because </p><p> at the end of the game, you will earn bonus money based on how many points you earned. </p>","","0","instructions","","","","","","","","","","",""
"learning-instructions","71","448202","0.0-9.0-1.0-0.11","7148","1","21","Male","approach_avoid_spark_v1","""event"",""trial"",""time""
""fullscreenenter"",""1"",""3518""
""blur"",""2"",""5454""
""focus"",""3"",""41852""
","""event"",""trial"",""time""
""blur"",""2"",""5454""
","""event"",""trial"",""time""
""focus"",""3"",""41852""
","""event"",""trial"",""time""
""fullscreenenter"",""1"",""3518""
","
","","","","","","1228.0000000000582","<p> You will have 3 seconds to make each choice. Try to respond before time runs out! </p><p> You will lose 5 points each time you do not make a response. </p>","","0","instructions","","","","","","","","","","",""
"html-keyboard-response","72","448804","0.0-9.0-2.0-0.0","7148","1","21","Male","approach_avoid_spark_v1","""event"",""trial"",""time""
""fullscreenenter"",""1"",""3518""
""blur"",""2"",""5454""
""focus"",""3"",""41852""
","""event"",""trial"",""time""
""blur"",""2"",""5454""
","""event"",""trial"",""time""
""focus"",""3"",""41852""
","""event"",""trial"",""time""
""fullscreenenter"",""1"",""3518""
","
","","","","","","null","<div style=""font-size:60px;"">+</div>","null","","fixation","","","","","","","","","","",""
"aa-learning-trial","73","451807","0.0-9.0-2.0-1.0","7148","1","21","Male","approach_avoid_spark_v1","""event"",""trial"",""time""
""fullscreenenter"",""1"",""3518""
""blur"",""2"",""5454""
""focus"",""3"",""41852""
","""event"",""trial"",""time""
""blur"",""2"",""5454""
","""event"",""trial"",""time""
""focus"",""3"",""41852""
","""event"",""trial"",""time""
""fullscreenenter"",""1"",""3518""
","
","","","","","","961","images/chair6.png","","","learning","-1","-1","1","1","chair","furniture","1","0","","neutral","0"
"html-keyboard-response","74","452308","0.0-9.0-2.0-0.1","7148","1","21","Male","approach_avoid_spark_v1","""event"",""trial"",""time""
""fullscreenenter"",""1"",""3518""
""blur"",""2"",""5454""
""focus"",""3"",""41852""
","""event"",""trial"",""time""
""blur"",""2"",""5454""
","""event"",""trial"",""time""
""focus"",""3"",""41852""
","""event"",""trial"",""time""
""fullscreenenter"",""1"",""3518""
","
","","","","","","null","<div style=""font-size:60px;"">+</div>","null","","fixation","","","","","","","","","","",""
"aa-learning-trial","75","455310","0.0-9.0-2.0-1.1","7148","1","21","Male","approach_avoid_spark_v1","""event"",""trial"",""time""
""fullscreenenter"",""1"",""3518""
""blur"",""2"",""5454""
""focus"",""3"",""41852""
","""event"",""trial"",""time""
""blur"",""2"",""5454""
","""event"",""trial"",""time""
""focus"",""3"",""41852""
","""event"",""trial"",""time""
""fullscreenenter"",""1"",""3518""
","
","","","","","","666","images/bed1.png","","","learning","-2","-2","1","1","bed","furniture","1","0","","bad","[-4]"
"html-keyboard-response","76","455812","0.0-9.0-2.0-0.2","7148","1","21","Male","approach_avoid_spark_v1","""event"",""trial"",""time""
""fullscreenenter"",""1"",""3518""
""blur"",""2"",""5454""
""focus"",""3"",""41852""
","""event"",""trial"",""time""
""blur"",""2"",""5454""
","""event"",""trial"",""time""
""focus"",""3"",""41852""
","""event"",""trial"",""time""
""fullscreenenter"",""1"",""3518""
","
","","","","","","null","<div style=""font-size:60px;"">+</div>","null","","fixation","","","","","","","","","","",""
"aa-learning-trial","77","458813","0.0-9.0-2.0-1.2","7148","1","21","Male","approach_avoid_spark_v1","""event"",""trial"",""time""
""fullscreenenter"",""1"",""3518""
""blur"",""2"",""5454""
""focus"",""3"",""41852""
","""event"",""trial"",""time""
""blur"",""2"",""5454""
","""event"",""trial"",""time""
""focus"",""3"",""41852""
","""event"",""trial"",""time""
""fullscreenenter"",""1"",""3518""
","
","","","","","","953","images/table7.png","","","learning","2","2","1","1","table","furniture","1","0","","good","[4]"
"html-keyboard-response","78","459315","0.0-9.0-2.0-0.3","7148","1","21","Male","approach_avoid_spark_v1","""event"",""trial"",""time""
""fullscreenenter"",""1"",""3518""
""blur"",""2"",""5454""
""focus"",""3"",""41852""
","""event"",""trial"",""time""
""blur"",""2"",""5454""
","""event"",""trial"",""time""
""focus"",""3"",""41852""
","""event"",""trial"",""time""
""fullscreenenter"",""1"",""3518""
","
","","","","","","null","<div style=""font-size:60px;"">+</div>","null","","fixation","","","","","","","","","","",""
"aa-learning-trial","79","462317","0.0-9.0-2.0-1.3","7148","1","21","Male","approach_avoid_spark_v1","""event"",""trial"",""time""
""fullscreenenter"",""1"",""3518""
""blur"",""2"",""5454""
""focus"",""3"",""41852""
","""event"",""trial"",""time""
""blur"",""2"",""5454""
","""event"",""trial"",""time""
""focus"",""3"",""41852""
","""event"",""trial"",""time""
""fullscreenenter"",""1"",""3518""
","
","","","","","","1144","images/chair7.png","","","learning","1","1","1","1","chair","furniture","1","0","","neutral","0"
"html-keyboard-response","80","462817","0.0-9.0-2.0-0.4","7148","1","21","Male","approach_avoid_spark_v1","""event"",""trial"",""time""
""fullscreenenter"",""1"",""3518""
""blur"",""2"",""5454""
""focus"",""3"",""41852""
","""event"",""trial"",""time""
""blur"",""2"",""5454""
","""event"",""trial"",""time""
""focus"",""3"",""41852""
","""event"",""trial"",""time""
""fullscreenenter"",""1"",""3518""
","
","","","","","","null","<div style=""font-size:60px;"">+</div>","null","","fixation","","","","","","","","","","",""
"aa-learning-trial","81","465820","0.0-9.0-2.0-1.4","7148","1","21","Male","approach_avoid_spark_v1","""event"",""trial"",""time""
""fullscreenenter"",""1"",""3518""
""blur"",""2"",""5454""
""focus"",""3"",""41852""
","""event"",""trial"",""time""
""blur"",""2"",""5454""
","""event"",""trial"",""time""
""focus"",""3"",""41852""
","""event"",""trial"",""time""
""fullscreenenter"",""1"",""3518""
","
","","","","","","1095","images/table8.png","","","learning","6","0","0","0","table","furniture","1","0","","good","[4]"
"html-keyboard-response","82","466321","0.0-9.0-2.0-0.5","7148","1","21","Male","approach_avoid_spark_v1","""event"",""trial"",""time""
""fullscreenenter"",""1"",""3518""
""blur"",""2"",""5454""
""focus"",""3"",""41852""
","""event"",""trial"",""time""
""blur"",""2"",""5454""
","""event"",""trial"",""time""
""focus"",""3"",""41852""
","""event"",""trial"",""time""
""fullscreenenter"",""1"",""3518""
","
","","","","","","null","<div style=""font-size:60px;"">+</div>","null","","fixation","","","","","","","","","","",""
"aa-learning-trial","83","469323","0.0-9.0-2.0-1.5","7148","1","21","Male","approach_avoid_spark_v1","""event"",""trial"",""time""
""fullscreenenter"",""1"",""3518""
""blur"",""2"",""5454""
""focus"",""3"",""41852""
","""event"",""trial"",""time""
""blur"",""2"",""5454""
","""event"",""trial"",""time""
""focus"",""3"",""41852""
","""event"",""trial"",""time""
""fullscreenenter"",""1"",""3518""
","
","","","","","","1045","images/bed1.png","","","learning","-4","0","0","0","bed","furniture","1","0","","bad","[-4]"
"html-keyboard-response","84","469824","0.0-9.0-2.0-0.6","7148","1","21","Male","approach_avoid_spark_v1","""event"",""trial"",""time""
""fullscreenenter"",""1"",""3518""
""blur"",""2"",""5454""
""focus"",""3"",""41852""
","""event"",""trial"",""time""
""blur"",""2"",""5454""
","""event"",""trial"",""time""
""focus"",""3"",""41852""
","""event"",""trial"",""time""
""fullscreenenter"",""1"",""3518""
","
","","","","","","null","<div style=""font-size:60px;"">+</div>","null","","fixation","","","","","","","","","","",""
"aa-learning-trial","85","472826","0.0-9.0-2.0-1.6","7148","1","21","Male","approach_avoid_spark_v1","""event"",""trial"",""time""
""fullscreenenter"",""1"",""3518""
""blur"",""2"",""5454""
""focus"",""3"",""41852""
","""event"",""trial"",""time""
""blur"",""2"",""5454""
","""event"",""trial"",""time""
""focus"",""3"",""41852""
","""event"",""trial"",""time""
""fullscreenenter"",""1"",""3518""
","
","","","","","","642","images/table7.png","","","learning","4","4","1","1","table","furniture","1","0","","good","[4]"
"html-keyboard-response","86","473328","0.0-9.0-2.0-0.7","7148","1","21","Male","approach_avoid_spark_v1","""event"",""trial"",""time""
""fullscreenenter"",""1"",""3518""
""blur"",""2"",""5454""
""focus"",""3"",""41852""
","""event"",""trial"",""time""
""blur"",""2"",""5454""
","""event"",""trial"",""time""
""focus"",""3"",""41852""
","""event"",""trial"",""time""
""fullscreenenter"",""1"",""3518""
","
","","","","","","null","<div style=""font-size:60px;"">+</div>","null","","fixation","","","","","","","","","","",""
"aa-learning-trial","87","476330","0.0-9.0-2.0-1.7","7148","1","21","Male","approach_avoid_spark_v1","""event"",""trial"",""time""
""fullscreenenter"",""1"",""3518""
""blur"",""2"",""5454""
""focus"",""3"",""41852""
","""event"",""trial"",""time""
""blur"",""2"",""5454""
","""event"",""trial"",""time""
""focus"",""3"",""41852""
","""event"",""trial"",""time""
""fullscreenenter"",""1"",""3518""
","
","","","","","","1189","images/chair8.png","","","learning","[-1]","-1","1","1","chair","furniture","1","0","","neutral","0"
"html-keyboard-response","88","476831","0.0-9.0-2.0-0.8","7148","1","21","Male","approach_avoid_spark_v1","""event"",""trial"",""time""
""fullscreenenter"",""1"",""3518""
""blur"",""2"",""5454""
""focus"",""3"",""41852""
","""event"",""trial"",""time""
""blur"",""2"",""5454""
","""event"",""trial"",""time""
""focus"",""3"",""41852""
","""event"",""trial"",""time""
""fullscreenenter"",""1"",""3518""
","
","","","","","","null","<div style=""font-size:60px;"">+</div>","null","","fixation","","","","","","","","","","",""
"aa-learning-trial","89","479833","0.0-9.0-2.0-1.8","7148","1","21","Male","approach_avoid_spark_v1","""event"",""trial"",""time""
""fullscreenenter"",""1"",""3518""
""blur"",""2"",""5454""
""focus"",""3"",""41852""
","""event"",""trial"",""time""
""blur"",""2"",""5454""
","""event"",""trial"",""time""
""focus"",""3"",""41852""
","""event"",""trial"",""time""
""fullscreenenter"",""1"",""3518""
","
","","","","","","1092.9999999999418","images/bed8.png","","","learning","2","2","1","1","bed","furniture","1","0","","bad","[-4]"
"html-keyboard-response","90","480334","0.0-9.0-2.0-0.9","7148","1","21","Male","approach_avoid_spark_v1","""event"",""trial"",""time""
""fullscreenenter"",""1"",""3518""
""blur"",""2"",""5454""
""focus"",""3"",""41852""
","""event"",""trial"",""time""
""blur"",""2"",""5454""
","""event"",""trial"",""time""
""focus"",""3"",""41852""
","""event"",""trial"",""time""
""fullscreenenter"",""1"",""3518""
","
","","","","","","null","<div style=""font-size:60px;"">+</div>","null","","fixation","","","","","","","","","","",""
"aa-learning-trial","91","483336","0.0-9.0-2.0-1.9","7148","1","21","Male","approach_avoid_spark_v1","""event"",""trial"",""time""
""fullscreenenter"",""1"",""3518""
""blur"",""2"",""5454""
""focus"",""3"",""41852""
","""event"",""trial"",""time""
""blur"",""2"",""5454""
","""event"",""trial"",""time""
""focus"",""3"",""41852""
","""event"",""trial"",""time""
""fullscreenenter"",""1"",""3518""
","
","","","","","","847","images/chair7.png","","","learning","3","0","0","0","chair","furniture","1","0","","neutral","0"
"html-keyboard-response","92","483837","0.0-9.0-2.0-0.10","7148","1","21","Male","approach_avoid_spark_v1","""event"",""trial"",""time""
""fullscreenenter"",""1"",""3518""
""blur"",""2"",""5454""
""focus"",""3"",""41852""
","""event"",""trial"",""time""
""blur"",""2"",""5454""
","""event"",""trial"",""time""
""focus"",""3"",""41852""
","""event"",""trial"",""time""
""fullscreenenter"",""1"",""3518""
","
","","","","","","null","<div style=""font-size:60px;"">+</div>","null","","fixation","","","","","","","","","","",""
"aa-learning-trial","93","486840","0.0-9.0-2.0-1.10","7148","1","21","Male","approach_avoid_spark_v1","""event"",""trial"",""time""
""fullscreenenter"",""1"",""3518""
""blur"",""2"",""5454""
""focus"",""3"",""41852""
","""event"",""trial"",""time""
""blur"",""2"",""5454""
","""event"",""trial"",""time""
""focus"",""3"",""41852""
","""event"",""trial"",""time""
""fullscreenenter"",""1"",""3518""
","
","","","","","","813","images/table8.png","","","learning","6","6","1","1","table","furniture","1","0","","good","[4]"
"html-keyboard-response","94","487341","0.0-9.0-2.0-0.11","7148","1","21","Male","approach_avoid_spark_v1","""event"",""trial"",""time""
""fullscreenenter"",""1"",""3518""
""blur"",""2"",""5454""
""focus"",""3"",""41852""
","""event"",""trial"",""time""
""blur"",""2"",""5454""
","""event"",""trial"",""time""
""focus"",""3"",""41852""
","""event"",""trial"",""time""
""fullscreenenter"",""1"",""3518""
","
","","","","","","null","<div style=""font-size:60px;"">+</div>","null","","fixation","","","","","","","","","","",""
"aa-learning-trial","95","490343","0.0-9.0-2.0-1.11","7148","1","21","Male","approach_avoid_spark_v1","""event"",""trial"",""time""
""fullscreenenter"",""1"",""3518""
""blur"",""2"",""5454""
""focus"",""3"",""41852""
","""event"",""trial"",""time""
""blur"",""2"",""5454""
","""event"",""trial"",""time""
""focus"",""3"",""41852""
","""event"",""trial"",""time""
""fullscreenenter"",""1"",""3518""
","
","","","","","","1197","images/chair6.png","","","learning","-1","-1","1","1","chair","furniture","1","0","","neutral","0"
"html-keyboard-response","96","490845","0.0-9.0-2.0-0.12","7148","1","21","Male","approach_avoid_spark_v1","""event"",""trial"",""time""
""fullscreenenter"",""1"",""3518""
""blur"",""2"",""5454""
""focus"",""3"",""41852""
","""event"",""trial"",""time""
""blur"",""2"",""5454""
","""event"",""trial"",""time""
""focus"",""3"",""41852""
","""event"",""trial"",""time""
""fullscreenenter"",""1"",""3518""
","
","","","","","","null","<div style=""font-size:60px;"">+</div>","null","","fixation","","","","","","","","","","",""
"aa-learning-trial","97","493846","0.0-9.0-2.0-1.12","7148","1","21","Male","approach_avoid_spark_v1","""event"",""trial"",""time""
""fullscreenenter"",""1"",""3518""
""blur"",""2"",""5454""
""focus"",""3"",""41852""
","""event"",""trial"",""time""
""blur"",""2"",""5454""
","""event"",""trial"",""time""
""focus"",""3"",""41852""
","""event"",""trial"",""time""
""fullscreenenter"",""1"",""3518""
","
","","","","","","1081","images/table6.png","","","learning","2","2","1","1","table","furniture","1","0","","good","[4]"
"html-keyboard-response","98","494348","0.0-9.0-2.0-0.13","7148","1","21","Male","approach_avoid_spark_v1","""event"",""trial"",""time""
""fullscreenenter"",""1"",""3518""
""blur"",""2"",""5454""
""focus"",""3"",""41852""
","""event"",""trial"",""time""
""blur"",""2"",""5454""
","""event"",""trial"",""time""
""focus"",""3"",""41852""
","""event"",""trial"",""time""
""fullscreenenter"",""1"",""3518""
","
","","","","","","null","<div style=""font-size:60px;"">+</div>","null","","fixation","","","","","","","","","","",""
"aa-learning-trial","99","497350","0.0-9.0-2.0-1.13","7148","1","21","Male","approach_avoid_spark_v1","""event"",""trial"",""time""
""fullscreenenter"",""1"",""3518""
""blur"",""2"",""5454""
""focus"",""3"",""41852""
","""event"",""trial"",""time""
""blur"",""2"",""5454""
","""event"",""trial"",""time""
""focus"",""3"",""41852""
","""event"",""trial"",""time""
""fullscreenenter"",""1"",""3518""
","
","","","","","","687","images/bed2.png","","","learning","-2","0","0","0","bed","furniture","1","0","","bad","[-4]"
"html-keyboard-response","100","497851","0.0-9.0-2.0-0.14","7148","1","21","Male","approach_avoid_spark_v1","""event"",""trial"",""time""
""fullscreenenter"",""1"",""3518""
""blur"",""2"",""5454""
""focus"",""3"",""41852""
","""event"",""trial"",""time""
""blur"",""2"",""5454""
","""event"",""trial"",""time""
""focus"",""3"",""41852""
","""event"",""trial"",""time""
""fullscreenenter"",""1"",""3518""
","
","","","","","","null","<div style=""font-size:60px;"">+</div>","null","","fixation","","","","","","","","","","",""
"aa-learning-trial","101","500853","0.0-9.0-2.0-1.14","7148","1","21","Male","approach_avoid_spark_v1","""event"",""trial"",""time""
""fullscreenenter"",""1"",""3518""
""blur"",""2"",""5454""
""focus"",""3"",""41852""
","""event"",""trial"",""time""
""blur"",""2"",""5454""
","""event"",""trial"",""time""
""focus"",""3"",""41852""
","""event"",""trial"",""time""
""fullscreenenter"",""1"",""3518""
","
","","","","","","1151","images/bed8.png","","","learning","-3","0","0","0","bed","furniture","1","0","","bad","[-4]"
"html-keyboard-response","102","501355","0.0-9.0-2.0-0.15","7148","1","21","Male","approach_avoid_spark_v1","""event"",""trial"",""time""
""fullscreenenter"",""1"",""3518""
""blur"",""2"",""5454""
""focus"",""3"",""41852""
","""event"",""trial"",""time""
""blur"",""2"",""5454""
","""event"",""trial"",""time""
""focus"",""3"",""41852""
","""event"",""trial"",""time""
""fullscreenenter"",""1"",""3518""
","
","","","","","","null","<div style=""font-size:60px;"">+</div>","null","","fixation","","","","","","","","","","",""
"aa-learning-trial","103","504356","0.0-9.0-2.0-1.15","7148","1","21","Male","approach_avoid_spark_v1","""event"",""trial"",""time""
""fullscreenenter"",""1"",""3518""
""blur"",""2"",""5454""
""focus"",""3"",""41852""
","""event"",""trial"",""time""
""blur"",""2"",""5454""
","""event"",""trial"",""time""
""focus"",""3"",""41852""
","""event"",""trial"",""time""
""fullscreenenter"",""1"",""3518""
","
","","","","","","929.0000000000582","images/table8.png","","","learning","5","5","1","1","table","furniture","1","0","","good","[4]"
"html-keyboard-response","104","504858","0.0-9.0-2.0-0.16","7148","1","21","Male","approach_avoid_spark_v1","""event"",""trial"",""time""
""fullscreenenter"",""1"",""3518""
""blur"",""2"",""5454""
""focus"",""3"",""41852""
","""event"",""trial"",""time""
""blur"",""2"",""5454""
","""event"",""trial"",""time""
""focus"",""3"",""41852""
","""event"",""trial"",""time""
""fullscreenenter"",""1"",""3518""
","
","","","","","","null","<div style=""font-size:60px;"">+</div>","null","","fixation","","","","","","","","","","",""
"aa-learning-trial","105","507860","0.0-9.0-2.0-1.16","7148","1","21","Male","approach_avoid_spark_v1","""event"",""trial"",""time""
""fullscreenenter"",""1"",""3518""
""blur"",""2"",""5454""
""focus"",""3"",""41852""
","""event"",""trial"",""time""
""blur"",""2"",""5454""
","""event"",""trial"",""time""
""focus"",""3"",""41852""
","""event"",""trial"",""time""
""fullscreenenter"",""1"",""3518""
","
","","","","","","1195.0000000000582","images/table6.png","","","learning","5","5","1","1","table","furniture","1","0","","good","[4]"
"html-keyboard-response","106","508361","0.0-9.0-2.0-0.17","7148","1","21","Male","approach_avoid_spark_v1","""event"",""trial"",""time""
""fullscreenenter"",""1"",""3518""
""blur"",""2"",""5454""
""focus"",""3"",""41852""
","""event"",""trial"",""time""
""blur"",""2"",""5454""
","""event"",""trial"",""time""
""focus"",""3"",""41852""
","""event"",""trial"",""time""
""fullscreenenter"",""1"",""3518""
","
","","","","","","null","<div style=""font-size:60px;"">+</div>","null","","fixation","","","","","","","","","","",""
"aa-learning-trial","107","511363","0.0-9.0-2.0-1.17","7148","1","21","Male","approach_avoid_spark_v1","""event"",""trial"",""time""
""fullscreenenter"",""1"",""3518""
""blur"",""2"",""5454""
""focus"",""3"",""41852""
","""event"",""trial"",""time""
""blur"",""2"",""5454""
","""event"",""trial"",""time""
""focus"",""3"",""41852""
","""event"",""trial"",""time""
""fullscreenenter"",""1"",""3518""
","
","","","","","","1077","images/bed2.png","","","learning","-6","0","0","0","bed","furniture","1","0","","bad","[-4]"
"html-keyboard-response","108","511864","0.0-9.0-2.0-0.18","7148","1","21","Male","approach_avoid_spark_v1","""event"",""trial"",""time""
""fullscreenenter"",""1"",""3518""
""blur"",""2"",""5454""
""focus"",""3"",""41852""
","""event"",""trial"",""time""
""blur"",""2"",""5454""
","""event"",""trial"",""time""
""focus"",""3"",""41852""
","""event"",""trial"",""time""
""fullscreenenter"",""1"",""3518""
","
","","","","","","null","<div style=""font-size:60px;"">+</div>","null","","fixation","","","","","","","","","","",""
"aa-learning-trial","109","514865","0.0-9.0-2.0-1.18","7148","1","21","Male","approach_avoid_spark_v1","""event"",""trial"",""time""
""fullscreenenter"",""1"",""3518""
""blur"",""2"",""5454""
""focus"",""3"",""41852""
","""event"",""trial"",""time""
""blur"",""2"",""5454""
","""event"",""trial"",""time""
""focus"",""3"",""41852""
","""event"",""trial"",""time""
""fullscreenenter"",""1"",""3518""
","
","","","","","","956.0000000000582","images/bed1.png","","","learning","-3","0","0","0","bed","furniture","1","0","","bad","[-4]"
"html-keyboard-response","110","515367","0.0-9.0-2.0-0.19","7148","1","21","Male","approach_avoid_spark_v1","""event"",""trial"",""time""
""fullscreenenter"",""1"",""3518""
""blur"",""2"",""5454""
""focus"",""3"",""41852""
","""event"",""trial"",""time""
""blur"",""2"",""5454""
","""event"",""trial"",""time""
""focus"",""3"",""41852""
","""event"",""trial"",""time""
""fullscreenenter"",""1"",""3518""
","
","","","","","","null","<div style=""font-size:60px;"">+</div>","null","","fixation","","","","","","","","","","",""
"aa-learning-trial","111","518368","0.0-9.0-2.0-1.19","7148","1","21","Male","approach_avoid_spark_v1","""event"",""trial"",""time""
""fullscreenenter"",""1"",""3518""
""blur"",""2"",""5454""
""focus"",""3"",""41852""
","""event"",""trial"",""time""
""blur"",""2"",""5454""
","""event"",""trial"",""time""
""focus"",""3"",""41852""
","""event"",""trial"",""time""
""fullscreenenter"",""1"",""3518""
","
","","","","","","770","images/table6.png","","","learning","4","4","1","1","table","furniture","1","0","","good","[4]"
"html-keyboard-response","112","518869","0.0-9.0-2.0-0.20","7148","1","21","Male","approach_avoid_spark_v1","""event"",""trial"",""time""
""fullscreenenter"",""1"",""3518""
""blur"",""2"",""5454""
""focus"",""3"",""41852""
","""event"",""trial"",""time""
""blur"",""2"",""5454""
","""event"",""trial"",""time""
""focus"",""3"",""41852""
","""event"",""trial"",""time""
""fullscreenenter"",""1"",""3518""
","
","","","","","","null","<div style=""font-size:60px;"">+</div>","null","","fixation","","","","","","","","","","",""
"aa-learning-trial","113","521870","0.0-9.0-2.0-1.20","7148","1","21","Male","approach_avoid_spark_v1","""event"",""trial"",""time""
""fullscreenenter"",""1"",""3518""
""blur"",""2"",""5454""
""focus"",""3"",""41852""
","""event"",""trial"",""time""
""blur"",""2"",""5454""
","""event"",""trial"",""time""
""focus"",""3"",""41852""
","""event"",""trial"",""time""
""fullscreenenter"",""1"",""3518""
","
","","","","","","900","images/bed3.png","","","learning","-5","-5","1","1","bed","furniture","1","0","","bad","[-4]"
"html-keyboard-response","114","522372","0.0-9.0-2.0-0.21","7148","1","21","Male","approach_avoid_spark_v1","""event"",""trial"",""time""
""fullscreenenter"",""1"",""3518""
""blur"",""2"",""5454""
""focus"",""3"",""41852""
","""event"",""trial"",""time""
""blur"",""2"",""5454""
","""event"",""trial"",""time""
""focus"",""3"",""41852""
","""event"",""trial"",""time""
""fullscreenenter"",""1"",""3518""
","
","","","","","","null","<div style=""font-size:60px;"">+</div>","null","","fixation","","","","","","","","","","",""
"aa-learning-trial","115","525373","0.0-9.0-2.0-1.21","7148","1","21","Male","approach_avoid_spark_v1","""event"",""trial"",""time""
""fullscreenenter"",""1"",""3518""
""blur"",""2"",""5454""
""focus"",""3"",""41852""
","""event"",""trial"",""time""
""blur"",""2"",""5454""
","""event"",""trial"",""time""
""focus"",""3"",""41852""
","""event"",""trial"",""time""
""fullscreenenter"",""1"",""3518""
","
","","","","","","772","images/table8.png","","","learning","3","3","1","1","table","furniture","1","0","","good","[4]"
"html-keyboard-response","116","525875","0.0-9.0-2.0-0.22","7148","1","21","Male","approach_avoid_spark_v1","""event"",""trial"",""time""
""fullscreenenter"",""1"",""3518""
""blur"",""2"",""5454""
""focus"",""3"",""41852""
","""event"",""trial"",""time""
""blur"",""2"",""5454""
","""event"",""trial"",""time""
""focus"",""3"",""41852""
","""event"",""trial"",""time""
""fullscreenenter"",""1"",""3518""
","
","","","","","","null","<div style=""font-size:60px;"">+</div>","null","","fixation","","","","","","","","","","",""
"aa-learning-trial","117","528877","0.0-9.0-2.0-1.22","7148","1","21","Male","approach_avoid_spark_v1","""event"",""trial"",""time""
""fullscreenenter"",""1"",""3518""
""blur"",""2"",""5454""
""focus"",""3"",""41852""
","""event"",""trial"",""time""
""blur"",""2"",""5454""
","""event"",""trial"",""time""
""focus"",""3"",""41852""
","""event"",""trial"",""time""
""fullscreenenter"",""1"",""3518""
","
","","","","","","710","images/bed1.png","","","learning","-6","0","0","0","bed","furniture","1","0","","bad","[-4]"
"html-keyboard-response","118","529379","0.0-9.0-2.0-0.23","7148","1","21","Male","approach_avoid_spark_v1","""event"",""trial"",""time""
""fullscreenenter"",""1"",""3518""
""blur"",""2"",""5454""
""focus"",""3"",""41852""
","""event"",""trial"",""time""
""blur"",""2"",""5454""
","""event"",""trial"",""time""
""focus"",""3"",""41852""
","""event"",""trial"",""time""
""fullscreenenter"",""1"",""3518""
","
","","","","","","null","<div style=""font-size:60px;"">+</div>","null","","fixation","","","","","","","","","","",""
"aa-learning-trial","119","532382","0.0-9.0-2.0-1.23","7148","1","21","Male","approach_avoid_spark_v1","""event"",""trial"",""time""
""fullscreenenter"",""1"",""3518""
""blur"",""2"",""5454""
""focus"",""3"",""41852""
","""event"",""trial"",""time""
""blur"",""2"",""5454""
","""event"",""trial"",""time""
""focus"",""3"",""41852""
","""event"",""trial"",""time""
""fullscreenenter"",""1"",""3518""
","
","","","","","","1003","images/table3.png","","","learning","5","5","1","1","table","furniture","1","0","","good","[4]"
"html-keyboard-response","120","532882","0.0-9.0-2.0-0.24","7148","1","21","Male","approach_avoid_spark_v1","""event"",""trial"",""time""
""fullscreenenter"",""1"",""3518""
""blur"",""2"",""5454""
""focus"",""3"",""41852""
","""event"",""trial"",""time""
""blur"",""2"",""5454""
","""event"",""trial"",""time""
""focus"",""3"",""41852""
","""event"",""trial"",""time""
""fullscreenenter"",""1"",""3518""
","
","","","","","","null","<div style=""font-size:60px;"">+</div>","null","","fixation","","","","","","","","","","",""
"aa-learning-trial","121","535884","0.0-9.0-2.0-1.24","7148","1","21","Male","approach_avoid_spark_v1","""event"",""trial"",""time""
""fullscreenenter"",""1"",""3518""
""blur"",""2"",""5454""
""focus"",""3"",""41852""
","""event"",""trial"",""time""
""blur"",""2"",""5454""
","""event"",""trial"",""time""
""focus"",""3"",""41852""
","""event"",""trial"",""time""
""fullscreenenter"",""1"",""3518""
","
","","","","","","1247","images/chair1.png","","","learning","[1]","1","1","1","chair","furniture","1","0","","neutral","0"
"html-keyboard-response","122","536384","0.0-9.0-2.0-0.25","7148","1","21","Male","approach_avoid_spark_v1","""event"",""trial"",""time""
""fullscreenenter"",""1"",""3518""
""blur"",""2"",""5454""
""focus"",""3"",""41852""
","""event"",""trial"",""time""
""blur"",""2"",""5454""
","""event"",""trial"",""time""
""focus"",""3"",""41852""
","""event"",""trial"",""time""
""fullscreenenter"",""1"",""3518""
","
","","","","","","null","<div style=""font-size:60px;"">+</div>","null","","fixation","","","","","","","","","","",""
"aa-learning-trial","123","539387","0.0-9.0-2.0-1.25","7148","1","21","Male","approach_avoid_spark_v1","""event"",""trial"",""time""
""fullscreenenter"",""1"",""3518""
""blur"",""2"",""5454""
""focus"",""3"",""41852""
","""event"",""trial"",""time""
""blur"",""2"",""5454""
","""event"",""trial"",""time""
""focus"",""3"",""41852""
","""event"",""trial"",""time""
""fullscreenenter"",""1"",""3518""
","
","","","","","","789","images/bed1.png","","","learning","-4","0","0","0","bed","furniture","1","0","","bad","[-4]"
"html-keyboard-response","124","539888","0.0-9.0-2.0-0.26","7148","1","21","Male","approach_avoid_spark_v1","""event"",""trial"",""time""
""fullscreenenter"",""1"",""3518""
""blur"",""2"",""5454""
""focus"",""3"",""41852""
","""event"",""trial"",""time""
""blur"",""2"",""5454""
","""event"",""trial"",""time""
""focus"",""3"",""41852""
","""event"",""trial"",""time""
""fullscreenenter"",""1"",""3518""
","
","","","","","","null","<div style=""font-size:60px;"">+</div>","null","","fixation","","","","","","","","","","",""
"aa-learning-trial","125","542890","0.0-9.0-2.0-1.26","7148","1","21","Male","approach_avoid_spark_v1","""event"",""trial"",""time""
""fullscreenenter"",""1"",""3518""
""blur"",""2"",""5454""
""focus"",""3"",""41852""
","""event"",""trial"",""time""
""blur"",""2"",""5454""
","""event"",""trial"",""time""
""focus"",""3"",""41852""
","""event"",""trial"",""time""
""fullscreenenter"",""1"",""3518""
","
","","","","","","878.0000000001164","images/bed8.png","","","learning","-4","0","0","0","bed","furniture","1","0","","bad","[-4]"
"html-keyboard-response","126","543392","0.0-9.0-2.0-0.27","7148","1","21","Male","approach_avoid_spark_v1","""event"",""trial"",""time""
""fullscreenenter"",""1"",""3518""
""blur"",""2"",""5454""
""focus"",""3"",""41852""
","""event"",""trial"",""time""
""blur"",""2"",""5454""
","""event"",""trial"",""time""
""focus"",""3"",""41852""
","""event"",""trial"",""time""
""fullscreenenter"",""1"",""3518""
","
","","","","","","null","<div style=""font-size:60px;"">+</div>","null","","fixation","","","","","","","","","","",""
"aa-learning-trial","127","546394","0.0-9.0-2.0-1.27","7148","1","21","Male","approach_avoid_spark_v1","""event"",""trial"",""time""
""fullscreenenter"",""1"",""3518""
""blur"",""2"",""5454""
""focus"",""3"",""41852""
","""event"",""trial"",""time""
""blur"",""2"",""5454""
","""event"",""trial"",""time""
""focus"",""3"",""41852""
","""event"",""trial"",""time""
""fullscreenenter"",""1"",""3518""
","
","","","","","","780","images/bed8.png","","","learning","-3","0","0","0","bed","furniture","1","0","","bad","[-4]"
"html-keyboard-response","128","546894","0.0-9.0-2.0-0.28","7148","1","21","Male","approach_avoid_spark_v1","""event"",""trial"",""time""
""fullscreenenter"",""1"",""3518""
""blur"",""2"",""5454""
""focus"",""3"",""41852""
","""event"",""trial"",""time""
""blur"",""2"",""5454""
","""event"",""trial"",""time""
""focus"",""3"",""41852""
","""event"",""trial"",""time""
""fullscreenenter"",""1"",""3518""
","
","","","","","","null","<div style=""font-size:60px;"">+</div>","null","","fixation","","","","","","","","","","",""
"aa-learning-trial","129","549896","0.0-9.0-2.0-1.28","7148","1","21","Male","approach_avoid_spark_v1","""event"",""trial"",""time""
""fullscreenenter"",""1"",""3518""
""blur"",""2"",""5454""
""focus"",""3"",""41852""
","""event"",""trial"",""time""
""blur"",""2"",""5454""
","""event"",""trial"",""time""
""focus"",""3"",""41852""
","""event"",""trial"",""time""
""fullscreenenter"",""1"",""3518""
","
","","","","","","1022","images/chair6.png","","","learning","2","0","0","0","chair","furniture","1","0","","neutral","0"
"html-keyboard-response","130","550398","0.0-9.0-2.0-0.29","7148","1","21","Male","approach_avoid_spark_v1","""event"",""trial"",""time""
""fullscreenenter"",""1"",""3518""
""blur"",""2"",""5454""
""focus"",""3"",""41852""
","""event"",""trial"",""time""
""blur"",""2"",""5454""
","""event"",""trial"",""time""
""focus"",""3"",""41852""
","""event"",""trial"",""time""
""fullscreenenter"",""1"",""3518""
","
","","","","","","null","<div style=""font-size:60px;"">+</div>","null","","fixation","","","","","","","","","","",""
"aa-learning-trial","131","553400","0.0-9.0-2.0-1.29","7148","1","21","Male","approach_avoid_spark_v1","""event"",""trial"",""time""
""fullscreenenter"",""1"",""3518""
""blur"",""2"",""5454""
""focus"",""3"",""41852""
","""event"",""trial"",""time""
""blur"",""2"",""5454""
","""event"",""trial"",""time""
""focus"",""3"",""41852""
","""event"",""trial"",""time""
""fullscreenenter"",""1"",""3518""
","
","","","","","","948","images/bed8.png","","","learning","-5","0","0","0","bed","furniture","1","0","","bad","[-4]"
"html-keyboard-response","132","553901","0.0-9.0-2.0-0.30","7148","1","21","Male","approach_avoid_spark_v1","""event"",""trial"",""time""
""fullscreenenter"",""1"",""3518""
""blur"",""2"",""5454""
""focus"",""3"",""41852""
","""event"",""trial"",""time""
""blur"",""2"",""5454""
","""event"",""trial"",""time""
""focus"",""3"",""41852""
","""event"",""trial"",""time""
""fullscreenenter"",""1"",""3518""
","
","","","","","","null","<div style=""font-size:60px;"">+</div>","null","","fixation","","","","","","","","","","",""
"aa-learning-trial","133","556903","0.0-9.0-2.0-1.30","7148","1","21","Male","approach_avoid_spark_v1","""event"",""trial"",""time""
""fullscreenenter"",""1"",""3518""
""blur"",""2"",""5454""
""focus"",""3"",""41852""
","""event"",""trial"",""time""
""blur"",""2"",""5454""
","""event"",""trial"",""time""
""focus"",""3"",""41852""
","""event"",""trial"",""time""
""fullscreenenter"",""1"",""3518""
","
","","","","","","863","images/chair6.png","","","learning","1","1","1","1","chair","furniture","1","0","","neutral","0"
"html-keyboard-response","134","557405","0.0-9.0-2.0-0.31","7148","1","21","Male","approach_avoid_spark_v1","""event"",""trial"",""time""
""fullscreenenter"",""1"",""3518""
""blur"",""2"",""5454""
""focus"",""3"",""41852""
","""event"",""trial"",""time""
""blur"",""2"",""5454""
","""event"",""trial"",""time""
""focus"",""3"",""41852""
","""event"",""trial"",""time""
""fullscreenenter"",""1"",""3518""
","
","","","","","","null","<div style=""font-size:60px;"">+</div>","null","","fixation","","","","","","","","","","",""
"aa-learning-trial","135","560407","0.0-9.0-2.0-1.31","7148","1","21","Male","approach_avoid_spark_v1","""event"",""trial"",""time""
""fullscreenenter"",""1"",""3518""
""blur"",""2"",""5454""
""focus"",""3"",""41852""
","""event"",""trial"",""time""
""blur"",""2"",""5454""
","""event"",""trial"",""time""
""focus"",""3"",""41852""
","""event"",""trial"",""time""
""fullscreenenter"",""1"",""3518""
","
","","","","","","1038","images/chair7.png","","","learning","-3","-3","1","1","chair","furniture","1","0","","neutral","0"
"html-keyboard-response","136","560908","0.0-9.0-2.0-0.32","7148","1","21","Male","approach_avoid_spark_v1","""event"",""trial"",""time""
""fullscreenenter"",""1"",""3518""
""blur"",""2"",""5454""
""focus"",""3"",""41852""
","""event"",""trial"",""time""
""blur"",""2"",""5454""
","""event"",""trial"",""time""
""focus"",""3"",""41852""
","""event"",""trial"",""time""
""fullscreenenter"",""1"",""3518""
","
","","","","","","null","<div style=""font-size:60px;"">+</div>","null","","fixation","","","","","","","","","","",""
"aa-learning-trial","137","563909","0.0-9.0-2.0-1.32","7148","1","21","Male","approach_avoid_spark_v1","""event"",""trial"",""time""
""fullscreenenter"",""1"",""3518""
""blur"",""2"",""5454""
""focus"",""3"",""41852""
","""event"",""trial"",""time""
""blur"",""2"",""5454""
","""event"",""trial"",""time""
""focus"",""3"",""41852""
","""event"",""trial"",""time""
""fullscreenenter"",""1"",""3518""
","
","","","","","","1116","images/table7.png","","","learning","2","2","1","1","table","furniture","1","0","","good","[4]"
"html-keyboard-response","138","564410","0.0-9.0-2.0-0.33","7148","1","21","Male","approach_avoid_spark_v1","""event"",""trial"",""time""
""fullscreenenter"",""1"",""3518""
""blur"",""2"",""5454""
""focus"",""3"",""41852""
","""event"",""trial"",""time""
""blur"",""2"",""5454""
","""event"",""trial"",""time""
""focus"",""3"",""41852""
","""event"",""trial"",""time""
""fullscreenenter"",""1"",""3518""
","
","","","","","","null","<div style=""font-size:60px;"">+</div>","null","","fixation","","","","","","","","","","",""
"aa-learning-trial","139","567414","0.0-9.0-2.0-1.33","7148","1","21","Male","approach_avoid_spark_v1","""event"",""trial"",""time""
""fullscreenenter"",""1"",""3518""
""blur"",""2"",""5454""
""focus"",""3"",""41852""
","""event"",""trial"",""time""
""blur"",""2"",""5454""
","""event"",""trial"",""time""
""focus"",""3"",""41852""
","""event"",""trial"",""time""
""fullscreenenter"",""1"",""3518""
","
","","","","","","1133","images/table7.png","","","learning","4","0","0","0","table","furniture","1","0","","good","[4]"
"html-keyboard-response","140","567915","0.0-9.0-2.0-0.34","7148","1","21","Male","approach_avoid_spark_v1","""event"",""trial"",""time""
""fullscreenenter"",""1"",""3518""
""blur"",""2"",""5454""
""focus"",""3"",""41852""
","""event"",""trial"",""time""
""blur"",""2"",""5454""
","""event"",""trial"",""time""
""focus"",""3"",""41852""
","""event"",""trial"",""time""
""fullscreenenter"",""1"",""3518""
","
","","","","","","null","<div style=""font-size:60px;"">+</div>","null","","fixation","","","","","","","","","","",""
"aa-learning-trial","141","570917","0.0-9.0-2.0-1.34","7148","1","21","Male","approach_avoid_spark_v1","""event"",""trial"",""time""
""fullscreenenter"",""1"",""3518""
""blur"",""2"",""5454""
""focus"",""3"",""41852""
","""event"",""trial"",""time""
""blur"",""2"",""5454""
","""event"",""trial"",""time""
""focus"",""3"",""41852""
","""event"",""trial"",""time""
""fullscreenenter"",""1"",""3518""
","
","","","","","","1356.9999999998836","images/chair8.png","","","learning","2","2","1","1","chair","furniture","1","0","","neutral","0"
"html-keyboard-response","142","571418","0.0-9.0-2.0-0.35","7148","1","21","Male","approach_avoid_spark_v1","""event"",""trial"",""time""
""fullscreenenter"",""1"",""3518""
""blur"",""2"",""5454""
""focus"",""3"",""41852""
","""event"",""trial"",""time""
""blur"",""2"",""5454""
","""event"",""trial"",""time""
""focus"",""3"",""41852""
","""event"",""trial"",""time""
""fullscreenenter"",""1"",""3518""
","
","","","","","","null","<div style=""font-size:60px;"">+</div>","null","","fixation","","","","","","","","","","",""
"aa-learning-trial","143","574420","0.0-9.0-2.0-1.35","7148","1","21","Male","approach_avoid_spark_v1","""event"",""trial"",""time""
""fullscreenenter"",""1"",""3518""
""blur"",""2"",""5454""
""focus"",""3"",""41852""
","""event"",""trial"",""time""
""blur"",""2"",""5454""
","""event"",""trial"",""time""
""focus"",""3"",""41852""
","""event"",""trial"",""time""
""fullscreenenter"",""1"",""3518""
","
","","","","","","791","images/table8.png","","","learning","6","6","1","1","table","furniture","1","0","","good","[4]"
"html-keyboard-response","144","574921","0.0-9.0-2.0-0.36","7148","1","21","Male","approach_avoid_spark_v1","""event"",""trial"",""time""
""fullscreenenter"",""1"",""3518""
""blur"",""2"",""5454""
""focus"",""3"",""41852""
","""event"",""trial"",""time""
""blur"",""2"",""5454""
","""event"",""trial"",""time""
""focus"",""3"",""41852""
","""event"",""trial"",""time""
""fullscreenenter"",""1"",""3518""
","
","","","","","","null","<div style=""font-size:60px;"">+</div>","null","","fixation","","","","","","","","","","",""
"aa-learning-trial","145","577923","0.0-9.0-2.0-1.36","7148","1","21","Male","approach_avoid_spark_v1","""event"",""trial"",""time""
""fullscreenenter"",""1"",""3518""
""blur"",""2"",""5454""
""focus"",""3"",""41852""
","""event"",""trial"",""time""
""blur"",""2"",""5454""
","""event"",""trial"",""time""
""focus"",""3"",""41852""
","""event"",""trial"",""time""
""fullscreenenter"",""1"",""3518""
","
","","","","","","733","images/chair6.png","","","learning","1","1","1","1","chair","furniture","1","0","","neutral","0"
"html-keyboard-response","146","578424","0.0-9.0-2.0-0.37","7148","1","21","Male","approach_avoid_spark_v1","""event"",""trial"",""time""
""fullscreenenter"",""1"",""3518""
""blur"",""2"",""5454""
""focus"",""3"",""41852""
","""event"",""trial"",""time""
""blur"",""2"",""5454""
","""event"",""trial"",""time""
""focus"",""3"",""41852""
","""event"",""trial"",""time""
""fullscreenenter"",""1"",""3518""
","
","","","","","","null","<div style=""font-size:60px;"">+</div>","null","","fixation","","","","","","","","","","",""
"aa-learning-trial","147","581427","0.0-9.0-2.0-1.37","7148","1","21","Male","approach_avoid_spark_v1","""event"",""trial"",""time""
""fullscreenenter"",""1"",""3518""
""blur"",""2"",""5454""
""focus"",""3"",""41852""
","""event"",""trial"",""time""
""blur"",""2"",""5454""
","""event"",""trial"",""time""
""focus"",""3"",""41852""
","""event"",""trial"",""time""
""fullscreenenter"",""1"",""3518""
","
","","","","","","622","images/table7.png","","","learning","5","5","1","1","table","furniture","1","0","","good","[4]"
"html-keyboard-response","148","581928","0.0-9.0-2.0-0.38","7148","1","21","Male","approach_avoid_spark_v1","""event"",""trial"",""time""
""fullscreenenter"",""1"",""3518""
""blur"",""2"",""5454""
""focus"",""3"",""41852""
","""event"",""trial"",""time""
""blur"",""2"",""5454""
","""event"",""trial"",""time""
""focus"",""3"",""41852""
","""event"",""trial"",""time""
""fullscreenenter"",""1"",""3518""
","
","","","","","","null","<div style=""font-size:60px;"">+</div>","null","","fixation","","","","","","","","","","",""
"aa-learning-trial","149","584930","0.0-9.0-2.0-1.38","7148","1","21","Male","approach_avoid_spark_v1","""event"",""trial"",""time""
""fullscreenenter"",""1"",""3518""
""blur"",""2"",""5454""
""focus"",""3"",""41852""
","""event"",""trial"",""time""
""blur"",""2"",""5454""
","""event"",""trial"",""time""
""focus"",""3"",""41852""
","""event"",""trial"",""time""
""fullscreenenter"",""1"",""3518""
","
","","","","","","819","images/chair3.png","","","learning","1","0","0","0","chair","furniture","1","0","","neutral","0"
"html-keyboard-response","150","585432","0.0-9.0-2.0-0.39","7148","1","21","Male","approach_avoid_spark_v1","""event"",""trial"",""time""
""fullscreenenter"",""1"",""3518""
""blur"",""2"",""5454""
""focus"",""3"",""41852""
","""event"",""trial"",""time""
""blur"",""2"",""5454""
","""event"",""trial"",""time""
""focus"",""3"",""41852""
","""event"",""trial"",""time""
""fullscreenenter"",""1"",""3518""
","
","","","","","","null","<div style=""font-size:60px;"">+</div>","null","","fixation","","","","","","","","","","",""
"aa-learning-trial","151","588434","0.0-9.0-2.0-1.39","7148","1","21","Male","approach_avoid_spark_v1","""event"",""trial"",""time""
""fullscreenenter"",""1"",""3518""
""blur"",""2"",""5454""
""focus"",""3"",""41852""
","""event"",""trial"",""time""
""blur"",""2"",""5454""
","""event"",""trial"",""time""
""focus"",""3"",""41852""
","""event"",""trial"",""time""
""fullscreenenter"",""1"",""3518""
","
","","","","","","1365","images/chair7.png","","","learning","-1","0","0","0","chair","furniture","1","0","","neutral","0"
"html-keyboard-response","152","588935","0.0-9.0-2.0-0.40","7148","1","21","Male","approach_avoid_spark_v1","""event"",""trial"",""time""
""fullscreenenter"",""1"",""3518""
""blur"",""2"",""5454""
""focus"",""3"",""41852""
","""event"",""trial"",""time""
""blur"",""2"",""5454""
","""event"",""trial"",""time""
""focus"",""3"",""41852""
","""event"",""trial"",""time""
""fullscreenenter"",""1"",""3518""
","
","","","","","","null","<div style=""font-size:60px;"">+</div>","null","","fixation","","","","","","","","","","",""
"aa-learning-trial","153","591937","0.0-9.0-2.0-1.40","7148","1","21","Male","approach_avoid_spark_v1","""event"",""trial"",""time""
""fullscreenenter"",""1"",""3518""
""blur"",""2"",""5454""
""focus"",""3"",""41852""
","""event"",""trial"",""time""
""blur"",""2"",""5454""
","""event"",""trial"",""time""
""focus"",""3"",""41852""
","""event"",""trial"",""time""
""fullscreenenter"",""1"",""3518""
","
","","","","","","622","images/table8.png","","","learning","5","5","1","1","table","furniture","1","0","","good","[4]"
"html-keyboard-response","154","592439","0.0-9.0-2.0-0.41","7148","1","21","Male","approach_avoid_spark_v1","""event"",""trial"",""time""
""fullscreenenter"",""1"",""3518""
""blur"",""2"",""5454""
""focus"",""3"",""41852""
","""event"",""trial"",""time""
""blur"",""2"",""5454""
","""event"",""trial"",""time""
""focus"",""3"",""41852""
","""event"",""trial"",""time""
""fullscreenenter"",""1"",""3518""
","
","","","","","","null","<div style=""font-size:60px;"">+</div>","null","","fixation","","","","","","","","","","",""
"aa-learning-trial","155","595440","0.0-9.0-2.0-1.41","7148","1","21","Male","approach_avoid_spark_v1","""event"",""trial"",""time""
""fullscreenenter"",""1"",""3518""
""blur"",""2"",""5454""
""focus"",""3"",""41852""
","""event"",""trial"",""time""
""blur"",""2"",""5454""
","""event"",""trial"",""time""
""focus"",""3"",""41852""
","""event"",""trial"",""time""
""fullscreenenter"",""1"",""3518""
","
","","","","","","854","images/chair7.png","","","learning","-1","-1","1","1","chair","furniture","1","0","","neutral","0"
"html-keyboard-response","156","595942","0.0-9.0-2.0-0.42","7148","1","21","Male","approach_avoid_spark_v1","""event"",""trial"",""time""
""fullscreenenter"",""1"",""3518""
""blur"",""2"",""5454""
""focus"",""3"",""41852""
","""event"",""trial"",""time""
""blur"",""2"",""5454""
","""event"",""trial"",""time""
""focus"",""3"",""41852""
","""event"",""trial"",""time""
""fullscreenenter"",""1"",""3518""
","
","","","","","","null","<div style=""font-size:60px;"">+</div>","null","","fixation","","","","","","","","","","",""
"aa-learning-trial","157","598944","0.0-9.0-2.0-1.42","7148","1","21","Male","approach_avoid_spark_v1","""event"",""trial"",""time""
""fullscreenenter"",""1"",""3518""
""blur"",""2"",""5454""
""focus"",""3"",""41852""
","""event"",""trial"",""time""
""blur"",""2"",""5454""
","""event"",""trial"",""time""
""focus"",""3"",""41852""
","""event"",""trial"",""time""
""fullscreenenter"",""1"",""3518""
","
","","","","","","801","images/bed1.png","","","learning","-5","0","0","0","bed","furniture","1","0","","bad","[-4]"
"html-keyboard-response","158","599446","0.0-9.0-2.0-0.43","7148","1","21","Male","approach_avoid_spark_v1","""event"",""trial"",""time""
""fullscreenenter"",""1"",""3518""
""blur"",""2"",""5454""
""focus"",""3"",""41852""
","""event"",""trial"",""time""
""blur"",""2"",""5454""
","""event"",""trial"",""time""
""focus"",""3"",""41852""
","""event"",""trial"",""time""
""fullscreenenter"",""1"",""3518""
","
","","","","","","null","<div style=""font-size:60px;"">+</div>","null","","fixation","","","","","","","","","","",""
"aa-learning-trial","159","602448","0.0-9.0-2.0-1.43","7148","1","21","Male","approach_avoid_spark_v1","""event"",""trial"",""time""
""fullscreenenter"",""1"",""3518""
""blur"",""2"",""5454""
""focus"",""3"",""41852""
","""event"",""trial"",""time""
""blur"",""2"",""5454""
","""event"",""trial"",""time""
""focus"",""3"",""41852""
","""event"",""trial"",""time""
""fullscreenenter"",""1"",""3518""
","
","","","","","","812","images/chair7.png","","","learning","[1]","0","0","0","chair","furniture","1","0","","neutral","0"
"html-keyboard-response","160","602949","0.0-9.0-2.0-0.44","7148","1","21","Male","approach_avoid_spark_v1","""event"",""trial"",""time""
""fullscreenenter"",""1"",""3518""
""blur"",""2"",""5454""
""focus"",""3"",""41852""
","""event"",""trial"",""time""
""blur"",""2"",""5454""
","""event"",""trial"",""time""
""focus"",""3"",""41852""
","""event"",""trial"",""time""
""fullscreenenter"",""1"",""3518""
","
","","","","","","null","<div style=""font-size:60px;"">+</div>","null","","fixation","","","","","","","","","","",""
"aa-learning-trial","161","605950","0.0-9.0-2.0-1.44","7148","1","21","Male","approach_avoid_spark_v1","""event"",""trial"",""time""
""fullscreenenter"",""1"",""3518""
""blur"",""2"",""5454""
""focus"",""3"",""41852""
","""event"",""trial"",""time""
""blur"",""2"",""5454""
","""event"",""trial"",""time""
""focus"",""3"",""41852""
","""event"",""trial"",""time""
""fullscreenenter"",""1"",""3518""
","
","","","","","","900","images/bed2.png","","","learning","-7","0","0","0","bed","furniture","1","0","","bad","[-4]"
"html-keyboard-response","162","606452","0.0-9.0-2.0-0.45","7148","1","21","Male","approach_avoid_spark_v1","""event"",""trial"",""time""
""fullscreenenter"",""1"",""3518""
""blur"",""2"",""5454""
""focus"",""3"",""41852""
","""event"",""trial"",""time""
""blur"",""2"",""5454""
","""event"",""trial"",""time""
""focus"",""3"",""41852""
","""event"",""trial"",""time""
""fullscreenenter"",""1"",""3518""
","
","","","","","","null","<div style=""font-size:60px;"">+</div>","null","","fixation","","","","","","","","","","",""
"aa-learning-trial","163","609453","0.0-9.0-2.0-1.45","7148","1","21","Male","approach_avoid_spark_v1","""event"",""trial"",""time""
""fullscreenenter"",""1"",""3518""
""blur"",""2"",""5454""
""focus"",""3"",""41852""
","""event"",""trial"",""time""
""blur"",""2"",""5454""
","""event"",""trial"",""time""
""focus"",""3"",""41852""
","""event"",""trial"",""time""
""fullscreenenter"",""1"",""3518""
","
","","","","","","666","images/chair6.png","","","learning","-1","-1","1","1","chair","furniture","1","0","","neutral","0"
"html-keyboard-response","164","609954","0.0-9.0-2.0-0.46","7148","1","21","Male","approach_avoid_spark_v1","""event"",""trial"",""time""
""fullscreenenter"",""1"",""3518""
""blur"",""2"",""5454""
""focus"",""3"",""41852""
","""event"",""trial"",""time""
""blur"",""2"",""5454""
","""event"",""trial"",""time""
""focus"",""3"",""41852""
","""event"",""trial"",""time""
""fullscreenenter"",""1"",""3518""
","
","","","","","","null","<div style=""font-size:60px;"">+</div>","null","","fixation","","","","","","","","","","",""
"aa-learning-trial","165","612957","0.0-9.0-2.0-1.46","7148","1","21","Male","approach_avoid_spark_v1","""event"",""trial"",""time""
""fullscreenenter"",""1"",""3518""
""blur"",""2"",""5454""
""focus"",""3"",""41852""
","""event"",""trial"",""time""
""blur"",""2"",""5454""
","""event"",""trial"",""time""
""focus"",""3"",""41852""
","""event"",""trial"",""time""
""fullscreenenter"",""1"",""3518""
","
","","","","","","705","images/table7.png","","","learning","4","4","1","1","table","furniture","1","0","","good","[4]"
"html-keyboard-response","166","613457","0.0-9.0-2.0-0.47","7148","1","21","Male","approach_avoid_spark_v1","""event"",""trial"",""time""
""fullscreenenter"",""1"",""3518""
""blur"",""2"",""5454""
""focus"",""3"",""41852""
","""event"",""trial"",""time""
""blur"",""2"",""5454""
","""event"",""trial"",""time""
""focus"",""3"",""41852""
","""event"",""trial"",""time""
""fullscreenenter"",""1"",""3518""
","
","","","","","","null","<div style=""font-size:60px;"">+</div>","null","","fixation","","","","","","","","","","",""
"aa-learning-trial","167","616460","0.0-9.0-2.0-1.47","7148","1","21","Male","approach_avoid_spark_v1","""event"",""trial"",""time""
""fullscreenenter"",""1"",""3518""
""blur"",""2"",""5454""
""focus"",""3"",""41852""
","""event"",""trial"",""time""
""blur"",""2"",""5454""
","""event"",""trial"",""time""
""focus"",""3"",""41852""
","""event"",""trial"",""time""
""fullscreenenter"",""1"",""3518""
","
","","","","","","740","images/chair8.png","","","learning","-1","-1","1","1","chair","furniture","1","0","","neutral","0"
"html-keyboard-response","168","616961","0.0-9.0-2.0-0.48","7148","1","21","Male","approach_avoid_spark_v1","""event"",""trial"",""time""
""fullscreenenter"",""1"",""3518""
""blur"",""2"",""5454""
""focus"",""3"",""41852""
","""event"",""trial"",""time""
""blur"",""2"",""5454""
","""event"",""trial"",""time""
""focus"",""3"",""41852""
","""event"",""trial"",""time""
""fullscreenenter"",""1"",""3518""
","
","","","","","","null","<div style=""font-size:60px;"">+</div>","null","","fixation","","","","","","","","","","",""
"aa-learning-trial","169","619964","0.0-9.0-2.0-1.48","7148","1","21","Male","approach_avoid_spark_v1","""event"",""trial"",""time""
""fullscreenenter"",""1"",""3518""
""blur"",""2"",""5454""
""focus"",""3"",""41852""
","""event"",""trial"",""time""
""blur"",""2"",""5454""
","""event"",""trial"",""time""
""focus"",""3"",""41852""
","""event"",""trial"",""time""
""fullscreenenter"",""1"",""3518""
","
","","","","","","908","images/bed4.png","","","learning","-4","-4","1","1","bed","furniture","1","0","","bad","[-4]"
"html-keyboard-response","170","620466","0.0-9.0-2.0-0.49","7148","1","21","Male","approach_avoid_spark_v1","""event"",""trial"",""time""
""fullscreenenter"",""1"",""3518""
""blur"",""2"",""5454""
""focus"",""3"",""41852""
","""event"",""trial"",""time""
""blur"",""2"",""5454""
","""event"",""trial"",""time""
""focus"",""3"",""41852""
","""event"",""trial"",""time""
""fullscreenenter"",""1"",""3518""
","
","","","","","","null","<div style=""font-size:60px;"">+</div>","null","","fixation","","","","","","","","","","",""
"aa-learning-trial","171","623467","0.0-9.0-2.0-1.49","7148","1","21","Male","approach_avoid_spark_v1","""event"",""trial"",""time""
""fullscreenenter"",""1"",""3518""
""blur"",""2"",""5454""
""focus"",""3"",""41852""
","""event"",""trial"",""time""
""blur"",""2"",""5454""
","""event"",""trial"",""time""
""focus"",""3"",""41852""
","""event"",""trial"",""time""
""fullscreenenter"",""1"",""3518""
","
","","","","","","718","images/table4.png","","","learning","3","3","1","1","table","furniture","1","0","","good","[4]"
"html-keyboard-response","172","623968","0.0-9.0-2.0-0.50","7148","1","21","Male","approach_avoid_spark_v1","""event"",""trial"",""time""
""fullscreenenter"",""1"",""3518""
""blur"",""2"",""5454""
""focus"",""3"",""41852""
","""event"",""trial"",""time""
""blur"",""2"",""5454""
","""event"",""trial"",""time""
""focus"",""3"",""41852""
","""event"",""trial"",""time""
""fullscreenenter"",""1"",""3518""
","
","","","","","","null","<div style=""font-size:60px;"">+</div>","null","","fixation","","","","","","","","","","",""
"aa-learning-trial","173","626970","0.0-9.0-2.0-1.50","7148","1","21","Male","approach_avoid_spark_v1","""event"",""trial"",""time""
""fullscreenenter"",""1"",""3518""
""blur"",""2"",""5454""
""focus"",""3"",""41852""
","""event"",""trial"",""time""
