"trial_type","trial_index","time_elapsed","internal_node_id","subject_id","task_condition","age","gender","task_version","interactions","blur_events","focus_events","fullscreenenter_events","fullscreenexit_events","success","timeout","failed_images","failed_audio","failed_video","rt","stimulus","response","button_pressed","task_part","approach_reward","points","key_press","option_selected","stim_cat","task_block","block_condition","block_number","correct","cat_type","mean_cat_reward"
"pavlovia","0","4","0.0-0.0","5171","2","8","Female","approach_avoid_spark_v1","""event"",""trial"",""time""
""fullscreenenter"",""1"",""3615""
","
","
","""event"",""trial"",""time""
""fullscreenenter"",""1"",""3615""
","
","","","","","","","","","","","","","","","","","","","","",""
"fullscreen","1","4591","0.0-1.0","5171","2","8","Female","approach_avoid_spark_v1","""event"",""trial"",""time""
""fullscreenenter"",""1"",""3615""
","
","
","""event"",""trial"",""time""
""fullscreenenter"",""1"",""3615""
","
","true","","","","","","","","","","","","","","","","","","","",""
"preload","2","19029","0.0-2.0","5171","2","8","Female","approach_avoid_spark_v1","""event"",""trial"",""time""
""fullscreenenter"",""1"",""3615""
","
","
","""event"",""trial"",""time""
""fullscreenenter"",""1"",""3615""
","
","true","false","[]","[]","[]","","","","","","","","","","","","","","","",""
"audio-keyboard-response","3","25541","0.0-3.0","5171","2","8","Female","approach_avoid_spark_v1","""event"",""trial"",""time""
""fullscreenenter"",""1"",""3615""
","
","
","""event"",""trial"",""time""
""fullscreenenter"",""1"",""3615""
","
","","","","","","6511.999999999999","audio/beep_loop.wav"," ","","","","","","","","","","","","",""
"audio-button-response","4","28178","0.0-4.0","5171","2","8","Female","approach_avoid_spark_v1","""event"",""trial"",""time""
""fullscreenenter"",""1"",""3615""
","
","
","""event"",""trial"",""time""
""fullscreenenter"",""1"",""3615""
","
","","","","","","2640","audio/shark.wav","4","","","","","","","","","","","","",""
"audio-button-response","5","31188","0.0-5.0","5171","2","8","Female","approach_avoid_spark_v1","""event"",""trial"",""time""
""fullscreenenter"",""1"",""3615""
","
","
","""event"",""trial"",""time""
""fullscreenenter"",""1"",""3615""
","
","","","","","","1992","audio/turtle.wav","1","","","","","","","","","","","","",""
"preload","6","37531","0.0-6.0","5171","2","8","Female","approach_avoid_spark_v1","""event"",""trial"",""time""
""fullscreenenter"",""1"",""3615""
","
","
","""event"",""trial"",""time""
""fullscreenenter"",""1"",""3615""
","
","true","false","[]","[]","[]","","","","","","","","","","","","","","","",""
"html-keyboard-response","7","50300","0.0-7.0","5171","2","8","Female","approach_avoid_spark_v1","""event"",""trial"",""time""
""fullscreenenter"",""1"",""3615""
","
","
","""event"",""trial"",""time""
""fullscreenenter"",""1"",""3615""
","
","","","","","","12765.60000000894","Welcome to the experiment. Press any key to begin and to advance the instructions."," ","","","","","","","","","","","","",""
"learning-instructions","8","75334","0.0-8.0-0.0-0.0","5171","2","8","Female","approach_avoid_spark_v1","""event"",""trial"",""time""
""fullscreenenter"",""1"",""3615""
","
","
","""event"",""trial"",""time""
""fullscreenenter"",""1"",""3615""
","
","","","","","","18074.09999999404","<p> Welcome! Today you are going to play 6 different rounds of a decision-making game. </p><p> Use the mouse to click next to continue. </p>","","0","instructions","","","","","","","","","","",""
"learning-instructions","9","154563","0.0-8.0-0.0-0.1","5171","2","8","Female","approach_avoid_spark_v1","""event"",""trial"",""time""
""fullscreenenter"",""1"",""3615""
","
","
","""event"",""trial"",""time""
""fullscreenenter"",""1"",""3615""
","
","","","","","","76484.09999999404","<p> You will start with a practice round to learn the rules. </p>","","0","instructions","","","","","","","","","","",""
"learning-instructions","10","167948","0.0-8.0-0.0-0.2","5171","2","8","Female","approach_avoid_spark_v1","""event"",""trial"",""time""
""fullscreenenter"",""1"",""3615""
","
","
","""event"",""trial"",""time""
""fullscreenenter"",""1"",""3615""
","
","","","","","","9870.800000011921","<p> Your goal in this round is to give out sports equipment to kids. </p></div>","","0","instructions","","","","","","","","","","",""
"learning-instructions","11","179004","0.0-8.0-0.0-0.3","5171","2","8","Female","approach_avoid_spark_v1","""event"",""trial"",""time""
""fullscreenenter"",""1"",""3615""
","
","
","""event"",""trial"",""time""
""fullscreenenter"",""1"",""3615""
","
","","","","","","3486","<p> The kids only like some of the equipment.  </p><p> On each turn, you will see a piece of sports equipment.   </p><p> You need to decide whether to give it to the kids or not.  </p>","","0","instructions","","","","","","","","","","",""
"learning-instructions","12","186093","0.0-8.0-0.0-0.4","5171","2","8","Female","approach_avoid_spark_v1","""event"",""trial"",""time""
""fullscreenenter"",""1"",""3615""
","
","
","""event"",""trial"",""time""
""fullscreenenter"",""1"",""3615""
","
","","","","","","2324.7999999970198","<p> You can give them the equipment by pressing 1 and choose not to give it to them by pressing 0. </p><br><div class=""choice-instructions-grid""> <div class=""choice-option""><img src=""images/approach.png"" class=""choice-option-img"" stage=""instructions"" position=""0"" ><div class=""choice-option-text""> Press ""1."" </div></div><div class=""choice-option""><img src=""images/avoid.png"" class=""choice-option-img"" stage=""instructions"" position=""1"" ><div class=""choice-option-text""> Press ""0."" </div></div>","","0","instructions","","","","","","","","","","",""
"learning-instructions","13","196500","0.0-8.0-0.0-0.5","5171","2","8","Female","approach_avoid_spark_v1","""event"",""trial"",""time""
""fullscreenenter"",""1"",""3615""
","
","
","""event"",""trial"",""time""
""fullscreenenter"",""1"",""3615""
","
","","","","","","3011.300000011921","<p> If you give them a piece of equipment they like, they will be happy! </p><p> But if you give them a piece of equipment they do not like, they will be sad. </p>","","0","instructions","","","","","","","","","","",""
"learning-instructions","14","208420","0.0-8.0-0.0-0.6","5171","2","8","Female","approach_avoid_spark_v1","""event"",""trial"",""time""
""fullscreenenter"",""1"",""3615""
","
","
","""event"",""trial"",""time""
""fullscreenenter"",""1"",""3615""
","
","","","","","","1402","<p> You will earn points based on how you make kids feel. </p><p> If you make them happy, you will WIN anywhere from 1 - 9 points, </p><p> but if you make them sad, you will LOSE anywhere from 1 - 9 points. </p>","","0","instructions","","","","","","","","","","",""
"learning-instructions","15","218980","0.0-8.0-0.0-0.7","5171","2","8","Female","approach_avoid_spark_v1","""event"",""trial"",""time""
""fullscreenenter"",""1"",""3615""
","
","
","""event"",""trial"",""time""
""fullscreenenter"",""1"",""3615""
","
","","","","","","992","<p> You will see how many points you won or lost in the center of the screen. </p><p> Here is what you would see if you won 6 points: </p><p style=""color:green;font-size:50px;font-weight:bolder"">6</p><p style=""color:green"">The text is GREEN because you WON points.</p>","","0","instructions","","","","","","","","","","",""
"learning-instructions","16","225708","0.0-8.0-0.0-0.8","5171","2","8","Female","approach_avoid_spark_v1","""event"",""trial"",""time""
""fullscreenenter"",""1"",""3615""
","
","
","""event"",""trial"",""time""
""fullscreenenter"",""1"",""3615""
","
","","","","","","1210.2000000029802","<p> And here is what you would see if you lost 4 points: </p><p style=""color:red;font-size:50px;font-weight:bolder"">-4</p><p style=""color:red"">The text is RED because you LOST points. </p>","","0","instructions","","","","","","","","","","",""
"learning-instructions","17","241340","0.0-8.0-0.0-0.9","5171","2","8","Female","approach_avoid_spark_v1","""event"",""trial"",""time""
""fullscreenenter"",""1"",""3615""
","
","
","""event"",""trial"",""time""
""fullscreenenter"",""1"",""3615""
","
","","","","","","912","<p> Some of the equipment will make the kids VERY happy or sad. </p><p> These pieces of equipment will make you win or lose LOTS of points. </p><p> Other pieces of equipment will only make the kids a little happy or sad. </p><p> These pieces of equipment will make you win or lose small amounts of points. </p>","","0","instructions","","","","","","","","","","",""
"learning-instructions","18","260180","0.0-8.0-0.0-0.10","5171","2","8","Female","approach_avoid_spark_v1","""event"",""trial"",""time""
""fullscreenenter"",""1"",""3615""
","
","
","""event"",""trial"",""time""
""fullscreenenter"",""1"",""3615""
","
","","","","","","8211.29999999702","<p> If you choose not to give them the equipment, you will not win or lose any points. </p><p>  However, in the center of the screen, you will see the number of points you WOULD HAVE won or lost if you had given them the equipment. </p>","","0","instructions","","","","","","","","","","",""
"learning-instructions","19","282668","0.0-8.0-0.0-0.11","5171","2","8","Female","approach_avoid_spark_v1","""event"",""trial"",""time""
""fullscreenenter"",""1"",""3615""
","
","
","""event"",""trial"",""time""
""fullscreenenter"",""1"",""3615""
","
","","","","","","959.5","<p> Here is what you might see if you did not give the equipment to the kids but it would have made them happy: </p><p style=""color:grey; font-size:50px; display: inline-block; border-spacing: 15px; border-width:3px; border-style:solid; border-color:red"">  &nbsp; 7 &nbsp; </p><p> Remember, in this case, you would not win or lose ANY points because you did not give them the equipment.  </p><p style=""color:grey"">The text is GREY because you earned ZERO points. </p><p style=""color:red"">However, choosing to give the kids the equipment would have made you win points. The box around the text is RED because you chose the worse option. </p>","","0","instructions","","","","","","","","","","",""
"learning-instructions","20","306460","0.0-8.0-0.0-0.12","5171","2","8","Female","approach_avoid_spark_v1","""event"",""trial"",""time""
""fullscreenenter"",""1"",""3615""
","
","
","""event"",""trial"",""time""
""fullscreenenter"",""1"",""3615""
","
","","","","","","2721.5","<p> Here is what you might see if you did not give the equipment to the kids but it would have made them sad: </p><p style=""color:grey;font-size:50px; display: inline-block; border-spacing: 15px; border-width:3px; border-style:solid; border-color:green"">  &nbsp; -8 &nbsp; </p><p> Remember, in this case, you would not win or lose ANY points because you did not give them the equipment.  </p><p style=""color:grey"">The text is GREY because you earned ZERO points. </p><p  style=""color:green""> Choosing to give the kids the equipment would have made you lose points. The box around the text is GREEN because you chose the better option.</p>","","0","instructions","","","","","","","","","","",""
"learning-instructions","21","327492","0.0-8.0-0.0-0.13","5171","2","8","Female","approach_avoid_spark_v1","""event"",""trial"",""time""
""fullscreenenter"",""1"",""3615""
","
","
","""event"",""trial"",""time""
""fullscreenenter"",""1"",""3615""
","
","","","","","","11633.79999999702","<p> You will have 3 seconds to make each choice. Try to respond before time runs out! </p><p> You will lose 5 points each time you do not make a response. </p>","","0","instructions","","","","","","","","","","",""
"learning-instructions","22","337837","0.0-8.0-0.0-0.14","5171","2","8","Female","approach_avoid_spark_v1","""event"",""trial"",""time""
""fullscreenenter"",""1"",""3615""
","
","
","""event"",""trial"",""time""
""fullscreenenter"",""1"",""3615""
","
","","","","","","4928.5999999940395","<p> This is just a practice round, but in the real game, your bonus payment will depend on your total number of points.","","0","instructions","","","","","","","","","","",""
"learning-instructions","23","345500","0.0-8.0-0.0-0.15","5171","2","8","Female","approach_avoid_spark_v1","""event"",""trial"",""time""
""fullscreenenter"",""1"",""3615""
","
","
","""event"",""trial"",""time""
""fullscreenenter"",""1"",""3615""
","
","","","","","","1902.5999999940395","<p> Remember, you can give them the equipment by pressing 1 and choose not to give it to them by pressing 0. </p><br><div class=""choice-instructions-grid""> <div class=""choice-option""><img src=""images/approach.png"" class=""choice-option-img"" stage=""instructions"" position=""0"" ><div class=""choice-option-text""> Press ""1."" </div></div><div class=""choice-option""><img src=""images/avoid.png"" class=""choice-option-img"" stage=""instructions"" position=""1"" ><div class=""choice-option-text""> Press ""0."" </div></div>","","0","instructions","","","","","","","","","","",""
"html-button-response","24","358180","0.0-8.0-1.0","5171","2","8","Female","approach_avoid_spark_v1","""event"",""trial"",""time""
""fullscreenenter"",""1"",""3615""
","
","
","""event"",""trial"",""time""
""fullscreenenter"",""1"",""3615""
","
","","","","","","12573.20000000298","<p> Ready to practice? </p>","0","","","","","","","","","","","","",""
"html-keyboard-response","25","358801","0.0-8.0-2.0-0.0","5171","2","8","Female","approach_avoid_spark_v1","""event"",""trial"",""time""
""fullscreenenter"",""1"",""3615""
","
","
","""event"",""trial"",""time""
""fullscreenenter"",""1"",""3615""
","
","","","","","","null","<div style=""font-size:60px;"">+</div>","null","","fixation","","","","","","","","","","",""
"aa-learning-trial","26","361813","0.0-8.0-2.0-1.0","5171","2","8","Female","approach_avoid_spark_v1","""event"",""trial"",""time""
""fullscreenenter"",""1"",""3615""
","
","
","""event"",""trial"",""time""
""fullscreenenter"",""1"",""3615""
","
","","","","","","null","images/ball2.png","","","learning","1","-5","","null","practice","practice","practice","-1","","",""
"html-keyboard-response","27","362317","0.0-8.0-2.0-0.1","5171","2","8","Female","approach_avoid_spark_v1","""event"",""trial"",""time""
""fullscreenenter"",""1"",""3615""
","
","
","""event"",""trial"",""time""
""fullscreenenter"",""1"",""3615""
","
","","","","","","null","<div style=""font-size:60px;"">+</div>","null","","fixation","","","","","","","","","","",""
"aa-learning-trial","28","365326","0.0-8.0-2.0-1.1","5171","2","8","Female","approach_avoid_spark_v1","""event"",""trial"",""time""
""fullscreenenter"",""1"",""3615""
","
","
","""event"",""trial"",""time""
""fullscreenenter"",""1"",""3615""
","
","","","","","","null","images/ball4.png","","","learning","3","-5","","null","practice","practice","practice","-1","","",""
"html-keyboard-response","29","365829","0.0-8.0-2.0-0.2","5171","2","8","Female","approach_avoid_spark_v1","""event"",""trial"",""time""
""fullscreenenter"",""1"",""3615""
","
","
","""event"",""trial"",""time""
""fullscreenenter"",""1"",""3615""
","
","","","","","","null","<div style=""font-size:60px;"">+</div>","null","","fixation","","","","","","","","","","",""
"aa-learning-trial","30","368853","0.0-8.0-2.0-1.2","5171","2","8","Female","approach_avoid_spark_v1","""event"",""trial"",""time""
""fullscreenenter"",""1"",""3615""
","
","
","""event"",""trial"",""time""
""fullscreenenter"",""1"",""3615""
","
","","","","","","null","images/ball2.png","","","learning","4","-5","","null","practice","practice","practice","-1","","",""
"html-keyboard-response","31","369357","0.0-8.0-2.0-0.3","5171","2","8","Female","approach_avoid_spark_v1","""event"",""trial"",""time""
""fullscreenenter"",""1"",""3615""
","
","
","""event"",""trial"",""time""
""fullscreenenter"",""1"",""3615""
","
","","","","","","null","<div style=""font-size:60px;"">+</div>","null","","fixation","","","","","","","","","","",""
"aa-learning-trial","32","372369","0.0-8.0-2.0-1.3","5171","2","8","Female","approach_avoid_spark_v1","""event"",""trial"",""time""
""fullscreenenter"",""1"",""3615""
","
","
","""event"",""trial"",""time""
""fullscreenenter"",""1"",""3615""
","
","","","","","","null","images/racket3.png","","","learning","8","-5","","null","practice","practice","practice","-1","","",""
"html-keyboard-response","33","372882","0.0-8.0-2.0-0.4","5171","2","8","Female","approach_avoid_spark_v1","""event"",""trial"",""time""
""fullscreenenter"",""1"",""3615""
","
","
","""event"",""trial"",""time""
""fullscreenenter"",""1"",""3615""
","
","","","","","","null","<div style=""font-size:60px;"">+</div>","null","","fixation","","","","","","","","","","",""
"aa-learning-trial","34","375894","0.0-8.0-2.0-1.4","5171","2","8","Female","approach_avoid_spark_v1","""event"",""trial"",""time""
""fullscreenenter"",""1"",""3615""
","
","
","""event"",""trial"",""time""
""fullscreenenter"",""1"",""3615""
","
","","","","","","null","images/racket2.png","","","learning","-3","-5","","null","practice","practice","practice","-1","","",""
"html-keyboard-response","35","376398","0.0-8.0-2.0-0.5","5171","2","8","Female","approach_avoid_spark_v1","""event"",""trial"",""time""
""fullscreenenter"",""1"",""3615""
","
","
","""event"",""trial"",""time""
""fullscreenenter"",""1"",""3615""
","
","","","","","","null","<div style=""font-size:60px;"">+</div>","null","","fixation","","","","","","","","","","",""
"aa-learning-trial","36","379405","0.0-8.0-2.0-1.5","5171","2","8","Female","approach_avoid_spark_v1","""event"",""trial"",""time""
""fullscreenenter"",""1"",""3615""
","
","
","""event"",""trial"",""time""
""fullscreenenter"",""1"",""3615""
","
","","","","","","null","images/racket3.png","","","learning","-7","-5","","null","practice","practice","practice","-1","","",""
"html-keyboard-response","37","379908","0.0-8.0-2.0-0.6","5171","2","8","Female","approach_avoid_spark_v1","""event"",""trial"",""time""
""fullscreenenter"",""1"",""3615""
","
","
","""event"",""trial"",""time""
""fullscreenenter"",""1"",""3615""
","
","","","","","","null","<div style=""font-size:60px;"">+</div>","null","","fixation","","","","","","","","","","",""
"aa-learning-trial","38","382918","0.0-8.0-2.0-1.6","5171","2","8","Female","approach_avoid_spark_v1","""event"",""trial"",""time""
""fullscreenenter"",""1"",""3615""
","
","
","""event"",""trial"",""time""
""fullscreenenter"",""1"",""3615""
","
","","","","","","null","images/racket4.png","","","learning","-5","-5","","null","practice","practice","practice","-1","","",""
"html-keyboard-response","39","383421","0.0-8.0-2.0-0.7","5171","2","8","Female","approach_avoid_spark_v1","""event"",""trial"",""time""
""fullscreenenter"",""1"",""3615""
","
","
","""event"",""trial"",""time""
""fullscreenenter"",""1"",""3615""
","
","","","","","","null","<div style=""font-size:60px;"">+</div>","null","","fixation","","","","","","","","","","",""
"aa-learning-trial","40","386431","0.0-8.0-2.0-1.7","5171","2","8","Female","approach_avoid_spark_v1","""event"",""trial"",""time""
""fullscreenenter"",""1"",""3615""
","
","
","""event"",""trial"",""time""
""fullscreenenter"",""1"",""3615""
","
","","","","","","null","images/ball3.png","","","learning","8","-5","","null","practice","practice","practice","-1","","",""
"html-keyboard-response","41","386933","0.0-8.0-2.0-0.8","5171","2","8","Female","approach_avoid_spark_v1","""event"",""trial"",""time""
""fullscreenenter"",""1"",""3615""
","
","
","""event"",""trial"",""time""
""fullscreenenter"",""1"",""3615""
","
","","","","","","null","<div style=""font-size:60px;"">+</div>","null","","fixation","","","","","","","","","","",""
"aa-learning-trial","42","389949","0.0-8.0-2.0-1.8","5171","2","8","Female","approach_avoid_spark_v1","""event"",""trial"",""time""
""fullscreenenter"",""1"",""3615""
","
","
","""event"",""trial"",""time""
""fullscreenenter"",""1"",""3615""
","
","","","","","","null","images/ball2.png","","","learning","-3","-5","","null","practice","practice","practice","-1","","",""
"html-keyboard-response","43","390452","0.0-8.0-2.0-0.9","5171","2","8","Female","approach_avoid_spark_v1","""event"",""trial"",""time""
""fullscreenenter"",""1"",""3615""
","
","
","""event"",""trial"",""time""
""fullscreenenter"",""1"",""3615""
","
","","","","","","null","<div style=""font-size:60px;"">+</div>","null","","fixation","","","","","","","","","","",""
"aa-learning-trial","44","393462","0.0-8.0-2.0-1.9","5171","2","8","Female","approach_avoid_spark_v1","""event"",""trial"",""time""
""fullscreenenter"",""1"",""3615""
","
","
","""event"",""trial"",""time""
""fullscreenenter"",""1"",""3615""
","
","","","","","","null","images/racket2.png","","","learning","3","-5","","null","practice","practice","practice","-1","","",""
"html-keyboard-response","45","393965","0.0-8.0-2.0-0.10","5171","2","8","Female","approach_avoid_spark_v1","""event"",""trial"",""time""
""fullscreenenter"",""1"",""3615""
","
","
","""event"",""trial"",""time""
""fullscreenenter"",""1"",""3615""
","
","","","","","","null","<div style=""font-size:60px;"">+</div>","null","","fixation","","","","","","","","","","",""
"aa-learning-trial","46","396972","0.0-8.0-2.0-1.10","5171","2","8","Female","approach_avoid_spark_v1","""event"",""trial"",""time""
""fullscreenenter"",""1"",""3615""
","
","
","""event"",""trial"",""time""
""fullscreenenter"",""1"",""3615""
","
","","","","","","null","images/racket2.png","","","learning","-4","-5","","null","practice","practice","practice","-1","","",""
"html-keyboard-response","47","397487","0.0-8.0-2.0-0.11","5171","2","8","Female","approach_avoid_spark_v1","""event"",""trial"",""time""
""fullscreenenter"",""1"",""3615""
","
","
","""event"",""trial"",""time""
""fullscreenenter"",""1"",""3615""
","
","","","","","","null","<div style=""font-size:60px;"">+</div>","null","","fixation","","","","","","","","","","",""
"aa-learning-trial","48","400493","0.0-8.0-2.0-1.11","5171","2","8","Female","approach_avoid_spark_v1","""event"",""trial"",""time""
""fullscreenenter"",""1"",""3615""
","
","
","""event"",""trial"",""time""
""fullscreenenter"",""1"",""3615""
","
","","","","","","null","images/ball4.png","","","learning","-6","-5","","null","practice","practice","practice","-1","","",""
"html-button-response","49","415713","0.0-8.0-3.0","5171","2","8","Female","approach_avoid_spark_v1","""event"",""trial"",""time""
""fullscreenenter"",""1"",""3615""
","
","
","""event"",""trial"",""time""
""fullscreenenter"",""1"",""3615""
","
","","","","","","15215.59999999404","<p> You earned -60 points in the practice round! </p>","0","","break","","","","","","","","","","",""
"learning-instructions","50","423928","0.0-8.0-4.0-0.0","5171","2","8","Female","approach_avoid_spark_v1","""event"",""trial"",""time""
""fullscreenenter"",""1"",""3615""
","
","
","""event"",""trial"",""time""
""fullscreenenter"",""1"",""3615""
","
","","","","","","2208.4000000059605","<p> It's almost time to start the real game. </p><p> Before you start, we're going to ask you a few questions about how the game works. </p>","","0","instructions","","","","","","","","","","",""
"preload","51","425755","0.0-8.0-5.0","5171","2","8","Female","approach_avoid_spark_v1","""event"",""trial"",""time""
""fullscreenenter"",""1"",""3615""
","
","
","""event"",""trial"",""time""
""fullscreenenter"",""1"",""3615""
","
","true","false","[]","[]","[]","","","","","","","","","","","","","","","",""
"comp-q","52","432921","0.0-8.0-6.0-0.0","5171","2","8","Female","approach_avoid_spark_v1","""event"",""trial"",""time""
""fullscreenenter"",""1"",""3615""
","
","
","""event"",""trial"",""time""
""fullscreenenter"",""1"",""3615""
","
","","","","","","2170.300000011921","<p> <b> True or False? </b> </p><p> If you see a number in GREY, that means you earned that many points. </p>","","1","comp_question","","","","","","","","","true","",""
"comp-q","53","443512","0.0-8.0-6.0-1.0","5171","2","8","Female","approach_avoid_spark_v1","""event"",""trial"",""time""
""fullscreenenter"",""1"",""3615""
","
","
","""event"",""trial"",""time""
""fullscreenenter"",""1"",""3615""
","
","","","","","","2223.2999999970198","<p><b> That's right! </b> If you see a grey number, it means you earned ZERO points. <br> The grey numbers show the points you WOULD HAVE earned if you had made the other choice. </p>","","0","comp_answer","","","","","","","","","","",""
"comp-q","54","450024","0.0-8.0-7.0-0.0","5171","2","8","Female","approach_avoid_spark_v1","""event"",""trial"",""time""
""fullscreenenter"",""1"",""3615""
","
","
","""event"",""trial"",""time""
""fullscreenenter"",""1"",""3615""
","
","","","","","","1814.4000000059605","<p> <b> True or False? </b> </p><p> You will have as much time as you want to make each choice. </p>","","1","comp_question","","","","","","","","","true","",""
"comp-q","55","456169","0.0-8.0-7.0-1.0","5171","2","8","Female","approach_avoid_spark_v1","""event"",""trial"",""time""
""fullscreenenter"",""1"",""3615""
","
","
","""event"",""trial"",""time""
""fullscreenenter"",""1"",""3615""
","
","","","","","","2099.5","<p> <b> That's right! </b> You will only have 3 seconds to make each choice. </p>","","0","comp_answer","","","","","","","","","","",""
"comp-q","56","466448","0.0-8.0-8.0-0.0","5171","2","8","Female","approach_avoid_spark_v1","""event"",""trial"",""time""
""fullscreenenter"",""1"",""3615""
","
","
","""event"",""trial"",""time""
""fullscreenenter"",""1"",""3615""
","
","","","","","","5619.29999999702","<p> <b> True or False? </b> </p><p> You should use the '1' and '0' keys to make your choices. </p>","","0","comp_question","","","","","","","","","true","",""
"comp-q","57","474584","0.0-8.0-8.0-1.0","5171","2","8","Female","approach_avoid_spark_v1","""event"",""trial"",""time""
""fullscreenenter"",""1"",""3615""
","
","
","""event"",""trial"",""time""
""fullscreenenter"",""1"",""3615""
","
","","","","","","3525","<p> <b> That's right! </b> You should use the '1' and '0' keys to make each choice. </p>","","0","comp_answer","","","","","","","","","","",""
"learning-instructions","58","486360","0.0-8.0-9.0-0.0","5171","2","8","Female","approach_avoid_spark_v1","""event"",""trial"",""time""
""fullscreenenter"",""1"",""3615""
","
","
","""event"",""trial"",""time""
""fullscreenenter"",""1"",""3615""
","
","","","","","","5500.79999999702","<p> It's now time to start the real game. </p>Do your best, because the points you earn in the next rounds will influence your bonus payment. </p>","","0","instructions","","","","","","","","","","",""
"preload","59","487235","0.0-9.0-0.0","5171","2","8","Female","approach_avoid_spark_v1","""event"",""trial"",""time""
""fullscreenenter"",""1"",""3615""
","
","
","""event"",""trial"",""time""
""fullscreenenter"",""1"",""3615""
","
","true","false","[]","[]","[]","","","","","","","","","","","","","","","",""
"learning-instructions","60","491768","0.0-9.0-1.0-0.0","5171","2","8","Female","approach_avoid_spark_v1","""event"",""trial"",""time""
""fullscreenenter"",""1"",""3615""
","
","
","""event"",""trial"",""time""
""fullscreenenter"",""1"",""3615""
","
","","","","","","899.7000000029802","<p> Your goal in this round is to take care of lots of animals. </p></div>","","0","instructions","","","","","","","","","","",""
"learning-instructions","61","502416","0.0-9.0-1.0-0.1","5171","2","8","Female","approach_avoid_spark_v1","""event"",""trial"",""time""
""fullscreenenter"",""1"",""3615""
","
","
","""event"",""trial"",""time""
""fullscreenenter"",""1"",""3615""
","
","","","","","","1387.2999999970198","<p> Some animals want to be pet, while other animals want to be left alone.  </p><p> On each turn, you will see an animal.   </p><p> You need to decide whether to pet it or not.  </p>","","0","instructions","","","","","","","","","","",""
"learning-instructions","62","509640","0.0-9.0-1.0-0.2","5171","2","8","Female","approach_avoid_spark_v1","""event"",""trial"",""time""
""fullscreenenter"",""1"",""3615""
","
","
","""event"",""trial"",""time""
""fullscreenenter"",""1"",""3615""
","
","","","","","","2290.4000000059605","<p> You can pet the animal by pressing 1 and leave the animal alone by pressing 0. </p><br><div class=""choice-instructions-grid""> <div class=""choice-option""><img src=""images/approach.png"" class=""choice-option-img"" stage=""instructions"" position=""0"" ><div class=""choice-option-text""> Press ""1."" </div></div><div class=""choice-option""><img src=""images/avoid.png"" class=""choice-option-img"" stage=""instructions"" position=""1"" ><div class=""choice-option-text""> Press ""0."" </div></div>","","0","instructions","","","","","","","","","","",""
"learning-instructions","63","523056","0.0-9.0-1.0-0.3","5171","2","8","Female","approach_avoid_spark_v1","""event"",""trial"",""time""
""fullscreenenter"",""1"",""3615""
","
","
","""event"",""trial"",""time""
""fullscreenenter"",""1"",""3615""
","
","","","","","","3396.8999999910593","<p> If you pet an animal that wants to be pet, you will make it feel happy! </p><p> But if you pet an animal that wants to be left alone, you will make it feel angry. </p>","","0","instructions","","","","","","","","","","",""
"learning-instructions","64","537992","0.0-9.0-1.0-0.4","5171","2","8","Female","approach_avoid_spark_v1","""event"",""trial"",""time""
""fullscreenenter"",""1"",""3615""
","
","
","""event"",""trial"",""time""
""fullscreenenter"",""1"",""3615""
","
","","","","","","1482.8999999910593","<p> You will earn points based on how you made the animal feel. </p><p> If you made it feel happy, you will WIN anywhere from 1 - 9 points, </p><p> but if you made it feel angry, you will LOSE anywhere from 1 - 9 points. </p>","","0","instructions","","","","","","","","","","",""
"learning-instructions","65","548304","0.0-9.0-1.0-0.5","5171","2","8","Female","approach_avoid_spark_v1","""event"",""trial"",""time""
""fullscreenenter"",""1"",""3615""
","
","
","""event"",""trial"",""time""
""fullscreenenter"",""1"",""3615""
","
","","","","","","1595.2000000029802","<p> You will see how many points you won or lost in the center of the screen. </p><p> Here is what you would see if you won 5 points: </p><p style=""color:green;font-size:50px;font-weight:bolder"">5</p>","","0","instructions","","","","","","","","","","",""
"learning-instructions","66","553184","0.0-9.0-1.0-0.6","5171","2","8","Female","approach_avoid_spark_v1","""event"",""trial"",""time""
""fullscreenenter"",""1"",""3615""
","
","
","""event"",""trial"",""time""
""fullscreenenter"",""1"",""3615""
","
","","","","","","1284.6000000089407","<p> And here is what you would see if you lost 3 points: </p><p style=""color:red;font-size:50px;font-weight:bolder"">-3</p>","","0","instructions","","","","","","","","","","",""
"learning-instructions","67","569120","0.0-9.0-1.0-0.7","5171","2","8","Female","approach_avoid_spark_v1","""event"",""trial"",""time""
""fullscreenenter"",""1"",""3615""
","
","
","""event"",""trial"",""time""
""fullscreenenter"",""1"",""3615""
","
","","","","","","981.2999999970198","<p> Some animals will become very happy or very angry. </p><p> These animals will make you win or lose LOTS of points. </p><p> Other animals have less strong feelings. </p><p> These animals will make you win or lose small amounts of points. </p>","","0","instructions","","","","","","","","","","",""
"learning-instructions","68","594249","0.0-9.0-1.0-0.8","5171","2","8","Female","approach_avoid_spark_v1","""event"",""trial"",""time""
""fullscreenenter"",""1"",""3615""
","
","
","""event"",""trial"",""time""
""fullscreenenter"",""1"",""3615""
","
","","","","","","13259.09999999404","<p> If you choose to leave the animal alone, you will not win or lose any points. </p><p>  However, in the center of the screen, you will see the number of points you WOULD HAVE won or lost if you had pet the animal. </p>","","0","instructions","","","","","","","","","","",""
"learning-instructions","69","612986","0.0-9.0-1.0-0.9","5171","2","8","Female","approach_avoid_spark_v1","""event"",""trial"",""time""
""fullscreenenter"",""1"",""3615""
","
","
","""event"",""trial"",""time""
""fullscreenenter"",""1"",""3615""
","
","","","","","","6686.79999999702","<p> Here is what you might see if you did not pet the animal but the animal wanted to be pet: </p><p style=""color:grey; font-size:50px; display: inline-block; border-spacing: 15px; border-width:3px; border-style:solid; border-color:red"">  &nbsp; 6 &nbsp; </p><p> Remember, in this case, you would not win or lose ANY points because you did not pet the animal.  </p>","","0","instructions","","","","","","","","","","",""
"learning-instructions","70","621673","0.0-9.0-1.0-0.10","5171","2","8","Female","approach_avoid_spark_v1","""event"",""trial"",""time""
""fullscreenenter"",""1"",""3615""
","
","
","""event"",""trial"",""time""
""fullscreenenter"",""1"",""3615""
","
","","","","","","1603.3999999910593","<p> Try to make the best choice for each animal because </p><p> at the end of the game, you will earn bonus money based on how many points you earned. </p>","","0","instructions","","","","","","","","","","",""
"learning-instructions","71","631241","0.0-9.0-1.0-0.11","5171","2","8","Female","approach_avoid_spark_v1","""event"",""trial"",""time""
""fullscreenenter"",""1"",""3615""
","
","
","""event"",""trial"",""time""
""fullscreenenter"",""1"",""3615""
","
","","","","","","1361.2000000029802","<p> You will have 3 seconds to make each choice. Try to respond before time runs out! </p><p> You will lose 5 points each time you do not make a response. </p>","","0","instructions","","","","","","","","","","",""
"html-keyboard-response","72","631862","0.0-9.0-2.0-0.0","5171","2","8","Female","approach_avoid_spark_v1","""event"",""trial"",""time""
""fullscreenenter"",""1"",""3615""
","
","
","""event"",""trial"",""time""
""fullscreenenter"",""1"",""3615""
","
","","","","","","null","<div style=""font-size:60px;"">+</div>","null","","fixation","","","","","","","","","","",""
"aa-learning-trial","73","634870","0.0-9.0-2.0-1.0","5171","2","8","Female","approach_avoid_spark_v1","""event"",""trial"",""time""
""fullscreenenter"",""1"",""3615""
","
","
","""event"",""trial"",""time""
""fullscreenenter"",""1"",""3615""
","
","","","","","","null","images/dog3.png","","","learning","6","-5","","null","dog","pets","2","0","","neutral","0"
"html-keyboard-response","74","635372","0.0-9.0-2.0-0.1","5171","2","8","Female","approach_avoid_spark_v1","""event"",""trial"",""time""
""fullscreenenter"",""1"",""3615""
","
","
","""event"",""trial"",""time""
""fullscreenenter"",""1"",""3615""
","
","","","","","","null","<div style=""font-size:60px;"">+</div>","null","","fixation","","","","","","","","","","",""
"aa-learning-trial","75","638390","0.0-9.0-2.0-1.1","5171","2","8","Female","approach_avoid_spark_v1","""event"",""trial"",""time""
""fullscreenenter"",""1"",""3615""
","
","
","""event"",""trial"",""time""
""fullscreenenter"",""1"",""3615""
","
","","","","","","null","images/cat8.png","","","learning","2","-5","","null","cat","pets","2","0","","good","[6]"
"html-keyboard-response","76","638892","0.0-9.0-2.0-0.2","5171","2","8","Female","approach_avoid_spark_v1","""event"",""trial"",""time""
""fullscreenenter"",""1"",""3615""
","
","
","""event"",""trial"",""time""
""fullscreenenter"",""1"",""3615""
","
","","","","","","null","<div style=""font-size:60px;"">+</div>","null","","fixation","","","","","","","","","","",""
"aa-learning-trial","77","641901","0.0-9.0-2.0-1.2","5171","2","8","Female","approach_avoid_spark_v1","""event"",""trial"",""time""
""fullscreenenter"",""1"",""3615""
","
","
","""event"",""trial"",""time""
""fullscreenenter"",""1"",""3615""
","
","","","","","","null","images/rodent6.png","","","learning","1","-5","","null","rodent","pets","2","0","","bad","[-6]"
"html-keyboard-response","78","642405","0.0-9.0-2.0-0.3","5171","2","8","Female","approach_avoid_spark_v1","""event"",""trial"",""time""
""fullscreenenter"",""1"",""3615""
","
","
","""event"",""trial"",""time""
""fullscreenenter"",""1"",""3615""
","
","","","","","","null","<div style=""font-size:60px;"">+</div>","null","","fixation","","","","","","","","","","",""
"aa-learning-trial","79","645418","0.0-9.0-2.0-1.3","5171","2","8","Female","approach_avoid_spark_v1","""event"",""trial"",""time""
""fullscreenenter"",""1"",""3615""
","
","
","""event"",""trial"",""time""
""fullscreenenter"",""1"",""3615""
","
","","","","","","null","images/cat4.png","","","learning","-7","-5","","null","cat","pets","2","0","","good","[6]"
"html-keyboard-response","80","645920","0.0-9.0-2.0-0.4","5171","2","8","Female","approach_avoid_spark_v1","""event"",""trial"",""time""
""fullscreenenter"",""1"",""3615""
","
","
","""event"",""trial"",""time""
""fullscreenenter"",""1"",""3615""
","
","","","","","","null","<div style=""font-size:60px;"">+</div>","null","","fixation","","","","","","","","","","",""
"aa-learning-trial","81","648933","0.0-9.0-2.0-1.4","5171","2","8","Female","approach_avoid_spark_v1","""event"",""trial"",""time""
""fullscreenenter"",""1"",""3615""
","
","
","""event"",""trial"",""time""
""fullscreenenter"",""1"",""3615""
","
","","","","","","null","images/dog7.png","","","learning","5","-5","","null","dog","pets","2","0","","neutral","0"
"html-keyboard-response","82","649444","0.0-9.0-2.0-0.5","5171","2","8","Female","approach_avoid_spark_v1","""event"",""trial"",""time""
""fullscreenenter"",""1"",""3615""
","
","
","""event"",""trial"",""time""
""fullscreenenter"",""1"",""3615""
","
","","","","","","null","<div style=""font-size:60px;"">+</div>","null","","fixation","","","","","","","","","","",""
"aa-learning-trial","83","652460","0.0-9.0-2.0-1.5","5171","2","8","Female","approach_avoid_spark_v1","""event"",""trial"",""time""
""fullscreenenter"",""1"",""3615""
","
","
","""event"",""trial"",""time""
""fullscreenenter"",""1"",""3615""
","
","","","","","","null","images/rodent2.png","","","learning","8","-5","","null","rodent","pets","2","0","","bad","[-6]"
"html-keyboard-response","84","652972","0.0-9.0-2.0-0.6","5171","2","8","Female","approach_avoid_spark_v1","""event"",""trial"",""time""
""fullscreenenter"",""1"",""3615""
","
","
","""event"",""trial"",""time""
""fullscreenenter"",""1"",""3615""
","
","","","","","","null","<div style=""font-size:60px;"">+</div>","null","","fixation","","","","","","","","","","",""
"aa-learning-trial","85","655997","0.0-9.0-2.0-1.6","5171","2","8","Female","approach_avoid_spark_v1","""event"",""trial"",""time""
""fullscreenenter"",""1"",""3615""
","
","
","""event"",""trial"",""time""
""fullscreenenter"",""1"",""3615""
","
","","","","","","null","images/cat5.png","","","learning","4","-5","","null","cat","pets","2","0","","good","[6]"
"html-keyboard-response","86","656499","0.0-9.0-2.0-0.7","5171","2","8","Female","approach_avoid_spark_v1","""event"",""trial"",""time""
""fullscreenenter"",""1"",""3615""
","
","
","""event"",""trial"",""time""
""fullscreenenter"",""1"",""3615""
","
","","","","","","null","<div style=""font-size:60px;"">+</div>","null","","fixation","","","","","","","","","","",""
"aa-learning-trial","87","659519","0.0-9.0-2.0-1.7","5171","2","8","Female","approach_avoid_spark_v1","""event"",""trial"",""time""
""fullscreenenter"",""1"",""3615""
","
","
","""event"",""trial"",""time""
""fullscreenenter"",""1"",""3615""
","
","","","","","","null","images/dog4.png","","","learning","-1","-5","","null","dog","pets","2","0","","neutral","0"
"html-keyboard-response","88","660029","0.0-9.0-2.0-0.8","5171","2","8","Female","approach_avoid_spark_v1","""event"",""trial"",""time""
""fullscreenenter"",""1"",""3615""
","
","
","""event"",""trial"",""time""
""fullscreenenter"",""1"",""3615""
","
","","","","","","null","<div style=""font-size:60px;"">+</div>","null","","fixation","","","","","","","","","","",""
"aa-learning-trial","89","663051","0.0-9.0-2.0-1.8","5171","2","8","Female","approach_avoid_spark_v1","""event"",""trial"",""time""
""fullscreenenter"",""1"",""3615""
","
","
","""event"",""trial"",""time""
""fullscreenenter"",""1"",""3615""
","
","","","","","","null","images/cat4.png","","","learning","-7","-5","","null","cat","pets","2","0","","good","[6]"
"html-keyboard-response","90","663556","0.0-9.0-2.0-0.9","5171","2","8","Female","approach_avoid_spark_v1","""event"",""trial"",""time""
""fullscreenenter"",""1"",""3615""
","
","
","""event"",""trial"",""time""
""fullscreenenter"",""1"",""3615""
","
","","","","","","null","<div style=""font-size:60px;"">+</div>","null","","fixation","","","","","","","","","","",""
"aa-learning-trial","91","666561","0.0-9.0-2.0-1.9","5171","2","8","Female","approach_avoid_spark_v1","""event"",""trial"",""time""
""fullscreenenter"",""1"",""3615""
","
","
","""event"",""trial"",""time""
""fullscreenenter"",""1"",""3615""
","
","","","","","","null","images/rodent8.png","","","learning","-3","-5","","null","rodent","pets","2","0","","bad","[-6]"
"html-keyboard-response","92","667068","0.0-9.0-2.0-0.10","5171","2","8","Female","approach_avoid_spark_v1","""event"",""trial"",""time""
""fullscreenenter"",""1"",""3615""
","
","
","""event"",""trial"",""time""
""fullscreenenter"",""1"",""3615""
","
","","","","","","null","<div style=""font-size:60px;"">+</div>","null","","fixation","","","","","","","","","","",""
"aa-learning-trial","93","670077","0.0-9.0-2.0-1.10","5171","2","8","Female","approach_avoid_spark_v1","""event"",""trial"",""time""
""fullscreenenter"",""1"",""3615""
","
","
","""event"",""trial"",""time""
""fullscreenenter"",""1"",""3615""
","
","","","","","","null","images/rodent6.png","","","learning","1","-5","","null","rodent","pets","2","0","","bad","[-6]"
"html-keyboard-response","94","670593","0.0-9.0-2.0-0.11","5171","2","8","Female","approach_avoid_spark_v1","""event"",""trial"",""time""
""fullscreenenter"",""1"",""3615""
","
","
","""event"",""trial"",""time""
""fullscreenenter"",""1"",""3615""
","
","","","","","","null","<div style=""font-size:60px;"">+</div>","null","","fixation","","","","","","","","","","",""
"aa-learning-trial","95","673605","0.0-9.0-2.0-1.11","5171","2","8","Female","approach_avoid_spark_v1","""event"",""trial"",""time""
""fullscreenenter"",""1"",""3615""
","
","
","""event"",""trial"",""time""
""fullscreenenter"",""1"",""3615""
","
","","","","","","null","images/cat8.png","","","learning","2","-5","","null","cat","pets","2","0","","good","[6]"
"html-keyboard-response","96","674112","0.0-9.0-2.0-0.12","5171","2","8","Female","approach_avoid_spark_v1","""event"",""trial"",""time""
""fullscreenenter"",""1"",""3615""
","
","
","""event"",""trial"",""time""
""fullscreenenter"",""1"",""3615""
","
","","","","","","null","<div style=""font-size:60px;"">+</div>","null","","fixation","","","","","","","","","","",""
"aa-learning-trial","97","677139","0.0-9.0-2.0-1.12","5171","2","8","Female","approach_avoid_spark_v1","""event"",""trial"",""time""
""fullscreenenter"",""1"",""3615""
","
","
","""event"",""trial"",""time""
""fullscreenenter"",""1"",""3615""
","
","","","","","","null","images/dog7.png","","","learning","5","-5","","null","dog","pets","2","0","","neutral","0"
"html-keyboard-response","98","677645","0.0-9.0-2.0-0.13","5171","2","8","Female","approach_avoid_spark_v1","""event"",""trial"",""time""
""fullscreenenter"",""1"",""3615""
","
","
","""event"",""trial"",""time""
""fullscreenenter"",""1"",""3615""
","
","","","","","","null","<div style=""font-size:60px;"">+</div>","null","","fixation","","","","","","","","","","",""
"aa-learning-trial","99","680653","0.0-9.0-2.0-1.13","5171","2","8","Female","approach_avoid_spark_v1","""event"",""trial"",""time""
""fullscreenenter"",""1"",""3615""
","
","
","""event"",""trial"",""time""
""fullscreenenter"",""1"",""3615""
","
","","","","","","null","images/dog4.png","","","learning","-1","-5","","null","dog","pets","2","0","","neutral","0"
"html-keyboard-response","100","681156","0.0-9.0-2.0-0.14","5171","2","8","Female","approach_avoid_spark_v1","""event"",""trial"",""time""
""fullscreenenter"",""1"",""3615""
","
","
","""event"",""trial"",""time""
""fullscreenenter"",""1"",""3615""
","
","","","","","","null","<div style=""font-size:60px;"">+</div>","null","","fixation","","","","","","","","","","",""
"aa-learning-trial","101","684172","0.0-9.0-2.0-1.14","5171","2","8","Female","approach_avoid_spark_v1","""event"",""trial"",""time""
""fullscreenenter"",""1"",""3615""
","
","
","""event"",""trial"",""time""
""fullscreenenter"",""1"",""3615""
","
","","","","","","null","images/rodent2.png","","","learning","8","-5","","null","rodent","pets","2","0","","bad","[-6]"
"html-keyboard-response","102","684676","0.0-9.0-2.0-0.15","5171","2","8","Female","approach_avoid_spark_v1","""event"",""trial"",""time""
""fullscreenenter"",""1"",""3615""
","
","
","""event"",""trial"",""time""
""fullscreenenter"",""1"",""3615""
","
","","","","","","null","<div style=""font-size:60px;"">+</div>","null","","fixation","","","","","","","","","","",""
"aa-learning-trial","103","687685","0.0-9.0-2.0-1.15","5171","2","8","Female","approach_avoid_spark_v1","""event"",""trial"",""time""
""fullscreenenter"",""1"",""3615""
","
","
","""event"",""trial"",""time""
""fullscreenenter"",""1"",""3615""
","
","","","","","","null","images/cat8.png","","","learning","2","-5","","null","cat","pets","2","0","","good","[6]"
"html-keyboard-response","104","688189","0.0-9.0-2.0-0.16","5171","2","8","Female","approach_avoid_spark_v1","""event"",""trial"",""time""
""fullscreenenter"",""1"",""3615""
","
","
","""event"",""trial"",""time""
""fullscreenenter"",""1"",""3615""
","
","","","","","","null","<div style=""font-size:60px;"">+</div>","null","","fixation","","","","","","","","","","",""
"aa-learning-trial","105","691198","0.0-9.0-2.0-1.16","5171","2","8","Female","approach_avoid_spark_v1","""event"",""trial"",""time""
""fullscreenenter"",""1"",""3615""
","
","
","""event"",""trial"",""time""
""fullscreenenter"",""1"",""3615""
","
","","","","","","null","images/rodent7.png","","","learning","-9","-5","","null","rodent","pets","2","0","","bad","[-6]"
"html-keyboard-response","106","691701","0.0-9.0-2.0-0.17","5171","2","8","Female","approach_avoid_spark_v1","""event"",""trial"",""time""
""fullscreenenter"",""1"",""3615""
","
","
","""event"",""trial"",""time""
""fullscreenenter"",""1"",""3615""
","
","","","","","","null","<div style=""font-size:60px;"">+</div>","null","","fixation","","","","","","","","","","",""
"aa-learning-trial","107","694709","0.0-9.0-2.0-1.17","5171","2","8","Female","approach_avoid_spark_v1","""event"",""trial"",""time""
""fullscreenenter"",""1"",""3615""
","
","
","""event"",""trial"",""time""
""fullscreenenter"",""1"",""3615""
","
","","","","","","null","images/dog7.png","","","learning","5","-5","","null","dog","pets","2","0","","neutral","0"
"html-keyboard-response","108","695213","0.0-9.0-2.0-0.18","5171","2","8","Female","approach_avoid_spark_v1","""event"",""trial"",""time""
""fullscreenenter"",""1"",""3615""
","
","
","""event"",""trial"",""time""
""fullscreenenter"",""1"",""3615""
","
","","","","","","null","<div style=""font-size:60px;"">+</div>","null","","fixation","","","","","","","","","","",""
"aa-learning-trial","109","698224","0.0-9.0-2.0-1.18","5171","2","8","Female","approach_avoid_spark_v1","""event"",""trial"",""time""
""fullscreenenter"",""1"",""3615""
","
","
","""event"",""trial"",""time""
""fullscreenenter"",""1"",""3615""
","
","","","","","","null","images/rodent6.png","","","learning","1","-5","","null","rodent","pets","2","0","","bad","[-6]"
"html-keyboard-response","110","698733","0.0-9.0-2.0-0.19","5171","2","8","Female","approach_avoid_spark_v1","""event"",""trial"",""time""
""fullscreenenter"",""1"",""3615""
","
","
","""event"",""trial"",""time""
""fullscreenenter"",""1"",""3615""
","
","","","","","","null","<div style=""font-size:60px;"">+</div>","null","","fixation","","","","","","","","","","",""
"aa-learning-trial","111","701740","0.0-9.0-2.0-1.19","5171","2","8","Female","approach_avoid_spark_v1","""event"",""trial"",""time""
""fullscreenenter"",""1"",""3615""
","
","
","""event"",""trial"",""time""
""fullscreenenter"",""1"",""3615""
","
","","","","","","null","images/dog7.png","","","learning","5","-5","","null","dog","pets","2","0","","neutral","0"
"html-keyboard-response","112","702245","0.0-9.0-2.0-0.20","5171","2","8","Female","approach_avoid_spark_v1","""event"",""trial"",""time""
""fullscreenenter"",""1"",""3615""
","
","
","""event"",""trial"",""time""
""fullscreenenter"",""1"",""3615""
","
","","","","","","null","<div style=""font-size:60px;"">+</div>","null","","fixation","","","","","","","","","","",""
"aa-learning-trial","113","705254","0.0-9.0-2.0-1.20","5171","2","8","Female","approach_avoid_spark_v1","""event"",""trial"",""time""
""fullscreenenter"",""1"",""3615""
","
","
","""event"",""trial"",""time""
""fullscreenenter"",""1"",""3615""
","
","","","","","","null","images/cat3.png","","","learning","9","-5","","null","cat","pets","2","0","","good","[6]"
"html-keyboard-response","114","705758","0.0-9.0-2.0-0.21","5171","2","8","Female","approach_avoid_spark_v1","""event"",""trial"",""time""
""fullscreenenter"",""1"",""3615""
","
","
","""event"",""trial"",""time""
""fullscreenenter"",""1"",""3615""
","
","","","","","","null","<div style=""font-size:60px;"">+</div>","null","","fixation","","","","","","","","","","",""
"aa-learning-trial","115","708765","0.0-9.0-2.0-1.21","5171","2","8","Female","approach_avoid_spark_v1","""event"",""trial"",""time""
""fullscreenenter"",""1"",""3615""
","
","
","""event"",""trial"",""time""
""fullscreenenter"",""1"",""3615""
","
","","","","","","null","images/dog7.png","","","learning","5","-5","","null","dog","pets","2","0","","neutral","0"
"html-keyboard-response","116","709269","0.0-9.0-2.0-0.22","5171","2","8","Female","approach_avoid_spark_v1","""event"",""trial"",""time""
""fullscreenenter"",""1"",""3615""
","
","
","""event"",""trial"",""time""
""fullscreenenter"",""1"",""3615""
","
","","","","","","null","<div style=""font-size:60px;"">+</div>","null","","fixation","","","","","","","","","","",""
"aa-learning-trial","117","712278","0.0-9.0-2.0-1.22","5171","2","8","Female","approach_avoid_spark_v1","""event"",""trial"",""time""
""fullscreenenter"",""1"",""3615""
","
","
","""event"",""trial"",""time""
""fullscreenenter"",""1"",""3615""
","
","","","","","","null","images/cat8.png","","","learning","2","-5","","null","cat","pets","2","0","","good","[6]"
"html-keyboard-response","118","712781","0.0-9.0-2.0-0.23","5171","2","8","Female","approach_avoid_spark_v1","""event"",""trial"",""time""
""fullscreenenter"",""1"",""3615""
","
","
","""event"",""trial"",""time""
""fullscreenenter"",""1"",""3615""
","
","","","","","","null","<div style=""font-size:60px;"">+</div>","null","","fixation","","","","","","","","","","",""
"aa-learning-trial","119","715792","0.0-9.0-2.0-1.23","5171","2","8","Female","approach_avoid_spark_v1","""event"",""trial"",""time""
""fullscreenenter"",""1"",""3615""
","
","
","""event"",""trial"",""time""
""fullscreenenter"",""1"",""3615""
","
","","","","","","null","images/rodent1.png","","","learning","3","-5","","null","rodent","pets","2","0","","bad","[-6]"
"html-keyboard-response","120","716302","0.0-9.0-2.0-0.24","5171","2","8","Female","approach_avoid_spark_v1","""event"",""trial"",""time""
""fullscreenenter"",""1"",""3615""
","
","
","""event"",""trial"",""time""
""fullscreenenter"",""1"",""3615""
","
","","","","","","null","<div style=""font-size:60px;"">+</div>","null","","fixation","","","","","","","","","","",""
"aa-learning-trial","121","719309","0.0-9.0-2.0-1.24","5171","2","8","Female","approach_avoid_spark_v1","""event"",""trial"",""time""
""fullscreenenter"",""1"",""3615""
","
","
","""event"",""trial"",""time""
""fullscreenenter"",""1"",""3615""
","
","","","","","","null","images/dog4.png","","","learning","-1","-5","","null","dog","pets","2","0","","neutral","0"
"html-keyboard-response","122","719813","0.0-9.0-2.0-0.25","5171","2","8","Female","approach_avoid_spark_v1","""event"",""trial"",""time""
""fullscreenenter"",""1"",""3615""
","
","
","""event"",""trial"",""time""
""fullscreenenter"",""1"",""3615""
","
","","","","","","null","<div style=""font-size:60px;"">+</div>","null","","fixation","","","","","","","","","","",""
"aa-learning-trial","123","722824","0.0-9.0-2.0-1.25","5171","2","8","Female","approach_avoid_spark_v1","""event"",""trial"",""time""
""fullscreenenter"",""1"",""3615""
","
","
","""event"",""trial"",""time""
""fullscreenenter"",""1"",""3615""
","
","","","","","","null","images/rodent2.png","","","learning","8","-5","","null","rodent","pets","2","0","","bad","[-6]"
"html-keyboard-response","124","723332","0.0-9.0-2.0-0.26","5171","2","8","Female","approach_avoid_spark_v1","""event"",""trial"",""time""
""fullscreenenter"",""1"",""3615""
","
","
","""event"",""trial"",""time""
""fullscreenenter"",""1"",""3615""
","
","","","","","","null","<div style=""font-size:60px;"">+</div>","null","","fixation","","","","","","","","","","",""
"aa-learning-trial","125","726340","0.0-9.0-2.0-1.26","5171","2","8","Female","approach_avoid_spark_v1","""event"",""trial"",""time""
""fullscreenenter"",""1"",""3615""
","
","
","""event"",""trial"",""time""
""fullscreenenter"",""1"",""3615""
","
","","","","","","null","images/dog5.png","","","learning","-6","-5","","null","dog","pets","2","0","","neutral","0"
"html-keyboard-response","126","726845","0.0-9.0-2.0-0.27","5171","2","8","Female","approach_avoid_spark_v1","""event"",""trial"",""time""
""fullscreenenter"",""1"",""3615""
","
","
","""event"",""trial"",""time""
""fullscreenenter"",""1"",""3615""
","
","","","","","","null","<div style=""font-size:60px;"">+</div>","null","","fixation","","","","","","","","","","",""
"aa-learning-trial","127","729853","0.0-9.0-2.0-1.27","5171","2","8","Female","approach_avoid_spark_v1","""event"",""trial"",""time""
""fullscreenenter"",""1"",""3615""
","
","
","""event"",""trial"",""time""
""fullscreenenter"",""1"",""3615""
","
","","","","","","null","images/rodent2.png","","","learning","8","-5","","null","rodent","pets","2","0","","bad","[-6]"
"html-keyboard-response","128","730357","0.0-9.0-2.0-0.28","5171","2","8","Female","approach_avoid_spark_v1","""event"",""trial"",""time""
""fullscreenenter"",""1"",""3615""
","
","
","""event"",""trial"",""time""
""fullscreenenter"",""1"",""3615""
","
","","","","","","null","<div style=""font-size:60px;"">+</div>","null","","fixation","","","","","","","","","","",""
"aa-learning-trial","129","733370","0.0-9.0-2.0-1.28","5171","2","8","Female","approach_avoid_spark_v1","""event"",""trial"",""time""
""fullscreenenter"",""1"",""3615""
","
","
","""event"",""trial"",""time""
""fullscreenenter"",""1"",""3615""
","
","","","","","","null","images/dog7.png","","","learning","5","-5","","null","dog","pets","2","0","","neutral","0"
"html-keyboard-response","130","733877","0.0-9.0-2.0-0.29","5171","2","8","Female","approach_avoid_spark_v1","""event"",""trial"",""time""
""fullscreenenter"",""1"",""3615""
","
","
","""event"",""trial"",""time""
""fullscreenenter"",""1"",""3615""
","
","","","","","","null","<div style=""font-size:60px;"">+</div>","null","","fixation","","","","","","","","","","",""
"aa-learning-trial","131","736884","0.0-9.0-2.0-1.29","5171","2","8","Female","approach_avoid_spark_v1","""event"",""trial"",""time""
""fullscreenenter"",""1"",""3615""
","
","
","""event"",""trial"",""time""
""fullscreenenter"",""1"",""3615""
","
","","","","","","null","images/dog4.png","","","learning","-1","-5","","null","dog","pets","2","0","","neutral","0"
"html-keyboard-response","132","737388","0.0-9.0-2.0-0.30","5171","2","8","Female","approach_avoid_spark_v1","""event"",""trial"",""time""
""fullscreenenter"",""1"",""3615""
","
","
","""event"",""trial"",""time""
""fullscreenenter"",""1"",""3615""
","
","","","","","","null","<div style=""font-size:60px;"">+</div>","null","","fixation","","","","","","","","","","",""
"aa-learning-trial","133","740398","0.0-9.0-2.0-1.30","5171","2","8","Female","approach_avoid_spark_v1","""event"",""trial"",""time""
""fullscreenenter"",""1"",""3615""
","
","
","""event"",""trial"",""time""
""fullscreenenter"",""1"",""3615""
","
","","","","","","null","images/rodent6.png","","","learning","1","-5","","null","rodent","pets","2","0","","bad","[-6]"
"html-keyboard-response","134","740900","0.0-9.0-2.0-0.31","5171","2","8","Female","approach_avoid_spark_v1","""event"",""trial"",""time""
""fullscreenenter"",""1"",""3615""
","
","
","""event"",""trial"",""time""
""fullscreenenter"",""1"",""3615""
","
","","","","","","null","<div style=""font-size:60px;"">+</div>","null","","fixation","","","","","","","","","","",""
"aa-learning-trial","135","743909","0.0-9.0-2.0-1.31","5171","2","8","Female","approach_avoid_spark_v1","""event"",""trial"",""time""
""fullscreenenter"",""1"",""3615""
","
","
","""event"",""trial"",""time""
""fullscreenenter"",""1"",""3615""
","
","","","","","","null","images/dog4.png","","","learning","-1","-5","","null","dog","pets","2","0","","neutral","0"
"html-keyboard-response","136","744412","0.0-9.0-2.0-0.32","5171","2","8","Female","approach_avoid_spark_v1","""event"",""trial"",""time""
""fullscreenenter"",""1"",""3615""
","
","
","""event"",""trial"",""time""
""fullscreenenter"",""1"",""3615""
","
","","","","","","null","<div style=""font-size:60px;"">+</div>","null","","fixation","","","","","","","","","","",""
"aa-learning-trial","137","747421","0.0-9.0-2.0-1.32","5171","2","8","Female","approach_avoid_spark_v1","""event"",""trial"",""time""
""fullscreenenter"",""1"",""3615""
","
","
","""event"",""trial"",""time""
""fullscreenenter"",""1"",""3615""
","
","","","","","","null","images/dog1.png","","","learning","-5","-5","","null","dog","pets","2","0","","neutral","0"
"html-keyboard-response","138","747924","0.0-9.0-2.0-0.33","5171","2","8","Female","approach_avoid_spark_v1","""event"",""trial"",""time""
""fullscreenenter"",""1"",""3615""
","
","
","""event"",""trial"",""time""
""fullscreenenter"",""1"",""3615""
","
","","","","","","null","<div style=""font-size:60px;"">+</div>","null","","fixation","","","","","","","","","","",""
"aa-learning-trial","139","750932","0.0-9.0-2.0-1.33","5171","2","8","Female","approach_avoid_spark_v1","""event"",""trial"",""time""
""fullscreenenter"",""1"",""3615""
","
","
","""event"",""trial"",""time""
""fullscreenenter"",""1"",""3615""
","
","","","","","","null","images/dog3.png","","","learning","6","-5","","null","dog","pets","2","0","","neutral","0"
"html-keyboard-response","140","751436","0.0-9.0-2.0-0.34","5171","2","8","Female","approach_avoid_spark_v1","""event"",""trial"",""time""
""fullscreenenter"",""1"",""3615""
","
","
","""event"",""trial"",""time""
""fullscreenenter"",""1"",""3615""
","
","","","","","","null","<div style=""font-size:60px;"">+</div>","null","","fixation","","","","","","","","","","",""
"aa-learning-trial","141","754444","0.0-9.0-2.0-1.34","5171","2","8","Female","approach_avoid_spark_v1","""event"",""trial"",""time""
""fullscreenenter"",""1"",""3615""
","
","
","""event"",""trial"",""time""
""fullscreenenter"",""1"",""3615""
","
","","","","","","null","images/dog4.png","","","learning","-1","-5","","null","dog","pets","2","0","","neutral","0"
"html-keyboard-response","142","754950","0.0-9.0-2.0-0.35","5171","2","8","Female","approach_avoid_spark_v1","""event"",""trial"",""time""
""fullscreenenter"",""1"",""3615""
","
","
","""event"",""trial"",""time""
""fullscreenenter"",""1"",""3615""
","
","","","","","","null","<div style=""font-size:60px;"">+</div>","null","","fixation","","","","","","","","","","",""
"aa-learning-trial","143","757957","0.0-9.0-2.0-1.35","5171","2","8","Female","approach_avoid_spark_v1","""event"",""trial"",""time""
""fullscreenenter"",""1"",""3615""
","
","
","""event"",""trial"",""time""
""fullscreenenter"",""1"",""3615""
","
","","","","","","null","images/rodent2.png","","","learning","8","-5","","null","rodent","pets","2","0","","bad","[-6]"
"html-keyboard-response","144","758465","0.0-9.0-2.0-0.36","5171","2","8","Female","approach_avoid_spark_v1","""event"",""trial"",""time""
""fullscreenenter"",""1"",""3615""
","
","
","""event"",""trial"",""time""
""fullscreenenter"",""1"",""3615""
","
","","","","","","null","<div style=""font-size:60px;"">+</div>","null","","fixation","","","","","","","","","","",""
"aa-learning-trial","145","761477","0.0-9.0-2.0-1.36","5171","2","8","Female","approach_avoid_spark_v1","""event"",""trial"",""time""
""fullscreenenter"",""1"",""3615""
","
","
","""event"",""trial"",""time""
""fullscreenenter"",""1"",""3615""
","
","","","","","","null","images/rodent6.png","","","learning","1","-5","","null","rodent","pets","2","0","","bad","[-6]"
"html-keyboard-response","146","761987","0.0-9.0-2.0-0.37","5171","2","8","Female","approach_avoid_spark_v1","""event"",""trial"",""time""
""fullscreenenter"",""1"",""3615""
","
","
","""event"",""trial"",""time""
""fullscreenenter"",""1"",""3615""
","
","","","","","","null","<div style=""font-size:60px;"">+</div>","null","","fixation","","","","","","","","","","",""
"aa-learning-trial","147","764997","0.0-9.0-2.0-1.37","5171","2","8","Female","approach_avoid_spark_v1","""event"",""trial"",""time""
""fullscreenenter"",""1"",""3615""
","
","
","""event"",""trial"",""time""
""fullscreenenter"",""1"",""3615""
","
","","","","","","null","images/cat1.png","","","learning","-4","-5","","null","cat","pets","2","0","","good","[6]"
"html-keyboard-response","148","765500","0.0-9.0-2.0-0.38","5171","2","8","Female","approach_avoid_spark_v1","""event"",""trial"",""time""
""fullscreenenter"",""1"",""3615""
","
","
","""event"",""trial"",""time""
""fullscreenenter"",""1"",""3615""
","
","","","","","","null","<div style=""font-size:60px;"">+</div>","null","","fixation","","","","","","","","","","",""
"aa-learning-trial","149","768508","0.0-9.0-2.0-1.38","5171","2","8","Female","approach_avoid_spark_v1","""event"",""trial"",""time""
""fullscreenenter"",""1"",""3615""
","
","
","""event"",""trial"",""time""
""fullscreenenter"",""1"",""3615""
","
","","","","","","null","images/cat4.png","","","learning","-7","-5","","null","cat","pets","2","0","","good","[6]"
"html-keyboard-response","150","769013","0.0-9.0-2.0-0.39","5171","2","8","Female","approach_avoid_spark_v1","""event"",""trial"",""time""
""fullscreenenter"",""1"",""3615""
","
","
","""event"",""trial"",""time""
""fullscreenenter"",""1"",""3615""
","
","","","","","","null","<div style=""font-size:60px;"">+</div>","null","","fixation","","","","","","","","","","",""
"aa-learning-trial","151","772021","0.0-9.0-2.0-1.39","5171","2","8","Female","approach_avoid_spark_v1","""event"",""trial"",""time""
""fullscreenenter"",""1"",""3615""
","
","
","""event"",""trial"",""time""
""fullscreenenter"",""1"",""3615""
","
","","","","","","null","images/rodent6.png","","","learning","1","-5","","null","rodent","pets","2","0","","bad","[-6]"
"html-keyboard-response","152","772523","0.0-9.0-2.0-0.40","5171","2","8","Female","approach_avoid_spark_v1","""event"",""trial"",""time""
""fullscreenenter"",""1"",""3615""
","
","
","""event"",""trial"",""time""
""fullscreenenter"",""1"",""3615""
","
","","","","","","null","<div style=""font-size:60px;"">+</div>","null","","fixation","","","","","","","","","","",""
"aa-learning-trial","153","775533","0.0-9.0-2.0-1.40","5171","2","8","Female","approach_avoid_spark_v1","""event"",""trial"",""time""
""fullscreenenter"",""1"",""3615""
","
","
","""event"",""trial"",""time""
""fullscreenenter"",""1"",""3615""
","
","","","","","","null","images/cat5.png","","","learning","4","-5","","null","cat","pets","2","0","","good","[6]"
"html-keyboard-response","154","776037","0.0-9.0-2.0-0.41","5171","2","8","Female","approach_avoid_spark_v1","""event"",""trial"",""time""
""fullscreenenter"",""1"",""3615""
","
","
","""event"",""trial"",""time""
""fullscreenenter"",""1"",""3615""
","
","","","","","","null","<div style=""font-size:60px;"">+</div>","null","","fixation","","","","","","","","","","",""
"aa-learning-trial","155","779045","0.0-9.0-2.0-1.41","5171","2","8","Female","approach_avoid_spark_v1","""event"",""trial"",""time""
""fullscreenenter"",""1"",""3615""
","
","
","""event"",""trial"",""time""
""fullscreenenter"",""1"",""3615""
","
","","","","","","null","images/cat8.png","","","learning","2","-5","","null","cat","pets","2","0","","good","[6]"
"html-keyboard-response","156","779549","0.0-9.0-2.0-0.42","5171","2","8","Female","approach_avoid_spark_v1","""event"",""trial"",""time""
""fullscreenenter"",""1"",""3615""
","
","
","""event"",""trial"",""time""
""fullscreenenter"",""1"",""3615""
","
","","","","","","null","<div style=""font-size:60px;"">+</div>","null","","fixation","","","","","","","","","","",""
"aa-learning-trial","157","782556","0.0-9.0-2.0-1.42","5171","2","8","Female","approach_avoid_spark_v1","""event"",""trial"",""time""
""fullscreenenter"",""1"",""3615""
","
","
","""event"",""trial"",""time""
""fullscreenenter"",""1"",""3615""
","
","","","","","","null","images/cat5.png","","","learning","4","-5","","null","cat","pets","2","0","","good","[6]"
"html-keyboard-response","158","783062","0.0-9.0-2.0-0.43","5171","2","8","Female","approach_avoid_spark_v1","""event"",""trial"",""time""
""fullscreenenter"",""1"",""3615""
","
","
","""event"",""trial"",""time""
""fullscreenenter"",""1"",""3615""
","
","","","","","","null","<div style=""font-size:60px;"">+</div>","null","","fixation","","","","","","","","","","",""
"aa-learning-trial","159","786068","0.0-9.0-2.0-1.43","5171","2","8","Female","approach_avoid_spark_v1","""event"",""trial"",""time""
""fullscreenenter"",""1"",""3615""
","
","
","""event"",""trial"",""time""
""fullscreenenter"",""1"",""3615""
","
","","","","","","null","images/rodent8.png","","","learning","-3","-5","","null","rodent","pets","2","0","","bad","[-6]"
"html-keyboard-response","160","786574","0.0-9.0-2.0-0.44","5171","2","8","Female","approach_avoid_spark_v1","""event"",""trial"",""time""
""fullscreenenter"",""1"",""3615""
","
","
","""event"",""trial"",""time""
""fullscreenenter"",""1"",""3615""
","
","","","","","","null","<div style=""font-size:60px;"">+</div>","null","","fixation","","","","","","","","","","",""
"aa-learning-trial","161","789580","0.0-9.0-2.0-1.44","5171","2","8","Female","approach_avoid_spark_v1","""event"",""trial"",""time""
""fullscreenenter"",""1"",""3615""
","
","
","""event"",""trial"",""time""
""fullscreenenter"",""1"",""3615""
","
","","","","","","null","images/dog3.png","","","learning","6","-5","","null","dog","pets","2","0","","neutral","0"
"html-keyboard-response","162","790085","0.0-9.0-2.0-0.45","5171","2","8","Female","approach_avoid_spark_v1","""event"",""trial"",""time""
""fullscreenenter"",""1"",""3615""
","
","
","""event"",""trial"",""time""
""fullscreenenter"",""1"",""3615""
","
","","","","","","null","<div style=""font-size:60px;"">+</div>","null","","fixation","","","","","","","","","","",""
"aa-learning-trial","163","793093","0.0-9.0-2.0-1.45","5171","2","8","Female","approach_avoid_spark_v1","""event"",""trial"",""time""
""fullscreenenter"",""1"",""3615""
","
","
","""event"",""trial"",""time""
""fullscreenenter"",""1"",""3615""
","
","","","","","","null","images/rodent8.png","","","learning","-3","-5","","null","rodent","pets","2","0","","bad","[-6]"
"html-keyboard-response","164","793597","0.0-9.0-2.0-0.46","5171","2","8","Female","approach_avoid_spark_v1","""event"",""trial"",""time""
""fullscreenenter"",""1"",""3615""
","
","
","""event"",""trial"",""time""
""fullscreenenter"",""1"",""3615""
","
","","","","","","null","<div style=""font-size:60px;"">+</div>","null","","fixation","","","","","","","","","","",""
"aa-learning-trial","165","796614","0.0-9.0-2.0-1.46","5171","2","8","Female","approach_avoid_spark_v1","""event"",""trial"",""time""
""fullscreenenter"",""1"",""3615""
","
","
","""event"",""trial"",""time""
""fullscreenenter"",""1"",""3615""
","
","","","","","","null","images/cat4.png","","","learning","-7","-5","","null","cat","pets","2","0","","good","[6]"
"html-keyboard-response","166","797116","0.0-9.0-2.0-0.47","5171","2","8","Female","approach_avoid_spark_v1","""event"",""trial"",""time""
""fullscreenenter"",""1"",""3615""
","
","
","""event"",""trial"",""time""
""fullscreenenter"",""1"",""3615""
","
","","","","","","null","<div style=""font-size:60px;"">+</div>","null","","fixation","","","","","","","","","","",""
"aa-learning-trial","167","800124","0.0-9.0-2.0-1.47","5171","2","8","Female","approach_avoid_spark_v1","""event"",""trial"",""time""
""fullscreenenter"",""1"",""3615""
","
","
","""event"",""trial"",""time""
""fullscreenenter"",""1"",""3615""
","
","","","","","","null","images/rodent2.png","","","learning","8","-5","","null","rodent","pets","2","0","","bad","[-6]"
"html-keyboard-response","168","800641","0.0-9.0-2.0-0.48","5171","2","8","Female","approach_avoid_spark_v1","""event"",""trial"",""time""
""fullscreenenter"",""1"",""3615""
","
","
","""event"",""trial"",""time""
""fullscreenenter"",""1"",""3615""
","
","","","","","","null","<div style=""font-size:60px;"">+</div>","null","","fixation","","","","","","","","","","",""
"aa-learning-trial","169","803653","0.0-9.0-2.0-1.48","5171","2","8","Female","approach_avoid_spark_v1","""event"",""trial"",""time""
""fullscreenenter"",""1"",""3615""
","
","
","""event"",""trial"",""time""
""fullscreenenter"",""1"",""3615""
","
","","","","","","null","images/cat8.png","","","learning","2","-5","","null","cat","pets","2","0","","good","[6]"
"html-keyboard-response","170","804158","0.0-9.0-2.0-0.49","5171","2","8","Female","approach_avoid_spark_v1","""event"",""trial"",""time""
""fullscreenenter"",""1"",""3615""
","
","
","""event"",""trial"",""time""
""fullscreenenter"",""1"",""3615""
","
","","","","","","null","<div style=""font-size:60px;"">+</div>","null","","fixation","","","","","","","","","","",""
"aa-learning-trial","171","807165","0.0-9.0-2.0-1.49","5171","2","8","Female","approach_avoid_spark_v1","""event"",""trial"",""time""
""fullscreenenter"",""1"",""3615""
","
","
","""event"",""trial"",""time""
""fullscreenenter"",""1"",""3615""
","
","","","","","","null","images/cat4.png","","","learning","-7","-5","","null","cat","pets","2","0","","good","[6]"
"html-keyboard-response","172","807683","0.0-9.0-2.0-0.50","5171","2","8","Female","approach_avoid_spark_v1","""event"",""trial"",""time""
""fullscreenenter"",""1"",""3615""
","
","
","""event"",""trial"",""time""
""fullscreenenter"",""1"",""3615""
","
","","","","","","null","<div style=""font-size:60px;"">+</div>","null","","fixation","","","","","","","","","","",""
"aa-learning-trial","173","810694","0.0-9.0-2.0-1.50","5171","2","8","Female","approach_avoid_spark_v1","""event"",""trial"",""time""
""fullscreenenter"",""1"",""3615""
","
","
","""event"",""trial"",""time""
""fullscreenenter"",""1"",""3615""
","
","","","","","","null","images/cat4.png","","","learning","-7","-5","","null","cat","pets","2","0","","good","[6]"
"html-button-response","174","822164","0.0-9.0-3.0","5171","2","8","Female","approach_avoid_spark_v1","""event"",""trial"",""time""
""fullscreenenter"",""1"",""3615""
","
","
","""event"",""trial"",""time""
""fullscreenenter"",""1"",""3615""
","
","","","","","","11467.70000000298","<p> You have completed the round! <p> In this round, you earned -255 points! </p>","0","","break","","","","","","","","","","",""
"html-button-response","175","828972","0.0-10.0","5171","2","8","Female","approach_avoid_spark_v1","""event"",""trial"",""time""
""fullscreenenter"",""1"",""3615""
","
","
","""event"",""trial"",""time""
""fullscreenenter"",""1"",""3615""
","
","","","","","","6806.5999999940395","<p> Now it's time to play another round. </p>","0","","transition_screen","","","","","","","","","","",""
"preload","176","829097","0.0-11.0-0.0","5171","2","8","Female","approach_avoid_spark_v1","""event"",""trial"",""time""
""fullscreenenter"",""1"",""3615""
","
","
","""event"",""trial"",""time""
""fullscreenenter"",""1"",""3615""
","
","true","false","[]","[]","[]","","","","","","","","","","","","","","","",""
"learning-instructions","177","837244","0.0-11.0-1.0-0.0","5171","2","8","Female","approach_avoid_spark_v1","""event"",""trial"",""time""
""fullscreenenter"",""1"",""3615""
","
","
","""event"",""trial"",""time""
""fullscreenenter"",""1"",""3615""
","
","","","","","","2531.3999999910593","<p> Your goal in this round is to sell different plants to a picky customer. </p></div>","","0","instructions","","","","","","","","","","",""
"learning-instructions","178","848236","0.0-11.0-1.0-0.1","5171","2","8","Female","approach_avoid_spark_v1","""event"",""trial"",""time""
""fullscreenenter"",""1"",""3615""
","
","
","""event"",""trial"",""time""
""fullscreenenter"",""1"",""3615""
","
","","","","","","1743.7000000029802","<p> The customer likes some plants and dislikes others.  </p><p> On each turn, you will see a plant.   </p><p> You need to decide whether to offer it to the customer or not.  </p>","","0","instructions","","","","","","","","","","",""
"learning-instructions","179","854728","0.0-11.0-1.0-0.2","5171","2","8","Female","approach_avoid_spark_v1","""event"",""trial"",""time""
""fullscreenenter"",""1"",""3615""
","
","
","""event"",""trial"",""time""
""fullscreenenter"",""1"",""3615""
","
","","","","","","995.4000000059605","<p> You can offer the plant by pressing 1 and decide to not offer it by pressing 0. </p><br><div class=""choice-instructions-grid""> <div class=""choice-option""><img src=""images/approach.png"" class=""choice-option-img"" stage=""instructions"" position=""0"" ><div class=""choice-option-text""> Press ""1."" </div></div><div class=""choice-option""><img src=""images/avoid.png"" class=""choice-option-img"" stage=""instructions"" position=""1"" ><div class=""choice-option-text""> Press ""0."" </div></div>","","0","instructions","","","","","","","","","","",""
"learning-instructions","180","867740","0.0-11.0-1.0-0.3","5171","2","8","Female","approach_avoid_spark_v1","""event"",""trial"",""time""
""fullscreenenter"",""1"",""3615""
","
","
","""event"",""trial"",""time""
""fullscreenenter"",""1"",""3615""
","
","","","","","","2477.2000000029802","<p> If you offer a plant to the customer that she likes, she will be very pleased! </p><p> But if you offer a plant that she does NOT like, she will be annoyed. </p>","","0","instructions","","","","","","","","","","",""
"learning-instructions","181","882884","0.0-11.0-1.0-0.4","5171","2","8","Female","approach_avoid_spark_v1","""event"",""trial"",""time""
""fullscreenenter"",""1"",""3615""
","
","
","""event"",""trial"",""time""
""fullscreenenter"",""1"",""3615""
","
","","","","","","1352.3999999910593","<p> You will earn points based on how you made the customer feel. </p><p> If you made her pleased, you will WIN anywhere from 1 - 9 points, </p><p> but if you made her annoyed, you will LOSE anywhere from 1 - 9 points. </p>","","0","instructions","","","","","","","","","","",""
"learning-instructions","182","891652","0.0-11.0-1.0-0.5","5171","2","8","Female","approach_avoid_spark_v1","""event"",""trial"",""time""
""fullscreenenter"",""1"",""3615""
","
","
","""event"",""trial"",""time""
""fullscreenenter"",""1"",""3615""
","
","","","","","","2109.9000000059605","<p> You will see how many points you won or lost in the center of the screen. </p><p> Here is what you would see if you won 5 points: </p><p style=""color:green;font-size:50px;font-weight:bolder"">5</p>","","0","instructions","","","","","","","","","","",""
"learning-instructions","183","895540","0.0-11.0-1.0-0.6","5171","2","8","Female","approach_avoid_spark_v1","""event"",""trial"",""time""
""fullscreenenter"",""1"",""3615""
","
","
","""event"",""trial"",""time""
""fullscreenenter"",""1"",""3615""
","
","","","","","","1037.4000000059605","<p> And here is what you would see if you lost 3 points: </p><p style=""color:red;font-size:50px;font-weight:bolder"">-3</p>","","0","instructions","","","","","","","","","","",""
"learning-instructions","184","913444","0.0-11.0-1.0-0.7","5171","2","8","Female","approach_avoid_spark_v1","""event"",""trial"",""time""
""fullscreenenter"",""1"",""3615""
","
","
","""event"",""trial"",""time""
""fullscreenenter"",""1"",""3615""
","
","","","","","","2192.2999999970198","<p> Some plants will make the customer VERY pleased or annoyed. </p><p> These plants will make you win or lose LOTS of points. </p><p> The customer will have less strong feelings about other plants. </p><p> These plants will make you win or lose small amounts of points. </p>","","0","instructions","","","","","","","","","","",""
"learning-instructions","185","927508","0.0-11.0-1.0-0.8","5171","2","8","Female","approach_avoid_spark_v1","""event"",""trial"",""time""
""fullscreenenter"",""1"",""3615""
","
","
","""event"",""trial"",""time""
""fullscreenenter"",""1"",""3615""
","
","","","","","","916.2000000029802","<p> If you choose to not offer the plant to the customer, you will not win or lose any points. </p><p>  However, in the center of the screen, you will see the number of points you WOULD HAVE won or lost if you had offered the plant. </p>","","0","instructions","","","","","","","","","","",""
"learning-instructions","186","939964","0.0-11.0-1.0-0.9","5171","2","8","Female","approach_avoid_spark_v1","""event"",""trial"",""time""
""fullscreenenter"",""1"",""3615""
","
","
","""event"",""trial"",""time""
""fullscreenenter"",""1"",""3615""
","
","","","","","","912.1000000089407","<p> Here is what you might see if you did not offer the plant but the customer would have liked it: </p><p style=""color:grey; font-size:50px; display: inline-block; border-spacing: 15px; border-width:3px; border-style:solid; border-color:red"">  &nbsp; 6 &nbsp; </p><p> Remember, in this case, you would not win or lose ANY points because you did not offer the plant.  </p>","","0","instructions","","","","","","","","","","",""
"learning-instructions","187","949285","0.0-11.0-1.0-0.10","5171","2","8","Female","approach_avoid_spark_v1","""event"",""trial"",""time""
""fullscreenenter"",""1"",""3615""
","
","
","""event"",""trial"",""time""
""fullscreenenter"",""1"",""3615""
","
","","","","","","1632.2999999970198","<p> Try to make the best choice for each plant because </p><p> at the end of the game, you will earn bonus money based on how many points you earned. </p>","","0","instructions","","","","","","","","","","",""
"learning-instructions","188","958437","0.0-11.0-1.0-0.11","5171","2","8","Female","approach_avoid_spark_v1","""event"",""trial"",""time""
""fullscreenenter"",""1"",""3615""
","
","
","""event"",""trial"",""time""
""fullscreenenter"",""1"",""3615""
","
","","","","","","944.3000000119209","<p> You will have 3 seconds to make each choice. Try to respond before time runs out! </p><p> You will lose 5 points each time you do not make a response. </p>","","0","instructions","","","","","","","","","","",""
"html-keyboard-response","189","959062","0.0-11.0-2.0-0.0","5171","2","8","Female","approach_avoid_spark_v1","""event"",""trial"",""time""
""fullscreenenter"",""1"",""3615""
","
","
","""event"",""trial"",""time""
""fullscreenenter"",""1"",""3615""
","
","","","","","","null","<div style=""font-size:60px;"">+</div>","null","","fixation","","","","","","","","","","",""
"aa-learning-trial","190","962075","0.0-11.0-2.0-1.0","5171","2","8","Female","approach_avoid_spark_v1","""event"",""trial"",""time""
""fullscreenenter"",""1"",""3615""
","
","
","""event"",""trial"",""time""
""fullscreenenter"",""1"",""3615""
","
","","","","","","null","images/tree8.png","","","learning","[1]","-5","","null","tree","plants","1","1","","neutral","0"
"html-keyboard-response","191","962577","0.0-11.0-2.0-0.1","5171","2","8","Female","approach_avoid_spark_v1","""event"",""trial"",""time""
""fullscreenenter"",""1"",""3615""
","
","
","""event"",""trial"",""time""
""fullscreenenter"",""1"",""3615""
","
","","","","","","null","<div style=""font-size:60px;"">+</div>","null","","fixation","","","","","","","","","","",""
"aa-learning-trial","192","965584","0.0-11.0-2.0-1.1","5171","2","8","Female","approach_avoid_spark_v1","""event"",""trial"",""time""
""fullscreenenter"",""1"",""3615""
","
","
","""event"",""trial"",""time""
""fullscreenenter"",""1"",""3615""
","
","","","","","","null","images/cactus8.png","","","learning","-5","-5","","null","cactus","plants","1","1","","bad","[-4]"
"html-keyboard-response","193","966100","0.0-11.0-2.0-0.2","5171","2","8","Female","approach_avoid_spark_v1","""event"",""trial"",""time""
""fullscreenenter"",""1"",""3615""
","
","
","""event"",""trial"",""time""
""fullscreenenter"",""1"",""3615""
","
","","","","","","null","<div style=""font-size:60px;"">+</div>","null","","fixation","","","","","","","","","","",""
"aa-learning-trial","194","969114","0.0-11.0-2.0-1.2","5171","2","8","Female","approach_avoid_spark_v1","""event"",""trial"",""time""
""fullscreenenter"",""1"",""3615""
","
","
","""event"",""trial"",""time""
""fullscreenenter"",""1"",""3615""
","
","","","","","","null","images/flower1.png","","","learning","7","-5","","null","flower","plants","1","1","","good","[6]"
"html-keyboard-response","195","969628","0.0-11.0-2.0-0.3","5171","2","8","Female","approach_avoid_spark_v1","""event"",""trial"",""time""
""fullscreenenter"",""1"",""3615""
","
","
","""event"",""trial"",""time""
""fullscreenenter"",""1"",""3615""
","
","","","","","","null","<div style=""font-size:60px;"">+</div>","null","","fixation","","","","","","","","","","",""
"aa-learning-trial","196","972637","0.0-11.0-2.0-1.3","5171","2","8","Female","approach_avoid_spark_v1","""event"",""trial"",""time""
""fullscreenenter"",""1"",""3615""
","
","
","""event"",""trial"",""time""
""fullscreenenter"",""1"",""3615""
","
","","","","","","null","images/tree1.png","","","learning","3","-5","","null","tree","plants","1","1","","neutral","0"
"html-keyboard-response","197","973142","0.0-11.0-2.0-0.4","5171","2","8","Female","approach_avoid_spark_v1","""event"",""trial"",""time""
""fullscreenenter"",""1"",""3615""
","
","
","""event"",""trial"",""time""
""fullscreenenter"",""1"",""3615""
","
","","","","","","null","<div style=""font-size:60px;"">+</div>","null","","fixation","","","","","","","","","","",""
"aa-learning-trial","198","976160","0.0-11.0-2.0-1.4","5171","2","8","Female","approach_avoid_spark_v1","""event"",""trial"",""time""
""fullscreenenter"",""1"",""3615""
","
","
","""event"",""trial"",""time""
""fullscreenenter"",""1"",""3615""
","
","","","","","","null","images/flower5.png","","","learning","7","-5","","null","flower","plants","1","1","","good","[6]"
"html-keyboard-response","199","976664","0.0-11.0-2.0-0.5","5171","2","8","Female","approach_avoid_spark_v1","""event"",""trial"",""time""
""fullscreenenter"",""1"",""3615""
","
","
","""event"",""trial"",""time""
""fullscreenenter"",""1"",""3615""
","
","","","","","","null","<div style=""font-size:60px;"">+</div>","null","","fixation","","","","","","","","","","",""
"aa-learning-trial","200","979676","0.0-11.0-2.0-1.5","5171","2","8","Female","approach_avoid_spark_v1","""event"",""trial"",""time""
""fullscreenenter"",""1"",""3615""
","
","
","""event"",""trial"",""time""
""fullscreenenter"",""1"",""3615""
","
","","","","","","null","images/cactus1.png","","","learning","-2","-5","","null","cactus","plants","1","1","","bad","[-4]"
"html-keyboard-response","201","980191","0.0-11.0-2.0-0.6","5171","2","8","Female","approach_avoid_spark_v1","""event"",""trial"",""time""
""fullscreenenter"",""1"",""3615""
","
","
","""event"",""trial"",""time""
""fullscreenenter"",""1"",""3615""
","
","","","","","","null","<div style=""font-size:60px;"">+</div>","null","","fixation","","","","","","","","","","",""
"aa-learning-trial","202","983200","0.0-11.0-2.0-1.6","5171","2","8","Female","approach_avoid_spark_v1","""event"",""trial"",""time""
""fullscreenenter"",""1"",""3615""
","
","
","""event"",""trial"",""time""
""fullscreenenter"",""1"",""3615""
","
","","","","","","null","images/tree4.png","","","learning","[1]","-5","","null","tree","plants","1","1","","neutral","0"
"html-keyboard-response","203","983705","0.0-11.0-2.0-0.7","5171","2","8","Female","approach_avoid_spark_v1","""event"",""trial"",""time""
""fullscreenenter"",""1"",""3615""
","
","
","""event"",""trial"",""time""
""fullscreenenter"",""1"",""3615""
","
","","","","","","null","<div style=""font-size:60px;"">+</div>","null","","fixation","","","","","","","","","","",""
"aa-learning-trial","204","986724","0.0-11.0-2.0-1.7","5171","2","8","Female","approach_avoid_spark_v1","""event"",""trial"",""time""
""fullscreenenter"",""1"",""3615""
","
","
","""event"",""trial"",""time""
""fullscreenenter"",""1"",""3615""
","
","","","","","","null","images/cactus8.png","","","learning","-4","-5","","null","cactus","plants","1","1","","bad","[-4]"
"html-keyboard-response","205","987233","0.0-11.0-2.0-0.8","5171","2","8","Female","approach_avoid_spark_v1","""event"",""trial"",""time""
""fullscreenenter"",""1"",""3615""
","
","
","""event"",""trial"",""time""
""fullscreenenter"",""1"",""3615""
","
","","","","","","null","<div style=""font-size:60px;"">+</div>","null","","fixation","","","","","","","","","","",""
"aa-learning-trial","206","990238","0.0-11.0-2.0-1.8","5171","2","8","Female","approach_avoid_spark_v1","""event"",""trial"",""time""
""fullscreenenter"",""1"",""3615""
","
","
","""event"",""trial"",""time""
""fullscreenenter"",""1"",""3615""
","
","","","","","","null","images/cactus3.png","","","learning","-5","-5","","null","cactus","plants","1","1","","bad","[-4]"
"html-keyboard-response","207","990741","0.0-11.0-2.0-0.9","5171","2","8","Female","approach_avoid_spark_v1","""event"",""trial"",""time""
""fullscreenenter"",""1"",""3615""
","
","
","""event"",""trial"",""time""
""fullscreenenter"",""1"",""3615""
","
","","","","","","null","<div style=""font-size:60px;"">+</div>","null","","fixation","","","","","","","","","","",""
"aa-learning-trial","208","993750","0.0-11.0-2.0-1.9","5171","2","8","Female","approach_avoid_spark_v1","""event"",""trial"",""time""
""fullscreenenter"",""1"",""3615""
","
","
","""event"",""trial"",""time""
""fullscreenenter"",""1"",""3615""
","
","","","","","","null","images/tree8.png","","","learning","[1]","-5","","null","tree","plants","1","1","","neutral","0"
"html-keyboard-response","209","994265","0.0-11.0-2.0-0.10","5171","2","8","Female","approach_avoid_spark_v1","""event"",""trial"",""time""
""fullscreenenter"",""1"",""3615""
","
","
","""event"",""trial"",""time""
""fullscreenenter"",""1"",""3615""
","
","","","","","","null","<div style=""font-size:60px;"">+</div>","null","","fixation","","","","","","","","","","",""
"aa-learning-trial","210","997278","0.0-11.0-2.0-1.10","5171","2","8","Female","approach_avoid_spark_v1","""event"",""trial"",""time""
""fullscreenenter"",""1"",""3615""
","
","
","""event"",""trial"",""time""
""fullscreenenter"",""1"",""3615""
","
","","","","","","null","images/flower5.png","","","learning","8","-5","","null","flower","plants","1","1","","good","[6]"
"html-keyboard-response","211","997782","0.0-11.0-2.0-0.11","5171","2","8","Female","approach_avoid_spark_v1","""event"",""trial"",""time""
""fullscreenenter"",""1"",""3615""
","
","
","""event"",""trial"",""time""
""fullscreenenter"",""1"",""3615""
","
","","","","","","null","<div style=""font-size:60px;"">+</div>","null","","fixation","","","","","","","","","","",""
"aa-learning-trial","212","1000790","0.0-11.0-2.0-1.11","5171","2","8","Female","approach_avoid_spark_v1","""event"",""trial"",""time""
""fullscreenenter"",""1"",""3615""
","
","
","""event"",""trial"",""time""
""fullscreenenter"",""1"",""3615""
","
","","","","","","null","images/flower2.png","","","learning","3","-5","","null","flower","plants","1","1","","good","[6]"
"html-keyboard-response","213","1001315","0.0-11.0-2.0-0.12","5171","2","8","Female","approach_avoid_spark_v1","""event"",""trial"",""time""
""fullscreenenter"",""1"",""3615""
","
","
","""event"",""trial"",""time""
""fullscreenenter"",""1"",""3615""
","
","","","","","","null","<div style=""font-size:60px;"">+</div>","null","","fixation","","","","","","","","","","",""
"aa-learning-trial","214","1004326","0.0-11.0-2.0-1.12","5171","2","8","Female","approach_avoid_spark_v1","""event"",""trial"",""time""
""fullscreenenter"",""1"",""3615""
","
","
","""event"",""trial"",""time""
""fullscreenenter"",""1"",""3615""
","
","","","","","","null","images/flower2.png","","","learning","9","-5","","null","flower","plants","1","1","","good","[6]"
"html-keyboard-response","215","1004829","0.0-11.0-2.0-0.13","5171","2","8","Female","approach_avoid_spark_v1","""event"",""trial"",""time""
""fullscreenenter"",""1"",""3615""
","
","
","""event"",""trial"",""time""
""fullscreenenter"",""1"",""3615""
","
","","","","","","null","<div style=""font-size:60px;"">+</div>","null","","fixation","","","","","","","","","","",""
"aa-learning-trial","216","1007838","0.0-11.0-2.0-1.13","5171","2","8","Female","approach_avoid_spark_v1","""event"",""trial"",""time""
""fullscreenenter"",""1"",""3615""
","
","
","""event"",""trial"",""time""
""fullscreenenter"",""1"",""3615""
","
","","","","","","1059.4000000059605","images/cactus1.png","","","learning","-4","-4","1","1","cactus","plants","1","1","","bad","[-4]"
"html-keyboard-response","217","1008349","0.0-11.0-2.0-0.14","5171","2","8","Female","approach_avoid_spark_v1","""event"",""trial"",""time""
""fullscreenenter"",""1"",""3615""
","
","
","""event"",""trial"",""time""
""fullscreenenter"",""1"",""3615""
","
","","","","","","null","<div style=""font-size:60px;"">+</div>","null","","fixation","","","","","","","","","","",""
"aa-learning-trial","218","1011358","0.0-11.0-2.0-1.14","5171","2","8","Female","approach_avoid_spark_v1","""event"",""trial"",""time""
""fullscreenenter"",""1"",""3615""
","
","
","""event"",""trial"",""time""
""fullscreenenter"",""1"",""3615""
","
","","","","","","2405.2999999970198","images/tree4.png","","","learning","-3","0","0","0","tree","plants","1","1","","neutral","0"
"html-keyboard-response","219","1011861","0.0-11.0-2.0-0.15","5171","2","8","Female","approach_avoid_spark_v1","""event"",""trial"",""time""
""fullscreenenter"",""1"",""3615""
","
","
","""event"",""trial"",""time""
""fullscreenenter"",""1"",""3615""
","
","","","","","","null","<div style=""font-size:60px;"">+</div>","null","","fixation","","","","","","","","","","",""
"aa-learning-trial","220","1014869","0.0-11.0-2.0-1.15","5171","2","8","Female","approach_avoid_spark_v1","""event"",""trial"",""time""
""fullscreenenter"",""1"",""3615""
","
","
","""event"",""trial"",""time""
""fullscreenenter"",""1"",""3615""
","
","","","","","","1858.7000000029802","images/flower8.png","","","learning","4","4","1","1","flower","plants","1","1","","good","[6]"
"html-keyboard-response","221","1015373","0.0-11.0-2.0-0.16","5171","2","8","Female","approach_avoid_spark_v1","""event"",""trial"",""time""
""fullscreenenter"",""1"",""3615""
","
","
","""event"",""trial"",""time""
""fullscreenenter"",""1"",""3615""
","
","","","","","","null","<div style=""font-size:60px;"">+</div>","null","","fixation","","","","","","","","","","",""
"aa-learning-trial","222","1018381","0.0-11.0-2.0-1.16","5171","2","8","Female","approach_avoid_spark_v1","""event"",""trial"",""time""
""fullscreenenter"",""1"",""3615""
","
","
","""event"",""trial"",""time""
""fullscreenenter"",""1"",""3615""
","
","","","","","","1713","images/cactus6.png","","","learning","-2","0","0","0","cactus","plants","1","1","","bad","[-4]"
"html-keyboard-response","223","1018885","0.0-11.0-2.0-0.17","5171","2","8","Female","approach_avoid_spark_v1","""event"",""trial"",""time""
""fullscreenenter"",""1"",""3615""
","
","
","""event"",""trial"",""time""
""fullscreenenter"",""1"",""3615""
","
","","","","","","null","<div style=""font-size:60px;"">+</div>","null","","fixation","","","","","","","","","","",""
"aa-learning-trial","224","1021895","0.0-11.0-2.0-1.17","5171","2","8","Female","approach_avoid_spark_v1","""event"",""trial"",""time""
""fullscreenenter"",""1"",""3615""
","
","
","""event"",""trial"",""time""
""fullscreenenter"",""1"",""3615""
","
","","","","","","2363.2000000029802","images/cactus1.png","","","learning","-3","0","0","0","cactus","plants","1","1","","bad","[-4]"
"html-keyboard-response","225","1022404","0.0-11.0-2.0-0.18","5171","2","8","Female","approach_avoid_spark_v1","""event"",""trial"",""time""
""fullscreenenter"",""1"",""3615""
","
","
","""event"",""trial"",""time""
""fullscreenenter"",""1"",""3615""
","
","","","","","","null","<div style=""font-size:60px;"">+</div>","null","","fixation","","","","","","","","","","",""
"aa-learning-trial","226","1025421","0.0-11.0-2.0-1.18","5171","2","8","Female","approach_avoid_spark_v1","""event"",""trial"",""time""
""fullscreenenter"",""1"",""3615""
","
","
","""event"",""trial"",""time""
""fullscreenenter"",""1"",""3615""
","
","","","","","","1440.2999999970198","images/flower5.png","","","learning","5","5","1","1","flower","plants","1","1","","good","[6]"
"html-keyboard-response","227","1025924","0.0-11.0-2.0-0.19","5171","2","8","Female","approach_avoid_spark_v1","""event"",""trial"",""time""
""fullscreenenter"",""1"",""3615""
","
","
","""event"",""trial"",""time""
""fullscreenenter"",""1"",""3615""
","
","","","","","","null","<div style=""font-size:60px;"">+</div>","null","","fixation","","","","","","","","","","",""
"aa-learning-trial","228","1028934","0.0-11.0-2.0-1.19","5171","2","8","Female","approach_avoid_spark_v1","""event"",""trial"",""time""
""fullscreenenter"",""1"",""3615""
","
","
","""event"",""trial"",""time""
""fullscreenenter"",""1"",""3615""
","
","","","","","","1335.7999999970198","images/tree4.png","","","learning","-2","0","0","0","tree","plants","1","1","","neutral","0"
"html-keyboard-response","229","1029445","0.0-11.0-2.0-0.20","5171","2","8","Female","approach_avoid_spark_v1","""event"",""trial"",""time""
""fullscreenenter"",""1"",""3615""
","
","
","""event"",""trial"",""time""
""fullscreenenter"",""1"",""3615""
","
","","","","","","null","<div style=""font-size:60px;"">+</div>","null","","fixation","","","","","","","","","","",""
"aa-learning-trial","230","1032462","0.0-11.0-2.0-1.20","5171","2","8","Female","approach_avoid_spark_v1","""event"",""trial"",""time""
""fullscreenenter"",""1"",""3615""
","
","
","""event"",""trial"",""time""
""fullscreenenter"",""1"",""3615""
","
","","","","","","2274.699999988079","images/tree8.png","","","learning","1","0","0","0","tree","plants","1","1","","neutral","0"
"html-keyboard-response","231","1032966","0.0-11.0-2.0-0.21","5171","2","8","Female","approach_avoid_spark_v1","""event"",""trial"",""time""
""fullscreenenter"",""1"",""3615""
","
","
","""event"",""trial"",""time""
""fullscreenenter"",""1"",""3615""
","
","","","","","","null","<div style=""font-size:60px;"">+</div>","null","","fixation","","","","","","","","","","",""
"aa-learning-trial","232","1035974","0.0-11.0-2.0-1.21","5171","2","8","Female","approach_avoid_spark_v1","""event"",""trial"",""time""
""fullscreenenter"",""1"",""3615""
","
","
","""event"",""trial"",""time""
""fullscreenenter"",""1"",""3615""
","
","","","","","","1730.5","images/cactus3.png","","","learning","-2","0","0","0","cactus","plants","1","1","","bad","[-4]"
"html-keyboard-response","233","1036477","0.0-11.0-2.0-0.22","5171","2","8","Female","approach_avoid_spark_v1","""event"",""trial"",""time""
""fullscreenenter"",""1"",""3615""
","
","
","""event"",""trial"",""time""
""fullscreenenter"",""1"",""3615""
","
","","","","","","null","<div style=""font-size:60px;"">+</div>","null","","fixation","","","","","","","","","","",""
"aa-learning-trial","234","1039501","0.0-11.0-2.0-1.22","5171","2","8","Female","approach_avoid_spark_v1","""event"",""trial"",""time""
""fullscreenenter"",""1"",""3615""
","
","
","""event"",""trial"",""time""
""fullscreenenter"",""1"",""3615""
","
","","","","","","1874.3999999910593","images/tree1.png","","","learning","-1","-1","1","1","tree","plants","1","1","","neutral","0"
"html-keyboard-response","235","1040005","0.0-11.0-2.0-0.23","5171","2","8","Female","approach_avoid_spark_v1","""event"",""trial"",""time""
""fullscreenenter"",""1"",""3615""
","
","
","""event"",""trial"",""time""
""fullscreenenter"",""1"",""3615""
","
","","","","","","null","<div style=""font-size:60px;"">+</div>","null","","fixation","","","","","","","","","","",""
"aa-learning-trial","236","1043013","0.0-11.0-2.0-1.23","5171","2","8","Female","approach_avoid_spark_v1","""event"",""trial"",""time""
""fullscreenenter"",""1"",""3615""
","
","
","""event"",""trial"",""time""
""fullscreenenter"",""1"",""3615""
","
","","","","","","2200.5","images/cactus4.png","","","learning","-2","0","0","0","cactus","plants","1","1","","bad","[-4]"
"html-keyboard-response","237","1043517","0.0-11.0-2.0-0.24","5171","2","8","Female","approach_avoid_spark_v1","""event"",""trial"",""time""
""fullscreenenter"",""1"",""3615""
","
","
","""event"",""trial"",""time""
""fullscreenenter"",""1"",""3615""
","
","","","","","","null","<div style=""font-size:60px;"">+</div>","null","","fixation","","","","","","","","","","",""
"aa-learning-trial","238","1046525","0.0-11.0-2.0-1.24","5171","2","8","Female","approach_avoid_spark_v1","""event"",""trial"",""time""
""fullscreenenter"",""1"",""3615""
","
","
","""event"",""trial"",""time""
""fullscreenenter"",""1"",""3615""
","
","","","","","","1355.699999988079","images/cactus1.png","","","learning","-3","0","0","0","cactus","plants","1","1","","bad","[-4]"
