"trial_type","trial_index","time_elapsed","internal_node_id","subject_id","task_condition","age","gender","task_version","interactions","blur_events","focus_events","fullscreenenter_events","fullscreenexit_events","success","timeout","failed_images","failed_audio","failed_video","rt","stimulus","response","button_pressed","task_part","approach_reward","points","key_press","option_selected","stim_cat","task_block","block_condition","block_number","correct","cat_type","mean_cat_reward"
"pavlovia","0","2","0.0-0.0","6295","2","14","Male","approach_avoid_spark_v1","""event"",""trial"",""time""
""fullscreenenter"",""1"",""2656""
","
","
","""event"",""trial"",""time""
""fullscreenenter"",""1"",""2656""
","
","","","","","","","","","","","","","","","","","","","","",""
"fullscreen","1","3658","0.0-1.0","6295","2","14","Male","approach_avoid_spark_v1","""event"",""trial"",""time""
""fullscreenenter"",""1"",""2656""
","
","
","""event"",""trial"",""time""
""fullscreenenter"",""1"",""2656""
","
","true","","","","","","","","","","","","","","","","","","","",""
"preload","2","42725","0.0-2.0","6295","2","14","Male","approach_avoid_spark_v1","""event"",""trial"",""time""
""fullscreenenter"",""1"",""2656""
","
","
","""event"",""trial"",""time""
""fullscreenenter"",""1"",""2656""
","
","true","false","[]","[]","[]","","","","","","","","","","","","","","","",""
"audio-keyboard-response","3","48079","0.0-3.0","6295","2","14","Male","approach_avoid_spark_v1","""event"",""trial"",""time""
""fullscreenenter"",""1"",""2656""
","
","
","""event"",""trial"",""time""
""fullscreenenter"",""1"",""2656""
","
","","","","","","5280.000000000001","audio/beep_loop.wav"," ","","","","","","","","","","","","",""
"audio-button-response","4","49907","0.0-4.0","6295","2","14","Male","approach_avoid_spark_v1","""event"",""trial"",""time""
""fullscreenenter"",""1"",""2656""
","
","
","""event"",""trial"",""time""
""fullscreenenter"",""1"",""2656""
","
","","","","","","1819","audio/shark.wav","4","","","","","","","","","","","","",""
"audio-button-response","5","52203","0.0-5.0","6295","2","14","Male","approach_avoid_spark_v1","""event"",""trial"",""time""
""fullscreenenter"",""1"",""2656""
","
","
","""event"",""trial"",""time""
""fullscreenenter"",""1"",""2656""
","
","","","","","","1280","audio/turtle.wav","1","","","","","","","","","","","","",""
"preload","6","63588","0.0-6.0","6295","2","14","Male","approach_avoid_spark_v1","""event"",""trial"",""time""
""fullscreenenter"",""1"",""2656""
","
","
","""event"",""trial"",""time""
""fullscreenenter"",""1"",""2656""
","
","true","false","[]","[]","[]","","","","","","","","","","","","","","","",""
"html-keyboard-response","7","65708","0.0-7.0","6295","2","14","Male","approach_avoid_spark_v1","""event"",""trial"",""time""
""fullscreenenter"",""1"",""2656""
""blur"",""8"",""70731""
""focus"",""8"",""70807""
","""event"",""trial"",""time""
""blur"",""8"",""70731""
","""event"",""trial"",""time""
""focus"",""8"",""70807""
","""event"",""trial"",""time""
""fullscreenenter"",""1"",""2656""
","
","","","","","","2118.2000000476837","Welcome to the experiment. Press any key to begin and to advance the instructions."," ","","","","","","","","","","","","",""
"learning-instructions","8","73787","0.0-8.0-0.0-0.0","6295","2","14","Male","approach_avoid_spark_v1","""event"",""trial"",""time""
""fullscreenenter"",""1"",""2656""
""blur"",""8"",""70731""
""focus"",""8"",""70807""
","""event"",""trial"",""time""
""blur"",""8"",""70731""
","""event"",""trial"",""time""
""focus"",""8"",""70807""
","""event"",""trial"",""time""
""fullscreenenter"",""1"",""2656""
","
","","","","","","1126.4000000953674","<p> Welcome! Today you are going to play 6 different rounds of a decision-making game. </p><p> Use the mouse to click next to continue. </p>","","0","instructions","","","","","","","","","","",""
"learning-instructions","9","76851","0.0-8.0-0.0-0.1","6295","2","14","Male","approach_avoid_spark_v1","""event"",""trial"",""time""
""fullscreenenter"",""1"",""2656""
""blur"",""8"",""70731""
""focus"",""8"",""70807""
","""event"",""trial"",""time""
""blur"",""8"",""70731""
","""event"",""trial"",""time""
""focus"",""8"",""70807""
","""event"",""trial"",""time""
""fullscreenenter"",""1"",""2656""
","
","","","","","","340.89999985694885","<p> You will start with a practice round to learn the rules. </p>","","0","instructions","","","","","","","","","","",""
"learning-instructions","10","80699","0.0-8.0-0.0-0.2","6295","2","14","Male","approach_avoid_spark_v1","""event"",""trial"",""time""
""fullscreenenter"",""1"",""2656""
""blur"",""8"",""70731""
""focus"",""8"",""70807""
","""event"",""trial"",""time""
""blur"",""8"",""70731""
","""event"",""trial"",""time""
""focus"",""8"",""70807""
","""event"",""trial"",""time""
""fullscreenenter"",""1"",""2656""
","
","","","","","","399.59999990463257","<p> Your goal in this round is to give out sports equipment to kids. </p></div>","","0","instructions","","","","","","","","","","",""
"learning-instructions","11","88875","0.0-8.0-0.0-0.3","6295","2","14","Male","approach_avoid_spark_v1","""event"",""trial"",""time""
""fullscreenenter"",""1"",""2656""
""blur"",""8"",""70731""
""focus"",""8"",""70807""
","""event"",""trial"",""time""
""blur"",""8"",""70731""
","""event"",""trial"",""time""
""focus"",""8"",""70807""
","""event"",""trial"",""time""
""fullscreenenter"",""1"",""2656""
","
","","","","","","624.4000000953674","<p> The kids only like some of the equipment.  </p><p> On each turn, you will see a piece of sports equipment.   </p><p> You need to decide whether to give it to the kids or not.  </p>","","0","instructions","","","","","","","","","","",""
"learning-instructions","12","95971","0.0-8.0-0.0-0.4","6295","2","14","Male","approach_avoid_spark_v1","""event"",""trial"",""time""
""fullscreenenter"",""1"",""2656""
""blur"",""8"",""70731""
""focus"",""8"",""70807""
","""event"",""trial"",""time""
""blur"",""8"",""70731""
","""event"",""trial"",""time""
""focus"",""8"",""70807""
","""event"",""trial"",""time""
""fullscreenenter"",""1"",""2656""
","
","","","","","","2339.600000143051","<p> You can give them the equipment by pressing 1 and choose not to give it to them by pressing 0. </p><br><div class=""choice-instructions-grid""> <div class=""choice-option""><img src=""images/approach.png"" class=""choice-option-img"" stage=""instructions"" position=""0"" ><div class=""choice-option-text""> Press ""1."" </div></div><div class=""choice-option""><img src=""images/avoid.png"" class=""choice-option-img"" stage=""instructions"" position=""1"" ><div class=""choice-option-text""> Press ""0."" </div></div>","","0","instructions","","","","","","","","","","",""
"learning-instructions","13","104907","0.0-8.0-0.0-0.5","6295","2","14","Male","approach_avoid_spark_v1","""event"",""trial"",""time""
""fullscreenenter"",""1"",""2656""
""blur"",""8"",""70731""
""focus"",""8"",""70807""
","""event"",""trial"",""time""
""blur"",""8"",""70731""
","""event"",""trial"",""time""
""focus"",""8"",""70807""
","""event"",""trial"",""time""
""fullscreenenter"",""1"",""2656""
","
","","","","","","1546.3000001907349","<p> If you give them a piece of equipment they like, they will be happy! </p><p> But if you give them a piece of equipment they do not like, they will be sad. </p>","","0","instructions","","","","","","","","","","",""
"learning-instructions","14","116811","0.0-8.0-0.0-0.6","6295","2","14","Male","approach_avoid_spark_v1","""event"",""trial"",""time""
""fullscreenenter"",""1"",""2656""
""blur"",""8"",""70731""
""focus"",""8"",""70807""
","""event"",""trial"",""time""
""blur"",""8"",""70731""
","""event"",""trial"",""time""
""focus"",""8"",""70807""
","""event"",""trial"",""time""
""fullscreenenter"",""1"",""2656""
","
","","","","","","1380.2999999523163","<p> You will earn points based on how you make kids feel. </p><p> If you make them happy, you will WIN anywhere from 1 - 9 points, </p><p> but if you make them sad, you will LOSE anywhere from 1 - 9 points. </p>","","0","instructions","","","","","","","","","","",""
"learning-instructions","15","127114","0.0-8.0-0.0-0.7","6295","2","14","Male","approach_avoid_spark_v1","""event"",""trial"",""time""
""fullscreenenter"",""1"",""2656""
""blur"",""8"",""70731""
""focus"",""8"",""70807""
","""event"",""trial"",""time""
""blur"",""8"",""70731""
","""event"",""trial"",""time""
""focus"",""8"",""70807""
","""event"",""trial"",""time""
""fullscreenenter"",""1"",""2656""
","
","","","","","","743.9000000953674","<p> You will see how many points you won or lost in the center of the screen. </p><p> Here is what you would see if you won 6 points: </p><p style=""color:green;font-size:50px;font-weight:bolder"">6</p><p style=""color:green"">The text is GREEN because you WON points.</p>","","0","instructions","","","","","","","","","","",""
"learning-instructions","16","133082","0.0-8.0-0.0-0.8","6295","2","14","Male","approach_avoid_spark_v1","""event"",""trial"",""time""
""fullscreenenter"",""1"",""2656""
""blur"",""8"",""70731""
""focus"",""8"",""70807""
","""event"",""trial"",""time""
""blur"",""8"",""70731""
","""event"",""trial"",""time""
""focus"",""8"",""70807""
","""event"",""trial"",""time""
""fullscreenenter"",""1"",""2656""
","
","","","","","","452","<p> And here is what you would see if you lost 4 points: </p><p style=""color:red;font-size:50px;font-weight:bolder"">-4</p><p style=""color:red"">The text is RED because you LOST points. </p>","","0","instructions","","","","","","","","","","",""
"learning-instructions","17","149258","0.0-8.0-0.0-0.9","6295","2","14","Male","approach_avoid_spark_v1","""event"",""trial"",""time""
""fullscreenenter"",""1"",""2656""
""blur"",""8"",""70731""
""focus"",""8"",""70807""
","""event"",""trial"",""time""
""blur"",""8"",""70731""
","""event"",""trial"",""time""
""focus"",""8"",""70807""
","""event"",""trial"",""time""
""fullscreenenter"",""1"",""2656""
","
","","","","","","1468.9000000953674","<p> Some of the equipment will make the kids VERY happy or sad. </p><p> These pieces of equipment will make you win or lose LOTS of points. </p><p> Other pieces of equipment will only make the kids a little happy or sad. </p><p> These pieces of equipment will make you win or lose small amounts of points. </p>","","0","instructions","","","","","","","","","","",""
"learning-instructions","18","160714","0.0-8.0-0.0-0.10","6295","2","14","Male","approach_avoid_spark_v1","""event"",""trial"",""time""
""fullscreenenter"",""1"",""2656""
""blur"",""8"",""70731""
""focus"",""8"",""70807""
","""event"",""trial"",""time""
""blur"",""8"",""70731""
","""event"",""trial"",""time""
""focus"",""8"",""70807""
","""event"",""trial"",""time""
""fullscreenenter"",""1"",""2656""
","
","","","","","","823.2999999523163","<p> If you choose not to give them the equipment, you will not win or lose any points. </p><p>  However, in the center of the screen, you will see the number of points you WOULD HAVE won or lost if you had given them the equipment. </p>","","0","instructions","","","","","","","","","","",""
"learning-instructions","19","182810","0.0-8.0-0.0-0.11","6295","2","14","Male","approach_avoid_spark_v1","""event"",""trial"",""time""
""fullscreenenter"",""1"",""2656""
""blur"",""8"",""70731""
""focus"",""8"",""70807""
","""event"",""trial"",""time""
""blur"",""8"",""70731""
","""event"",""trial"",""time""
""focus"",""8"",""70807""
","""event"",""trial"",""time""
""fullscreenenter"",""1"",""2656""
","
","","","","","","569.9000000953674","<p> Here is what you might see if you did not give the equipment to the kids but it would have made them happy: </p><p style=""color:grey; font-size:50px; display: inline-block; border-spacing: 15px; border-width:3px; border-style:solid; border-color:red"">  &nbsp; 7 &nbsp; </p><p> Remember, in this case, you would not win or lose ANY points because you did not give them the equipment.  </p><p style=""color:grey"">The text is GREY because you earned ZERO points. </p><p style=""color:red"">However, choosing to give the kids the equipment would have made you win points. The box around the text is RED because you chose the worse option. </p>","","0","instructions","","","","","","","","","","",""
"learning-instructions","20","205331","0.0-8.0-0.0-0.12","6295","2","14","Male","approach_avoid_spark_v1","""event"",""trial"",""time""
""fullscreenenter"",""1"",""2656""
""blur"",""8"",""70731""
""focus"",""8"",""70807""
","""event"",""trial"",""time""
""blur"",""8"",""70731""
","""event"",""trial"",""time""
""focus"",""8"",""70807""
","""event"",""trial"",""time""
""fullscreenenter"",""1"",""2656""
","
","","","","","","1440.2999999523163","<p> Here is what you might see if you did not give the equipment to the kids but it would have made them sad: </p><p style=""color:grey;font-size:50px; display: inline-block; border-spacing: 15px; border-width:3px; border-style:solid; border-color:green"">  &nbsp; -8 &nbsp; </p><p> Remember, in this case, you would not win or lose ANY points because you did not give them the equipment.  </p><p style=""color:grey"">The text is GREY because you earned ZERO points. </p><p  style=""color:green""> Choosing to give the kids the equipment would have made you lose points. The box around the text is GREEN because you chose the better option.</p>","","0","instructions","","","","","","","","","","",""
"learning-instructions","21","215282","0.0-8.0-0.0-0.13","6295","2","14","Male","approach_avoid_spark_v1","""event"",""trial"",""time""
""fullscreenenter"",""1"",""2656""
""blur"",""8"",""70731""
""focus"",""8"",""70807""
","""event"",""trial"",""time""
""blur"",""8"",""70731""
","""event"",""trial"",""time""
""focus"",""8"",""70807""
","""event"",""trial"",""time""
""fullscreenenter"",""1"",""2656""
","
","","","","","","572.2000000476837","<p> You will have 3 seconds to make each choice. Try to respond before time runs out! </p><p> You will lose 5 points each time you do not make a response. </p>","","0","instructions","","","","","","","","","","",""
"learning-instructions","22","223787","0.0-8.0-0.0-0.14","6295","2","14","Male","approach_avoid_spark_v1","""event"",""trial"",""time""
""fullscreenenter"",""1"",""2656""
""blur"",""8"",""70731""
""focus"",""8"",""70807""
","""event"",""trial"",""time""
""blur"",""8"",""70731""
","""event"",""trial"",""time""
""focus"",""8"",""70807""
","""event"",""trial"",""time""
""fullscreenenter"",""1"",""2656""
","
","","","","","","3096.7999999523163","<p> This is just a practice round, but in the real game, your bonus payment will depend on your total number of points.","","0","instructions","","","","","","","","","","",""
"learning-instructions","23","230682","0.0-8.0-0.0-0.15","6295","2","14","Male","approach_avoid_spark_v1","""event"",""trial"",""time""
""fullscreenenter"",""1"",""2656""
""blur"",""8"",""70731""
""focus"",""8"",""70807""
","""event"",""trial"",""time""
""blur"",""8"",""70731""
","""event"",""trial"",""time""
""focus"",""8"",""70807""
","""event"",""trial"",""time""
""fullscreenenter"",""1"",""2656""
","
","","","","","","1131.7999999523163","<p> Remember, you can give them the equipment by pressing 1 and choose not to give it to them by pressing 0. </p><br><div class=""choice-instructions-grid""> <div class=""choice-option""><img src=""images/approach.png"" class=""choice-option-img"" stage=""instructions"" position=""0"" ><div class=""choice-option-text""> Press ""1."" </div></div><div class=""choice-option""><img src=""images/avoid.png"" class=""choice-option-img"" stage=""instructions"" position=""1"" ><div class=""choice-option-text""> Press ""0."" </div></div>","","0","instructions","","","","","","","","","","",""
"html-button-response","24","232619","0.0-8.0-1.0","6295","2","14","Male","approach_avoid_spark_v1","""event"",""trial"",""time""
""fullscreenenter"",""1"",""2656""
""blur"",""8"",""70731""
""focus"",""8"",""70807""
","""event"",""trial"",""time""
""blur"",""8"",""70731""
","""event"",""trial"",""time""
""focus"",""8"",""70807""
","""event"",""trial"",""time""
""fullscreenenter"",""1"",""2656""
","
","","","","","","1829.8000001907349","<p> Ready to practice? </p>","0","","","","","","","","","","","","",""
"html-keyboard-response","25","233247","0.0-8.0-2.0-0.0","6295","2","14","Male","approach_avoid_spark_v1","""event"",""trial"",""time""
""fullscreenenter"",""1"",""2656""
""blur"",""8"",""70731""
""focus"",""8"",""70807""
","""event"",""trial"",""time""
""blur"",""8"",""70731""
","""event"",""trial"",""time""
""focus"",""8"",""70807""
","""event"",""trial"",""time""
""fullscreenenter"",""1"",""2656""
","
","","","","","","null","<div style=""font-size:60px;"">+</div>","null","","fixation","","","","","","","","","","",""
"aa-learning-trial","26","236258","0.0-8.0-2.0-1.0","6295","2","14","Male","approach_avoid_spark_v1","""event"",""trial"",""time""
""fullscreenenter"",""1"",""2656""
""blur"",""8"",""70731""
""focus"",""8"",""70807""
","""event"",""trial"",""time""
""blur"",""8"",""70731""
","""event"",""trial"",""time""
""focus"",""8"",""70807""
","""event"",""trial"",""time""
""fullscreenenter"",""1"",""2656""
","
","","","","","","8.300000190734863","images/ball3.png","","","learning","3","3","1","1","practice","practice","practice","-1","","",""
"html-keyboard-response","27","236778","0.0-8.0-2.0-0.1","6295","2","14","Male","approach_avoid_spark_v1","""event"",""trial"",""time""
""fullscreenenter"",""1"",""2656""
""blur"",""8"",""70731""
""focus"",""8"",""70807""
","""event"",""trial"",""time""
""blur"",""8"",""70731""
","""event"",""trial"",""time""
""focus"",""8"",""70807""
","""event"",""trial"",""time""
""fullscreenenter"",""1"",""2656""
","
","","","","","","null","<div style=""font-size:60px;"">+</div>","null","","fixation","","","","","","","","","","",""
"aa-learning-trial","28","239798","0.0-8.0-2.0-1.1","6295","2","14","Male","approach_avoid_spark_v1","""event"",""trial"",""time""
""fullscreenenter"",""1"",""2656""
""blur"",""8"",""70731""
""focus"",""8"",""70807""
","""event"",""trial"",""time""
""blur"",""8"",""70731""
","""event"",""trial"",""time""
""focus"",""8"",""70807""
","""event"",""trial"",""time""
""fullscreenenter"",""1"",""2656""
","
","","","","","","1135.7000000476837","images/racket1.png","","","learning","5","5","1","1","practice","practice","practice","-1","","",""
"html-keyboard-response","29","240318","0.0-8.0-2.0-0.2","6295","2","14","Male","approach_avoid_spark_v1","""event"",""trial"",""time""
""fullscreenenter"",""1"",""2656""
""blur"",""8"",""70731""
""focus"",""8"",""70807""
","""event"",""trial"",""time""
""blur"",""8"",""70731""
","""event"",""trial"",""time""
""focus"",""8"",""70807""
","""event"",""trial"",""time""
""fullscreenenter"",""1"",""2656""
","
","","","","","","null","<div style=""font-size:60px;"">+</div>","null","","fixation","","","","","","","","","","",""
"aa-learning-trial","30","243329","0.0-8.0-2.0-1.2","6295","2","14","Male","approach_avoid_spark_v1","""event"",""trial"",""time""
""fullscreenenter"",""1"",""2656""
""blur"",""8"",""70731""
""focus"",""8"",""70807""
","""event"",""trial"",""time""
""blur"",""8"",""70731""
","""event"",""trial"",""time""
""focus"",""8"",""70807""
","""event"",""trial"",""time""
""fullscreenenter"",""1"",""2656""
","
","","","","","","558.5999999046326","images/ball2.png","","","learning","8","8","1","1","practice","practice","practice","-1","","",""
"html-keyboard-response","31","243848","0.0-8.0-2.0-0.3","6295","2","14","Male","approach_avoid_spark_v1","""event"",""trial"",""time""
""fullscreenenter"",""1"",""2656""
""blur"",""8"",""70731""
""focus"",""8"",""70807""
","""event"",""trial"",""time""
""blur"",""8"",""70731""
","""event"",""trial"",""time""
""focus"",""8"",""70807""
","""event"",""trial"",""time""
""fullscreenenter"",""1"",""2656""
","
","","","","","","null","<div style=""font-size:60px;"">+</div>","null","","fixation","","","","","","","","","","",""
"aa-learning-trial","32","246868","0.0-8.0-2.0-1.3","6295","2","14","Male","approach_avoid_spark_v1","""event"",""trial"",""time""
""fullscreenenter"",""1"",""2656""
""blur"",""8"",""70731""
""focus"",""8"",""70807""
","""event"",""trial"",""time""
""blur"",""8"",""70731""
","""event"",""trial"",""time""
""focus"",""8"",""70807""
","""event"",""trial"",""time""
""fullscreenenter"",""1"",""2656""
","
","","","","","","369","images/ball4.png","","","learning","-9","-9","1","1","practice","practice","practice","-1","","",""
"html-keyboard-response","33","247388","0.0-8.0-2.0-0.4","6295","2","14","Male","approach_avoid_spark_v1","""event"",""trial"",""time""
""fullscreenenter"",""1"",""2656""
""blur"",""8"",""70731""
""focus"",""8"",""70807""
","""event"",""trial"",""time""
""blur"",""8"",""70731""
","""event"",""trial"",""time""
""focus"",""8"",""70807""
","""event"",""trial"",""time""
""fullscreenenter"",""1"",""2656""
","
","","","","","","null","<div style=""font-size:60px;"">+</div>","null","","fixation","","","","","","","","","","",""
"aa-learning-trial","34","250398","0.0-8.0-2.0-1.4","6295","2","14","Male","approach_avoid_spark_v1","""event"",""trial"",""time""
""fullscreenenter"",""1"",""2656""
""blur"",""8"",""70731""
""focus"",""8"",""70807""
","""event"",""trial"",""time""
""blur"",""8"",""70731""
","""event"",""trial"",""time""
""focus"",""8"",""70807""
","""event"",""trial"",""time""
""fullscreenenter"",""1"",""2656""
","
","","","","","","236.5","images/ball3.png","","","learning","6","6","1","1","practice","practice","practice","-1","","",""
"html-keyboard-response","35","250918","0.0-8.0-2.0-0.5","6295","2","14","Male","approach_avoid_spark_v1","""event"",""trial"",""time""
""fullscreenenter"",""1"",""2656""
""blur"",""8"",""70731""
""focus"",""8"",""70807""
","""event"",""trial"",""time""
""blur"",""8"",""70731""
","""event"",""trial"",""time""
""focus"",""8"",""70807""
","""event"",""trial"",""time""
""fullscreenenter"",""1"",""2656""
","
","","","","","","null","<div style=""font-size:60px;"">+</div>","null","","fixation","","","","","","","","","","",""
"aa-learning-trial","36","253938","0.0-8.0-2.0-1.5","6295","2","14","Male","approach_avoid_spark_v1","""event"",""trial"",""time""
""fullscreenenter"",""1"",""2656""
""blur"",""8"",""70731""
""focus"",""8"",""70807""
","""event"",""trial"",""time""
""blur"",""8"",""70731""
","""event"",""trial"",""time""
""focus"",""8"",""70807""
","""event"",""trial"",""time""
""fullscreenenter"",""1"",""2656""
","
","","","","","","343.7999999523163","images/racket1.png","","","learning","3","3","1","1","practice","practice","practice","-1","","",""
"html-keyboard-response","37","254458","0.0-8.0-2.0-0.6","6295","2","14","Male","approach_avoid_spark_v1","""event"",""trial"",""time""
""fullscreenenter"",""1"",""2656""
""blur"",""8"",""70731""
""focus"",""8"",""70807""
","""event"",""trial"",""time""
""blur"",""8"",""70731""
","""event"",""trial"",""time""
""focus"",""8"",""70807""
","""event"",""trial"",""time""
""fullscreenenter"",""1"",""2656""
","
","","","","","","null","<div style=""font-size:60px;"">+</div>","null","","fixation","","","","","","","","","","",""
"aa-learning-trial","38","257478","0.0-8.0-2.0-1.6","6295","2","14","Male","approach_avoid_spark_v1","""event"",""trial"",""time""
""fullscreenenter"",""1"",""2656""
""blur"",""8"",""70731""
""focus"",""8"",""70807""
","""event"",""trial"",""time""
""blur"",""8"",""70731""
","""event"",""trial"",""time""
""focus"",""8"",""70807""
","""event"",""trial"",""time""
""fullscreenenter"",""1"",""2656""
","
","","","","","","751.3999998569489","images/ball4.png","","","learning","4","4","1","1","practice","practice","practice","-1","","",""
"html-keyboard-response","39","257998","0.0-8.0-2.0-0.7","6295","2","14","Male","approach_avoid_spark_v1","""event"",""trial"",""time""
""fullscreenenter"",""1"",""2656""
""blur"",""8"",""70731""
""focus"",""8"",""70807""
","""event"",""trial"",""time""
""blur"",""8"",""70731""
","""event"",""trial"",""time""
""focus"",""8"",""70807""
","""event"",""trial"",""time""
""fullscreenenter"",""1"",""2656""
","
","","","","","","null","<div style=""font-size:60px;"">+</div>","null","","fixation","","","","","","","","","","",""
"aa-learning-trial","40","261008","0.0-8.0-2.0-1.7","6295","2","14","Male","approach_avoid_spark_v1","""event"",""trial"",""time""
""fullscreenenter"",""1"",""2656""
""blur"",""8"",""70731""
""focus"",""8"",""70807""
","""event"",""trial"",""time""
""blur"",""8"",""70731""
","""event"",""trial"",""time""
""focus"",""8"",""70807""
","""event"",""trial"",""time""
""fullscreenenter"",""1"",""2656""
","
","","","","","","971","images/racket3.png","","","learning","-8","-8","1","1","practice","practice","practice","-1","","",""
"html-keyboard-response","41","261512","0.0-8.0-2.0-0.8","6295","2","14","Male","approach_avoid_spark_v1","""event"",""trial"",""time""
""fullscreenenter"",""1"",""2656""
""blur"",""8"",""70731""
""focus"",""8"",""70807""
","""event"",""trial"",""time""
""blur"",""8"",""70731""
","""event"",""trial"",""time""
""focus"",""8"",""70807""
","""event"",""trial"",""time""
""fullscreenenter"",""1"",""2656""
","
","","","","","","null","<div style=""font-size:60px;"">+</div>","null","","fixation","","","","","","","","","","",""
"aa-learning-trial","42","264519","0.0-8.0-2.0-1.8","6295","2","14","Male","approach_avoid_spark_v1","""event"",""trial"",""time""
""fullscreenenter"",""1"",""2656""
""blur"",""8"",""70731""
""focus"",""8"",""70807""
","""event"",""trial"",""time""
""blur"",""8"",""70731""
","""event"",""trial"",""time""
""focus"",""8"",""70807""
","""event"",""trial"",""time""
""fullscreenenter"",""1"",""2656""
","
","","","","","","948.9000000953674","images/racket1.png","","","learning","-2","-2","1","1","practice","practice","practice","-1","","",""
"html-keyboard-response","43","265023","0.0-8.0-2.0-0.9","6295","2","14","Male","approach_avoid_spark_v1","""event"",""trial"",""time""
""fullscreenenter"",""1"",""2656""
""blur"",""8"",""70731""
""focus"",""8"",""70807""
","""event"",""trial"",""time""
""blur"",""8"",""70731""
","""event"",""trial"",""time""
""focus"",""8"",""70807""
","""event"",""trial"",""time""
""fullscreenenter"",""1"",""2656""
","
","","","","","","null","<div style=""font-size:60px;"">+</div>","null","","fixation","","","","","","","","","","",""
"aa-learning-trial","44","268031","0.0-8.0-2.0-1.9","6295","2","14","Male","approach_avoid_spark_v1","""event"",""trial"",""time""
""fullscreenenter"",""1"",""2656""
""blur"",""8"",""70731""
""focus"",""8"",""70807""
","""event"",""trial"",""time""
""blur"",""8"",""70731""
","""event"",""trial"",""time""
""focus"",""8"",""70807""
","""event"",""trial"",""time""
""fullscreenenter"",""1"",""2656""
","
","","","","","","809.7999999523163","images/ball2.png","","","learning","1","0","0","0","practice","practice","practice","-1","","",""
"html-keyboard-response","45","268535","0.0-8.0-2.0-0.10","6295","2","14","Male","approach_avoid_spark_v1","""event"",""trial"",""time""
""fullscreenenter"",""1"",""2656""
""blur"",""8"",""70731""
""focus"",""8"",""70807""
","""event"",""trial"",""time""
""blur"",""8"",""70731""
","""event"",""trial"",""time""
""focus"",""8"",""70807""
","""event"",""trial"",""time""
""fullscreenenter"",""1"",""2656""
","
","","","","","","null","<div style=""font-size:60px;"">+</div>","null","","fixation","","","","","","","","","","",""
"aa-learning-trial","46","271543","0.0-8.0-2.0-1.10","6295","2","14","Male","approach_avoid_spark_v1","""event"",""trial"",""time""
""fullscreenenter"",""1"",""2656""
""blur"",""8"",""70731""
""focus"",""8"",""70807""
","""event"",""trial"",""time""
""blur"",""8"",""70731""
","""event"",""trial"",""time""
""focus"",""8"",""70807""
","""event"",""trial"",""time""
""fullscreenenter"",""1"",""2656""
","
","","","","","","1058.1999998092651","images/racket4.png","","","learning","-9","0","0","0","practice","practice","practice","-1","","",""
"html-keyboard-response","47","272048","0.0-8.0-2.0-0.11","6295","2","14","Male","approach_avoid_spark_v1","""event"",""trial"",""time""
""fullscreenenter"",""1"",""2656""
""blur"",""8"",""70731""
""focus"",""8"",""70807""
","""event"",""trial"",""time""
""blur"",""8"",""70731""
","""event"",""trial"",""time""
""focus"",""8"",""70807""
","""event"",""trial"",""time""
""fullscreenenter"",""1"",""2656""
","
","","","","","","null","<div style=""font-size:60px;"">+</div>","null","","fixation","","","","","","","","","","",""
"aa-learning-trial","48","275055","0.0-8.0-2.0-1.11","6295","2","14","Male","approach_avoid_spark_v1","""event"",""trial"",""time""
""fullscreenenter"",""1"",""2656""
""blur"",""8"",""70731""
""focus"",""8"",""70807""
","""event"",""trial"",""time""
""blur"",""8"",""70731""
","""event"",""trial"",""time""
""focus"",""8"",""70807""
","""event"",""trial"",""time""
""fullscreenenter"",""1"",""2656""
","
","","","","","","1245.2000000476837","images/ball4.png","","","learning","-6","0","0","0","practice","practice","practice","-1","","",""
"html-button-response","49","279834","0.0-8.0-3.0","6295","2","14","Male","approach_avoid_spark_v1","""event"",""trial"",""time""
""fullscreenenter"",""1"",""2656""
""blur"",""8"",""70731""
""focus"",""8"",""70807""
","""event"",""trial"",""time""
""blur"",""8"",""70731""
","""event"",""trial"",""time""
""focus"",""8"",""70807""
","""event"",""trial"",""time""
""fullscreenenter"",""1"",""2656""
","
","","","","","","4776.399999856949","<p> You earned 10 points in the practice round! </p>","0","","break","","","","","","","","","","",""
"learning-instructions","50","303530","0.0-8.0-4.0-0.0","6295","2","14","Male","approach_avoid_spark_v1","""event"",""trial"",""time""
""fullscreenenter"",""1"",""2656""
""blur"",""8"",""70731""
""focus"",""8"",""70807""
","""event"",""trial"",""time""
""blur"",""8"",""70731""
","""event"",""trial"",""time""
""focus"",""8"",""70807""
","""event"",""trial"",""time""
""fullscreenenter"",""1"",""2656""
","
","","","","","","17670.900000095367","<p> It's almost time to start the real game. </p><p> Before you start, we're going to ask you a few questions about how the game works. </p>","","0","instructions","","","","","","","","","","",""
"preload","51","319354","0.0-8.0-5.0","6295","2","14","Male","approach_avoid_spark_v1","""event"",""trial"",""time""
""fullscreenenter"",""1"",""2656""
""blur"",""8"",""70731""
""focus"",""8"",""70807""
","""event"",""trial"",""time""
""blur"",""8"",""70731""
","""event"",""trial"",""time""
""focus"",""8"",""70807""
","""event"",""trial"",""time""
""fullscreenenter"",""1"",""2656""
","
","true","false","[]","[]","[]","","","","","","","","","","","","","","","",""
"comp-q","52","325627","0.0-8.0-6.0-0.0","6295","2","14","Male","approach_avoid_spark_v1","""event"",""trial"",""time""
""fullscreenenter"",""1"",""2656""
""blur"",""8"",""70731""
""focus"",""8"",""70807""
","""event"",""trial"",""time""
""blur"",""8"",""70731""
","""event"",""trial"",""time""
""focus"",""8"",""70807""
","""event"",""trial"",""time""
""fullscreenenter"",""1"",""2656""
","
","","","","","","1285.5","<p> <b> True or False? </b> </p><p> If you see a number in GREY, that means you earned that many points. </p>","","1","comp_question","","","","","","","","","true","",""
"comp-q","53","335411","0.0-8.0-6.0-1.0","6295","2","14","Male","approach_avoid_spark_v1","""event"",""trial"",""time""
""fullscreenenter"",""1"",""2656""
""blur"",""8"",""70731""
""focus"",""8"",""70807""
","""event"",""trial"",""time""
""blur"",""8"",""70731""
","""event"",""trial"",""time""
""focus"",""8"",""70807""
","""event"",""trial"",""time""
""fullscreenenter"",""1"",""2656""
","
","","","","","","1419.7999999523163","<p><b> That's right! </b> If you see a grey number, it means you earned ZERO points. <br> The grey numbers show the points you WOULD HAVE earned if you had made the other choice. </p>","","0","comp_answer","","","","","","","","","","",""
"comp-q","54","341339","0.0-8.0-7.0-0.0","6295","2","14","Male","approach_avoid_spark_v1","""event"",""trial"",""time""
""fullscreenenter"",""1"",""2656""
""blur"",""8"",""70731""
""focus"",""8"",""70807""
","""event"",""trial"",""time""
""blur"",""8"",""70731""
","""event"",""trial"",""time""
""focus"",""8"",""70807""
","""event"",""trial"",""time""
""fullscreenenter"",""1"",""2656""
","
","","","","","","1228.5","<p> <b> True or False? </b> </p><p> You will have as much time as you want to make each choice. </p>","","1","comp_question","","","","","","","","","true","",""
"comp-q","55","346699","0.0-8.0-7.0-1.0","6295","2","14","Male","approach_avoid_spark_v1","""event"",""trial"",""time""
""fullscreenenter"",""1"",""2656""
""blur"",""8"",""70731""
""focus"",""8"",""70807""
","""event"",""trial"",""time""
""blur"",""8"",""70731""
","""event"",""trial"",""time""
""focus"",""8"",""70807""
","""event"",""trial"",""time""
""fullscreenenter"",""1"",""2656""
","
","","","","","","1317.5","<p> <b> That's right! </b> You will only have 3 seconds to make each choice. </p>","","0","comp_answer","","","","","","","","","","",""
"comp-q","56","351810","0.0-8.0-8.0-0.0","6295","2","14","Male","approach_avoid_spark_v1","""event"",""trial"",""time""
""fullscreenenter"",""1"",""2656""
""blur"",""8"",""70731""
""focus"",""8"",""70807""
","""event"",""trial"",""time""
""blur"",""8"",""70731""
","""event"",""trial"",""time""
""focus"",""8"",""70807""
","""event"",""trial"",""time""
""fullscreenenter"",""1"",""2656""
","
","","","","","","450.60000014305115","<p> <b> True or False? </b> </p><p> You should use the '1' and '0' keys to make your choices. </p>","","0","comp_question","","","","","","","","","true","",""
"comp-q","57","358011","0.0-8.0-8.0-1.0","6295","2","14","Male","approach_avoid_spark_v1","""event"",""trial"",""time""
""fullscreenenter"",""1"",""2656""
""blur"",""8"",""70731""
""focus"",""8"",""70807""
","""event"",""trial"",""time""
""blur"",""8"",""70731""
","""event"",""trial"",""time""
""focus"",""8"",""70807""
","""event"",""trial"",""time""
""fullscreenenter"",""1"",""2656""
","
","","","","","","1579.4000000953674","<p> <b> That's right! </b> You should use the '1' and '0' keys to make each choice. </p>","","0","comp_answer","","","","","","","","","","",""
"learning-instructions","58","368659","0.0-8.0-9.0-0.0","6295","2","14","Male","approach_avoid_spark_v1","""event"",""trial"",""time""
""fullscreenenter"",""1"",""2656""
""blur"",""8"",""70731""
""focus"",""8"",""70807""
","""event"",""trial"",""time""
""blur"",""8"",""70731""
","""event"",""trial"",""time""
""focus"",""8"",""70807""
","""event"",""trial"",""time""
""fullscreenenter"",""1"",""2656""
","
","","","","","","4377.399999856949","<p> It's now time to start the real game. </p>Do your best, because the points you earn in the next rounds will influence your bonus payment. </p>","","0","instructions","","","","","","","","","","",""
"preload","59","368788","0.0-9.0-0.0","6295","2","14","Male","approach_avoid_spark_v1","""event"",""trial"",""time""
""fullscreenenter"",""1"",""2656""
""blur"",""8"",""70731""
""focus"",""8"",""70807""
","""event"",""trial"",""time""
""blur"",""8"",""70731""
","""event"",""trial"",""time""
""focus"",""8"",""70807""
","""event"",""trial"",""time""
""fullscreenenter"",""1"",""2656""
","
","true","false","[]","[]","[]","","","","","","","","","","","","","","","",""
"learning-instructions","60","375859","0.0-9.0-1.0-0.0","6295","2","14","Male","approach_avoid_spark_v1","""event"",""trial"",""time""
""fullscreenenter"",""1"",""2656""
""blur"",""8"",""70731""
""focus"",""8"",""70807""
","""event"",""trial"",""time""
""blur"",""8"",""70731""
","""event"",""trial"",""time""
""focus"",""8"",""70807""
","""event"",""trial"",""time""
""fullscreenenter"",""1"",""2656""
","
","","","","","","1507.3999998569489","<p> Your goal in this round is to take your friend for rides in different vehicles. </p></div>","","0","instructions","","","","","","","","","","",""
"learning-instructions","61","386811","0.0-9.0-1.0-0.1","6295","2","14","Male","approach_avoid_spark_v1","""event"",""trial"",""time""
""fullscreenenter"",""1"",""2656""
""blur"",""8"",""70731""
""focus"",""8"",""70807""
","""event"",""trial"",""time""
""blur"",""8"",""70731""
","""event"",""trial"",""time""
""focus"",""8"",""70807""
","""event"",""trial"",""time""
""fullscreenenter"",""1"",""2656""
","
","","","","","","450.09999990463257","<p> Your friend enjoys riding in some vehicles but not in others.  </p><p> On each turn, you will see a vehicle.   </p><p> You need to decide whether to take your friend for a ride or not.  </p>","","0","instructions","","","","","","","","","","",""
"learning-instructions","62","394147","0.0-9.0-1.0-0.2","6295","2","14","Male","approach_avoid_spark_v1","""event"",""trial"",""time""
""fullscreenenter"",""1"",""2656""
""blur"",""8"",""70731""
""focus"",""8"",""70807""
","""event"",""trial"",""time""
""blur"",""8"",""70731""
","""event"",""trial"",""time""
""focus"",""8"",""70807""
","""event"",""trial"",""time""
""fullscreenenter"",""1"",""2656""
","
","","","","","","485","<p> You can take your friend for a ride in the vehicle by pressing 1 and skip the ride by pressing 0. </p><br><div class=""choice-instructions-grid""> <div class=""choice-option""><img src=""images/approach.png"" class=""choice-option-img"" stage=""instructions"" position=""0"" ><div class=""choice-option-text""> Press ""1."" </div></div><div class=""choice-option""><img src=""images/avoid.png"" class=""choice-option-img"" stage=""instructions"" position=""1"" ><div class=""choice-option-text""> Press ""0."" </div></div>","","0","instructions","","","","","","","","","","",""
"learning-instructions","63","404267","0.0-9.0-1.0-0.3","6295","2","14","Male","approach_avoid_spark_v1","""event"",""trial"",""time""
""fullscreenenter"",""1"",""2656""
""blur"",""8"",""70731""
""focus"",""8"",""70807""
","""event"",""trial"",""time""
""blur"",""8"",""70731""
","""event"",""trial"",""time""
""focus"",""8"",""70807""
","""event"",""trial"",""time""
""fullscreenenter"",""1"",""2656""
","
","","","","","","715.3999998569489","<p> If you take them for a ride in a vehicle they like, they will be thrilled! </p><p> But if you take them for a ride in a vehicle they do not like, they will be upset. </p>","","0","instructions","","","","","","","","","","",""
"learning-instructions","64","422955","0.0-9.0-1.0-0.4","6295","2","14","Male","approach_avoid_spark_v1","""event"",""trial"",""time""
""fullscreenenter"",""1"",""2656""
""blur"",""8"",""70731""
""focus"",""8"",""70807""
","""event"",""trial"",""time""
""blur"",""8"",""70731""
","""event"",""trial"",""time""
""focus"",""8"",""70807""
","""event"",""trial"",""time""
""fullscreenenter"",""1"",""2656""
","
","","","","","","6243.5","<p> You will earn points based on how you made your friend feel. </p><p> If you made him thrilled, you will WIN anywhere from 1 - 9 points, </p><p> but if you made him upset, you will LOSE anywhere from 1 - 9 points. </p>","","0","instructions","","","","","","","","","","",""
"learning-instructions","65","435331","0.0-9.0-1.0-0.5","6295","2","14","Male","approach_avoid_spark_v1","""event"",""trial"",""time""
""fullscreenenter"",""1"",""2656""
""blur"",""8"",""70731""
""focus"",""8"",""70807""
","""event"",""trial"",""time""
""blur"",""8"",""70731""
","""event"",""trial"",""time""
""focus"",""8"",""70807""
","""event"",""trial"",""time""
""fullscreenenter"",""1"",""2656""
","
","","","","","","4509.699999809265","<p> You will see how many points you won or lost in the center of the screen. </p><p> Here is what you would see if you won 5 points: </p><p style=""color:green;font-size:50px;font-weight:bolder"">5</p>","","0","instructions","","","","","","","","","","",""
"learning-instructions","66","440147","0.0-9.0-1.0-0.6","6295","2","14","Male","approach_avoid_spark_v1","""event"",""trial"",""time""
""fullscreenenter"",""1"",""2656""
""blur"",""8"",""70731""
""focus"",""8"",""70807""
","""event"",""trial"",""time""
""blur"",""8"",""70731""
","""event"",""trial"",""time""
""focus"",""8"",""70807""
","""event"",""trial"",""time""
""fullscreenenter"",""1"",""2656""
","
","","","","","","1145.1999998092651","<p> And here is what you would see if you lost 3 points: </p><p style=""color:red;font-size:50px;font-weight:bolder"">-3</p>","","0","instructions","","","","","","","","","","",""
"learning-instructions","67","457179","0.0-9.0-1.0-0.7","6295","2","14","Male","approach_avoid_spark_v1","""event"",""trial"",""time""
""fullscreenenter"",""1"",""2656""
""blur"",""8"",""70731""
""focus"",""8"",""70807""
","""event"",""trial"",""time""
""blur"",""8"",""70731""
","""event"",""trial"",""time""
""focus"",""8"",""70807""
","""event"",""trial"",""time""
""fullscreenenter"",""1"",""2656""
","
","","","","","","988.0999999046326","<p> Some vehicles will make your friend REALLY thrilled or upset. </p><p> These vehicles will make you win or lose LOTS of points. </p><p> Other vehicles will only make him feel a little thrilled or upset. </p><p> These vehicles will make you win or lose small amounts of points. </p>","","0","instructions","","","","","","","","","","",""
"learning-instructions","68","480434","0.0-9.0-1.0-0.8","6295","2","14","Male","approach_avoid_spark_v1","""event"",""trial"",""time""
""fullscreenenter"",""1"",""2656""
""blur"",""8"",""70731""
""focus"",""8"",""70807""
","""event"",""trial"",""time""
""blur"",""8"",""70731""
","""event"",""trial"",""time""
""focus"",""8"",""70807""
","""event"",""trial"",""time""
""fullscreenenter"",""1"",""2656""
","
","","","","","","10753.599999904633","<p> If you choose to skip the ride, you will not win or lose any points. </p><p>  However, in the center of the screen, you will see the number of points you WOULD HAVE won or lost if you had taken your friend for a ride. </p>","","0","instructions","","","","","","","","","","",""
"learning-instructions","69","493146","0.0-9.0-1.0-0.9","6295","2","14","Male","approach_avoid_spark_v1","""event"",""trial"",""time""
""fullscreenenter"",""1"",""2656""
""blur"",""8"",""70731""
""focus"",""8"",""70807""
","""event"",""trial"",""time""
""blur"",""8"",""70731""
","""event"",""trial"",""time""
""focus"",""8"",""70807""
","""event"",""trial"",""time""
""fullscreenenter"",""1"",""2656""
","
","","","","","","1197.1000001430511","<p> Here is what you might see if you did not take your friend for a ride but he would have enjoyed it: </p><p style=""color:grey; font-size:50px; display: inline-block; border-spacing: 15px; border-width:3px; border-style:solid; border-color:red"">  &nbsp; 6 &nbsp; </p><p> Remember, in this case, you would not win or lose ANY points because you skipped the ride.  </p>","","0","instructions","","","","","","","","","","",""
"learning-instructions","70","502138","0.0-9.0-1.0-0.10","6295","2","14","Male","approach_avoid_spark_v1","""event"",""trial"",""time""
""fullscreenenter"",""1"",""2656""
""blur"",""8"",""70731""
""focus"",""8"",""70807""
","""event"",""trial"",""time""
""blur"",""8"",""70731""
","""event"",""trial"",""time""
""focus"",""8"",""70807""
","""event"",""trial"",""time""
""fullscreenenter"",""1"",""2656""
","
","","","","","","1017.5","<p> Try to make the best choice for each vehicle because </p><p> at the end of the game, you will earn bonus money based on how many points you earned. </p>","","0","instructions","","","","","","","","","","",""
"learning-instructions","71","512099","0.0-9.0-1.0-0.11","6295","2","14","Male","approach_avoid_spark_v1","""event"",""trial"",""time""
""fullscreenenter"",""1"",""2656""
""blur"",""8"",""70731""
""focus"",""8"",""70807""
","""event"",""trial"",""time""
""blur"",""8"",""70731""
","""event"",""trial"",""time""
""focus"",""8"",""70807""
","""event"",""trial"",""time""
""fullscreenenter"",""1"",""2656""
","
","","","","","","1757.8999998569489","<p> You will have 3 seconds to make each choice. Try to respond before time runs out! </p><p> You will lose 5 points each time you do not make a response. </p>","","0","instructions","","","","","","","","","","",""
"html-keyboard-response","72","512729","0.0-9.0-2.0-0.0","6295","2","14","Male","approach_avoid_spark_v1","""event"",""trial"",""time""
""fullscreenenter"",""1"",""2656""
""blur"",""8"",""70731""
""focus"",""8"",""70807""
","""event"",""trial"",""time""
""blur"",""8"",""70731""
","""event"",""trial"",""time""
""focus"",""8"",""70807""
","""event"",""trial"",""time""
""fullscreenenter"",""1"",""2656""
","
","","","","","","null","<div style=""font-size:60px;"">+</div>","null","","fixation","","","","","","","","","","",""
"aa-learning-trial","73","515748","0.0-9.0-2.0-1.0","6295","2","14","Male","approach_avoid_spark_v1","""event"",""trial"",""time""
""fullscreenenter"",""1"",""2656""
""blur"",""8"",""70731""
""focus"",""8"",""70807""
","""event"",""trial"",""time""
""blur"",""8"",""70731""
","""event"",""trial"",""time""
""focus"",""8"",""70807""
","""event"",""trial"",""time""
""fullscreenenter"",""1"",""2656""
","
","","","","","","1759.3999998569489","images/truck6.png","","","learning","1","1","1","1","truck","vehicles","2","0","","good","[5]"
"html-keyboard-response","74","516268","0.0-9.0-2.0-0.1","6295","2","14","Male","approach_avoid_spark_v1","""event"",""trial"",""time""
""fullscreenenter"",""1"",""2656""
""blur"",""8"",""70731""
""focus"",""8"",""70807""
","""event"",""trial"",""time""
""blur"",""8"",""70731""
","""event"",""trial"",""time""
""focus"",""8"",""70807""
","""event"",""trial"",""time""
""fullscreenenter"",""1"",""2656""
","
","","","","","","null","<div style=""font-size:60px;"">+</div>","null","","fixation","","","","","","","","","","",""
"aa-learning-trial","75","519279","0.0-9.0-2.0-1.1","6295","2","14","Male","approach_avoid_spark_v1","""event"",""trial"",""time""
""fullscreenenter"",""1"",""2656""
""blur"",""8"",""70731""
""focus"",""8"",""70807""
","""event"",""trial"",""time""
""blur"",""8"",""70731""
","""event"",""trial"",""time""
""focus"",""8"",""70807""
","""event"",""trial"",""time""
""fullscreenenter"",""1"",""2656""
","
","","","","","","1245.3000001907349","images/plane6.png","","","learning","5","5","1","1","plane","vehicles","2","0","","bad","[-4]"
"html-keyboard-response","76","519794","0.0-9.0-2.0-0.2","6295","2","14","Male","approach_avoid_spark_v1","""event"",""trial"",""time""
""fullscreenenter"",""1"",""2656""
""blur"",""8"",""70731""
""focus"",""8"",""70807""
","""event"",""trial"",""time""
""blur"",""8"",""70731""
","""event"",""trial"",""time""
""focus"",""8"",""70807""
","""event"",""trial"",""time""
""fullscreenenter"",""1"",""2656""
","
","","","","","","null","<div style=""font-size:60px;"">+</div>","null","","fixation","","","","","","","","","","",""
"aa-learning-trial","77","522819","0.0-9.0-2.0-1.2","6295","2","14","Male","approach_avoid_spark_v1","""event"",""trial"",""time""
""fullscreenenter"",""1"",""2656""
""blur"",""8"",""70731""
""focus"",""8"",""70807""
","""event"",""trial"",""time""
""blur"",""8"",""70731""
","""event"",""trial"",""time""
""focus"",""8"",""70807""
","""event"",""trial"",""time""
""fullscreenenter"",""1"",""2656""
","
","","","","","","792","images/truck5.png","","","learning","8","8","1","1","truck","vehicles","2","0","","good","[5]"
"html-keyboard-response","78","523339","0.0-9.0-2.0-0.3","6295","2","14","Male","approach_avoid_spark_v1","""event"",""trial"",""time""
""fullscreenenter"",""1"",""2656""
""blur"",""8"",""70731""
""focus"",""8"",""70807""
","""event"",""trial"",""time""
""blur"",""8"",""70731""
","""event"",""trial"",""time""
""focus"",""8"",""70807""
","""event"",""trial"",""time""
""fullscreenenter"",""1"",""2656""
","
","","","","","","null","<div style=""font-size:60px;"">+</div>","null","","fixation","","","","","","","","","","",""
"aa-learning-trial","79","526348","0.0-9.0-2.0-1.3","6295","2","14","Male","approach_avoid_spark_v1","""event"",""trial"",""time""
""fullscreenenter"",""1"",""2656""
""blur"",""8"",""70731""
""focus"",""8"",""70807""
","""event"",""trial"",""time""
""blur"",""8"",""70731""
","""event"",""trial"",""time""
""focus"",""8"",""70807""
","""event"",""trial"",""time""
""fullscreenenter"",""1"",""2656""
","
","","","","","","802.4000000953674","images/truck6.png","","","learning","1","1","1","1","truck","vehicles","2","0","","good","[5]"
"html-keyboard-response","80","526866","0.0-9.0-2.0-0.4","6295","2","14","Male","approach_avoid_spark_v1","""event"",""trial"",""time""
""fullscreenenter"",""1"",""2656""
""blur"",""8"",""70731""
""focus"",""8"",""70807""
","""event"",""trial"",""time""
""blur"",""8"",""70731""
","""event"",""trial"",""time""
""focus"",""8"",""70807""
","""event"",""trial"",""time""
""fullscreenenter"",""1"",""2656""
","
","","","","","","null","<div style=""font-size:60px;"">+</div>","null","","fixation","","","","","","","","","","",""
"aa-learning-trial","81","529880","0.0-9.0-2.0-1.4","6295","2","14","Male","approach_avoid_spark_v1","""event"",""trial"",""time""
""fullscreenenter"",""1"",""2656""
""blur"",""8"",""70731""
""focus"",""8"",""70807""
","""event"",""trial"",""time""
""blur"",""8"",""70731""
","""event"",""trial"",""time""
""focus"",""8"",""70807""
","""event"",""trial"",""time""
""fullscreenenter"",""1"",""2656""
","
","","","","","","246.90000009536743","images/truck5.png","","","learning","8","8","1","1","truck","vehicles","2","0","","good","[5]"
"html-keyboard-response","82","530388","0.0-9.0-2.0-0.5","6295","2","14","Male","approach_avoid_spark_v1","""event"",""trial"",""time""
""fullscreenenter"",""1"",""2656""
""blur"",""8"",""70731""
""focus"",""8"",""70807""
","""event"",""trial"",""time""
""blur"",""8"",""70731""
","""event"",""trial"",""time""
""focus"",""8"",""70807""
","""event"",""trial"",""time""
""fullscreenenter"",""1"",""2656""
","
","","","","","","null","<div style=""font-size:60px;"">+</div>","null","","fixation","","","","","","","","","","",""
"aa-learning-trial","83","533408","0.0-9.0-2.0-1.5","6295","2","14","Male","approach_avoid_spark_v1","""event"",""trial"",""time""
""fullscreenenter"",""1"",""2656""
""blur"",""8"",""70731""
""focus"",""8"",""70807""
","""event"",""trial"",""time""
""blur"",""8"",""70731""
","""event"",""trial"",""time""
""focus"",""8"",""70807""
","""event"",""trial"",""time""
""fullscreenenter"",""1"",""2656""
","
","","","","","","725.7999999523163","images/boat6.png","","","learning","2","2","1","1","boat","vehicles","2","0","","neutral","0"
"html-keyboard-response","84","533918","0.0-9.0-2.0-0.6","6295","2","14","Male","approach_avoid_spark_v1","""event"",""trial"",""time""
""fullscreenenter"",""1"",""2656""
""blur"",""8"",""70731""
""focus"",""8"",""70807""
","""event"",""trial"",""time""
""blur"",""8"",""70731""
","""event"",""trial"",""time""
""focus"",""8"",""70807""
","""event"",""trial"",""time""
""fullscreenenter"",""1"",""2656""
","
","","","","","","null","<div style=""font-size:60px;"">+</div>","null","","fixation","","","","","","","","","","",""
"aa-learning-trial","85","536933","0.0-9.0-2.0-1.6","6295","2","14","Male","approach_avoid_spark_v1","""event"",""trial"",""time""
""fullscreenenter"",""1"",""2656""
""blur"",""8"",""70731""
""focus"",""8"",""70807""
","""event"",""trial"",""time""
""blur"",""8"",""70731""
","""event"",""trial"",""time""
""focus"",""8"",""70807""
","""event"",""trial"",""time""
""fullscreenenter"",""1"",""2656""
","
","","","","","","364.2999999523163","images/plane8.png","","","learning","-6","-6","1","1","plane","vehicles","2","0","","bad","[-4]"
"html-keyboard-response","86","537447","0.0-9.0-2.0-0.7","6295","2","14","Male","approach_avoid_spark_v1","""event"",""trial"",""time""
""fullscreenenter"",""1"",""2656""
""blur"",""8"",""70731""
""focus"",""8"",""70807""
","""event"",""trial"",""time""
""blur"",""8"",""70731""
","""event"",""trial"",""time""
""focus"",""8"",""70807""
","""event"",""trial"",""time""
""fullscreenenter"",""1"",""2656""
","
","","","","","","null","<div style=""font-size:60px;"">+</div>","null","","fixation","","","","","","","","","","",""
"aa-learning-trial","87","540457","0.0-9.0-2.0-1.7","6295","2","14","Male","approach_avoid_spark_v1","""event"",""trial"",""time""
""fullscreenenter"",""1"",""2656""
""blur"",""8"",""70731""
""focus"",""8"",""70807""
","""event"",""trial"",""time""
""blur"",""8"",""70731""
","""event"",""trial"",""time""
""focus"",""8"",""70807""
","""event"",""trial"",""time""
""fullscreenenter"",""1"",""2656""
","
","","","","","","930.8000001907349","images/plane6.png","","","learning","5","0","0","0","plane","vehicles","2","0","","bad","[-4]"
"html-keyboard-response","88","540960","0.0-9.0-2.0-0.8","6295","2","14","Male","approach_avoid_spark_v1","""event"",""trial"",""time""
""fullscreenenter"",""1"",""2656""
""blur"",""8"",""70731""
""focus"",""8"",""70807""
","""event"",""trial"",""time""
""blur"",""8"",""70731""
","""event"",""trial"",""time""
""focus"",""8"",""70807""
","""event"",""trial"",""time""
""fullscreenenter"",""1"",""2656""
","
","","","","","","null","<div style=""font-size:60px;"">+</div>","null","","fixation","","","","","","","","","","",""
"aa-learning-trial","89","543968","0.0-9.0-2.0-1.8","6295","2","14","Male","approach_avoid_spark_v1","""event"",""trial"",""time""
""fullscreenenter"",""1"",""2656""
""blur"",""8"",""70731""
""focus"",""8"",""70807""
","""event"",""trial"",""time""
""blur"",""8"",""70731""
","""event"",""trial"",""time""
""focus"",""8"",""70807""
","""event"",""trial"",""time""
""fullscreenenter"",""1"",""2656""
","
","","","","","","1048.2000000476837","images/boat1.png","","","learning","-3","-3","1","1","boat","vehicles","2","0","","neutral","0"
"html-keyboard-response","90","544473","0.0-9.0-2.0-0.9","6295","2","14","Male","approach_avoid_spark_v1","""event"",""trial"",""time""
""fullscreenenter"",""1"",""2656""
""blur"",""8"",""70731""
""focus"",""8"",""70807""
","""event"",""trial"",""time""
""blur"",""8"",""70731""
","""event"",""trial"",""time""
""focus"",""8"",""70807""
","""event"",""trial"",""time""
""fullscreenenter"",""1"",""2656""
","
","","","","","","null","<div style=""font-size:60px;"">+</div>","null","","fixation","","","","","","","","","","",""
"aa-learning-trial","91","547481","0.0-9.0-2.0-1.9","6295","2","14","Male","approach_avoid_spark_v1","""event"",""trial"",""time""
""fullscreenenter"",""1"",""2656""
""blur"",""8"",""70731""
""focus"",""8"",""70807""
","""event"",""trial"",""time""
""blur"",""8"",""70731""
","""event"",""trial"",""time""
""focus"",""8"",""70807""
","""event"",""trial"",""time""
""fullscreenenter"",""1"",""2656""
","
","","","","","","1347.3999998569489","images/boat8.png","","","learning","6","0","0","0","boat","vehicles","2","0","","neutral","0"
"html-keyboard-response","92","547984","0.0-9.0-2.0-0.10","6295","2","14","Male","approach_avoid_spark_v1","""event"",""trial"",""time""
""fullscreenenter"",""1"",""2656""
""blur"",""8"",""70731""
""focus"",""8"",""70807""
","""event"",""trial"",""time""
""blur"",""8"",""70731""
","""event"",""trial"",""time""
""focus"",""8"",""70807""
","""event"",""trial"",""time""
""fullscreenenter"",""1"",""2656""
","
","","","","","","null","<div style=""font-size:60px;"">+</div>","null","","fixation","","","","","","","","","","",""
"aa-learning-trial","93","550993","0.0-9.0-2.0-1.10","6295","2","14","Male","approach_avoid_spark_v1","""event"",""trial"",""time""
""fullscreenenter"",""1"",""2656""
""blur"",""8"",""70731""
""focus"",""8"",""70807""
","""event"",""trial"",""time""
""blur"",""8"",""70731""
","""event"",""trial"",""time""
""focus"",""8"",""70807""
","""event"",""trial"",""time""
""fullscreenenter"",""1"",""2656""
","
","","","","","","1257.7000000476837","images/plane4.png","","","learning","7","7","1","1","plane","vehicles","2","0","","bad","[-4]"
"html-keyboard-response","94","551497","0.0-9.0-2.0-0.11","6295","2","14","Male","approach_avoid_spark_v1","""event"",""trial"",""time""
""fullscreenenter"",""1"",""2656""
""blur"",""8"",""70731""
""focus"",""8"",""70807""
","""event"",""trial"",""time""
""blur"",""8"",""70731""
","""event"",""trial"",""time""
""focus"",""8"",""70807""
","""event"",""trial"",""time""
""fullscreenenter"",""1"",""2656""
","
","","","","","","null","<div style=""font-size:60px;"">+</div>","null","","fixation","","","","","","","","","","",""
"aa-learning-trial","95","554504","0.0-9.0-2.0-1.11","6295","2","14","Male","approach_avoid_spark_v1","""event"",""trial"",""time""
""fullscreenenter"",""1"",""2656""
""blur"",""8"",""70731""
""focus"",""8"",""70807""
","""event"",""trial"",""time""
""blur"",""8"",""70731""
","""event"",""trial"",""time""
""focus"",""8"",""70807""
","""event"",""trial"",""time""
""fullscreenenter"",""1"",""2656""
","
","","","","","","1584.1000001430511","images/boat1.png","","","learning","-3","-3","1","1","boat","vehicles","2","0","","neutral","0"
"html-keyboard-response","96","555008","0.0-9.0-2.0-0.12","6295","2","14","Male","approach_avoid_spark_v1","""event"",""trial"",""time""
""fullscreenenter"",""1"",""2656""
""blur"",""8"",""70731""
""focus"",""8"",""70807""
","""event"",""trial"",""time""
""blur"",""8"",""70731""
","""event"",""trial"",""time""
""focus"",""8"",""70807""
","""event"",""trial"",""time""
""fullscreenenter"",""1"",""2656""
","
","","","","","","null","<div style=""font-size:60px;"">+</div>","null","","fixation","","","","","","","","","","",""
"aa-learning-trial","97","558017","0.0-9.0-2.0-1.12","6295","2","14","Male","approach_avoid_spark_v1","""event"",""trial"",""time""
""fullscreenenter"",""1"",""2656""
""blur"",""8"",""70731""
""focus"",""8"",""70807""
","""event"",""trial"",""time""
""blur"",""8"",""70731""
","""event"",""trial"",""time""
""focus"",""8"",""70807""
","""event"",""trial"",""time""
""fullscreenenter"",""1"",""2656""
","
","","","","","","1259.3999998569489","images/boat8.png","","","learning","6","6","1","1","boat","vehicles","2","0","","neutral","0"
"html-keyboard-response","98","558520","0.0-9.0-2.0-0.13","6295","2","14","Male","approach_avoid_spark_v1","""event"",""trial"",""time""
""fullscreenenter"",""1"",""2656""
""blur"",""8"",""70731""
""focus"",""8"",""70807""
","""event"",""trial"",""time""
""blur"",""8"",""70731""
","""event"",""trial"",""time""
""focus"",""8"",""70807""
","""event"",""trial"",""time""
""fullscreenenter"",""1"",""2656""
","
","","","","","","null","<div style=""font-size:60px;"">+</div>","null","","fixation","","","","","","","","","","",""
"aa-learning-trial","99","561529","0.0-9.0-2.0-1.13","6295","2","14","Male","approach_avoid_spark_v1","""event"",""trial"",""time""
""fullscreenenter"",""1"",""2656""
""blur"",""8"",""70731""
""focus"",""8"",""70807""
","""event"",""trial"",""time""
""blur"",""8"",""70731""
","""event"",""trial"",""time""
""focus"",""8"",""70807""
","""event"",""trial"",""time""
""fullscreenenter"",""1"",""2656""
","
","","","","","","1169.1000001430511","images/truck7.png","","","learning","-4","-4","1","1","truck","vehicles","2","0","","good","[5]"
"html-keyboard-response","100","562032","0.0-9.0-2.0-0.14","6295","2","14","Male","approach_avoid_spark_v1","""event"",""trial"",""time""
""fullscreenenter"",""1"",""2656""
""blur"",""8"",""70731""
""focus"",""8"",""70807""
","""event"",""trial"",""time""
""blur"",""8"",""70731""
","""event"",""trial"",""time""
""focus"",""8"",""70807""
","""event"",""trial"",""time""
""fullscreenenter"",""1"",""2656""
","
","","","","","","null","<div style=""font-size:60px;"">+</div>","null","","fixation","","","","","","","","","","",""
"aa-learning-trial","101","565040","0.0-9.0-2.0-1.14","6295","2","14","Male","approach_avoid_spark_v1","""event"",""trial"",""time""
""fullscreenenter"",""1"",""2656""
""blur"",""8"",""70731""
""focus"",""8"",""70807""
","""event"",""trial"",""time""
""blur"",""8"",""70731""
","""event"",""trial"",""time""
""focus"",""8"",""70807""
","""event"",""trial"",""time""
""fullscreenenter"",""1"",""2656""
","
","","","","","","1143.9000000953674","images/plane8.png","","","learning","-6","-6","1","1","plane","vehicles","2","0","","bad","[-4]"
"html-keyboard-response","102","565545","0.0-9.0-2.0-0.15","6295","2","14","Male","approach_avoid_spark_v1","""event"",""trial"",""time""
""fullscreenenter"",""1"",""2656""
""blur"",""8"",""70731""
""focus"",""8"",""70807""
","""event"",""trial"",""time""
""blur"",""8"",""70731""
","""event"",""trial"",""time""
""focus"",""8"",""70807""
","""event"",""trial"",""time""
""fullscreenenter"",""1"",""2656""
","
","","","","","","null","<div style=""font-size:60px;"">+</div>","null","","fixation","","","","","","","","","","",""
"aa-learning-trial","103","568552","0.0-9.0-2.0-1.15","6295","2","14","Male","approach_avoid_spark_v1","""event"",""trial"",""time""
""fullscreenenter"",""1"",""2656""
""blur"",""8"",""70731""
""focus"",""8"",""70807""
","""event"",""trial"",""time""
""blur"",""8"",""70731""
","""event"",""trial"",""time""
""focus"",""8"",""70807""
","""event"",""trial"",""time""
""fullscreenenter"",""1"",""2656""
","
","","","","","","1300.8000001907349","images/boat8.png","","","learning","6","0","0","0","boat","vehicles","2","0","","neutral","0"
"html-keyboard-response","104","569056","0.0-9.0-2.0-0.16","6295","2","14","Male","approach_avoid_spark_v1","""event"",""trial"",""time""
""fullscreenenter"",""1"",""2656""
""blur"",""8"",""70731""
""focus"",""8"",""70807""
","""event"",""trial"",""time""
""blur"",""8"",""70731""
","""event"",""trial"",""time""
""focus"",""8"",""70807""
","""event"",""trial"",""time""
""fullscreenenter"",""1"",""2656""
","
","","","","","","null","<div style=""font-size:60px;"">+</div>","null","","fixation","","","","","","","","","","",""
"aa-learning-trial","105","572064","0.0-9.0-2.0-1.16","6295","2","14","Male","approach_avoid_spark_v1","""event"",""trial"",""time""
""fullscreenenter"",""1"",""2656""
""blur"",""8"",""70731""
""focus"",""8"",""70807""
","""event"",""trial"",""time""
""blur"",""8"",""70731""
","""event"",""trial"",""time""
""focus"",""8"",""70807""
","""event"",""trial"",""time""
""fullscreenenter"",""1"",""2656""
","
","","","","","","840.5","images/plane8.png","","","learning","-6","-6","1","1","plane","vehicles","2","0","","bad","[-4]"
"html-keyboard-response","106","572568","0.0-9.0-2.0-0.17","6295","2","14","Male","approach_avoid_spark_v1","""event"",""trial"",""time""
""fullscreenenter"",""1"",""2656""
""blur"",""8"",""70731""
""focus"",""8"",""70807""
","""event"",""trial"",""time""
""blur"",""8"",""70731""
","""event"",""trial"",""time""
""focus"",""8"",""70807""
","""event"",""trial"",""time""
""fullscreenenter"",""1"",""2656""
","
","","","","","","null","<div style=""font-size:60px;"">+</div>","null","","fixation","","","","","","","","","","",""
"aa-learning-trial","107","575580","0.0-9.0-2.0-1.17","6295","2","14","Male","approach_avoid_spark_v1","""event"",""trial"",""time""
""fullscreenenter"",""1"",""2656""
""blur"",""8"",""70731""
""focus"",""8"",""70807""
","""event"",""trial"",""time""
""blur"",""8"",""70731""
","""event"",""trial"",""time""
""focus"",""8"",""70807""
","""event"",""trial"",""time""
""fullscreenenter"",""1"",""2656""
","
","","","","","","865.5","images/truck5.png","","","learning","8","8","1","1","truck","vehicles","2","0","","good","[5]"
"html-keyboard-response","108","576088","0.0-9.0-2.0-0.18","6295","2","14","Male","approach_avoid_spark_v1","""event"",""trial"",""time""
""fullscreenenter"",""1"",""2656""
""blur"",""8"",""70731""
""focus"",""8"",""70807""
","""event"",""trial"",""time""
""blur"",""8"",""70731""
","""event"",""trial"",""time""
""focus"",""8"",""70807""
","""event"",""trial"",""time""
""fullscreenenter"",""1"",""2656""
","
","","","","","","null","<div style=""font-size:60px;"">+</div>","null","","fixation","","","","","","","","","","",""
"aa-learning-trial","109","579096","0.0-9.0-2.0-1.18","6295","2","14","Male","approach_avoid_spark_v1","""event"",""trial"",""time""
""fullscreenenter"",""1"",""2656""
""blur"",""8"",""70731""
""focus"",""8"",""70807""
","""event"",""trial"",""time""
""blur"",""8"",""70731""
","""event"",""trial"",""time""
""focus"",""8"",""70807""
","""event"",""trial"",""time""
""fullscreenenter"",""1"",""2656""
","
","","","","","","1171.5999999046326","images/plane4.png","","","learning","7","7","1","1","plane","vehicles","2","0","","bad","[-4]"
"html-keyboard-response","110","579600","0.0-9.0-2.0-0.19","6295","2","14","Male","approach_avoid_spark_v1","""event"",""trial"",""time""
""fullscreenenter"",""1"",""2656""
""blur"",""8"",""70731""
""focus"",""8"",""70807""
","""event"",""trial"",""time""
""blur"",""8"",""70731""
","""event"",""trial"",""time""
""focus"",""8"",""70807""
","""event"",""trial"",""time""
""fullscreenenter"",""1"",""2656""
","
","","","","","","null","<div style=""font-size:60px;"">+</div>","null","","fixation","","","","","","","","","","",""
"aa-learning-trial","111","582607","0.0-9.0-2.0-1.19","6295","2","14","Male","approach_avoid_spark_v1","""event"",""trial"",""time""
""fullscreenenter"",""1"",""2656""
""blur"",""8"",""70731""
""focus"",""8"",""70807""
","""event"",""trial"",""time""
""blur"",""8"",""70731""
","""event"",""trial"",""time""
""focus"",""8"",""70807""
","""event"",""trial"",""time""
""fullscreenenter"",""1"",""2656""
","
","","","","","","777","images/truck5.png","","","learning","8","8","1","1","truck","vehicles","2","0","","good","[5]"
"html-keyboard-response","112","583111","0.0-9.0-2.0-0.20","6295","2","14","Male","approach_avoid_spark_v1","""event"",""trial"",""time""
""fullscreenenter"",""1"",""2656""
""blur"",""8"",""70731""
""focus"",""8"",""70807""
","""event"",""trial"",""time""
""blur"",""8"",""70731""
","""event"",""trial"",""time""
""focus"",""8"",""70807""
","""event"",""trial"",""time""
""fullscreenenter"",""1"",""2656""
","
","","","","","","null","<div style=""font-size:60px;"">+</div>","null","","fixation","","","","","","","","","","",""
"aa-learning-trial","113","586120","0.0-9.0-2.0-1.20","6295","2","14","Male","approach_avoid_spark_v1","""event"",""trial"",""time""
""fullscreenenter"",""1"",""2656""
""blur"",""8"",""70731""
""focus"",""8"",""70807""
","""event"",""trial"",""time""
""blur"",""8"",""70731""
","""event"",""trial"",""time""
""focus"",""8"",""70807""
","""event"",""trial"",""time""
""fullscreenenter"",""1"",""2656""
","
","","","","","","1537.1000001430511","images/plane8.png","","","learning","-6","0","0","0","plane","vehicles","2","0","","bad","[-4]"
"html-keyboard-response","114","586623","0.0-9.0-2.0-0.21","6295","2","14","Male","approach_avoid_spark_v1","""event"",""trial"",""time""
""fullscreenenter"",""1"",""2656""
""blur"",""8"",""70731""
""focus"",""8"",""70807""
","""event"",""trial"",""time""
""blur"",""8"",""70731""
","""event"",""trial"",""time""
""focus"",""8"",""70807""
","""event"",""trial"",""time""
""fullscreenenter"",""1"",""2656""
","
","","","","","","null","<div style=""font-size:60px;"">+</div>","null","","fixation","","","","","","","","","","",""
"aa-learning-trial","115","589633","0.0-9.0-2.0-1.21","6295","2","14","Male","approach_avoid_spark_v1","""event"",""trial"",""time""
""fullscreenenter"",""1"",""2656""
""blur"",""8"",""70731""
""focus"",""8"",""70807""
","""event"",""trial"",""time""
""blur"",""8"",""70731""
","""event"",""trial"",""time""
""focus"",""8"",""70807""
","""event"",""trial"",""time""
""fullscreenenter"",""1"",""2656""
","
","","","","","","814","images/truck5.png","","","learning","8","8","1","1","truck","vehicles","2","0","","good","[5]"
"html-keyboard-response","116","590136","0.0-9.0-2.0-0.22","6295","2","14","Male","approach_avoid_spark_v1","""event"",""trial"",""time""
""fullscreenenter"",""1"",""2656""
""blur"",""8"",""70731""
""focus"",""8"",""70807""
","""event"",""trial"",""time""
""blur"",""8"",""70731""
","""event"",""trial"",""time""
""focus"",""8"",""70807""
","""event"",""trial"",""time""
""fullscreenenter"",""1"",""2656""
","
","","","","","","null","<div style=""font-size:60px;"">+</div>","null","","fixation","","","","","","","","","","",""
"aa-learning-trial","117","593144","0.0-9.0-2.0-1.22","6295","2","14","Male","approach_avoid_spark_v1","""event"",""trial"",""time""
""fullscreenenter"",""1"",""2656""
""blur"",""8"",""70731""
""focus"",""8"",""70807""
","""event"",""trial"",""time""
""blur"",""8"",""70731""
","""event"",""trial"",""time""
""focus"",""8"",""70807""
","""event"",""trial"",""time""
""fullscreenenter"",""1"",""2656""
","
","","","","","","1088.9000000953674","images/boat6.png","","","learning","2","2","1","1","boat","vehicles","2","0","","neutral","0"
"html-keyboard-response","118","593648","0.0-9.0-2.0-0.23","6295","2","14","Male","approach_avoid_spark_v1","""event"",""trial"",""time""
""fullscreenenter"",""1"",""2656""
""blur"",""8"",""70731""
""focus"",""8"",""70807""
","""event"",""trial"",""time""
""blur"",""8"",""70731""
","""event"",""trial"",""time""
""focus"",""8"",""70807""
","""event"",""trial"",""time""
""fullscreenenter"",""1"",""2656""
","
","","","","","","null","<div style=""font-size:60px;"">+</div>","null","","fixation","","","","","","","","","","",""
"aa-learning-trial","119","596655","0.0-9.0-2.0-1.23","6295","2","14","Male","approach_avoid_spark_v1","""event"",""trial"",""time""
""fullscreenenter"",""1"",""2656""
""blur"",""8"",""70731""
""focus"",""8"",""70807""
","""event"",""trial"",""time""
""blur"",""8"",""70731""
","""event"",""trial"",""time""
""focus"",""8"",""70807""
","""event"",""trial"",""time""
""fullscreenenter"",""1"",""2656""
","
","","","","","","1159.6000001430511","images/plane8.png","","","learning","-6","0","0","0","plane","vehicles","2","0","","bad","[-4]"
"html-keyboard-response","120","597159","0.0-9.0-2.0-0.24","6295","2","14","Male","approach_avoid_spark_v1","""event"",""trial"",""time""
""fullscreenenter"",""1"",""2656""
""blur"",""8"",""70731""
""focus"",""8"",""70807""
","""event"",""trial"",""time""
""blur"",""8"",""70731""
","""event"",""trial"",""time""
""focus"",""8"",""70807""
","""event"",""trial"",""time""
""fullscreenenter"",""1"",""2656""
","
","","","","","","null","<div style=""font-size:60px;"">+</div>","null","","fixation","","","","","","","","","","",""
"aa-learning-trial","121","600168","0.0-9.0-2.0-1.24","6295","2","14","Male","approach_avoid_spark_v1","""event"",""trial"",""time""
""fullscreenenter"",""1"",""2656""
""blur"",""8"",""70731""
""focus"",""8"",""70807""
","""event"",""trial"",""time""
""blur"",""8"",""70731""
","""event"",""trial"",""time""
""focus"",""8"",""70807""
","""event"",""trial"",""time""
""fullscreenenter"",""1"",""2656""
","
","","","","","","1380.3999998569489","images/truck7.png","","","learning","-4","-4","1","1","truck","vehicles","2","0","","good","[5]"
"html-keyboard-response","122","600672","0.0-9.0-2.0-0.25","6295","2","14","Male","approach_avoid_spark_v1","""event"",""trial"",""time""
""fullscreenenter"",""1"",""2656""
""blur"",""8"",""70731""
""focus"",""8"",""70807""
","""event"",""trial"",""time""
""blur"",""8"",""70731""
","""event"",""trial"",""time""
""focus"",""8"",""70807""
","""event"",""trial"",""time""
""fullscreenenter"",""1"",""2656""
","
","","","","","","null","<div style=""font-size:60px;"">+</div>","null","","fixation","","","","","","","","","","",""
"aa-learning-trial","123","603679","0.0-9.0-2.0-1.25","6295","2","14","Male","approach_avoid_spark_v1","""event"",""trial"",""time""
""fullscreenenter"",""1"",""2656""
""blur"",""8"",""70731""
""focus"",""8"",""70807""
","""event"",""trial"",""time""
""blur"",""8"",""70731""
","""event"",""trial"",""time""
""focus"",""8"",""70807""
","""event"",""trial"",""time""
""fullscreenenter"",""1"",""2656""
","
","","","","","","1033.4000000953674","images/plane8.png","","","learning","-6","0","0","0","plane","vehicles","2","0","","bad","[-4]"
"html-keyboard-response","124","604184","0.0-9.0-2.0-0.26","6295","2","14","Male","approach_avoid_spark_v1","""event"",""trial"",""time""
""fullscreenenter"",""1"",""2656""
""blur"",""8"",""70731""
""focus"",""8"",""70807""
","""event"",""trial"",""time""
""blur"",""8"",""70731""
","""event"",""trial"",""time""
""focus"",""8"",""70807""
","""event"",""trial"",""time""
""fullscreenenter"",""1"",""2656""
","
","","","","","","null","<div style=""font-size:60px;"">+</div>","null","","fixation","","","","","","","","","","",""
"aa-learning-trial","125","607192","0.0-9.0-2.0-1.26","6295","2","14","Male","approach_avoid_spark_v1","""event"",""trial"",""time""
""fullscreenenter"",""1"",""2656""
""blur"",""8"",""70731""
""focus"",""8"",""70807""
","""event"",""trial"",""time""
""blur"",""8"",""70731""
","""event"",""trial"",""time""
""focus"",""8"",""70807""
","""event"",""trial"",""time""
""fullscreenenter"",""1"",""2656""
","
","","","","","","1424.7000000476837","images/boat7.png","","","learning","3","3","1","1","boat","vehicles","2","0","","neutral","0"
"html-keyboard-response","126","607696","0.0-9.0-2.0-0.27","6295","2","14","Male","approach_avoid_spark_v1","""event"",""trial"",""time""
""fullscreenenter"",""1"",""2656""
""blur"",""8"",""70731""
""focus"",""8"",""70807""
","""event"",""trial"",""time""
""blur"",""8"",""70731""
","""event"",""trial"",""time""
""focus"",""8"",""70807""
","""event"",""trial"",""time""
""fullscreenenter"",""1"",""2656""
","
","","","","","","null","<div style=""font-size:60px;"">+</div>","null","","fixation","","","","","","","","","","",""
"aa-learning-trial","127","610704","0.0-9.0-2.0-1.27","6295","2","14","Male","approach_avoid_spark_v1","""event"",""trial"",""time""
""fullscreenenter"",""1"",""2656""
""blur"",""8"",""70731""
""focus"",""8"",""70807""
","""event"",""trial"",""time""
""blur"",""8"",""70731""
","""event"",""trial"",""time""
""focus"",""8"",""70807""
","""event"",""trial"",""time""
""fullscreenenter"",""1"",""2656""
","
","","","","","","1148.0999999046326","images/boat1.png","","","learning","-3","-3","1","1","boat","vehicles","2","0","","neutral","0"
"html-keyboard-response","128","611207","0.0-9.0-2.0-0.28","6295","2","14","Male","approach_avoid_spark_v1","""event"",""trial"",""time""
""fullscreenenter"",""1"",""2656""
""blur"",""8"",""70731""
""focus"",""8"",""70807""
","""event"",""trial"",""time""
""blur"",""8"",""70731""
","""event"",""trial"",""time""
""focus"",""8"",""70807""
","""event"",""trial"",""time""
""fullscreenenter"",""1"",""2656""
","
","","","","","","null","<div style=""font-size:60px;"">+</div>","null","","fixation","","","","","","","","","","",""
"aa-learning-trial","129","614215","0.0-9.0-2.0-1.28","6295","2","14","Male","approach_avoid_spark_v1","""event"",""trial"",""time""
""fullscreenenter"",""1"",""2656""
""blur"",""8"",""70731""
""focus"",""8"",""70807""
","""event"",""trial"",""time""
""blur"",""8"",""70731""
","""event"",""trial"",""time""
""focus"",""8"",""70807""
","""event"",""trial"",""time""
""fullscreenenter"",""1"",""2656""
","
","","","","","","1056.9000000953674","images/truck6.png","","","learning","1","1","1","1","truck","vehicles","2","0","","good","[5]"
"html-keyboard-response","130","614720","0.0-9.0-2.0-0.29","6295","2","14","Male","approach_avoid_spark_v1","""event"",""trial"",""time""
""fullscreenenter"",""1"",""2656""
""blur"",""8"",""70731""
""focus"",""8"",""70807""
","""event"",""trial"",""time""
""blur"",""8"",""70731""
","""event"",""trial"",""time""
""focus"",""8"",""70807""
","""event"",""trial"",""time""
""fullscreenenter"",""1"",""2656""
","
","","","","","","null","<div style=""font-size:60px;"">+</div>","null","","fixation","","","","","","","","","","",""
"aa-learning-trial","131","617728","0.0-9.0-2.0-1.29","6295","2","14","Male","approach_avoid_spark_v1","""event"",""trial"",""time""
""fullscreenenter"",""1"",""2656""
""blur"",""8"",""70731""
""focus"",""8"",""70807""
","""event"",""trial"",""time""
""blur"",""8"",""70731""
","""event"",""trial"",""time""
""focus"",""8"",""70807""
","""event"",""trial"",""time""
""fullscreenenter"",""1"",""2656""
","
","","","","","","1561.2000000476837","images/plane6.png","","","learning","5","0","0","0","plane","vehicles","2","0","","bad","[-4]"
"html-keyboard-response","132","618231","0.0-9.0-2.0-0.30","6295","2","14","Male","approach_avoid_spark_v1","""event"",""trial"",""time""
""fullscreenenter"",""1"",""2656""
""blur"",""8"",""70731""
""focus"",""8"",""70807""
","""event"",""trial"",""time""
""blur"",""8"",""70731""
","""event"",""trial"",""time""
""focus"",""8"",""70807""
","""event"",""trial"",""time""
""fullscreenenter"",""1"",""2656""
","
","","","","","","null","<div style=""font-size:60px;"">+</div>","null","","fixation","","","","","","","","","","",""
"aa-learning-trial","133","621239","0.0-9.0-2.0-1.30","6295","2","14","Male","approach_avoid_spark_v1","""event"",""trial"",""time""
""fullscreenenter"",""1"",""2656""
""blur"",""8"",""70731""
""focus"",""8"",""70807""
","""event"",""trial"",""time""
""blur"",""8"",""70731""
","""event"",""trial"",""time""
""focus"",""8"",""70807""
","""event"",""trial"",""time""
""fullscreenenter"",""1"",""2656""
","
","","","","","","900.2000000476837","images/plane6.png","","","learning","5","5","1","1","plane","vehicles","2","0","","bad","[-4]"
"html-keyboard-response","134","621744","0.0-9.0-2.0-0.31","6295","2","14","Male","approach_avoid_spark_v1","""event"",""trial"",""time""
""fullscreenenter"",""1"",""2656""
""blur"",""8"",""70731""
""focus"",""8"",""70807""
","""event"",""trial"",""time""
""blur"",""8"",""70731""
","""event"",""trial"",""time""
""focus"",""8"",""70807""
","""event"",""trial"",""time""
""fullscreenenter"",""1"",""2656""
","
","","","","","","null","<div style=""font-size:60px;"">+</div>","null","","fixation","","","","","","","","","","",""
"aa-learning-trial","135","624752","0.0-9.0-2.0-1.31","6295","2","14","Male","approach_avoid_spark_v1","""event"",""trial"",""time""
""fullscreenenter"",""1"",""2656""
""blur"",""8"",""70731""
""focus"",""8"",""70807""
","""event"",""trial"",""time""
""blur"",""8"",""70731""
","""event"",""trial"",""time""
""focus"",""8"",""70807""
","""event"",""trial"",""time""
""fullscreenenter"",""1"",""2656""
","
","","","","","","1176.8999998569489","images/truck6.png","","","learning","1","0","0","0","truck","vehicles","2","0","","good","[5]"
"html-keyboard-response","136","625255","0.0-9.0-2.0-0.32","6295","2","14","Male","approach_avoid_spark_v1","""event"",""trial"",""time""
""fullscreenenter"",""1"",""2656""
""blur"",""8"",""70731""
""focus"",""8"",""70807""
","""event"",""trial"",""time""
""blur"",""8"",""70731""
","""event"",""trial"",""time""
""focus"",""8"",""70807""
","""event"",""trial"",""time""
""fullscreenenter"",""1"",""2656""
","
","","","","","","null","<div style=""font-size:60px;"">+</div>","null","","fixation","","","","","","","","","","",""
"aa-learning-trial","137","628264","0.0-9.0-2.0-1.32","6295","2","14","Male","approach_avoid_spark_v1","""event"",""trial"",""time""
""fullscreenenter"",""1"",""2656""
""blur"",""8"",""70731""
""focus"",""8"",""70807""
","""event"",""trial"",""time""
""blur"",""8"",""70731""
","""event"",""trial"",""time""
""focus"",""8"",""70807""
","""event"",""trial"",""time""
""fullscreenenter"",""1"",""2656""
","
","","","","","","1344.8000001907349","images/truck4.png","","","learning","-7","-7","1","1","truck","vehicles","2","0","","good","[5]"
"html-keyboard-response","138","628767","0.0-9.0-2.0-0.33","6295","2","14","Male","approach_avoid_spark_v1","""event"",""trial"",""time""
""fullscreenenter"",""1"",""2656""
""blur"",""8"",""70731""
""focus"",""8"",""70807""
","""event"",""trial"",""time""
""blur"",""8"",""70731""
","""event"",""trial"",""time""
""focus"",""8"",""70807""
","""event"",""trial"",""time""
""fullscreenenter"",""1"",""2656""
","
","","","","","","null","<div style=""font-size:60px;"">+</div>","null","","fixation","","","","","","","","","","",""
"aa-learning-trial","139","631776","0.0-9.0-2.0-1.33","6295","2","14","Male","approach_avoid_spark_v1","""event"",""trial"",""time""
""fullscreenenter"",""1"",""2656""
""blur"",""8"",""70731""
""focus"",""8"",""70807""
","""event"",""trial"",""time""
""blur"",""8"",""70731""
","""event"",""trial"",""time""
""focus"",""8"",""70807""
","""event"",""trial"",""time""
""fullscreenenter"",""1"",""2656""
","
","","","","","","1374.1999998092651","images/boat1.png","","","learning","-3","-3","1","1","boat","vehicles","2","0","","neutral","0"
"html-keyboard-response","140","632280","0.0-9.0-2.0-0.34","6295","2","14","Male","approach_avoid_spark_v1","""event"",""trial"",""time""
""fullscreenenter"",""1"",""2656""
""blur"",""8"",""70731""
""focus"",""8"",""70807""
","""event"",""trial"",""time""
""blur"",""8"",""70731""
","""event"",""trial"",""time""
""focus"",""8"",""70807""
","""event"",""trial"",""time""
""fullscreenenter"",""1"",""2656""
","
","","","","","","null","<div style=""font-size:60px;"">+</div>","null","","fixation","","","","","","","","","","",""
"aa-learning-trial","141","635288","0.0-9.0-2.0-1.34","6295","2","14","Male","approach_avoid_spark_v1","""event"",""trial"",""time""
""fullscreenenter"",""1"",""2656""
""blur"",""8"",""70731""
""focus"",""8"",""70807""
","""event"",""trial"",""time""
""blur"",""8"",""70731""
","""event"",""trial"",""time""
""focus"",""8"",""70807""
","""event"",""trial"",""time""
""fullscreenenter"",""1"",""2656""
","
","","","","","","1312.2999999523163","images/truck3.png","","","learning","4","0","0","0","truck","vehicles","2","0","","good","[5]"
"html-keyboard-response","142","635792","0.0-9.0-2.0-0.35","6295","2","14","Male","approach_avoid_spark_v1","""event"",""trial"",""time""
""fullscreenenter"",""1"",""2656""
""blur"",""8"",""70731""
""focus"",""8"",""70807""
","""event"",""trial"",""time""
""blur"",""8"",""70731""
","""event"",""trial"",""time""
""focus"",""8"",""70807""
","""event"",""trial"",""time""
""fullscreenenter"",""1"",""2656""
","
","","","","","","null","<div style=""font-size:60px;"">+</div>","null","","fixation","","","","","","","","","","",""
"aa-learning-trial","143","638800","0.0-9.0-2.0-1.35","6295","2","14","Male","approach_avoid_spark_v1","""event"",""trial"",""time""
""fullscreenenter"",""1"",""2656""
""blur"",""8"",""70731""
""focus"",""8"",""70807""
","""event"",""trial"",""time""
""blur"",""8"",""70731""
","""event"",""trial"",""time""
""focus"",""8"",""70807""
","""event"",""trial"",""time""
""fullscreenenter"",""1"",""2656""
","
","","","","","","1240.6000001430511","images/truck5.png","","","learning","8","8","1","1","truck","vehicles","2","0","","good","[5]"
"html-keyboard-response","144","639304","0.0-9.0-2.0-0.36","6295","2","14","Male","approach_avoid_spark_v1","""event"",""trial"",""time""
""fullscreenenter"",""1"",""2656""
""blur"",""8"",""70731""
""focus"",""8"",""70807""
","""event"",""trial"",""time""
""blur"",""8"",""70731""
","""event"",""trial"",""time""
""focus"",""8"",""70807""
","""event"",""trial"",""time""
""fullscreenenter"",""1"",""2656""
","
","","","","","","null","<div style=""font-size:60px;"">+</div>","null","","fixation","","","","","","","","","","",""
"aa-learning-trial","145","642312","0.0-9.0-2.0-1.36","6295","2","14","Male","approach_avoid_spark_v1","""event"",""trial"",""time""
""fullscreenenter"",""1"",""2656""
""blur"",""8"",""70731""
""focus"",""8"",""70807""
","""event"",""trial"",""time""
""blur"",""8"",""70731""
","""event"",""trial"",""time""
""focus"",""8"",""70807""
","""event"",""trial"",""time""
""fullscreenenter"",""1"",""2656""
","
","","","","","","1332.0999999046326","images/plane1.png","","","learning","-5","-5","1","1","plane","vehicles","2","0","","bad","[-4]"
"html-keyboard-response","146","642815","0.0-9.0-2.0-0.37","6295","2","14","Male","approach_avoid_spark_v1","""event"",""trial"",""time""
""fullscreenenter"",""1"",""2656""
""blur"",""8"",""70731""
""focus"",""8"",""70807""
","""event"",""trial"",""time""
""blur"",""8"",""70731""
","""event"",""trial"",""time""
""focus"",""8"",""70807""
","""event"",""trial"",""time""
""fullscreenenter"",""1"",""2656""
","
","","","","","","null","<div style=""font-size:60px;"">+</div>","null","","fixation","","","","","","","","","","",""
"aa-learning-trial","147","645824","0.0-9.0-2.0-1.37","6295","2","14","Male","approach_avoid_spark_v1","""event"",""trial"",""time""
""fullscreenenter"",""1"",""2656""
""blur"",""8"",""70731""
""focus"",""8"",""70807""
","""event"",""trial"",""time""
""blur"",""8"",""70731""
","""event"",""trial"",""time""
""focus"",""8"",""70807""
","""event"",""trial"",""time""
""fullscreenenter"",""1"",""2656""
","
","","","","","","1386.1000001430511","images/boat6.png","","","learning","2","0","0","0","boat","vehicles","2","0","","neutral","0"
"html-keyboard-response","148","646327","0.0-9.0-2.0-0.38","6295","2","14","Male","approach_avoid_spark_v1","""event"",""trial"",""time""
""fullscreenenter"",""1"",""2656""
""blur"",""8"",""70731""
""focus"",""8"",""70807""
","""event"",""trial"",""time""
""blur"",""8"",""70731""
","""event"",""trial"",""time""
""focus"",""8"",""70807""
","""event"",""trial"",""time""
""fullscreenenter"",""1"",""2656""
","
","","","","","","null","<div style=""font-size:60px;"">+</div>","null","","fixation","","","","","","","","","","",""
"aa-learning-trial","149","649336","0.0-9.0-2.0-1.38","6295","2","14","Male","approach_avoid_spark_v1","""event"",""trial"",""time""
""fullscreenenter"",""1"",""2656""
""blur"",""8"",""70731""
""focus"",""8"",""70807""
","""event"",""trial"",""time""
""blur"",""8"",""70731""
","""event"",""trial"",""time""
""focus"",""8"",""70807""
","""event"",""trial"",""time""
""fullscreenenter"",""1"",""2656""
","
","","","","","","1057.2000000476837","images/truck6.png","","","learning","1","0","0","0","truck","vehicles","2","0","","good","[5]"
"html-keyboard-response","150","649840","0.0-9.0-2.0-0.39","6295","2","14","Male","approach_avoid_spark_v1","""event"",""trial"",""time""
""fullscreenenter"",""1"",""2656""
""blur"",""8"",""70731""
""focus"",""8"",""70807""
","""event"",""trial"",""time""
""blur"",""8"",""70731""
","""event"",""trial"",""time""
""focus"",""8"",""70807""
","""event"",""trial"",""time""
""fullscreenenter"",""1"",""2656""
","
","","","","","","null","<div style=""font-size:60px;"">+</div>","null","","fixation","","","","","","","","","","",""
"aa-learning-trial","151","652848","0.0-9.0-2.0-1.39","6295","2","14","Male","approach_avoid_spark_v1","""event"",""trial"",""time""
""fullscreenenter"",""1"",""2656""
""blur"",""8"",""70731""
""focus"",""8"",""70807""
","""event"",""trial"",""time""
""blur"",""8"",""70731""
","""event"",""trial"",""time""
""focus"",""8"",""70807""
","""event"",""trial"",""time""
""fullscreenenter"",""1"",""2656""
","
","","","","","","1291.5999999046326","images/boat1.png","","","learning","-3","0","0","0","boat","vehicles","2","0","","neutral","0"
"html-keyboard-response","152","653352","0.0-9.0-2.0-0.40","6295","2","14","Male","approach_avoid_spark_v1","""event"",""trial"",""time""
""fullscreenenter"",""1"",""2656""
""blur"",""8"",""70731""
""focus"",""8"",""70807""
","""event"",""trial"",""time""
""blur"",""8"",""70731""
","""event"",""trial"",""time""
""focus"",""8"",""70807""
","""event"",""trial"",""time""
""fullscreenenter"",""1"",""2656""
","
","","","","","","null","<div style=""font-size:60px;"">+</div>","null","","fixation","","","","","","","","","","",""
"aa-learning-trial","153","656361","0.0-9.0-2.0-1.40","6295","2","14","Male","approach_avoid_spark_v1","""event"",""trial"",""time""
""fullscreenenter"",""1"",""2656""
""blur"",""8"",""70731""
""focus"",""8"",""70807""
","""event"",""trial"",""time""
""blur"",""8"",""70731""
","""event"",""trial"",""time""
""focus"",""8"",""70807""
","""event"",""trial"",""time""
""fullscreenenter"",""1"",""2656""
","
","","","","","","1488.5999999046326","images/plane4.png","","","learning","7","7","1","1","plane","vehicles","2","0","","bad","[-4]"
"html-keyboard-response","154","656864","0.0-9.0-2.0-0.41","6295","2","14","Male","approach_avoid_spark_v1","""event"",""trial"",""time""
""fullscreenenter"",""1"",""2656""
""blur"",""8"",""70731""
""focus"",""8"",""70807""
","""event"",""trial"",""time""
""blur"",""8"",""70731""
","""event"",""trial"",""time""
""focus"",""8"",""70807""
","""event"",""trial"",""time""
""fullscreenenter"",""1"",""2656""
","
","","","","","","null","<div style=""font-size:60px;"">+</div>","null","","fixation","","","","","","","","","","",""
"aa-learning-trial","155","659872","0.0-9.0-2.0-1.41","6295","2","14","Male","approach_avoid_spark_v1","""event"",""trial"",""time""
""fullscreenenter"",""1"",""2656""
""blur"",""8"",""70731""
""focus"",""8"",""70807""
","""event"",""trial"",""time""
""blur"",""8"",""70731""
","""event"",""trial"",""time""
""focus"",""8"",""70807""
","""event"",""trial"",""time""
""fullscreenenter"",""1"",""2656""
","
","","","","","","1640.8999998569489","images/plane6.png","","","learning","5","0","0","0","plane","vehicles","2","0","","bad","[-4]"
"html-keyboard-response","156","660375","0.0-9.0-2.0-0.42","6295","2","14","Male","approach_avoid_spark_v1","""event"",""trial"",""time""
""fullscreenenter"",""1"",""2656""
""blur"",""8"",""70731""
""focus"",""8"",""70807""
","""event"",""trial"",""time""
""blur"",""8"",""70731""
","""event"",""trial"",""time""
""focus"",""8"",""70807""
","""event"",""trial"",""time""
""fullscreenenter"",""1"",""2656""
","
","","","","","","null","<div style=""font-size:60px;"">+</div>","null","","fixation","","","","","","","","","","",""
"aa-learning-trial","157","663384","0.0-9.0-2.0-1.42","6295","2","14","Male","approach_avoid_spark_v1","""event"",""trial"",""time""
""fullscreenenter"",""1"",""2656""
""blur"",""8"",""70731""
""focus"",""8"",""70807""
","""event"",""trial"",""time""
""blur"",""8"",""70731""
","""event"",""trial"",""time""
""focus"",""8"",""70807""
","""event"",""trial"",""time""
""fullscreenenter"",""1"",""2656""
","
","","","","","","1188.0999999046326","images/boat8.png","","","learning","6","6","1","1","boat","vehicles","2","0","","neutral","0"
"html-keyboard-response","158","663888","0.0-9.0-2.0-0.43","6295","2","14","Male","approach_avoid_spark_v1","""event"",""trial"",""time""
""fullscreenenter"",""1"",""2656""
""blur"",""8"",""70731""
""focus"",""8"",""70807""
","""event"",""trial"",""time""
""blur"",""8"",""70731""
","""event"",""trial"",""time""
""focus"",""8"",""70807""
","""event"",""trial"",""time""
""fullscreenenter"",""1"",""2656""
","
","","","","","","null","<div style=""font-size:60px;"">+</div>","null","","fixation","","","","","","","","","","",""
"aa-learning-trial","159","666896","0.0-9.0-2.0-1.43","6295","2","14","Male","approach_avoid_spark_v1","""event"",""trial"",""time""
""fullscreenenter"",""1"",""2656""
""blur"",""8"",""70731""
""focus"",""8"",""70807""
","""event"",""trial"",""time""
""blur"",""8"",""70731""
","""event"",""trial"",""time""
""focus"",""8"",""70807""
","""event"",""trial"",""time""
""fullscreenenter"",""1"",""2656""
","
","","","","","","1658.0999999046326","images/boat1.png","","","learning","-3","0","0","0","boat","vehicles","2","0","","neutral","0"
"html-keyboard-response","160","667400","0.0-9.0-2.0-0.44","6295","2","14","Male","approach_avoid_spark_v1","""event"",""trial"",""time""
""fullscreenenter"",""1"",""2656""
""blur"",""8"",""70731""
""focus"",""8"",""70807""
","""event"",""trial"",""time""
""blur"",""8"",""70731""
","""event"",""trial"",""time""
""focus"",""8"",""70807""
","""event"",""trial"",""time""
""fullscreenenter"",""1"",""2656""
","
","","","","","","null","<div style=""font-size:60px;"">+</div>","null","","fixation","","","","","","","","","","",""
"aa-learning-trial","161","670408","0.0-9.0-2.0-1.44","6295","2","14","Male","approach_avoid_spark_v1","""event"",""trial"",""time""
""fullscreenenter"",""1"",""2656""
""blur"",""8"",""70731""
""focus"",""8"",""70807""
","""event"",""trial"",""time""
""blur"",""8"",""70731""
","""event"",""trial"",""time""
""focus"",""8"",""70807""
","""event"",""trial"",""time""
""fullscreenenter"",""1"",""2656""
","
","","","","","","2000.2000000476837","images/truck7.png","","","learning","-4","0","0","0","truck","vehicles","2","0","","good","[5]"
"html-keyboard-response","162","670912","0.0-9.0-2.0-0.45","6295","2","14","Male","approach_avoid_spark_v1","""event"",""trial"",""time""
""fullscreenenter"",""1"",""2656""
""blur"",""8"",""70731""
""focus"",""8"",""70807""
","""event"",""trial"",""time""
""blur"",""8"",""70731""
","""event"",""trial"",""time""
""focus"",""8"",""70807""
","""event"",""trial"",""time""
""fullscreenenter"",""1"",""2656""
","
","","","","","","null","<div style=""font-size:60px;"">+</div>","null","","fixation","","","","","","","","","","",""
"aa-learning-trial","163","673914","0.0-9.0-2.0-1.45","6295","2","14","Male","approach_avoid_spark_v1","""event"",""trial"",""time""
""fullscreenenter"",""1"",""2656""
""blur"",""8"",""70731""
""focus"",""8"",""70807""
","""event"",""trial"",""time""
""blur"",""8"",""70731""
","""event"",""trial"",""time""
""focus"",""8"",""70807""
","""event"",""trial"",""time""
""fullscreenenter"",""1"",""2656""
","
","","","","","","1581.2000000476837","images/truck6.png","","","learning","1","1","1","1","truck","vehicles","2","0","","good","[5]"
"html-keyboard-response","164","674423","0.0-9.0-2.0-0.46","6295","2","14","Male","approach_avoid_spark_v1","""event"",""trial"",""time""
""fullscreenenter"",""1"",""2656""
""blur"",""8"",""70731""
""focus"",""8"",""70807""
","""event"",""trial"",""time""
""blur"",""8"",""70731""
","""event"",""trial"",""time""
""focus"",""8"",""70807""
","""event"",""trial"",""time""
""fullscreenenter"",""1"",""2656""
","
","","","","","","null","<div style=""font-size:60px;"">+</div>","null","","fixation","","","","","","","","","","",""
"aa-learning-trial","165","677431","0.0-9.0-2.0-1.46","6295","2","14","Male","approach_avoid_spark_v1","""event"",""trial"",""time""
""fullscreenenter"",""1"",""2656""
""blur"",""8"",""70731""
""focus"",""8"",""70807""
","""event"",""trial"",""time""
""blur"",""8"",""70731""
","""event"",""trial"",""time""
""focus"",""8"",""70807""
","""event"",""trial"",""time""
""fullscreenenter"",""1"",""2656""
","
","","","","","","2161.2000000476837","images/boat5.png","","","learning","-9","-9","1","1","boat","vehicles","2","0","","neutral","0"
"html-keyboard-response","166","677935","0.0-9.0-2.0-0.47","6295","2","14","Male","approach_avoid_spark_v1","""event"",""trial"",""time""
""fullscreenenter"",""1"",""2656""
""blur"",""8"",""70731""
""focus"",""8"",""70807""
","""event"",""trial"",""time""
""blur"",""8"",""70731""
","""event"",""trial"",""time""
""focus"",""8"",""70807""
","""event"",""trial"",""time""
""fullscreenenter"",""1"",""2656""
","
","","","","","","null","<div style=""font-size:60px;"">+</div>","null","","fixation","","","","","","","","","","",""
"aa-learning-trial","167","680944","0.0-9.0-2.0-1.47","6295","2","14","Male","approach_avoid_spark_v1","""event"",""trial"",""time""
""fullscreenenter"",""1"",""2656""
""blur"",""8"",""70731""
""focus"",""8"",""70807""
","""event"",""trial"",""time""
""blur"",""8"",""70731""
","""event"",""trial"",""time""
""focus"",""8"",""70807""
","""event"",""trial"",""time""
""fullscreenenter"",""1"",""2656""
","
","","","","","","1705.1000001430511","images/plane2.png","","","learning","-2","-2","1","1","plane","vehicles","2","0","","bad","[-4]"
"html-keyboard-response","168","681448","0.0-9.0-2.0-0.48","6295","2","14","Male","approach_avoid_spark_v1","""event"",""trial"",""time""
""fullscreenenter"",""1"",""2656""
""blur"",""8"",""70731""
""focus"",""8"",""70807""
","""event"",""trial"",""time""
""blur"",""8"",""70731""
","""event"",""trial"",""time""
""focus"",""8"",""70807""
","""event"",""trial"",""time""
""fullscreenenter"",""1"",""2656""
","
","","","","","","null","<div style=""font-size:60px;"">+</div>","null","","fixation","","","","","","","","","","",""
"aa-learning-trial","169","684456","0.0-9.0-2.0-1.48","6295","2","14","Male","approach_avoid_spark_v1","""event"",""trial"",""time""
""fullscreenenter"",""1"",""2656""
""blur"",""8"",""70731""
""focus"",""8"",""70807""
","""event"",""trial"",""time""
""blur"",""8"",""70731""
","""event"",""trial"",""time""
""focus"",""8"",""70807""
","""event"",""trial"",""time""
""fullscreenenter"",""1"",""2656""
","
","","","","","","1907.7999999523163","images/plane6.png","","","learning","5","0","0","0","plane","vehicles","2","0","","bad","[-4]"
"html-keyboard-response","170","684960","0.0-9.0-2.0-0.49","6295","2","14","Male","approach_avoid_spark_v1","""event"",""trial"",""time""
""fullscreenenter"",""1"",""2656""
""blur"",""8"",""70731""
""focus"",""8"",""70807""
","""event"",""trial"",""time""
""blur"",""8"",""70731""
","""event"",""trial"",""time""
""focus"",""8"",""70807""
","""event"",""trial"",""time""
""fullscreenenter"",""1"",""2656""
","
","","","","","","null","<div style=""font-size:60px;"">+</div>","null","","fixation","","","","","","","","","","",""
"aa-learning-trial","171","687968","0.0-9.0-2.0-1.49","6295","2","14","Male","approach_avoid_spark_v1","""event"",""trial"",""time""
""fullscreenenter"",""1"",""2656""
""blur"",""8"",""70731""
""focus"",""8"",""70807""
","""event"",""trial"",""time""
""blur"",""8"",""70731""
","""event"",""trial"",""time""
""focus"",""8"",""70807""
","""event"",""trial"",""time""
""fullscreenenter"",""1"",""2656""
","
","","","","","","1144.7000000476837","images/boat8.png","","","learning","6","6","1","1","boat","vehicles","2","0","","neutral","0"
"html-keyboard-response","172","688472","0.0-9.0-2.0-0.50","6295","2","14","Male","approach_avoid_spark_v1","""event"",""trial"",""time""
""fullscreenenter"",""1"",""2656""
""blur"",""8"",""70731""
""focus"",""8"",""70807""
","""event"",""trial"",""time""
""blur"",""8"",""70731""
","""event"",""trial"",""time""
""focus"",""8"",""70807""
","""event"",""trial"",""time""
""fullscreenenter"",""1"",""2656""
","
","","","","","","null","<div style=""font-size:60px;"">+</div>","null","","fixation","","","","","","","","","","",""
