"trial_type","trial_index","time_elapsed","internal_node_id","subject_id","task_version","interactions","blur_events","focus_events","fullscreenenter_events","fullscreenexit_events","success","timeout","failed_images","failed_audio","failed_video","rt","stimulus","response","button_pressed","task_part","key_press","answer","correct","left_choice","middle_choice","right_choice","choice_positions","option_selected","block"
"pavlovia","0","6","0.0-0.0","1917","2","""event"",""trial"",""time""
""fullscreenenter"",""1"",""2231""
","
","
","""event"",""trial"",""time""
""fullscreenenter"",""1"",""2231""
","
","","","","","","","","","","","","","","","","","","",""
"fullscreen","1","3220","0.0-1.0","1917","2","""event"",""trial"",""time""
""fullscreenenter"",""1"",""2231""
","
","
","""event"",""trial"",""time""
""fullscreenenter"",""1"",""2231""
","
","true","","","","","","","","","","","","","","","","","",""
"preload","2","5911","0.0-2.0","1917","2","""event"",""trial"",""time""
""fullscreenenter"",""1"",""2231""
","
","
","""event"",""trial"",""time""
""fullscreenenter"",""1"",""2231""
","
","true","false","[]","[]","[]","","","","","","","","","","","","","",""
"audio-keyboard-response","3","9980","0.0-3.0","1917","2","""event"",""trial"",""time""
""fullscreenenter"",""1"",""2231""
","
","
","""event"",""trial"",""time""
""fullscreenenter"",""1"",""2231""
","
","","","","","","4064","audio/beep_loop.wav"," ","","","","","","","","","","",""
"audio-button-response","4","12500","0.0-4.0","1917","2","""event"",""trial"",""time""
""fullscreenenter"",""1"",""2231""
","
","
","""event"",""trial"",""time""
""fullscreenenter"",""1"",""2231""
","
","","","","","","2517","audio/turtle.wav","3","","","","","","","","","","",""
"audio-button-response","5","14783","0.0-5.0","1917","2","""event"",""trial"",""time""
""fullscreenenter"",""1"",""2231""
""fullscreenexit"",""6"",""21789""
","
","
","""event"",""trial"",""time""
""fullscreenenter"",""1"",""2231""
","""event"",""trial"",""time""
""fullscreenexit"",""6"",""21789""
","","","","","","1280","audio/shark.wav","2","","","","","","","","","","",""
"preload","6","26882","0.0-6.0","1917","2","""event"",""trial"",""time""
""fullscreenenter"",""1"",""2231""
""fullscreenexit"",""6"",""21789""
","
","
","""event"",""trial"",""time""
""fullscreenenter"",""1"",""2231""
","""event"",""trial"",""time""
""fullscreenexit"",""6"",""21789""
","true","false","[]","[]","[]","","","","","","","","","","","","","",""
"learning-instructions","7","32887","0.0-7.0-0.0","1917","2","""event"",""trial"",""time""
""fullscreenenter"",""1"",""2231""
""fullscreenexit"",""6"",""21789""
","
","
","""event"",""trial"",""time""
""fullscreenenter"",""1"",""2231""
","""event"",""trial"",""time""
""fullscreenexit"",""6"",""21789""
","","","","","","1196.8999999999069","<p> Welcome back! </p><p> Last week, you had to make choices about lots of different items.  </p>","","0","instructions","","","","","","","","",""
"learning-instructions","8","39973","0.0-7.0-0.1","1917","2","""event"",""trial"",""time""
""fullscreenenter"",""1"",""2231""
""fullscreenexit"",""6"",""21789""
","
","
","""event"",""trial"",""time""
""fullscreenenter"",""1"",""2231""
","""event"",""trial"",""time""
""fullscreenexit"",""6"",""21789""
","","","","","","2782.1999999999534","<p> Today, we are going to ask you to try to remember all the items. </p>","","0","instructions","","","","","","","","",""
"learning-instructions","9","53103","0.0-7.0-0.2","1917","2","""event"",""trial"",""time""
""fullscreenenter"",""1"",""2231""
""fullscreenexit"",""6"",""21789""
","
","
","""event"",""trial"",""time""
""fullscreenenter"",""1"",""2231""
","""event"",""trial"",""time""
""fullscreenexit"",""6"",""21789""
","","","","","","3001.8000000000466","<p> On every trial, you will see an image. </p><p> The image may be an OLD image you saw during the games last week or it may be a NEW image that was not presented. </p>","","0","instructions","","","","","","","","",""
"learning-instructions","10","64798","0.0-7.0-0.3","1917","2","""event"",""trial"",""time""
""fullscreenenter"",""1"",""2231""
""fullscreenexit"",""6"",""21789""
","
","
","""event"",""trial"",""time""
""fullscreenenter"",""1"",""2231""
","""event"",""trial"",""time""
""fullscreenexit"",""6"",""21789""
","","","","","","3202.2999999998137","<p> You need to select whether the image is:  </p><p>  'Definitely old', 'Maybe old', 'Maybe new', or 'Definitely new.'  </p><div class=""mem-choice-instructions-grid""><div class=""choice-option"" id=""choice-option-1"" ><img src=""images/definitely_old_1.png"" id=""choice-option-img-1"" class=""choice-option-img"" stage=""1""></div><div class=""choice-option"" id=""choice-option-2"" ><img src=""images/maybe_old_1.png"" id=""choice-option-img-2"" class=""choice-option-img"" stage=""1""></div><div class=""choice-option"" id=""choice-option-3"" ><img src=""images/maybe_new_1.png"" id=""choice-option-img-3"" class=""choice-option-img"" stage=""1""></div><div class=""choice-option"" id=""choice-option-4"" > <img src=""images/definitely_new_1.png"" id=""choice-option-img-4"" class=""choice-option-img"" stage=""1""></div></div>","","0","instructions","","","","","","","","",""
"learning-instructions","11","72897","0.0-7.0-0.4","1917","2","""event"",""trial"",""time""
""fullscreenenter"",""1"",""2231""
""fullscreenexit"",""6"",""21789""
","
","
","""event"",""trial"",""time""
""fullscreenenter"",""1"",""2231""
","""event"",""trial"",""time""
""fullscreenexit"",""6"",""21789""
","","","","","","1407","<p> You should use the 1, 2, 3, and 4 keys to make your responses.  </p><div class=""mem-choice-instructions-grid""><div class=""choice-option"" id=""choice-option-1"" ><img src=""images/definitely_old.png"" id=""choice-option-img-1"" class=""choice-option-img"" stage=""1""></div><div class=""choice-option"" id=""choice-option-2"" ><img src=""images/maybe_old.png"" id=""choice-option-img-2"" class=""choice-option-img"" stage=""1""></div><div class=""choice-option"" id=""choice-option-3"" ><img src=""images/maybe_new.png"" id=""choice-option-img-3"" class=""choice-option-img"" stage=""1""></div><div class=""choice-option"" id=""choice-option-4"" > <img src=""images/definitely_new.png"" id=""choice-option-img-4"" class=""choice-option-img"" stage=""1""></div></div>","","0","instructions","","","","","","","","",""
"learning-instructions","12","81199","0.0-7.0-0.5","1917","2","""event"",""trial"",""time""
""fullscreenenter"",""1"",""2231""
""fullscreenexit"",""6"",""21789""
","
","
","""event"",""trial"",""time""
""fullscreenenter"",""1"",""2231""
","""event"",""trial"",""time""
""fullscreenexit"",""6"",""21789""
","","","","","","1554.3999999999069","<p> You will have 10 seconds to make each response.  </p><p>  Make sure to respond before time runs out! </p>","","0","instructions","","","","","","","","",""
"learning-instructions","13","90399","0.0-7.0-0.6","1917","2","""event"",""trial"",""time""
""fullscreenenter"",""1"",""2231""
""fullscreenexit"",""6"",""21789""
","
","
","""event"",""trial"",""time""
""fullscreenenter"",""1"",""2231""
","""event"",""trial"",""time""
""fullscreenexit"",""6"",""21789""
","","","","","","1628.5999999998603","<p> Today, you will see each image ONCE only.  </p><p>  That means none of the images will repeat. </p>","","0","instructions","","","","","","","","",""
"learning-instructions","14","104644","0.0-7.0-0.7","1917","2","""event"",""trial"",""time""
""fullscreenenter"",""1"",""2231""
""fullscreenexit"",""6"",""21789""
","
","
","""event"",""trial"",""time""
""fullscreenenter"",""1"",""2231""
","""event"",""trial"",""time""
""fullscreenexit"",""6"",""21789""
","","","","","","1588.1999999999534","<p> Before you play the real game, it is time to practice. </p><p>  Just like in the real game, some of the images in the practice will be ones you have seen before. </p><p>  Others will be entirely new. </p>","","0","instructions","","","","","","","","",""
"html-button-response","15","106343","0.0-8.0","1917","2","""event"",""trial"",""time""
""fullscreenenter"",""1"",""2231""
""fullscreenexit"",""6"",""21789""
","
","
","""event"",""trial"",""time""
""fullscreenenter"",""1"",""2231""
","""event"",""trial"",""time""
""fullscreenexit"",""6"",""21789""
","","","","","","1595.2999999998137","<p> Ready to practice? </p><p> Remember, use the 1, 2, 3, and 4 keys to make your responses. </p>","0","","instructions","","","","","","","","",""
"html-keyboard-response","16","106946","0.0-9.0-0.0","1917","2","""event"",""trial"",""time""
""fullscreenenter"",""1"",""2231""
""fullscreenexit"",""6"",""21789""
","
","
","""event"",""trial"",""time""
""fullscreenenter"",""1"",""2231""
","""event"",""trial"",""time""
""fullscreenexit"",""6"",""21789""
","","","","","","null","<div style=""font-size:60px;"">+</div>","null","","fixation","","","","","","","","",""
"memory-trial","17","110797","0.0-9.0-1.0","1917","2","""event"",""trial"",""time""
""fullscreenenter"",""1"",""2231""
""fullscreenexit"",""6"",""21789""
","
","
","""event"",""trial"",""time""
""fullscreenenter"",""1"",""2231""
","""event"",""trial"",""time""
""fullscreenexit"",""6"",""21789""
","","","","","","2845.600000000093","images/racket3.png","","","practice","4","definitely_new","","","","","","",""
"html-keyboard-response","18","111299","0.0-9.0-0.1","1917","2","""event"",""trial"",""time""
""fullscreenenter"",""1"",""2231""
""fullscreenexit"",""6"",""21789""
","
","
","""event"",""trial"",""time""
""fullscreenenter"",""1"",""2231""
","""event"",""trial"",""time""
""fullscreenexit"",""6"",""21789""
","","","","","","null","<div style=""font-size:60px;"">+</div>","null","","fixation","","","","","","","","",""
"memory-trial","19","114618","0.0-9.0-1.1","1917","2","""event"",""trial"",""time""
""fullscreenenter"",""1"",""2231""
""fullscreenexit"",""6"",""21789""
","
","
","""event"",""trial"",""time""
""fullscreenenter"",""1"",""2231""
","""event"",""trial"",""time""
""fullscreenexit"",""6"",""21789""
","","","","","","2317.100000000093","images/ball1.png","","","practice","2","maybe_old","","","","","","",""
"html-keyboard-response","20","115120","0.0-9.0-0.2","1917","2","""event"",""trial"",""time""
""fullscreenenter"",""1"",""2231""
""fullscreenexit"",""6"",""21789""
","
","
","""event"",""trial"",""time""
""fullscreenenter"",""1"",""2231""
","""event"",""trial"",""time""
""fullscreenexit"",""6"",""21789""
","","","","","","null","<div style=""font-size:60px;"">+</div>","null","","fixation","","","","","","","","",""
"memory-trial","21","118424","0.0-9.0-1.2","1917","2","""event"",""trial"",""time""
""fullscreenenter"",""1"",""2231""
""fullscreenexit"",""6"",""21789""
","
","
","""event"",""trial"",""time""
""fullscreenenter"",""1"",""2231""
","""event"",""trial"",""time""
""fullscreenexit"",""6"",""21789""
","","","","","","2301.100000000093","images/racket4.png","","","practice","1","definitely_old","","","","","","",""
"html-keyboard-response","22","118925","0.0-9.0-0.3","1917","2","""event"",""trial"",""time""
""fullscreenenter"",""1"",""2231""
""fullscreenexit"",""6"",""21789""
","
","
","""event"",""trial"",""time""
""fullscreenenter"",""1"",""2231""
","""event"",""trial"",""time""
""fullscreenexit"",""6"",""21789""
","","","","","","null","<div style=""font-size:60px;"">+</div>","null","","fixation","","","","","","","","",""
"memory-trial","23","120932","0.0-9.0-1.3","1917","2","""event"",""trial"",""time""
""fullscreenenter"",""1"",""2231""
""fullscreenexit"",""6"",""21789""
","
","
","""event"",""trial"",""time""
""fullscreenenter"",""1"",""2231""
","""event"",""trial"",""time""
""fullscreenexit"",""6"",""21789""
","","","","","","1004.1999999999534","images/racket2.png","","","practice","1","definitely_old","","","","","","",""
"html-keyboard-response","24","121434","0.0-9.0-0.4","1917","2","""event"",""trial"",""time""
""fullscreenenter"",""1"",""2231""
""fullscreenexit"",""6"",""21789""
","
","
","""event"",""trial"",""time""
""fullscreenenter"",""1"",""2231""
","""event"",""trial"",""time""
""fullscreenexit"",""6"",""21789""
","","","","","","null","<div style=""font-size:60px;"">+</div>","null","","fixation","","","","","","","","",""
"memory-trial","25","124814","0.0-9.0-1.4","1917","2","""event"",""trial"",""time""
""fullscreenenter"",""1"",""2231""
""fullscreenexit"",""6"",""21789""
","
","
","""event"",""trial"",""time""
""fullscreenenter"",""1"",""2231""
","""event"",""trial"",""time""
""fullscreenexit"",""6"",""21789""
","","","","","","2376","images/ball4.png","","","practice","3","maybe_new","","","","","","",""
"html-keyboard-response","26","125316","0.0-9.0-0.5","1917","2","""event"",""trial"",""time""
""fullscreenenter"",""1"",""2231""
""fullscreenexit"",""6"",""21789""
","
","
","""event"",""trial"",""time""
""fullscreenenter"",""1"",""2231""
","""event"",""trial"",""time""
""fullscreenexit"",""6"",""21789""
","","","","","","null","<div style=""font-size:60px;"">+</div>","null","","fixation","","","","","","","","",""
"memory-trial","27","128020","0.0-9.0-1.5","1917","2","""event"",""trial"",""time""
""fullscreenenter"",""1"",""2231""
""fullscreenexit"",""6"",""21789""
","
","
","""event"",""trial"",""time""
""fullscreenenter"",""1"",""2231""
","""event"",""trial"",""time""
""fullscreenexit"",""6"",""21789""
","","","","","","1700.1999999999534","images/racket1.png","","","practice","2","maybe_old","","","","","","",""
"html-keyboard-response","28","128521","0.0-9.0-0.6","1917","2","""event"",""trial"",""time""
""fullscreenenter"",""1"",""2231""
""fullscreenexit"",""6"",""21789""
","
","
","""event"",""trial"",""time""
""fullscreenenter"",""1"",""2231""
","""event"",""trial"",""time""
""fullscreenexit"",""6"",""21789""
","","","","","","null","<div style=""font-size:60px;"">+</div>","null","","fixation","","","","","","","","",""
"memory-trial","29","132490","0.0-9.0-1.6","1917","2","""event"",""trial"",""time""
""fullscreenenter"",""1"",""2231""
""fullscreenexit"",""6"",""21789""
","
","
","""event"",""trial"",""time""
""fullscreenenter"",""1"",""2231""
","""event"",""trial"",""time""
""fullscreenexit"",""6"",""21789""
","","","","","","2966.5","images/ball3.png","","","practice","2","maybe_old","","","","","","",""
"html-keyboard-response","30","132993","0.0-9.0-0.7","1917","2","""event"",""trial"",""time""
""fullscreenenter"",""1"",""2231""
""fullscreenexit"",""6"",""21789""
","
","
","""event"",""trial"",""time""
""fullscreenenter"",""1"",""2231""
","""event"",""trial"",""time""
""fullscreenexit"",""6"",""21789""
","","","","","","null","<div style=""font-size:60px;"">+</div>","null","","fixation","","","","","","","","",""
"memory-trial","31","135098","0.0-9.0-1.7","1917","2","""event"",""trial"",""time""
""fullscreenenter"",""1"",""2231""
""fullscreenexit"",""6"",""21789""
","
","
","""event"",""trial"",""time""
""fullscreenenter"",""1"",""2231""
","""event"",""trial"",""time""
""fullscreenexit"",""6"",""21789""
","","","","","","1102.1000000000931","images/ball2.png","","","practice","3","maybe_new","","","","","","",""
"learning-instructions","32","149893","0.0-10.0-0.0","1917","2","""event"",""trial"",""time""
""fullscreenenter"",""1"",""2231""
""fullscreenexit"",""6"",""21789""
","
","
","""event"",""trial"",""time""
""fullscreenenter"",""1"",""2231""
","""event"",""trial"",""time""
""fullscreenexit"",""6"",""21789""
","","","","","","6851.09999999986","<p> Great! You have completed the practice. </p><p> Before you start, we're going to ask you a few questions about how the game works.  </p>","","0","instructions","","","","","","","","",""
"preload","33","165672","0.0-11.0","1917","2","""event"",""trial"",""time""
""fullscreenenter"",""1"",""2231""
""fullscreenexit"",""6"",""21789""
","
","
","""event"",""trial"",""time""
""fullscreenenter"",""1"",""2231""
","""event"",""trial"",""time""
""fullscreenexit"",""6"",""21789""
","true","false","[]","[]","[]","","","","","","","","","","","","","",""
"comp-q","34","172833","0.0-12.0-0.0","1917","2","""event"",""trial"",""time""
""fullscreenenter"",""1"",""2231""
""fullscreenexit"",""6"",""21789""
","
","
","""event"",""trial"",""time""
""fullscreenenter"",""1"",""2231""
","""event"",""trial"",""time""
""fullscreenexit"",""6"",""21789""
","","","","","","1336.3000000000466","<p> <b> True or False? </b> </p><p> In this game, you will only see each image once. </p>","","0","comp_question","","","true","","","","","",""
"comp-q","35","180240","0.0-12.0-1.0","1917","2","""event"",""trial"",""time""
""fullscreenenter"",""1"",""2231""
""fullscreenexit"",""6"",""21789""
","
","
","""event"",""trial"",""time""
""fullscreenenter"",""1"",""2231""
","""event"",""trial"",""time""
""fullscreenexit"",""6"",""21789""
","","","","","","1066.2000000001863","<p> <b> That's right! </b> You will see many different images <i> one time each </i> in this game. </p>","","0","comp_answer","","","","","","","","",""
"comp-q","36","186952","0.0-12.0-0.1","1917","2","""event"",""trial"",""time""
""fullscreenenter"",""1"",""2231""
""fullscreenexit"",""6"",""21789""
","
","
","""event"",""trial"",""time""
""fullscreenenter"",""1"",""2231""
","""event"",""trial"",""time""
""fullscreenexit"",""6"",""21789""
","","","","","","924","<p> <b> True or False? </b> </p><p> You should use the mouse and click to make your response. </p>","","1","comp_question","","","true","","","","","",""
"comp-q","37","196254","0.0-12.0-1.1","1917","2","""event"",""trial"",""time""
""fullscreenenter"",""1"",""2231""
""fullscreenexit"",""6"",""21789""
","
","
","""event"",""trial"",""time""
""fullscreenenter"",""1"",""2231""
","""event"",""trial"",""time""
""fullscreenexit"",""6"",""21789""
","","","","","","1962.6999999999534","<p><b> That's right! </b> You should use the '1', '2', '3', and '4' keys to make your response. </p>","","0","comp_answer","","","","","","","","",""
"comp-q","38","203847","0.0-12.0-0.2","1917","2","""event"",""trial"",""time""
""fullscreenenter"",""1"",""2231""
""fullscreenexit"",""6"",""21789""
","
","
","""event"",""trial"",""time""
""fullscreenenter"",""1"",""2231""
","""event"",""trial"",""time""
""fullscreenexit"",""6"",""21789""
","","","","","","1603.5","<p> <b> True or False? </b> </p><p> You will have as much time as you want to make each choice. </p>","","1","comp_question","","","true","","","","","",""
"comp-q","39","211863","0.0-12.0-1.2","1917","2","""event"",""trial"",""time""
""fullscreenenter"",""1"",""2231""
""fullscreenexit"",""6"",""21789""
","
","
","""event"",""trial"",""time""
""fullscreenenter"",""1"",""2231""
","""event"",""trial"",""time""
""fullscreenexit"",""6"",""21789""
","","","","","","2624.1999999999534","<p> <b> That's right! </b> You will only have 10 seconds to make each choice. </p>","","0","comp_answer","","","","","","","","",""
"learning-instructions","40","232743","0.0-13.0","1917","2","""event"",""trial"",""time""
""fullscreenenter"",""1"",""2231""
""fullscreenexit"",""6"",""21789""
","
","
","""event"",""trial"",""time""
""fullscreenenter"",""1"",""2231""
","""event"",""trial"",""time""
""fullscreenexit"",""6"",""21789""
","","","","","","12225.600000000093","<p> Great! You are now ready to begin the game. </p><p> Remember, use the 1, 2, 3, and 4 keys to make your responses. </p>","","0","instructions","","","","","","","","",""
"preload","41","248811","0.0-14.0","1917","2","""event"",""trial"",""time""
""fullscreenenter"",""1"",""2231""
""fullscreenexit"",""6"",""21789""
","
","
","""event"",""trial"",""time""
""fullscreenenter"",""1"",""2231""
","""event"",""trial"",""time""
""fullscreenexit"",""6"",""21789""
","true","false","[]","[]","[]","","","","","","","","","","","","","",""
"html-keyboard-response","42","249312","0.0-15.0-0.0","1917","2","""event"",""trial"",""time""
""fullscreenenter"",""1"",""2231""
""fullscreenexit"",""6"",""21789""
","
","
","""event"",""trial"",""time""
""fullscreenenter"",""1"",""2231""
","""event"",""trial"",""time""
""fullscreenexit"",""6"",""21789""
","","","","","","null","<div style=""font-size:60px;"">+</div>","null","","fixation","","","","","","","","",""
"memory-trial","43","252414","0.0-15.0-1.0","1917","2","""event"",""trial"",""time""
""fullscreenenter"",""1"",""2231""
""fullscreenexit"",""6"",""21789""
","
","
","""event"",""trial"",""time""
""fullscreenenter"",""1"",""2231""
","""event"",""trial"",""time""
""fullscreenexit"",""6"",""21789""
","","","","","","2098.2999999998137","images/plane5.png","","","memory_trial","1","definitely_old","","","","","","",""
"html-keyboard-response","44","252916","0.0-15.0-0.1","1917","2","""event"",""trial"",""time""
""fullscreenenter"",""1"",""2231""
""fullscreenexit"",""6"",""21789""
","
","
","""event"",""trial"",""time""
""fullscreenenter"",""1"",""2231""
","""event"",""trial"",""time""
""fullscreenexit"",""6"",""21789""
","","","","","","null","<div style=""font-size:60px;"">+</div>","null","","fixation","","","","","","","","",""
"memory-trial","45","255412","0.0-15.0-1.1","1917","2","""event"",""trial"",""time""
""fullscreenenter"",""1"",""2231""
""fullscreenexit"",""6"",""21789""
","
","
","""event"",""trial"",""time""
""fullscreenenter"",""1"",""2231""
","""event"",""trial"",""time""
""fullscreenexit"",""6"",""21789""
","","","","","","1493.6999999999534","images/horse4.png","","","memory_trial","2","maybe_old","","","","","","",""
"html-keyboard-response","46","255913","0.0-15.0-0.2","1917","2","""event"",""trial"",""time""
""fullscreenenter"",""1"",""2231""
""fullscreenexit"",""6"",""21789""
","
","
","""event"",""trial"",""time""
""fullscreenenter"",""1"",""2231""
","""event"",""trial"",""time""
""fullscreenexit"",""6"",""21789""
","","","","","","null","<div style=""font-size:60px;"">+</div>","null","","fixation","","","","","","","","",""
"memory-trial","47","257957","0.0-15.0-1.2","1917","2","""event"",""trial"",""time""
""fullscreenenter"",""1"",""2231""
""fullscreenexit"",""6"",""21789""
","
","
","""event"",""trial"",""time""
""fullscreenenter"",""1"",""2231""
","""event"",""trial"",""time""
""fullscreenexit"",""6"",""21789""
","","","","","","1041.1999999999534","images/goat3.png","","","memory_trial","2","maybe_old","","","","","","",""
"html-keyboard-response","48","258459","0.0-15.0-0.3","1917","2","""event"",""trial"",""time""
""fullscreenenter"",""1"",""2231""
""fullscreenexit"",""6"",""21789""
","
","
","""event"",""trial"",""time""
""fullscreenenter"",""1"",""2231""
","""event"",""trial"",""time""
""fullscreenexit"",""6"",""21789""
","","","","","","null","<div style=""font-size:60px;"">+</div>","null","","fixation","","","","","","","","",""
"memory-trial","49","261252","0.0-15.0-1.3","1917","2","""event"",""trial"",""time""
""fullscreenenter"",""1"",""2231""
""fullscreenexit"",""6"",""21789""
","
","
","""event"",""trial"",""time""
""fullscreenenter"",""1"",""2231""
","""event"",""trial"",""time""
""fullscreenexit"",""6"",""21789""
","","","","","","1790.8999999999069","images/tree4.png","","","memory_trial","2","maybe_old","","","","","","",""
"html-keyboard-response","50","261754","0.0-15.0-0.4","1917","2","""event"",""trial"",""time""
""fullscreenenter"",""1"",""2231""
""fullscreenexit"",""6"",""21789""
","
","
","""event"",""trial"",""time""
""fullscreenenter"",""1"",""2231""
","""event"",""trial"",""time""
""fullscreenexit"",""6"",""21789""
","","","","","","null","<div style=""font-size:60px;"">+</div>","null","","fixation","","","","","","","","",""
"memory-trial","51","263598","0.0-15.0-1.4","1917","2","""event"",""trial"",""time""
""fullscreenenter"",""1"",""2231""
""fullscreenexit"",""6"",""21789""
","
","
","""event"",""trial"",""time""
""fullscreenenter"",""1"",""2231""
","""event"",""trial"",""time""
""fullscreenexit"",""6"",""21789""
","","","","","","841.6000000000931","images/cactus2.png","","","memory_trial","3","maybe_new","","","","","","",""
"html-keyboard-response","52","264099","0.0-15.0-0.5","1917","2","""event"",""trial"",""time""
""fullscreenenter"",""1"",""2231""
""fullscreenexit"",""6"",""21789""
","
","
","""event"",""trial"",""time""
""fullscreenenter"",""1"",""2231""
","""event"",""trial"",""time""
""fullscreenexit"",""6"",""21789""
","","","","","","null","<div style=""font-size:60px;"">+</div>","null","","fixation","","","","","","","","",""
"memory-trial","53","267588","0.0-15.0-1.5","1917","2","""event"",""trial"",""time""
""fullscreenenter"",""1"",""2231""
""fullscreenexit"",""6"",""21789""
","
","
","""event"",""trial"",""time""
""fullscreenenter"",""1"",""2231""
","""event"",""trial"",""time""
""fullscreenexit"",""6"",""21789""
","","","","","","2486.0999999998603","images/tree3.png","","","memory_trial","3","maybe_new","","","","","","",""
"html-keyboard-response","54","268089","0.0-15.0-0.6","1917","2","""event"",""trial"",""time""
""fullscreenenter"",""1"",""2231""
""fullscreenexit"",""6"",""21789""
","
","
","""event"",""trial"",""time""
""fullscreenenter"",""1"",""2231""
","""event"",""trial"",""time""
""fullscreenexit"",""6"",""21789""
","","","","","","null","<div style=""font-size:60px;"">+</div>","null","","fixation","","","","","","","","",""
"memory-trial","55","270008","0.0-15.0-1.6","1917","2","""event"",""trial"",""time""
""fullscreenenter"",""1"",""2231""
""fullscreenexit"",""6"",""21789""
","
","
","""event"",""trial"",""time""
""fullscreenenter"",""1"",""2231""
","""event"",""trial"",""time""
""fullscreenexit"",""6"",""21789""
","","","","","","916.6000000000931","images/apple2.png","","","memory_trial","2","maybe_old","","","","","","",""
"html-keyboard-response","56","270510","0.0-15.0-0.7","1917","2","""event"",""trial"",""time""
""fullscreenenter"",""1"",""2231""
""fullscreenexit"",""6"",""21789""
","
","
","""event"",""trial"",""time""
""fullscreenenter"",""1"",""2231""
","""event"",""trial"",""time""
""fullscreenexit"",""6"",""21789""
","","","","","","null","<div style=""font-size:60px;"">+</div>","null","","fixation","","","","","","","","",""
"memory-trial","57","272524","0.0-15.0-1.7","1917","2","""event"",""trial"",""time""
""fullscreenenter"",""1"",""2231""
""fullscreenexit"",""6"",""21789""
","
","
","""event"",""trial"",""time""
""fullscreenenter"",""1"",""2231""
","""event"",""trial"",""time""
""fullscreenexit"",""6"",""21789""
","","","","","","1012","images/orange3.png","","","memory_trial","2","maybe_old","","","","","","",""
"html-keyboard-response","58","273026","0.0-15.0-0.8","1917","2","""event"",""trial"",""time""
""fullscreenenter"",""1"",""2231""
""fullscreenexit"",""6"",""21789""
","
","
","""event"",""trial"",""time""
""fullscreenenter"",""1"",""2231""
","""event"",""trial"",""time""
""fullscreenexit"",""6"",""21789""
","","","","","","null","<div style=""font-size:60px;"">+</div>","null","","fixation","","","","","","","","",""
"memory-trial","59","275299","0.0-15.0-1.8","1917","2","""event"",""trial"",""time""
""fullscreenenter"",""1"",""2231""
""fullscreenexit"",""6"",""21789""
","
","
","""event"",""trial"",""time""
""fullscreenenter"",""1"",""2231""
","""event"",""trial"",""time""
""fullscreenexit"",""6"",""21789""
","","","","","","1271.1000000000931","images/chair5.png","","","memory_trial","3","maybe_new","","","","","","",""
"html-keyboard-response","60","275801","0.0-15.0-0.9","1917","2","""event"",""trial"",""time""
""fullscreenenter"",""1"",""2231""
""fullscreenexit"",""6"",""21789""
","
","
","""event"",""trial"",""time""
""fullscreenenter"",""1"",""2231""
","""event"",""trial"",""time""
""fullscreenexit"",""6"",""21789""
","","","","","","null","<div style=""font-size:60px;"">+</div>","null","","fixation","","","","","","","","",""
"memory-trial","61","277877","0.0-15.0-1.9","1917","2","""event"",""trial"",""time""
""fullscreenenter"",""1"",""2231""
""fullscreenexit"",""6"",""21789""
","
","
","""event"",""trial"",""time""
""fullscreenenter"",""1"",""2231""
","""event"",""trial"",""time""
""fullscreenexit"",""6"",""21789""
","","","","","","1073.1999999999534","images/straw1.png","","","memory_trial","3","maybe_new","","","","","","",""
"html-keyboard-response","62","278379","0.0-15.0-0.10","1917","2","""event"",""trial"",""time""
""fullscreenenter"",""1"",""2231""
""fullscreenexit"",""6"",""21789""
","
","
","""event"",""trial"",""time""
""fullscreenenter"",""1"",""2231""
","""event"",""trial"",""time""
""fullscreenexit"",""6"",""21789""
","","","","","","null","<div style=""font-size:60px;"">+</div>","null","","fixation","","","","","","","","",""
"memory-trial","63","281079","0.0-15.0-1.10","1917","2","""event"",""trial"",""time""
""fullscreenenter"",""1"",""2231""
""fullscreenexit"",""6"",""21789""
","
","
","""event"",""trial"",""time""
""fullscreenenter"",""1"",""2231""
","""event"",""trial"",""time""
""fullscreenexit"",""6"",""21789""
","","","","","","1697.5","images/boat2.png","","","memory_trial","4","definitely_new","","","","","","",""
"html-keyboard-response","64","281580","0.0-15.0-0.11","1917","2","""event"",""trial"",""time""
""fullscreenenter"",""1"",""2231""
""fullscreenexit"",""6"",""21789""
","
","
","""event"",""trial"",""time""
""fullscreenenter"",""1"",""2231""
","""event"",""trial"",""time""
""fullscreenexit"",""6"",""21789""
","","","","","","null","<div style=""font-size:60px;"">+</div>","null","","fixation","","","","","","","","",""
"memory-trial","65","284019","0.0-15.0-1.11","1917","2","""event"",""trial"",""time""
""fullscreenenter"",""1"",""2231""
""fullscreenexit"",""6"",""21789""
","
","
","""event"",""trial"",""time""
""fullscreenenter"",""1"",""2231""
","""event"",""trial"",""time""
""fullscreenexit"",""6"",""21789""
","","","","","","1436.1999999999534","images/orange5.png","","","memory_trial","2","maybe_old","","","","","","",""
"html-keyboard-response","66","284521","0.0-15.0-0.12","1917","2","""event"",""trial"",""time""
""fullscreenenter"",""1"",""2231""
""fullscreenexit"",""6"",""21789""
","
","
","""event"",""trial"",""time""
""fullscreenenter"",""1"",""2231""
","""event"",""trial"",""time""
""fullscreenexit"",""6"",""21789""
","","","","","","null","<div style=""font-size:60px;"">+</div>","null","","fixation","","","","","","","","",""
"memory-trial","67","286986","0.0-15.0-1.12","1917","2","""event"",""trial"",""time""
""fullscreenenter"",""1"",""2231""
""fullscreenexit"",""6"",""21789""
","
","
","""event"",""trial"",""time""
""fullscreenenter"",""1"",""2231""
","""event"",""trial"",""time""
""fullscreenexit"",""6"",""21789""
","","","","","","1463.3000000000466","images/rodent1.png","","","memory_trial","4","definitely_new","","","","","","",""
"html-keyboard-response","68","287488","0.0-15.0-0.13","1917","2","""event"",""trial"",""time""
""fullscreenenter"",""1"",""2231""
""fullscreenexit"",""6"",""21789""
","
","
","""event"",""trial"",""time""
""fullscreenenter"",""1"",""2231""
","""event"",""trial"",""time""
""fullscreenexit"",""6"",""21789""
","","","","","","null","<div style=""font-size:60px;"">+</div>","null","","fixation","","","","","","","","",""
"memory-trial","69","290279","0.0-15.0-1.13","1917","2","""event"",""trial"",""time""
""fullscreenenter"",""1"",""2231""
""fullscreenexit"",""6"",""21789""
","
","
","""event"",""trial"",""time""
""fullscreenenter"",""1"",""2231""
","""event"",""trial"",""time""
""fullscreenexit"",""6"",""21789""
","","","","","","1788","images/sofa2.png","","","memory_trial","2","maybe_old","","","","","","",""
"html-keyboard-response","70","290780","0.0-15.0-0.14","1917","2","""event"",""trial"",""time""
""fullscreenenter"",""1"",""2231""
""fullscreenexit"",""6"",""21789""
","
","
","""event"",""trial"",""time""
""fullscreenenter"",""1"",""2231""
","""event"",""trial"",""time""
""fullscreenexit"",""6"",""21789""
","","","","","","null","<div style=""font-size:60px;"">+</div>","null","","fixation","","","","","","","","",""
"memory-trial","71","292741","0.0-15.0-1.14","1917","2","""event"",""trial"",""time""
""fullscreenenter"",""1"",""2231""
""fullscreenexit"",""6"",""21789""
","
","
","""event"",""trial"",""time""
""fullscreenenter"",""1"",""2231""
","""event"",""trial"",""time""
""fullscreenexit"",""6"",""21789""
","","","","","","958.3999999999069","images/truck4.png","","","memory_trial","2","maybe_old","","","","","","",""
"html-keyboard-response","72","293242","0.0-15.0-0.15","1917","2","""event"",""trial"",""time""
""fullscreenenter"",""1"",""2231""
""fullscreenexit"",""6"",""21789""
","
","
","""event"",""trial"",""time""
""fullscreenenter"",""1"",""2231""
","""event"",""trial"",""time""
""fullscreenexit"",""6"",""21789""
","","","","","","null","<div style=""font-size:60px;"">+</div>","null","","fixation","","","","","","","","",""
"memory-trial","73","295405","0.0-15.0-1.15","1917","2","""event"",""trial"",""time""
""fullscreenenter"",""1"",""2231""
""fullscreenexit"",""6"",""21789""
","
","
","""event"",""trial"",""time""
""fullscreenenter"",""1"",""2231""
","""event"",""trial"",""time""
""fullscreenexit"",""6"",""21789""
","","","","","","1160.9000000001397","images/flower1.png","","","memory_trial","3","maybe_new","","","","","","",""
"html-keyboard-response","74","295907","0.0-15.0-0.16","1917","2","""event"",""trial"",""time""
""fullscreenenter"",""1"",""2231""
""fullscreenexit"",""6"",""21789""
","
","
","""event"",""trial"",""time""
""fullscreenenter"",""1"",""2231""
","""event"",""trial"",""time""
""fullscreenexit"",""6"",""21789""
","","","","","","null","<div style=""font-size:60px;"">+</div>","null","","fixation","","","","","","","","",""
"memory-trial","75","298261","0.0-15.0-1.16","1917","2","""event"",""trial"",""time""
""fullscreenenter"",""1"",""2231""
""fullscreenexit"",""6"",""21789""
","
","
","""event"",""trial"",""time""
""fullscreenenter"",""1"",""2231""
","""event"",""trial"",""time""
""fullscreenexit"",""6"",""21789""
","","","","","","1351.2999999998137","images/dog1.png","","","memory_trial","1","definitely_old","","","","","","",""
"html-keyboard-response","76","298763","0.0-15.0-0.17","1917","2","""event"",""trial"",""time""
""fullscreenenter"",""1"",""2231""
""fullscreenexit"",""6"",""21789""
","
","
","""event"",""trial"",""time""
""fullscreenenter"",""1"",""2231""
","""event"",""trial"",""time""
""fullscreenexit"",""6"",""21789""
","","","","","","null","<div style=""font-size:60px;"">+</div>","null","","fixation","","","","","","","","",""
"memory-trial","77","301003","0.0-15.0-1.17","1917","2","""event"",""trial"",""time""
""fullscreenenter"",""1"",""2231""
""fullscreenexit"",""6"",""21789""
","
","
","""event"",""trial"",""time""
""fullscreenenter"",""1"",""2231""
","""event"",""trial"",""time""
""fullscreenexit"",""6"",""21789""
","","","","","","1237.8999999999069","images/train2.png","","","memory_trial","3","maybe_new","","","","","","",""
"html-keyboard-response","78","301504","0.0-15.0-0.18","1917","2","""event"",""trial"",""time""
""fullscreenenter"",""1"",""2231""
""fullscreenexit"",""6"",""21789""
","
","
","""event"",""trial"",""time""
""fullscreenenter"",""1"",""2231""
","""event"",""trial"",""time""
""fullscreenexit"",""6"",""21789""
","","","","","","null","<div style=""font-size:60px;"">+</div>","null","","fixation","","","","","","","","",""
"memory-trial","79","304085","0.0-15.0-1.18","1917","2","""event"",""trial"",""time""
""fullscreenenter"",""1"",""2231""
""fullscreenexit"",""6"",""21789""
","
","
","""event"",""trial"",""time""
""fullscreenenter"",""1"",""2231""
","""event"",""trial"",""time""
""fullscreenexit"",""6"",""21789""
","","","","","","1577.8999999999069","images/sofa4.png","","","memory_trial","4","definitely_new","","","","","","",""
"html-keyboard-response","80","304586","0.0-15.0-0.19","1917","2","""event"",""trial"",""time""
""fullscreenenter"",""1"",""2231""
""fullscreenexit"",""6"",""21789""
","
","
","""event"",""trial"",""time""
""fullscreenenter"",""1"",""2231""
","""event"",""trial"",""time""
""fullscreenexit"",""6"",""21789""
","","","","","","null","<div style=""font-size:60px;"">+</div>","null","","fixation","","","","","","","","",""
"memory-trial","81","306563","0.0-15.0-1.19","1917","2","""event"",""trial"",""time""
""fullscreenenter"",""1"",""2231""
""fullscreenexit"",""6"",""21789""
","
","
","""event"",""trial"",""time""
""fullscreenenter"",""1"",""2231""
","""event"",""trial"",""time""
""fullscreenexit"",""6"",""21789""
","","","","","","974.3000000000466","images/chair4.png","","","memory_trial","2","maybe_old","","","","","","",""
"html-keyboard-response","82","307065","0.0-15.0-0.20","1917","2","""event"",""trial"",""time""
""fullscreenenter"",""1"",""2231""
""fullscreenexit"",""6"",""21789""
","
","
","""event"",""trial"",""time""
""fullscreenenter"",""1"",""2231""
","""event"",""trial"",""time""
""fullscreenexit"",""6"",""21789""
","","","","","","null","<div style=""font-size:60px;"">+</div>","null","","fixation","","","","","","","","",""
"memory-trial","83","309434","0.0-15.0-1.20","1917","2","""event"",""trial"",""time""
""fullscreenenter"",""1"",""2231""
""fullscreenexit"",""6"",""21789""
","
","
","""event"",""trial"",""time""
""fullscreenenter"",""1"",""2231""
","""event"",""trial"",""time""
""fullscreenexit"",""6"",""21789""
","","","","","","1366.3999999999069","images/orange4.png","","","memory_trial","2","maybe_old","","","","","","",""
"html-keyboard-response","84","309935","0.0-15.0-0.21","1917","2","""event"",""trial"",""time""
""fullscreenenter"",""1"",""2231""
""fullscreenexit"",""6"",""21789""
","
","
","""event"",""trial"",""time""
""fullscreenenter"",""1"",""2231""
","""event"",""trial"",""time""
""fullscreenexit"",""6"",""21789""
","","","","","","null","<div style=""font-size:60px;"">+</div>","null","","fixation","","","","","","","","",""
"memory-trial","85","311918","0.0-15.0-1.21","1917","2","""event"",""trial"",""time""
""fullscreenenter"",""1"",""2231""
""fullscreenexit"",""6"",""21789""
","
","
","""event"",""trial"",""time""
""fullscreenenter"",""1"",""2231""
","""event"",""trial"",""time""
""fullscreenexit"",""6"",""21789""
","","","","","","979.2000000001863","images/bush3.png","","","memory_trial","2","maybe_old","","","","","","",""
"html-keyboard-response","86","312419","0.0-15.0-0.22","1917","2","""event"",""trial"",""time""
""fullscreenenter"",""1"",""2231""
""fullscreenexit"",""6"",""21789""
","
","
","""event"",""trial"",""time""
""fullscreenenter"",""1"",""2231""
","""event"",""trial"",""time""
""fullscreenexit"",""6"",""21789""
","","","","","","null","<div style=""font-size:60px;"">+</div>","null","","fixation","","","","","","","","",""
"memory-trial","87","315795","0.0-15.0-1.22","1917","2","""event"",""trial"",""time""
""fullscreenenter"",""1"",""2231""
""fullscreenexit"",""6"",""21789""
","
","
","""event"",""trial"",""time""
""fullscreenenter"",""1"",""2231""
","""event"",""trial"",""time""
""fullscreenexit"",""6"",""21789""
","","","","","","2373.1999999999534","images/feline2.png","","","memory_trial","3","maybe_new","","","","","","",""
"html-keyboard-response","88","316296","0.0-15.0-0.23","1917","2","""event"",""trial"",""time""
""fullscreenenter"",""1"",""2231""
""fullscreenexit"",""6"",""21789""
","
","
","""event"",""trial"",""time""
""fullscreenenter"",""1"",""2231""
","""event"",""trial"",""time""
""fullscreenexit"",""6"",""21789""
","","","","","","null","<div style=""font-size:60px;"">+</div>","null","","fixation","","","","","","","","",""
"memory-trial","89","321799","0.0-15.0-1.23","1917","2","""event"",""trial"",""time""
""fullscreenenter"",""1"",""2231""
""fullscreenexit"",""6"",""21789""
","
","
","""event"",""trial"",""time""
""fullscreenenter"",""1"",""2231""
","""event"",""trial"",""time""
""fullscreenexit"",""6"",""21789""
","","","","","","4499.300000000047","images/flower2.png","","","memory_trial","2","maybe_old","","","","","","",""
"html-keyboard-response","90","322300","0.0-15.0-0.24","1917","2","""event"",""trial"",""time""
""fullscreenenter"",""1"",""2231""
""fullscreenexit"",""6"",""21789""
","
","
","""event"",""trial"",""time""
""fullscreenenter"",""1"",""2231""
","""event"",""trial"",""time""
""fullscreenexit"",""6"",""21789""
","","","","","","null","<div style=""font-size:60px;"">+</div>","null","","fixation","","","","","","","","",""
"memory-trial","91","328027","0.0-15.0-1.24","1917","2","""event"",""trial"",""time""
""fullscreenenter"",""1"",""2231""
""fullscreenexit"",""6"",""21789""
","
","
","""event"",""trial"",""time""
""fullscreenenter"",""1"",""2231""
","""event"",""trial"",""time""
""fullscreenexit"",""6"",""21789""
","","","","","","4724.199999999953","images/table4.png","","","memory_trial","3","maybe_new","","","","","","",""
"html-keyboard-response","92","328529","0.0-15.0-0.25","1917","2","""event"",""trial"",""time""
""fullscreenenter"",""1"",""2231""
""fullscreenexit"",""6"",""21789""
","
","
","""event"",""trial"",""time""
""fullscreenenter"",""1"",""2231""
","""event"",""trial"",""time""
""fullscreenexit"",""6"",""21789""
","","","","","","null","<div style=""font-size:60px;"">+</div>","null","","fixation","","","","","","","","",""
"memory-trial","93","330793","0.0-15.0-1.25","1917","2","""event"",""trial"",""time""
""fullscreenenter"",""1"",""2231""
""fullscreenexit"",""6"",""21789""
","
","
","""event"",""trial"",""time""
""fullscreenenter"",""1"",""2231""
","""event"",""trial"",""time""
""fullscreenexit"",""6"",""21789""
","","","","","","1261.3999999999069","images/horse3.png","","","memory_trial","2","maybe_old","","","","","","",""
"html-keyboard-response","94","331295","0.0-15.0-0.26","1917","2","""event"",""trial"",""time""
""fullscreenenter"",""1"",""2231""
""fullscreenexit"",""6"",""21789""
","
","
","""event"",""trial"",""time""
""fullscreenenter"",""1"",""2231""
","""event"",""trial"",""time""
""fullscreenexit"",""6"",""21789""
","","","","","","null","<div style=""font-size:60px;"">+</div>","null","","fixation","","","","","","","","",""
"memory-trial","95","333696","0.0-15.0-1.26","1917","2","""event"",""trial"",""time""
""fullscreenenter"",""1"",""2231""
""fullscreenexit"",""6"",""21789""
","
","
","""event"",""trial"",""time""
""fullscreenenter"",""1"",""2231""
","""event"",""trial"",""time""
""fullscreenexit"",""6"",""21789""
","","","","","","1398.6000000000931","images/sheep5.png","","","memory_trial","1","definitely_old","","","","","","",""
"html-keyboard-response","96","334198","0.0-15.0-0.27","1917","2","""event"",""trial"",""time""
""fullscreenenter"",""1"",""2231""
""fullscreenexit"",""6"",""21789""
","
","
","""event"",""trial"",""time""
""fullscreenenter"",""1"",""2231""
","""event"",""trial"",""time""
""fullscreenexit"",""6"",""21789""
","","","","","","null","<div style=""font-size:60px;"">+</div>","null","","fixation","","","","","","","","",""
"memory-trial","97","341819","0.0-15.0-1.27","1917","2","""event"",""trial"",""time""
""fullscreenenter"",""1"",""2231""
""fullscreenexit"",""6"",""21789""
","
","
","""event"",""trial"",""time""
""fullscreenenter"",""1"",""2231""
","""event"",""trial"",""time""
""fullscreenexit"",""6"",""21789""
","","","","","","6618.40000000014","images/orange2.png","","","memory_trial","3","maybe_new","","","","","","",""
"html-keyboard-response","98","342321","0.0-15.0-0.28","1917","2","""event"",""trial"",""time""
""fullscreenenter"",""1"",""2231""
""fullscreenexit"",""6"",""21789""
","
","
","""event"",""trial"",""time""
""fullscreenenter"",""1"",""2231""
","""event"",""trial"",""time""
""fullscreenexit"",""6"",""21789""
","","","","","","null","<div style=""font-size:60px;"">+</div>","null","","fixation","","","","","","","","",""
"memory-trial","99","344431","0.0-15.0-1.28","1917","2","""event"",""trial"",""time""
""fullscreenenter"",""1"",""2231""
""fullscreenexit"",""6"",""21789""
","
","
","""event"",""trial"",""time""
""fullscreenenter"",""1"",""2231""
","""event"",""trial"",""time""
""fullscreenexit"",""6"",""21789""
","","","","","","1106.5","images/cow4.png","","","memory_trial","2","maybe_old","","","","","","",""
"html-keyboard-response","100","344932","0.0-15.0-0.29","1917","2","""event"",""trial"",""time""
""fullscreenenter"",""1"",""2231""
""fullscreenexit"",""6"",""21789""
","
","
","""event"",""trial"",""time""
""fullscreenenter"",""1"",""2231""
","""event"",""trial"",""time""
""fullscreenexit"",""6"",""21789""
","","","","","","null","<div style=""font-size:60px;"">+</div>","null","","fixation","","","","","","","","",""
"memory-trial","101","348683","0.0-15.0-1.29","1917","2","""event"",""trial"",""time""
""fullscreenenter"",""1"",""2231""
""fullscreenexit"",""6"",""21789""
","
","
","""event"",""trial"",""time""
""fullscreenenter"",""1"",""2231""
","""event"",""trial"",""time""
""fullscreenexit"",""6"",""21789""
","","","","","","2748.5","images/straw2.png","","","memory_trial","3","maybe_new","","","","","","",""
"html-keyboard-response","102","349185","0.0-15.0-0.30","1917","2","""event"",""trial"",""time""
""fullscreenenter"",""1"",""2231""
""fullscreenexit"",""6"",""21789""
","
","
","""event"",""trial"",""time""
""fullscreenenter"",""1"",""2231""
","""event"",""trial"",""time""
""fullscreenexit"",""6"",""21789""
","","","","","","null","<div style=""font-size:60px;"">+</div>","null","","fixation","","","","","","","","",""
"memory-trial","103","351263","0.0-15.0-1.30","1917","2","""event"",""trial"",""time""
""fullscreenenter"",""1"",""2231""
""fullscreenexit"",""6"",""21789""
","
","
","""event"",""trial"",""time""
""fullscreenenter"",""1"",""2231""
","""event"",""trial"",""time""
""fullscreenexit"",""6"",""21789""
","","","","","","1075.4000000001397","images/table3.png","","","memory_trial","2","maybe_old","","","","","","",""
"html-keyboard-response","104","351765","0.0-15.0-0.31","1917","2","""event"",""trial"",""time""
""fullscreenenter"",""1"",""2231""
""fullscreenexit"",""6"",""21789""
","
","
","""event"",""trial"",""time""
""fullscreenenter"",""1"",""2231""
","""event"",""trial"",""time""
""fullscreenexit"",""6"",""21789""
","","","","","","null","<div style=""font-size:60px;"">+</div>","null","","fixation","","","","","","","","",""
"memory-trial","105","354971","0.0-15.0-1.31","1917","2","""event"",""trial"",""time""
""fullscreenenter"",""1"",""2231""
""fullscreenexit"",""6"",""21789""
","
","
","""event"",""trial"",""time""
""fullscreenenter"",""1"",""2231""
","""event"",""trial"",""time""
""fullscreenexit"",""6"",""21789""
","","","","","","2202.100000000093","images/sheep3.png","","","memory_trial","3","maybe_new","","","","","","",""
"html-keyboard-response","106","355472","0.0-15.0-0.32","1917","2","""event"",""trial"",""time""
""fullscreenenter"",""1"",""2231""
""fullscreenexit"",""6"",""21789""
","
","
","""event"",""trial"",""time""
""fullscreenenter"",""1"",""2231""
","""event"",""trial"",""time""
""fullscreenexit"",""6"",""21789""
","","","","","","null","<div style=""font-size:60px;"">+</div>","null","","fixation","","","","","","","","",""
"memory-trial","107","359987","0.0-15.0-1.32","1917","2","""event"",""trial"",""time""
""fullscreenenter"",""1"",""2231""
""fullscreenexit"",""6"",""21789""
","
","
","""event"",""trial"",""time""
""fullscreenenter"",""1"",""2231""
","""event"",""trial"",""time""
""fullscreenexit"",""6"",""21789""
","","","","","","3512","images/feline4.png","","","memory_trial","2","maybe_old","","","","","","",""
"html-keyboard-response","108","360488","0.0-15.0-0.33","1917","2","""event"",""trial"",""time""
""fullscreenenter"",""1"",""2231""
""fullscreenexit"",""6"",""21789""
","
","
","""event"",""trial"",""time""
""fullscreenenter"",""1"",""2231""
","""event"",""trial"",""time""
""fullscreenexit"",""6"",""21789""
","","","","","","null","<div style=""font-size:60px;"">+</div>","null","","fixation","","","","","","","","",""
"memory-trial","109","368478","0.0-15.0-1.33","1917","2","""event"",""trial"",""time""
""fullscreenenter"",""1"",""2231""
""fullscreenexit"",""6"",""21789""
","
","
","""event"",""trial"",""time""
""fullscreenenter"",""1"",""2231""
","""event"",""trial"",""time""
""fullscreenexit"",""6"",""21789""
","","","","","","6986.699999999953","images/apple1.png","","","memory_trial","2","maybe_old","","","","","","",""
"html-keyboard-response","110","368980","0.0-15.0-0.34","1917","2","""event"",""trial"",""time""
""fullscreenenter"",""1"",""2231""
""fullscreenexit"",""6"",""21789""
","
","
","""event"",""trial"",""time""
""fullscreenenter"",""1"",""2231""
","""event"",""trial"",""time""
""fullscreenexit"",""6"",""21789""
","","","","","","null","<div style=""font-size:60px;"">+</div>","null","","fixation","","","","","","","","",""
"memory-trial","111","372480","0.0-15.0-1.34","1917","2","""event"",""trial"",""time""
""fullscreenenter"",""1"",""2231""
""fullscreenexit"",""6"",""21789""
","
","
","""event"",""trial"",""time""
""fullscreenenter"",""1"",""2231""
","""event"",""trial"",""time""
""fullscreenexit"",""6"",""21789""
","","","","","","2497.5","images/boat1.png","","","memory_trial","3","maybe_new","","","","","","",""
"html-keyboard-response","112","372982","0.0-15.0-0.35","1917","2","""event"",""trial"",""time""
""fullscreenenter"",""1"",""2231""
""fullscreenexit"",""6"",""21789""
","
","
","""event"",""trial"",""time""
""fullscreenenter"",""1"",""2231""
","""event"",""trial"",""time""
""fullscreenexit"",""6"",""21789""
","","","","","","null","<div style=""font-size:60px;"">+</div>","null","","fixation","","","","","","","","",""
"memory-trial","113","376079","0.0-15.0-1.35","1917","2","""event"",""trial"",""time""
""fullscreenenter"",""1"",""2231""
""fullscreenexit"",""6"",""21789""
","
","
","""event"",""trial"",""time""
""fullscreenenter"",""1"",""2231""
","""event"",""trial"",""time""
""fullscreenexit"",""6"",""21789""
","","","","","","2094.5","images/banana5.png","","","memory_trial","3","maybe_new","","","","","","",""
"html-keyboard-response","114","376583","0.0-15.0-0.36","1917","2","""event"",""trial"",""time""
""fullscreenenter"",""1"",""2231""
""fullscreenexit"",""6"",""21789""
","
","
","""event"",""trial"",""time""
""fullscreenenter"",""1"",""2231""
","""event"",""trial"",""time""
""fullscreenexit"",""6"",""21789""
","","","","","","null","<div style=""font-size:60px;"">+</div>","null","","fixation","","","","","","","","",""
"memory-trial","115","379041","0.0-15.0-1.36","1917","2","""event"",""trial"",""time""
""fullscreenenter"",""1"",""2231""
""fullscreenexit"",""6"",""21789""
","
","
","""event"",""trial"",""time""
""fullscreenenter"",""1"",""2231""
","""event"",""trial"",""time""
""fullscreenexit"",""6"",""21789""
","","","","","","1455.5","images/bed5.png","","","memory_trial","3","maybe_new","","","","","","",""
"html-keyboard-response","116","379543","0.0-15.0-0.37","1917","2","""event"",""trial"",""time""
""fullscreenenter"",""1"",""2231""
""fullscreenexit"",""6"",""21789""
","
","
","""event"",""trial"",""time""
""fullscreenenter"",""1"",""2231""
","""event"",""trial"",""time""
""fullscreenexit"",""6"",""21789""
","","","","","","null","<div style=""font-size:60px;"">+</div>","null","","fixation","","","","","","","","",""
"memory-trial","117","381371","0.0-15.0-1.37","1917","2","""event"",""trial"",""time""
""fullscreenenter"",""1"",""2231""
""fullscreenexit"",""6"",""21789""
","
","
","""event"",""trial"",""time""
""fullscreenenter"",""1"",""2231""
","""event"",""trial"",""time""
""fullscreenexit"",""6"",""21789""
","","","","","","823.8999999999069","images/truck5.png","","","memory_trial","1","definitely_old","","","","","","",""
"html-keyboard-response","118","381873","0.0-15.0-0.38","1917","2","""event"",""trial"",""time""
""fullscreenenter"",""1"",""2231""
""fullscreenexit"",""6"",""21789""
","
","
","""event"",""trial"",""time""
""fullscreenenter"",""1"",""2231""
","""event"",""trial"",""time""
""fullscreenexit"",""6"",""21789""
","","","","","","null","<div style=""font-size:60px;"">+</div>","null","","fixation","","","","","","","","",""
"memory-trial","119","384102","0.0-15.0-1.38","1917","2","""event"",""trial"",""time""
""fullscreenenter"",""1"",""2231""
""fullscreenexit"",""6"",""21789""
","
","
","""event"",""trial"",""time""
""fullscreenenter"",""1"",""2231""
","""event"",""trial"",""time""
""fullscreenexit"",""6"",""21789""
","","","","","","1226.5","images/flower5.png","","","memory_trial","3","maybe_new","","","","","","",""
"html-keyboard-response","120","384604","0.0-15.0-0.39","1917","2","""event"",""trial"",""time""
""fullscreenenter"",""1"",""2231""
""fullscreenexit"",""6"",""21789""
","
","
","""event"",""trial"",""time""
""fullscreenenter"",""1"",""2231""
","""event"",""trial"",""time""
""fullscreenexit"",""6"",""21789""
","","","","","","null","<div style=""font-size:60px;"">+</div>","null","","fixation","","","","","","","","",""
"memory-trial","121","387076","0.0-15.0-1.39","1917","2","""event"",""trial"",""time""
""fullscreenenter"",""1"",""2231""
""fullscreenexit"",""6"",""21789""
","
","
","""event"",""trial"",""time""
""fullscreenenter"",""1"",""2231""
","""event"",""trial"",""time""
""fullscreenexit"",""6"",""21789""
","","","","","","1469.6000000000931","images/cow1.png","","","memory_trial","1","definitely_old","","","","","","",""
"html-keyboard-response","122","387578","0.0-15.0-0.40","1917","2","""event"",""trial"",""time""
""fullscreenenter"",""1"",""2231""
""fullscreenexit"",""6"",""21789""
","
","
","""event"",""trial"",""time""
""fullscreenenter"",""1"",""2231""
","""event"",""trial"",""time""
""fullscreenexit"",""6"",""21789""
","","","","","","null","<div style=""font-size:60px;"">+</div>","null","","fixation","","","","","","","","",""
"memory-trial","123","389132","0.0-15.0-1.40","1917","2","""event"",""trial"",""time""
""fullscreenenter"",""1"",""2231""
""fullscreenexit"",""6"",""21789""
","
","
","""event"",""trial"",""time""
""fullscreenenter"",""1"",""2231""
","""event"",""trial"",""time""
""fullscreenexit"",""6"",""21789""
","","","","","","551","images/boat4.png","","","memory_trial","1","definitely_old","","","","","","",""
"html-keyboard-response","124","389633","0.0-15.0-0.41","1917","2","""event"",""trial"",""time""
""fullscreenenter"",""1"",""2231""
""fullscreenexit"",""6"",""21789""
","
","
","""event"",""trial"",""time""
""fullscreenenter"",""1"",""2231""
","""event"",""trial"",""time""
""fullscreenexit"",""6"",""21789""
","","","","","","null","<div style=""font-size:60px;"">+</div>","null","","fixation","","","","","","","","",""
"memory-trial","125","391081","0.0-15.0-1.41","1917","2","""event"",""trial"",""time""
""fullscreenenter"",""1"",""2231""
""fullscreenexit"",""6"",""21789""
","
","
","""event"",""trial"",""time""
""fullscreenenter"",""1"",""2231""
","""event"",""trial"",""time""
""fullscreenexit"",""6"",""21789""
","","","","","","444.39999999990687","images/rodent2.png","","","memory_trial","2","maybe_old","","","","","","",""
"html-keyboard-response","126","391582","0.0-15.0-0.42","1917","2","""event"",""trial"",""time""
""fullscreenenter"",""1"",""2231""
""fullscreenexit"",""6"",""21789""
","
","
","""event"",""trial"",""time""
""fullscreenenter"",""1"",""2231""
","""event"",""trial"",""time""
""fullscreenexit"",""6"",""21789""
","","","","","","null","<div style=""font-size:60px;"">+</div>","null","","fixation","","","","","","","","",""
"memory-trial","127","394759","0.0-15.0-1.42","1917","2","""event"",""trial"",""time""
""fullscreenenter"",""1"",""2231""
""fullscreenexit"",""6"",""21789""
","
","
","""event"",""trial"",""time""
""fullscreenenter"",""1"",""2231""
","""event"",""trial"",""time""
""fullscreenexit"",""6"",""21789""
","","","","","","2173.9000000001397","images/cactus5.png","","","memory_trial","2","maybe_old","","","","","","",""
"html-keyboard-response","128","395260","0.0-15.0-0.43","1917","2","""event"",""trial"",""time""
""fullscreenenter"",""1"",""2231""
""fullscreenexit"",""6"",""21789""
","
","
","""event"",""trial"",""time""
""fullscreenenter"",""1"",""2231""
","""event"",""trial"",""time""
""fullscreenexit"",""6"",""21789""
","","","","","","null","<div style=""font-size:60px;"">+</div>","null","","fixation","","","","","","","","",""
"memory-trial","129","398137","0.0-15.0-1.43","1917","2","""event"",""trial"",""time""
""fullscreenenter"",""1"",""2231""
""fullscreenexit"",""6"",""21789""
","
","
","""event"",""trial"",""time""
""fullscreenenter"",""1"",""2231""
","""event"",""trial"",""time""
""fullscreenexit"",""6"",""21789""
","","","","","","1874.0999999998603","images/train5.png","","","memory_trial","1","definitely_old","","","","","","",""
"html-keyboard-response","130","398639","0.0-15.0-0.44","1917","2","""event"",""trial"",""time""
""fullscreenenter"",""1"",""2231""
""fullscreenexit"",""6"",""21789""
","
","
","""event"",""trial"",""time""
""fullscreenenter"",""1"",""2231""
","""event"",""trial"",""time""
""fullscreenexit"",""6"",""21789""
","","","","","","null","<div style=""font-size:60px;"">+</div>","null","","fixation","","","","","","","","",""
"memory-trial","131","401334","0.0-15.0-1.44","1917","2","""event"",""trial"",""time""
""fullscreenenter"",""1"",""2231""
""fullscreenexit"",""6"",""21789""
","
","
","""event"",""trial"",""time""
""fullscreenenter"",""1"",""2231""
","""event"",""trial"",""time""
""fullscreenexit"",""6"",""21789""
","","","","","","1691.6999999999534","images/boat3.png","","","memory_trial","2","maybe_old","","","","","","",""
"html-keyboard-response","132","401835","0.0-15.0-0.45","1917","2","""event"",""trial"",""time""
""fullscreenenter"",""1"",""2231""
""fullscreenexit"",""6"",""21789""
","
","
","""event"",""trial"",""time""
""fullscreenenter"",""1"",""2231""
","""event"",""trial"",""time""
""fullscreenexit"",""6"",""21789""
","","","","","","null","<div style=""font-size:60px;"">+</div>","null","","fixation","","","","","","","","",""
"memory-trial","133","403595","0.0-15.0-1.45","1917","2","""event"",""trial"",""time""
""fullscreenenter"",""1"",""2231""
""fullscreenexit"",""6"",""21789""
","
","
","""event"",""trial"",""time""
""fullscreenenter"",""1"",""2231""
","""event"",""trial"",""time""
""fullscreenexit"",""6"",""21789""
","","","","","","756.4000000001397","images/dog5.png","","","memory_trial","2","maybe_old","","","","","","",""
"html-keyboard-response","134","404096","0.0-15.0-0.46","1917","2","""event"",""trial"",""time""
""fullscreenenter"",""1"",""2231""
""fullscreenexit"",""6"",""21789""
","
","
","""event"",""trial"",""time""
""fullscreenenter"",""1"",""2231""
","""event"",""trial"",""time""
""fullscreenexit"",""6"",""21789""
","","","","","","null","<div style=""font-size:60px;"">+</div>","null","","fixation","","","","","","","","",""
"memory-trial","135","405913","0.0-15.0-1.46","1917","2","""event"",""trial"",""time""
""fullscreenenter"",""1"",""2231""
""fullscreenexit"",""6"",""21789""
","
","
","""event"",""trial"",""time""
""fullscreenenter"",""1"",""2231""
","""event"",""trial"",""time""
""fullscreenexit"",""6"",""21789""
","","","","","","813.8000000000466","images/horse2.png","","","memory_trial","1","definitely_old","","","","","","",""
"html-button-response","136","444339","0.0-15.0-2.46-0.46","1917","2","""event"",""trial"",""time""
""fullscreenenter"",""1"",""2231""
""fullscreenexit"",""6"",""21789""
","
","
","""event"",""trial"",""time""
""fullscreenenter"",""1"",""2231""
","""event"",""trial"",""time""
""fullscreenexit"",""6"",""21789""
","","","","","","38424.69999999995","<p> Take a break! </p><p> Click the button to continue. </p>","0","","break","","","","","","","","",""
"html-keyboard-response","137","444841","0.0-15.0-0.47","1917","2","""event"",""trial"",""time""
""fullscreenenter"",""1"",""2231""
""fullscreenexit"",""6"",""21789""
","
","
","""event"",""trial"",""time""
""fullscreenenter"",""1"",""2231""
","""event"",""trial"",""time""
""fullscreenexit"",""6"",""21789""
","","","","","","null","<div style=""font-size:60px;"">+</div>","null","","fixation","","","","","","","","",""
"memory-trial","138","448004","0.0-15.0-1.47","1917","2","""event"",""trial"",""time""
""fullscreenenter"",""1"",""2231""
""fullscreenexit"",""6"",""21789""
","
","
","""event"",""trial"",""time""
""fullscreenenter"",""1"",""2231""
","""event"",""trial"",""time""
""fullscreenexit"",""6"",""21789""
","","","","","","2159.1999999997206","images/orange1.png","","","memory_trial","2","maybe_old","","","","","","",""
"html-keyboard-response","139","448506","0.0-15.0-0.48","1917","2","""event"",""trial"",""time""
""fullscreenenter"",""1"",""2231""
""fullscreenexit"",""6"",""21789""
","
","
","""event"",""trial"",""time""
""fullscreenenter"",""1"",""2231""
","""event"",""trial"",""time""
""fullscreenexit"",""6"",""21789""
","","","","","","null","<div style=""font-size:60px;"">+</div>","null","","fixation","","","","","","","","",""
"memory-trial","140","450016","0.0-15.0-1.48","1917","2","""event"",""trial"",""time""
""fullscreenenter"",""1"",""2231""
""fullscreenexit"",""6"",""21789""
","
","
","""event"",""trial"",""time""
""fullscreenenter"",""1"",""2231""
","""event"",""trial"",""time""
""fullscreenexit"",""6"",""21789""
","","","","","","506.89999999990687","images/banana3.png","","","memory_trial","2","maybe_old","","","","","","",""
"html-keyboard-response","141","450518","0.0-15.0-0.49","1917","2","""event"",""trial"",""time""
""fullscreenenter"",""1"",""2231""
""fullscreenexit"",""6"",""21789""
","
","
","""event"",""trial"",""time""
""fullscreenenter"",""1"",""2231""
","""event"",""trial"",""time""
""fullscreenexit"",""6"",""21789""
","","","","","","null","<div style=""font-size:60px;"">+</div>","null","","fixation","","","","","","","","",""
"memory-trial","142","451870","0.0-15.0-1.49","1917","2","""event"",""trial"",""time""
""fullscreenenter"",""1"",""2231""
""fullscreenexit"",""6"",""21789""
","
","
","""event"",""trial"",""time""
""fullscreenenter"",""1"",""2231""
","""event"",""trial"",""time""
""fullscreenexit"",""6"",""21789""
","","","","","","349.70000000018626","images/dog4.png","","","memory_trial","4","definitely_new","","","","","","",""
"html-keyboard-response","143","452372","0.0-15.0-0.50","1917","2","""event"",""trial"",""time""
""fullscreenenter"",""1"",""2231""
""fullscreenexit"",""6"",""21789""
","
","
","""event"",""trial"",""time""
""fullscreenenter"",""1"",""2231""
","""event"",""trial"",""time""
""fullscreenexit"",""6"",""21789""
","","","","","","null","<div style=""font-size:60px;"">+</div>","null","","fixation","","","","","","","","",""
"memory-trial","144","453584","0.0-15.0-1.50","1917","2","""event"",""trial"",""time""
""fullscreenenter"",""1"",""2231""
""fullscreenexit"",""6"",""21789""
","
","
","""event"",""trial"",""time""
""fullscreenenter"",""1"",""2231""
","""event"",""trial"",""time""
""fullscreenexit"",""6"",""21789""
","","","","","","209.70000000018626","images/goat2.png","","","memory_trial","2","maybe_old","","","","","","",""
"html-keyboard-response","145","454085","0.0-15.0-0.51","1917","2","""event"",""trial"",""time""
""fullscreenenter"",""1"",""2231""
""fullscreenexit"",""6"",""21789""
","
","
","""event"",""trial"",""time""
""fullscreenenter"",""1"",""2231""
","""event"",""trial"",""time""
""fullscreenexit"",""6"",""21789""
","","","","","","null","<div style=""font-size:60px;"">+</div>","null","","fixation","","","","","","","","",""
"memory-trial","146","455551","0.0-15.0-1.51","1917","2","""event"",""trial"",""time""
""fullscreenenter"",""1"",""2231""
""fullscreenexit"",""6"",""21789""
","
","
","""event"",""trial"",""time""
""fullscreenenter"",""1"",""2231""
","""event"",""trial"",""time""
""fullscreenexit"",""6"",""21789""
","","","","","","462.89999999990687","images/sheep4.png","","","memory_trial","1","definitely_old","","","","","","",""
"html-keyboard-response","147","456053","0.0-15.0-0.52","1917","2","""event"",""trial"",""time""
""fullscreenenter"",""1"",""2231""
""fullscreenexit"",""6"",""21789""
","
","
","""event"",""trial"",""time""
""fullscreenenter"",""1"",""2231""
","""event"",""trial"",""time""
""fullscreenexit"",""6"",""21789""
","","","","","","null","<div style=""font-size:60px;"">+</div>","null","","fixation","","","","","","","","",""
"memory-trial","148","457312","0.0-15.0-1.52","1917","2","""event"",""trial"",""time""
""fullscreenenter"",""1"",""2231""
""fullscreenexit"",""6"",""21789""
","
","
","""event"",""trial"",""time""
""fullscreenenter"",""1"",""2231""
","""event"",""trial"",""time""
""fullscreenexit"",""6"",""21789""
","","","","","","256.89999999990687","images/banana1.png","","","memory_trial","3","maybe_new","","","","","","",""
"html-keyboard-response","149","457814","0.0-15.0-0.53","1917","2","""event"",""trial"",""time""
""fullscreenenter"",""1"",""2231""
""fullscreenexit"",""6"",""21789""
","
","
","""event"",""trial"",""time""
""fullscreenenter"",""1"",""2231""
","""event"",""trial"",""time""
""fullscreenexit"",""6"",""21789""
","","","","","","null","<div style=""font-size:60px;"">+</div>","null","","fixation","","","","","","","","",""
"memory-trial","150","459009","0.0-15.0-1.53","1917","2","""event"",""trial"",""time""
""fullscreenenter"",""1"",""2231""
""fullscreenexit"",""6"",""21789""
","
","
","""event"",""trial"",""time""
""fullscreenenter"",""1"",""2231""
","""event"",""trial"",""time""
""fullscreenexit"",""6"",""21789""
","","","","","","193","images/apple4.png","","","memory_trial","2","maybe_old","","","","","","",""
"html-keyboard-response","151","459511","0.0-15.0-0.54","1917","2","""event"",""trial"",""time""
""fullscreenenter"",""1"",""2231""
""fullscreenexit"",""6"",""21789""
","
","
","""event"",""trial"",""time""
""fullscreenenter"",""1"",""2231""
","""event"",""trial"",""time""
""fullscreenexit"",""6"",""21789""
","","","","","","null","<div style=""font-size:60px;"">+</div>","null","","fixation","","","","","","","","",""
"memory-trial","152","460833","0.0-15.0-1.54","1917","2","""event"",""trial"",""time""
""fullscreenenter"",""1"",""2231""
""fullscreenexit"",""6"",""21789""
","
","
","""event"",""trial"",""time""
""fullscreenenter"",""1"",""2231""
","""event"",""trial"",""time""
""fullscreenexit"",""6"",""21789""
","","","","","","319.40000000037253","images/sheep2.png","","","memory_trial","1","definitely_old","","","","","","",""
"html-keyboard-response","153","461335","0.0-15.0-0.55","1917","2","""event"",""trial"",""time""
""fullscreenenter"",""1"",""2231""
""fullscreenexit"",""6"",""21789""
","
","
","""event"",""trial"",""time""
""fullscreenenter"",""1"",""2231""
","""event"",""trial"",""time""
""fullscreenexit"",""6"",""21789""
","","","","","","null","<div style=""font-size:60px;"">+</div>","null","","fixation","","","","","","","","",""
"memory-trial","154","462655","0.0-15.0-1.55","1917","2","""event"",""trial"",""time""
""fullscreenenter"",""1"",""2231""
""fullscreenexit"",""6"",""21789""
","
","
","""event"",""trial"",""time""
""fullscreenenter"",""1"",""2231""
","""event"",""trial"",""time""
""fullscreenexit"",""6"",""21789""
","","","","","","317.1999999997206","images/apple5.png","","","memory_trial","2","maybe_old","","","","","","",""
"html-keyboard-response","155","463156","0.0-15.0-0.56","1917","2","""event"",""trial"",""time""
""fullscreenenter"",""1"",""2231""
""fullscreenexit"",""6"",""21789""
","
","
","""event"",""trial"",""time""
""fullscreenenter"",""1"",""2231""
","""event"",""trial"",""time""
""fullscreenexit"",""6"",""21789""
","","","","","","null","<div style=""font-size:60px;"">+</div>","null","","fixation","","","","","","","","",""
"memory-trial","156","464455","0.0-15.0-1.56","1917","2","""event"",""trial"",""time""
""fullscreenenter"",""1"",""2231""
""fullscreenexit"",""6"",""21789""
","
","
","""event"",""trial"",""time""
""fullscreenenter"",""1"",""2231""
","""event"",""trial"",""time""
""fullscreenexit"",""6"",""21789""
","","","","","","295.60000000009313","images/sofa5.png","","","memory_trial","2","maybe_old","","","","","","",""
"html-keyboard-response","157","464956","0.0-15.0-0.57","1917","2","""event"",""trial"",""time""
""fullscreenenter"",""1"",""2231""
""fullscreenexit"",""6"",""21789""
","
","
","""event"",""trial"",""time""
""fullscreenenter"",""1"",""2231""
","""event"",""trial"",""time""
""fullscreenexit"",""6"",""21789""
","","","","","","null","<div style=""font-size:60px;"">+</div>","null","","fixation","","","","","","","","",""
"memory-trial","158","466120","0.0-15.0-1.57","1917","2","""event"",""trial"",""time""
""fullscreenenter"",""1"",""2231""
""fullscreenexit"",""6"",""21789""
","
","
","""event"",""trial"",""time""
""fullscreenenter"",""1"",""2231""
","""event"",""trial"",""time""
""fullscreenexit"",""6"",""21789""
","","","","","","161","images/table1.png","","","memory_trial","1","definitely_old","","","","","","",""
"html-keyboard-response","159","466622","0.0-15.0-0.58","1917","2","""event"",""trial"",""time""
""fullscreenenter"",""1"",""2231""
""fullscreenexit"",""6"",""21789""
","
","
","""event"",""trial"",""time""
""fullscreenenter"",""1"",""2231""
","""event"",""trial"",""time""
""fullscreenexit"",""6"",""21789""
","","","","","","null","<div style=""font-size:60px;"">+</div>","null","","fixation","","","","","","","","",""
"memory-trial","160","467755","0.0-15.0-1.58","1917","2","""event"",""trial"",""time""
""fullscreenenter"",""1"",""2231""
""fullscreenexit"",""6"",""21789""
","
","
","""event"",""trial"",""time""
""fullscreenenter"",""1"",""2231""
","""event"",""trial"",""time""
""fullscreenexit"",""6"",""21789""
","","","","","","130.89999999990687","images/feline3.png","","","memory_trial","4","definitely_new","","","","","","",""
"html-keyboard-response","161","468257","0.0-15.0-0.59","1917","2","""event"",""trial"",""time""
""fullscreenenter"",""1"",""2231""
""fullscreenexit"",""6"",""21789""
","
","
","""event"",""trial"",""time""
""fullscreenenter"",""1"",""2231""
","""event"",""trial"",""time""
""fullscreenexit"",""6"",""21789""
","","","","","","null","<div style=""font-size:60px;"">+</div>","null","","fixation","","","","","","","","",""
"memory-trial","162","469342","0.0-15.0-1.59","1917","2","""event"",""trial"",""time""
""fullscreenenter"",""1"",""2231""
""fullscreenexit"",""6"",""21789""
","
","
","""event"",""trial"",""time""
""fullscreenenter"",""1"",""2231""
","""event"",""trial"",""time""
""fullscreenexit"",""6"",""21789""
","","","","","","82.20000000018626","images/train3.png","","","memory_trial","3","maybe_new","","","","","","",""
"html-keyboard-response","163","469844","0.0-15.0-0.60","1917","2","""event"",""trial"",""time""
""fullscreenenter"",""1"",""2231""
""fullscreenexit"",""6"",""21789""
","
","
","""event"",""trial"",""time""
""fullscreenenter"",""1"",""2231""
","""event"",""trial"",""time""
""fullscreenexit"",""6"",""21789""
","","","","","","null","<div style=""font-size:60px;"">+</div>","null","","fixation","","","","","","","","",""
"memory-trial","164","471065","0.0-15.0-1.60","1917","2","""event"",""trial"",""time""
""fullscreenenter"",""1"",""2231""
""fullscreenexit"",""6"",""21789""
","
","
","""event"",""trial"",""time""
""fullscreenenter"",""1"",""2231""
","""event"",""trial"",""time""
""fullscreenexit"",""6"",""21789""
","","","","","","218.39999999990687","images/truck3.png","","","memory_trial","1","definitely_old","","","","","","",""
"html-keyboard-response","165","471566","0.0-15.0-0.61","1917","2","""event"",""trial"",""time""
""fullscreenenter"",""1"",""2231""
""fullscreenexit"",""6"",""21789""
","
","
","""event"",""trial"",""time""
""fullscreenenter"",""1"",""2231""
","""event"",""trial"",""time""
""fullscreenexit"",""6"",""21789""
","","","","","","null","<div style=""font-size:60px;"">+</div>","null","","fixation","","","","","","","","",""
"memory-trial","166","473351","0.0-15.0-1.61","1917","2","""event"",""trial"",""time""
""fullscreenenter"",""1"",""2231""
""fullscreenexit"",""6"",""21789""
","
","
","""event"",""trial"",""time""
""fullscreenenter"",""1"",""2231""
","""event"",""trial"",""time""
""fullscreenexit"",""6"",""21789""
","","","","","","782.1000000000931","images/bed1.png","","","memory_trial","2","maybe_old","","","","","","",""
"html-keyboard-response","167","473852","0.0-15.0-0.62","1917","2","""event"",""trial"",""time""
""fullscreenenter"",""1"",""2231""
""fullscreenexit"",""6"",""21789""
","
","
","""event"",""trial"",""time""
""fullscreenenter"",""1"",""2231""
","""event"",""trial"",""time""
""fullscreenexit"",""6"",""21789""
","","","","","","null","<div style=""font-size:60px;"">+</div>","null","","fixation","","","","","","","","",""
"memory-trial","168","475021","0.0-15.0-1.62","1917","2","""event"",""trial"",""time""
""fullscreenenter"",""1"",""2231""
""fullscreenexit"",""6"",""21789""
","
","
","""event"",""trial"",""time""
""fullscreenenter"",""1"",""2231""
","""event"",""trial"",""time""
""fullscreenexit"",""6"",""21789""
","","","","","","165.29999999981374","images/banana2.png","","","memory_trial","1","definitely_old","","","","","","",""
"html-keyboard-response","169","475522","0.0-15.0-0.63","1917","2","""event"",""trial"",""time""
""fullscreenenter"",""1"",""2231""
""fullscreenexit"",""6"",""21789""
","
","
","""event"",""trial"",""time""
""fullscreenenter"",""1"",""2231""
","""event"",""trial"",""time""
""fullscreenexit"",""6"",""21789""
","","","","","","null","<div style=""font-size:60px;"">+</div>","null","","fixation","","","","","","","","",""
"memory-trial","170","476796","0.0-15.0-1.63","1917","2","""event"",""trial"",""time""
""fullscreenenter"",""1"",""2231""
""fullscreenexit"",""6"",""21789""
","
","
","""event"",""trial"",""time""
""fullscreenenter"",""1"",""2231""
","""event"",""trial"",""time""
""fullscreenexit"",""6"",""21789""
","","","","","","270.29999999981374","images/chair1.png","","","memory_trial","4","definitely_new","","","","","","",""
"html-keyboard-response","171","477298","0.0-15.0-0.64","1917","2","""event"",""trial"",""time""
""fullscreenenter"",""1"",""2231""
""fullscreenexit"",""6"",""21789""
","
","
","""event"",""trial"",""time""
""fullscreenenter"",""1"",""2231""
","""event"",""trial"",""time""
""fullscreenexit"",""6"",""21789""
","","","","","","null","<div style=""font-size:60px;"">+</div>","null","","fixation","","","","","","","","",""
"memory-trial","172","478479","0.0-15.0-1.64","1917","2","""event"",""trial"",""time""
""fullscreenenter"",""1"",""2231""
""fullscreenexit"",""6"",""21789""
","
","
","""event"",""trial"",""time""
""fullscreenenter"",""1"",""2231""
","""event"",""trial"",""time""
""fullscreenexit"",""6"",""21789""
","","","","","","179.29999999981374","images/truck2.png","","","memory_trial","4","definitely_new","","","","","","",""
"html-keyboard-response","173","478981","0.0-15.0-0.65","1917","2","""event"",""trial"",""time""
""fullscreenenter"",""1"",""2231""
""fullscreenexit"",""6"",""21789""
","
","
","""event"",""trial"",""time""
""fullscreenenter"",""1"",""2231""
","""event"",""trial"",""time""
""fullscreenexit"",""6"",""21789""
","","","","","","null","<div style=""font-size:60px;"">+</div>","null","","fixation","","","","","","","","",""
"memory-trial","174","483629","0.0-15.0-1.65","1917","2","""event"",""trial"",""time""
""fullscreenenter"",""1"",""2231""
""fullscreenexit"",""6"",""21789""
","
","
","""event"",""trial"",""time""
""fullscreenenter"",""1"",""2231""
","""event"",""trial"",""time""
""fullscreenexit"",""6"",""21789""
","","","","","","3645.5","images/tree2.png","","","memory_trial","4","definitely_new","","","","","","",""
"html-keyboard-response","175","484130","0.0-15.0-0.66","1917","2","""event"",""trial"",""time""
""fullscreenenter"",""1"",""2231""
""fullscreenexit"",""6"",""21789""
","
","
","""event"",""trial"",""time""
""fullscreenenter"",""1"",""2231""
","""event"",""trial"",""time""
""fullscreenexit"",""6"",""21789""
","","","","","","null","<div style=""font-size:60px;"">+</div>","null","","fixation","","","","","","","","",""
"memory-trial","176","485725","0.0-15.0-1.66","1917","2","""event"",""trial"",""time""
""fullscreenenter"",""1"",""2231""
""fullscreenexit"",""6"",""21789""
","
","
","""event"",""trial"",""time""
""fullscreenenter"",""1"",""2231""
","""event"",""trial"",""time""
""fullscreenexit"",""6"",""21789""
","","","","","","591.1000000000931","images/tree1.png","","","memory_trial","1","definitely_old","","","","","","",""
"html-keyboard-response","177","486226","0.0-15.0-0.67","1917","2","""event"",""trial"",""time""
""fullscreenenter"",""1"",""2231""
""fullscreenexit"",""6"",""21789""
","
","
","""event"",""trial"",""time""
""fullscreenenter"",""1"",""2231""
","""event"",""trial"",""time""
""fullscreenexit"",""6"",""21789""
","","","","","","null","<div style=""font-size:60px;"">+</div>","null","","fixation","","","","","","","","",""
"memory-trial","178","487472","0.0-15.0-1.67","1917","2","""event"",""trial"",""time""
""fullscreenenter"",""1"",""2231""
""fullscreenexit"",""6"",""21789""
","
","
","""event"",""trial"",""time""
""fullscreenenter"",""1"",""2231""
","""event"",""trial"",""time""
""fullscreenexit"",""6"",""21789""
","","","","","","244.20000000018626","images/bush1.png","","","memory_trial","4","definitely_new","","","","","","",""
"html-keyboard-response","179","487974","0.0-15.0-0.68","1917","2","""event"",""trial"",""time""
""fullscreenenter"",""1"",""2231""
""fullscreenexit"",""6"",""21789""
","
","
","""event"",""trial"",""time""
""fullscreenenter"",""1"",""2231""
","""event"",""trial"",""time""
""fullscreenexit"",""6"",""21789""
","","","","","","null","<div style=""font-size:60px;"">+</div>","null","","fixation","","","","","","","","",""
"memory-trial","180","489183","0.0-15.0-1.68","1917","2","""event"",""trial"",""time""
""fullscreenenter"",""1"",""2231""
""fullscreenexit"",""6"",""21789""
","
","
","""event"",""trial"",""time""
""fullscreenenter"",""1"",""2231""
","""event"",""trial"",""time""
""fullscreenexit"",""6"",""21789""
","","","","","","206.90000000037253","images/feline1.png","","","memory_trial","2","maybe_old","","","","","","",""
"html-keyboard-response","181","489685","0.0-15.0-0.69","1917","2","""event"",""trial"",""time""
""fullscreenenter"",""1"",""2231""
""fullscreenexit"",""6"",""21789""
","
","
","""event"",""trial"",""time""
""fullscreenenter"",""1"",""2231""
","""event"",""trial"",""time""
""fullscreenexit"",""6"",""21789""
","","","","","","null","<div style=""font-size:60px;"">+</div>","null","","fixation","","","","","","","","",""
"memory-trial","182","490853","0.0-15.0-1.69","1917","2","""event"",""trial"",""time""
""fullscreenenter"",""1"",""2231""
""fullscreenexit"",""6"",""21789""
","
","
","""event"",""trial"",""time""
""fullscreenenter"",""1"",""2231""
","""event"",""trial"",""time""
""fullscreenexit"",""6"",""21789""
","","","","","","165","images/horse1.png","","","memory_trial","3","maybe_new","","","","","","",""
"html-keyboard-response","183","491355","0.0-15.0-0.70","1917","2","""event"",""trial"",""time""
""fullscreenenter"",""1"",""2231""
""fullscreenexit"",""6"",""21789""
","
","
","""event"",""trial"",""time""
""fullscreenenter"",""1"",""2231""
","""event"",""trial"",""time""
""fullscreenexit"",""6"",""21789""
","","","","","","null","<div style=""font-size:60px;"">+</div>","null","","fixation","","","","","","","","",""
"memory-trial","184","493489","0.0-15.0-1.70","1917","2","""event"",""trial"",""time""
""fullscreenenter"",""1"",""2231""
""fullscreenexit"",""6"",""21789""
","
","
","""event"",""trial"",""time""
""fullscreenenter"",""1"",""2231""
","""event"",""trial"",""time""
""fullscreenexit"",""6"",""21789""
","","","","","","1131.6000000000931","images/apple3.png","","","memory_trial","2","maybe_old","","","","","","",""
"html-keyboard-response","185","493991","0.0-15.0-0.71","1917","2","""event"",""trial"",""time""
""fullscreenenter"",""1"",""2231""
""fullscreenexit"",""6"",""21789""
","
","
","""event"",""trial"",""time""
""fullscreenenter"",""1"",""2231""
","""event"",""trial"",""time""
""fullscreenexit"",""6"",""21789""
","","","","","","null","<div style=""font-size:60px;"">+</div>","null","","fixation","","","","","","","","",""
"memory-trial","186","496235","0.0-15.0-1.71","1917","2","""event"",""trial"",""time""
""fullscreenenter"",""1"",""2231""
""fullscreenexit"",""6"",""21789""
","
","
","""event"",""trial"",""time""
""fullscreenenter"",""1"",""2231""
","""event"",""trial"",""time""
""fullscreenexit"",""6"",""21789""
","","","","","","1242.1000000000931","images/train1.png","","","memory_trial","2","maybe_old","","","","","","",""
"html-keyboard-response","187","496737","0.0-15.0-0.72","1917","2","""event"",""trial"",""time""
""fullscreenenter"",""1"",""2231""
""fullscreenexit"",""6"",""21789""
","
","
","""event"",""trial"",""time""
""fullscreenenter"",""1"",""2231""
","""event"",""trial"",""time""
""fullscreenexit"",""6"",""21789""
","","","","","","null","<div style=""font-size:60px;"">+</div>","null","","fixation","","","","","","","","",""
"memory-trial","188","500018","0.0-15.0-1.72","1917","2","""event"",""trial"",""time""
""fullscreenenter"",""1"",""2231""
""fullscreenexit"",""6"",""21789""
","
","
","""event"",""trial"",""time""
""fullscreenenter"",""1"",""2231""
","""event"",""trial"",""time""
""fullscreenexit"",""6"",""21789""
","","","","","","2278.4000000003725","images/tree5.png","","","memory_trial","3","maybe_new","","","","","","",""
"html-keyboard-response","189","500520","0.0-15.0-0.73","1917","2","""event"",""trial"",""time""
""fullscreenenter"",""1"",""2231""
""fullscreenexit"",""6"",""21789""
","
","
","""event"",""trial"",""time""
""fullscreenenter"",""1"",""2231""
","""event"",""trial"",""time""
""fullscreenexit"",""6"",""21789""
","","","","","","null","<div style=""font-size:60px;"">+</div>","null","","fixation","","","","","","","","",""
"memory-trial","190","502554","0.0-15.0-1.73","1917","2","""event"",""trial"",""time""
""fullscreenenter"",""1"",""2231""
""fullscreenexit"",""6"",""21789""
","
","
","""event"",""trial"",""time""
""fullscreenenter"",""1"",""2231""
","""event"",""trial"",""time""
""fullscreenexit"",""6"",""21789""
","","","","","","1030.6000000000931","images/horse5.png","","","memory_trial","3","maybe_new","","","","","","",""
"html-keyboard-response","191","503055","0.0-15.0-0.74","1917","2","""event"",""trial"",""time""
""fullscreenenter"",""1"",""2231""
""fullscreenexit"",""6"",""21789""
","
","
","""event"",""trial"",""time""
""fullscreenenter"",""1"",""2231""
","""event"",""trial"",""time""
""fullscreenexit"",""6"",""21789""
","","","","","","null","<div style=""font-size:60px;"">+</div>","null","","fixation","","","","","","","","",""
"memory-trial","192","504881","0.0-15.0-1.74","1917","2","""event"",""trial"",""time""
""fullscreenenter"",""1"",""2231""
""fullscreenexit"",""6"",""21789""
","
","
","""event"",""trial"",""time""
""fullscreenenter"",""1"",""2231""
","""event"",""trial"",""time""
""fullscreenexit"",""6"",""21789""
","","","","","","822.3000000002794","images/chair2.png","","","memory_trial","3","maybe_new","","","","","","",""
"html-keyboard-response","193","505382","0.0-15.0-0.75","1917","2","""event"",""trial"",""time""
""fullscreenenter"",""1"",""2231""
""fullscreenexit"",""6"",""21789""
","
","
","""event"",""trial"",""time""
""fullscreenenter"",""1"",""2231""
","""event"",""trial"",""time""
""fullscreenexit"",""6"",""21789""
","","","","","","null","<div style=""font-size:60px;"">+</div>","null","","fixation","","","","","","","","",""
"memory-trial","194","507244","0.0-15.0-1.75","1917","2","""event"",""trial"",""time""
""fullscreenenter"",""1"",""2231""
""fullscreenexit"",""6"",""21789""
","
","
","""event"",""trial"",""time""
""fullscreenenter"",""1"",""2231""
","""event"",""trial"",""time""
""fullscreenexit"",""6"",""21789""
","","","","","","860","images/goat1.png","","","memory_trial","2","maybe_old","","","","","","",""
"html-keyboard-response","195","507746","0.0-15.0-0.76","1917","2","""event"",""trial"",""time""
""fullscreenenter"",""1"",""2231""
""fullscreenexit"",""6"",""21789""
","
","
","""event"",""trial"",""time""
""fullscreenenter"",""1"",""2231""
","""event"",""trial"",""time""
""fullscreenexit"",""6"",""21789""
","","","","","","null","<div style=""font-size:60px;"">+</div>","null","","fixation","","","","","","","","",""
"memory-trial","196","509198","0.0-15.0-1.76","1917","2","""event"",""trial"",""time""
""fullscreenenter"",""1"",""2231""
""fullscreenexit"",""6"",""21789""
","
","
","""event"",""trial"",""time""
""fullscreenenter"",""1"",""2231""
","""event"",""trial"",""time""
""fullscreenexit"",""6"",""21789""
","","","","","","449.70000000018626","images/cactus4.png","","","memory_trial","3","maybe_new","","","","","","",""
"html-keyboard-response","197","509700","0.0-15.0-0.77","1917","2","""event"",""trial"",""time""
""fullscreenenter"",""1"",""2231""
""fullscreenexit"",""6"",""21789""
","
","
","""event"",""trial"",""time""
""fullscreenenter"",""1"",""2231""
","""event"",""trial"",""time""
""fullscreenexit"",""6"",""21789""
","","","","","","null","<div style=""font-size:60px;"">+</div>","null","","fixation","","","","","","","","",""
"memory-trial","198","511658","0.0-15.0-1.77","1917","2","""event"",""trial"",""time""
""fullscreenenter"",""1"",""2231""
""fullscreenexit"",""6"",""21789""
","
","
","""event"",""trial"",""time""
""fullscreenenter"",""1"",""2231""
","""event"",""trial"",""time""
""fullscreenexit"",""6"",""21789""
","","","","","","955.7000000001863","images/plane3.png","","","memory_trial","3","maybe_new","","","","","","",""
"html-keyboard-response","199","512159","0.0-15.0-0.78","1917","2","""event"",""trial"",""time""
""fullscreenenter"",""1"",""2231""
""fullscreenexit"",""6"",""21789""
","
","
","""event"",""trial"",""time""
""fullscreenenter"",""1"",""2231""
","""event"",""trial"",""time""
""fullscreenexit"",""6"",""21789""
","","","","","","null","<div style=""font-size:60px;"">+</div>","null","","fixation","","","","","","","","",""
"memory-trial","200","514028","0.0-15.0-1.78","1917","2","""event"",""trial"",""time""
""fullscreenenter"",""1"",""2231""
""fullscreenexit"",""6"",""21789""
","
","
","""event"",""trial"",""time""
""fullscreenenter"",""1"",""2231""
","""event"",""trial"",""time""
""fullscreenexit"",""6"",""21789""
","","","","","","865.7999999998137","images/bush4.png","","","memory_trial","3","maybe_new","","","","","","",""
"html-keyboard-response","201","514529","0.0-15.0-0.79","1917","2","""event"",""trial"",""time""
""fullscreenenter"",""1"",""2231""
""fullscreenexit"",""6"",""21789""
","
","
","""event"",""trial"",""time""
""fullscreenenter"",""1"",""2231""
","""event"",""trial"",""time""
""fullscreenexit"",""6"",""21789""
","","","","","","null","<div style=""font-size:60px;"">+</div>","null","","fixation","","","","","","","","",""
"memory-trial","202","518826","0.0-15.0-1.79","1917","2","""event"",""trial"",""time""
""fullscreenenter"",""1"",""2231""
""fullscreenexit"",""6"",""21789""
","
","
","""event"",""trial"",""time""
""fullscreenenter"",""1"",""2231""
","""event"",""trial"",""time""
""fullscreenexit"",""6"",""21789""
","","","","","","3294.2000000001863","images/cactus3.png","","","memory_trial","2","maybe_old","","","","","","",""
"html-keyboard-response","203","519328","0.0-15.0-0.80","1917","2","""event"",""trial"",""time""
""fullscreenenter"",""1"",""2231""
""fullscreenexit"",""6"",""21789""
","
","
","""event"",""trial"",""time""
""fullscreenenter"",""1"",""2231""
","""event"",""trial"",""time""
""fullscreenexit"",""6"",""21789""
","","","","","","null","<div style=""font-size:60px;"">+</div>","null","","fixation","","","","","","","","",""
"memory-trial","204","521973","0.0-15.0-1.80","1917","2","""event"",""trial"",""time""
""fullscreenenter"",""1"",""2231""
""fullscreenexit"",""6"",""21789""
","
","
","""event"",""trial"",""time""
""fullscreenenter"",""1"",""2231""
","""event"",""trial"",""time""
""fullscreenexit"",""6"",""21789""
","","","","","","1642.1999999997206","images/sofa1.png","","","memory_trial","1","definitely_old","","","","","","",""
"html-keyboard-response","205","522474","0.0-15.0-0.81","1917","2","""event"",""trial"",""time""
""fullscreenenter"",""1"",""2231""
""fullscreenexit"",""6"",""21789""
","
","
","""event"",""trial"",""time""
""fullscreenenter"",""1"",""2231""
","""event"",""trial"",""time""
""fullscreenexit"",""6"",""21789""
","","","","","","null","<div style=""font-size:60px;"">+</div>","null","","fixation","","","","","","","","",""
"memory-trial","206","523659","0.0-15.0-1.81","1917","2","""event"",""trial"",""time""
""fullscreenenter"",""1"",""2231""
""fullscreenexit"",""6"",""21789""
","
","
","""event"",""trial"",""time""
""fullscreenenter"",""1"",""2231""
","""event"",""trial"",""time""
""fullscreenexit"",""6"",""21789""
","","","","","","182","images/rabbit2.png","","","memory_trial","1","definitely_old","","","","","","",""
"html-keyboard-response","207","524161","0.0-15.0-0.82","1917","2","""event"",""trial"",""time""
""fullscreenenter"",""1"",""2231""
""fullscreenexit"",""6"",""21789""
","
","
","""event"",""trial"",""time""
""fullscreenenter"",""1"",""2231""
","""event"",""trial"",""time""
""fullscreenexit"",""6"",""21789""
","","","","","","null","<div style=""font-size:60px;"">+</div>","null","","fixation","","","","","","","","",""
"memory-trial","208","526934","0.0-15.0-1.82","1917","2","""event"",""trial"",""time""
""fullscreenenter"",""1"",""2231""
""fullscreenexit"",""6"",""21789""
","
","
","""event"",""trial"",""time""
""fullscreenenter"",""1"",""2231""
","""event"",""trial"",""time""
""fullscreenexit"",""6"",""21789""
","","","","","","1770.9000000003725","images/rodent4.png","","","memory_trial","4","definitely_new","","","","","","",""
"html-keyboard-response","209","527436","0.0-15.0-0.83","1917","2","""event"",""trial"",""time""
""fullscreenenter"",""1"",""2231""
""fullscreenexit"",""6"",""21789""
","
","
","""event"",""trial"",""time""
""fullscreenenter"",""1"",""2231""
","""event"",""trial"",""time""
""fullscreenexit"",""6"",""21789""
","","","","","","null","<div style=""font-size:60px;"">+</div>","null","","fixation","","","","","","","","",""
"memory-trial","210","528774","0.0-15.0-1.83","1917","2","""event"",""trial"",""time""
""fullscreenenter"",""1"",""2231""
""fullscreenexit"",""6"",""21789""
","
","
","""event"",""trial"",""time""
""fullscreenenter"",""1"",""2231""
","""event"",""trial"",""time""
""fullscreenexit"",""6"",""21789""
","","","","","","334.5","images/rabbit5.png","","","memory_trial","3","maybe_new","","","","","","",""
"html-keyboard-response","211","529275","0.0-15.0-0.84","1917","2","""event"",""trial"",""time""
""fullscreenenter"",""1"",""2231""
""fullscreenexit"",""6"",""21789""
","
","
","""event"",""trial"",""time""
""fullscreenenter"",""1"",""2231""
","""event"",""trial"",""time""
""fullscreenexit"",""6"",""21789""
","","","","","","null","<div style=""font-size:60px;"">+</div>","null","","fixation","","","","","","","","",""
"memory-trial","212","531371","0.0-15.0-1.84","1917","2","""event"",""trial"",""time""
""fullscreenenter"",""1"",""2231""
""fullscreenexit"",""6"",""21789""
","
","
","""event"",""trial"",""time""
""fullscreenenter"",""1"",""2231""
","""event"",""trial"",""time""
""fullscreenexit"",""6"",""21789""
","","","","","","1093.5999999996275","images/sheep1.png","","","memory_trial","3","maybe_new","","","","","","",""
"html-keyboard-response","213","531873","0.0-15.0-0.85","1917","2","""event"",""trial"",""time""
""fullscreenenter"",""1"",""2231""
""fullscreenexit"",""6"",""21789""
","
","
","""event"",""trial"",""time""
""fullscreenenter"",""1"",""2231""
","""event"",""trial"",""time""
""fullscreenexit"",""6"",""21789""
","","","","","","null","<div style=""font-size:60px;"">+</div>","null","","fixation","","","","","","","","",""
"memory-trial","214","533915","0.0-15.0-1.85","1917","2","""event"",""trial"",""time""
""fullscreenenter"",""1"",""2231""
""fullscreenexit"",""6"",""21789""
","
","
","""event"",""trial"",""time""
""fullscreenenter"",""1"",""2231""
","""event"",""trial"",""time""
""fullscreenexit"",""6"",""21789""
","","","","","","1038.5","images/cow2.png","","","memory_trial","3","maybe_new","","","","","","",""
"html-keyboard-response","215","534416","0.0-15.0-0.86","1917","2","""event"",""trial"",""time""
""fullscreenenter"",""1"",""2231""
""fullscreenexit"",""6"",""21789""
","
","
","""event"",""trial"",""time""
""fullscreenenter"",""1"",""2231""
","""event"",""trial"",""time""
""fullscreenexit"",""6"",""21789""
","","","","","","null","<div style=""font-size:60px;"">+</div>","null","","fixation","","","","","","","","",""
"memory-trial","216","535831","0.0-15.0-1.86","1917","2","""event"",""trial"",""time""
""fullscreenenter"",""1"",""2231""
""fullscreenexit"",""6"",""21789""
","
","
","""event"",""trial"",""time""
""fullscreenenter"",""1"",""2231""
","""event"",""trial"",""time""
""fullscreenexit"",""6"",""21789""
","","","","","","412.10000000009313","images/rabbit1.png","","","memory_trial","1","definitely_old","","","","","","",""
"html-keyboard-response","217","536333","0.0-15.0-0.87","1917","2","""event"",""trial"",""time""
""fullscreenenter"",""1"",""2231""
""fullscreenexit"",""6"",""21789""
","
","
","""event"",""trial"",""time""
""fullscreenenter"",""1"",""2231""
","""event"",""trial"",""time""
""fullscreenexit"",""6"",""21789""
","","","","","","null","<div style=""font-size:60px;"">+</div>","null","","fixation","","","","","","","","",""
"memory-trial","218","537604","0.0-15.0-1.87","1917","2","""event"",""trial"",""time""
""fullscreenenter"",""1"",""2231""
""fullscreenexit"",""6"",""21789""
","
","
","""event"",""trial"",""time""
""fullscreenenter"",""1"",""2231""
","""event"",""trial"",""time""
""fullscreenexit"",""6"",""21789""
","","","","","","267.6999999997206","images/plane2.png","","","memory_trial","1","definitely_old","","","","","","",""
"html-keyboard-response","219","538105","0.0-15.0-0.88","1917","2","""event"",""trial"",""time""
""fullscreenenter"",""1"",""2231""
""fullscreenexit"",""6"",""21789""
","
","
","""event"",""trial"",""time""
""fullscreenenter"",""1"",""2231""
","""event"",""trial"",""time""
""fullscreenexit"",""6"",""21789""
","","","","","","null","<div style=""font-size:60px;"">+</div>","null","","fixation","","","","","","","","",""
"memory-trial","220","539321","0.0-15.0-1.88","1917","2","""event"",""trial"",""time""
""fullscreenenter"",""1"",""2231""
""fullscreenexit"",""6"",""21789""
","
","
","""event"",""trial"",""time""
""fullscreenenter"",""1"",""2231""
","""event"",""trial"",""time""
""fullscreenexit"",""6"",""21789""
","","","","","","212.89999999990687","images/boat5.png","","","memory_trial","3","maybe_new","","","","","","",""
"html-keyboard-response","221","539823","0.0-15.0-0.89","1917","2","""event"",""trial"",""time""
""fullscreenenter"",""1"",""2231""
""fullscreenexit"",""6"",""21789""
","
","
","""event"",""trial"",""time""
""fullscreenenter"",""1"",""2231""
","""event"",""trial"",""time""
""fullscreenexit"",""6"",""21789""
","","","","","","null","<div style=""font-size:60px;"">+</div>","null","","fixation","","","","","","","","",""
"memory-trial","222","541140","0.0-15.0-1.89","1917","2","""event"",""trial"",""time""
""fullscreenenter"",""1"",""2231""
""fullscreenexit"",""6"",""21789""
","
","
","""event"",""trial"",""time""
""fullscreenenter"",""1"",""2231""
","""event"",""trial"",""time""
""fullscreenexit"",""6"",""21789""
","","","","","","314.20000000018626","images/rabbit3.png","","","memory_trial","1","definitely_old","","","","","","",""
"html-keyboard-response","223","541642","0.0-15.0-0.90","1917","2","""event"",""trial"",""time""
""fullscreenenter"",""1"",""2231""
""fullscreenexit"",""6"",""21789""
","
","
","""event"",""trial"",""time""
""fullscreenenter"",""1"",""2231""
","""event"",""trial"",""time""
""fullscreenexit"",""6"",""21789""
","","","","","","null","<div style=""font-size:60px;"">+</div>","null","","fixation","","","","","","","","",""
"memory-trial","224","542697","0.0-15.0-1.90","1917","2","""event"",""trial"",""time""
""fullscreenenter"",""1"",""2231""
""fullscreenexit"",""6"",""21789""
","
","
","""event"",""trial"",""time""
""fullscreenenter"",""1"",""2231""
","""event"",""trial"",""time""
""fullscreenexit"",""6"",""21789""
","","","","","","52.6999999997206","images/straw5.png","","","memory_trial","1","definitely_old","","","","","","",""
"html-keyboard-response","225","543200","0.0-15.0-0.91","1917","2","""event"",""trial"",""time""
""fullscreenenter"",""1"",""2231""
""fullscreenexit"",""6"",""21789""
","
","
","""event"",""trial"",""time""
""fullscreenenter"",""1"",""2231""
","""event"",""trial"",""time""
""fullscreenexit"",""6"",""21789""
","","","","","","null","<div style=""font-size:60px;"">+</div>","null","","fixation","","","","","","","","",""
"memory-trial","226","544327","0.0-15.0-1.91","1917","2","""event"",""trial"",""time""
""fullscreenenter"",""1"",""2231""
""fullscreenexit"",""6"",""21789""
","
","
","""event"",""trial"",""time""
""fullscreenenter"",""1"",""2231""
","""event"",""trial"",""time""
""fullscreenexit"",""6"",""21789""
","","","","","","123.5","images/cactus1.png","","","memory_trial","1","definitely_old","","","","","","",""
"html-keyboard-response","227","544828","0.0-15.0-0.92","1917","2","""event"",""trial"",""time""
""fullscreenenter"",""1"",""2231""
""fullscreenexit"",""6"",""21789""
","
","
","""event"",""trial"",""time""
""fullscreenenter"",""1"",""2231""
","""event"",""trial"",""time""
""fullscreenexit"",""6"",""21789""
","","","","","","null","<div style=""font-size:60px;"">+</div>","null","","fixation","","","","","","","","",""
"memory-trial","228","545833","0.0-15.0-1.92","1917","2","""event"",""trial"",""time""
""fullscreenenter"",""1"",""2231""
""fullscreenexit"",""6"",""21789""
","
","
","""event"",""trial"",""time""
""fullscreenenter"",""1"",""2231""
","""event"",""trial"",""time""
""fullscreenexit"",""6"",""21789""
