"trial_type","trial_index","time_elapsed","internal_node_id","subject_id","task_version","interactions","blur_events","focus_events","fullscreenenter_events","fullscreenexit_events","success","timeout","failed_images","failed_audio","failed_video","rt","stimulus","response"
"pavlovia","0","1","0.0-0.0","1696","2","""event"",""trial"",""time""
""fullscreenenter"",""1"",""3218""
","
","
","""event"",""trial"",""time""
""fullscreenenter"",""1"",""3218""
","
","","","","","","","",""
"fullscreen","1","4207","0.0-1.0","1696","2","""event"",""trial"",""time""
""fullscreenenter"",""1"",""3218""
","
","
","""event"",""trial"",""time""
""fullscreenenter"",""1"",""3218""
","
","true","","","","","","",""
"preload","2","4297","0.0-2.0","1696","2","""event"",""trial"",""time""
""fullscreenenter"",""1"",""3218""
","
","
","""event"",""trial"",""time""
""fullscreenenter"",""1"",""3218""
","
","true","false","[]","[]","[]","","",""
"audio-keyboard-response","3","5300","0.0-3.0","1696","2","""event"",""trial"",""time""
""fullscreenenter"",""1"",""3218""
","
","
","""event"",""trial"",""time""
""fullscreenenter"",""1"",""3218""
","
","","","","","","0","audio/beep_loop.wav"," "
"audio-button-response","4","7486","0.0-4.0","1696","2","""event"",""trial"",""time""
""fullscreenenter"",""1"",""3218""
","
","
","""event"",""trial"",""time""
""fullscreenenter"",""1"",""3218""
","
","","","","","","2091","audio/turtle.wav","3"
"audio-button-response","5","9874","0.0-5.0","1696","2","""event"",""trial"",""time""
""fullscreenenter"",""1"",""3218""
""fullscreenexit"",""6"",""12853""
""blur"",""6"",""150660""
""focus"",""6"",""2265170""
""blur"",""6"",""2268179""
","""event"",""trial"",""time""
""blur"",""6"",""150660""
""blur"",""6"",""2268179""
","""event"",""trial"",""time""
""focus"",""6"",""2265170""
","""event"",""trial"",""time""
""fullscreenenter"",""1"",""3218""
","""event"",""trial"",""time""
""fullscreenexit"",""6"",""12853""
","","","","","","1371","audio/shark.wav","2"
