"trial_type","trial_index","time_elapsed","internal_node_id","subject_id","task_version","interactions","blur_events","focus_events","fullscreenenter_events","fullscreenexit_events","success","timeout","failed_images","failed_audio","failed_video","rt","stimulus","response","button_pressed","task_part","key_press","answer","correct","left_choice","middle_choice","right_choice","choice_positions","option_selected","block"
"pavlovia","0","8","0.0-0.0","1913","2","""event"",""trial"",""time""
""fullscreenenter"",""1"",""3778""
","
","
","""event"",""trial"",""time""
""fullscreenenter"",""1"",""3778""
","
","","","","","","","","","","","","","","","","","","",""
"fullscreen","1","4731","0.0-1.0","1913","2","""event"",""trial"",""time""
""fullscreenenter"",""1"",""3778""
","
","
","""event"",""trial"",""time""
""fullscreenenter"",""1"",""3778""
","
","true","","","","","","","","","","","","","","","","","",""
"preload","2","4884","0.0-2.0","1913","2","""event"",""trial"",""time""
""fullscreenenter"",""1"",""3778""
","
","
","""event"",""trial"",""time""
""fullscreenenter"",""1"",""3778""
","
","true","false","[]","[]","[]","","","","","","","","","","","","","",""
"audio-keyboard-response","3","8245","0.0-3.0","1913","2","""event"",""trial"",""time""
""fullscreenenter"",""1"",""3778""
","
","
","""event"",""trial"",""time""
""fullscreenenter"",""1"",""3778""
","
","","","","","","3160","audio/beep_loop.wav"," ","","","","","","","","","","",""
"audio-button-response","4","16138","0.0-4.0","1913","2","""event"",""trial"",""time""
""fullscreenenter"",""1"",""3778""
","
","
","""event"",""trial"",""time""
""fullscreenenter"",""1"",""3778""
","
","","","","","","7891","audio/turtle.wav","3","","","","","","","","","","",""
"audio-button-response","5","18086","0.0-5.0","1913","2","""event"",""trial"",""time""
""fullscreenenter"",""1"",""3778""
","
","
","""event"",""trial"",""time""
""fullscreenenter"",""1"",""3778""
","
","","","","","","941","audio/shark.wav","2","","","","","","","","","","",""
"preload","6","20226","0.0-6.0","1913","2","""event"",""trial"",""time""
""fullscreenenter"",""1"",""3778""
","
","
","""event"",""trial"",""time""
""fullscreenenter"",""1"",""3778""
","
","true","false","[]","[]","[]","","","","","","","","","","","","","",""
"learning-instructions","7","32511","0.0-7.0-0.0","1913","2","""event"",""trial"",""time""
""fullscreenenter"",""1"",""3778""
","
","
","""event"",""trial"",""time""
""fullscreenenter"",""1"",""3778""
","
","","","","","","7477.399999976158","<p> Welcome back! </p><p> Last week, you had to make choices about lots of different items.  </p>","","0","instructions","","","","","","","","",""
"learning-instructions","8","39081","0.0-7.0-0.1","1913","2","""event"",""trial"",""time""
""fullscreenenter"",""1"",""3778""
","
","
","""event"",""trial"",""time""
""fullscreenenter"",""1"",""3778""
","
","","","","","","2258.1999999284744","<p> Today, we are going to ask you to try to remember all the items. </p>","","0","instructions","","","","","","","","",""
"learning-instructions","9","52281","0.0-7.0-0.2","1913","2","""event"",""trial"",""time""
""fullscreenenter"",""1"",""3778""
","
","
","""event"",""trial"",""time""
""fullscreenenter"",""1"",""3778""
","
","","","","","","3069.600000023842","<p> On every trial, you will see an image. </p><p> The image may be an OLD image you saw during the games last week or it may be a NEW image that was not presented. </p>","","0","instructions","","","","","","","","",""
"learning-instructions","10","62646","0.0-7.0-0.3","1913","2","""event"",""trial"",""time""
""fullscreenenter"",""1"",""3778""
","
","
","""event"",""trial"",""time""
""fullscreenenter"",""1"",""3778""
","
","","","","","","1852.7999999523163","<p> You need to select whether the image is:  </p><p>  'Definitely old', 'Maybe old', 'Maybe new', or 'Definitely new.'  </p><div class=""mem-choice-instructions-grid""><div class=""choice-option"" id=""choice-option-1"" ><img src=""images/definitely_old_1.png"" id=""choice-option-img-1"" class=""choice-option-img"" stage=""1""></div><div class=""choice-option"" id=""choice-option-2"" ><img src=""images/maybe_old_1.png"" id=""choice-option-img-2"" class=""choice-option-img"" stage=""1""></div><div class=""choice-option"" id=""choice-option-3"" ><img src=""images/maybe_new_1.png"" id=""choice-option-img-3"" class=""choice-option-img"" stage=""1""></div><div class=""choice-option"" id=""choice-option-4"" > <img src=""images/definitely_new_1.png"" id=""choice-option-img-4"" class=""choice-option-img"" stage=""1""></div></div>","","0","instructions","","","","","","","","",""
"learning-instructions","11","69943","0.0-7.0-0.4","1913","2","""event"",""trial"",""time""
""fullscreenenter"",""1"",""3778""
","
","
","""event"",""trial"",""time""
""fullscreenenter"",""1"",""3778""
","
","","","","","","590","<p> You should use the 1, 2, 3, and 4 keys to make your responses.  </p><div class=""mem-choice-instructions-grid""><div class=""choice-option"" id=""choice-option-1"" ><img src=""images/definitely_old.png"" id=""choice-option-img-1"" class=""choice-option-img"" stage=""1""></div><div class=""choice-option"" id=""choice-option-2"" ><img src=""images/maybe_old.png"" id=""choice-option-img-2"" class=""choice-option-img"" stage=""1""></div><div class=""choice-option"" id=""choice-option-3"" ><img src=""images/maybe_new.png"" id=""choice-option-img-3"" class=""choice-option-img"" stage=""1""></div><div class=""choice-option"" id=""choice-option-4"" > <img src=""images/definitely_new.png"" id=""choice-option-img-4"" class=""choice-option-img"" stage=""1""></div></div>","","0","instructions","","","","","","","","",""
"learning-instructions","12","77195","0.0-7.0-0.5","1913","2","""event"",""trial"",""time""
""fullscreenenter"",""1"",""3778""
","
","
","""event"",""trial"",""time""
""fullscreenenter"",""1"",""3778""
","
","","","","","","483.5","<p> You will have 10 seconds to make each response.  </p><p>  Make sure to respond before time runs out! </p>","","0","instructions","","","","","","","","",""
"learning-instructions","13","85385","0.0-7.0-0.6","1913","2","""event"",""trial"",""time""
""fullscreenenter"",""1"",""3778""
","
","
","""event"",""trial"",""time""
""fullscreenenter"",""1"",""3778""
","
","","","","","","604.8999999761581","<p> Today, you will see each image ONCE only.  </p><p>  That means none of the images will repeat. </p>","","0","instructions","","","","","","","","",""
"learning-instructions","14","99217","0.0-7.0-0.7","1913","2","""event"",""trial"",""time""
""fullscreenenter"",""1"",""3778""
","
","
","""event"",""trial"",""time""
""fullscreenenter"",""1"",""3778""
","
","","","","","","1155.8999999761581","<p> Before you play the real game, it is time to practice. </p><p>  Just like in the real game, some of the images in the practice will be ones you have seen before. </p><p>  Others will be entirely new. </p>","","0","instructions","","","","","","","","",""
"html-button-response","15","101616","0.0-8.0","1913","2","""event"",""trial"",""time""
""fullscreenenter"",""1"",""3778""
","
","
","""event"",""trial"",""time""
""fullscreenenter"",""1"",""3778""
","
","","","","","","2285.5","<p> Ready to practice? </p><p> Remember, use the 1, 2, 3, and 4 keys to make your responses. </p>","0","","instructions","","","","","","","","",""
"html-keyboard-response","16","102223","0.0-9.0-0.0","1913","2","""event"",""trial"",""time""
""fullscreenenter"",""1"",""3778""
","
","
","""event"",""trial"",""time""
""fullscreenenter"",""1"",""3778""
","
","","","","","","null","<div style=""font-size:60px;"">+</div>","null","","fixation","","","","","","","","",""
"memory-trial","17","107258","0.0-9.0-1.0","1913","2","""event"",""trial"",""time""
""fullscreenenter"",""1"",""3778""
","
","
","""event"",""trial"",""time""
""fullscreenenter"",""1"",""3778""
","
","","","","","","4020.399999976158","images/ball2.png","","","practice","2","maybe_old","","","","","","",""
"html-keyboard-response","18","107767","0.0-9.0-0.1","1913","2","""event"",""trial"",""time""
""fullscreenenter"",""1"",""3778""
","
","
","""event"",""trial"",""time""
""fullscreenenter"",""1"",""3778""
","
","","","","","","null","<div style=""font-size:60px;"">+</div>","null","","fixation","","","","","","","","",""
"memory-trial","19","110497","0.0-9.0-1.1","1913","2","""event"",""trial"",""time""
""fullscreenenter"",""1"",""3778""
","
","
","""event"",""trial"",""time""
""fullscreenenter"",""1"",""3778""
","
","","","","","","1724","images/ball3.png","","","practice","2","maybe_old","","","","","","",""
"html-keyboard-response","20","111000","0.0-9.0-0.2","1913","2","""event"",""trial"",""time""
""fullscreenenter"",""1"",""3778""
","
","
","""event"",""trial"",""time""
""fullscreenenter"",""1"",""3778""
","
","","","","","","null","<div style=""font-size:60px;"">+</div>","null","","fixation","","","","","","","","",""
"memory-trial","21","113297","0.0-9.0-1.2","1913","2","""event"",""trial"",""time""
""fullscreenenter"",""1"",""3778""
","
","
","""event"",""trial"",""time""
""fullscreenenter"",""1"",""3778""
","
","","","","","","1289.2999999523163","images/racket4.png","","","practice","3","maybe_new","","","","","","",""
"html-keyboard-response","22","113799","0.0-9.0-0.3","1913","2","""event"",""trial"",""time""
""fullscreenenter"",""1"",""3778""
","
","
","""event"",""trial"",""time""
""fullscreenenter"",""1"",""3778""
","
","","","","","","null","<div style=""font-size:60px;"">+</div>","null","","fixation","","","","","","","","",""
"memory-trial","23","116301","0.0-9.0-1.3","1913","2","""event"",""trial"",""time""
""fullscreenenter"",""1"",""3778""
","
","
","""event"",""trial"",""time""
""fullscreenenter"",""1"",""3778""
","
","","","","","","1497.3999999761581","images/racket1.png","","","practice","2","maybe_old","","","","","","",""
"html-keyboard-response","24","116804","0.0-9.0-0.4","1913","2","""event"",""trial"",""time""
""fullscreenenter"",""1"",""3778""
","
","
","""event"",""trial"",""time""
""fullscreenenter"",""1"",""3778""
","
","","","","","","null","<div style=""font-size:60px;"">+</div>","null","","fixation","","","","","","","","",""
"memory-trial","25","118976","0.0-9.0-1.4","1913","2","""event"",""trial"",""time""
""fullscreenenter"",""1"",""3778""
","
","
","""event"",""trial"",""time""
""fullscreenenter"",""1"",""3778""
","
","","","","","","1165.7000000476837","images/racket3.png","","","practice","3","maybe_new","","","","","","",""
"html-keyboard-response","26","119479","0.0-9.0-0.5","1913","2","""event"",""trial"",""time""
""fullscreenenter"",""1"",""3778""
","
","
","""event"",""trial"",""time""
""fullscreenenter"",""1"",""3778""
","
","","","","","","null","<div style=""font-size:60px;"">+</div>","null","","fixation","","","","","","","","",""
"memory-trial","27","121474","0.0-9.0-1.5","1913","2","""event"",""trial"",""time""
""fullscreenenter"",""1"",""3778""
","
","
","""event"",""trial"",""time""
""fullscreenenter"",""1"",""3778""
","
","","","","","","990","images/ball1.png","","","practice","2","maybe_old","","","","","","",""
"html-keyboard-response","28","121977","0.0-9.0-0.6","1913","2","""event"",""trial"",""time""
""fullscreenenter"",""1"",""3778""
","
","
","""event"",""trial"",""time""
""fullscreenenter"",""1"",""3778""
","
","","","","","","null","<div style=""font-size:60px;"">+</div>","null","","fixation","","","","","","","","",""
"memory-trial","29","124107","0.0-9.0-1.6","1913","2","""event"",""trial"",""time""
""fullscreenenter"",""1"",""3778""
","
","
","""event"",""trial"",""time""
""fullscreenenter"",""1"",""3778""
","
","","","","","","1124.8000000715256","images/ball4.png","","","practice","3","maybe_new","","","","","","",""
"html-keyboard-response","30","124610","0.0-9.0-0.7","1913","2","""event"",""trial"",""time""
""fullscreenenter"",""1"",""3778""
","
","
","""event"",""trial"",""time""
""fullscreenenter"",""1"",""3778""
","
","","","","","","null","<div style=""font-size:60px;"">+</div>","null","","fixation","","","","","","","","",""
"memory-trial","31","126769","0.0-9.0-1.7","1913","2","""event"",""trial"",""time""
""fullscreenenter"",""1"",""3778""
","
","
","""event"",""trial"",""time""
""fullscreenenter"",""1"",""3778""
","
","","","","","","1153","images/racket2.png","","","practice","3","maybe_new","","","","","","",""
"learning-instructions","32","135711","0.0-10.0-0.0","1913","2","""event"",""trial"",""time""
""fullscreenenter"",""1"",""3778""
","
","
","""event"",""trial"",""time""
""fullscreenenter"",""1"",""3778""
","
","","","","","","990.6000000238419","<p> Great! You have completed the practice. </p><p> Before you start, we're going to ask you a few questions about how the game works.  </p>","","0","instructions","","","","","","","","",""
"preload","33","136833","0.0-11.0","1913","2","""event"",""trial"",""time""
""fullscreenenter"",""1"",""3778""
","
","
","""event"",""trial"",""time""
""fullscreenenter"",""1"",""3778""
","
","true","false","[]","[]","[]","","","","","","","","","","","","","",""
"comp-q","34","143225","0.0-12.0-0.0","1913","2","""event"",""trial"",""time""
""fullscreenenter"",""1"",""3778""
","
","
","""event"",""trial"",""time""
""fullscreenenter"",""1"",""3778""
","
","","","","","","565.3000000715256","<p> <b> True or False? </b> </p><p> In this game, you will only see each image once. </p>","","0","comp_question","","","true","","","","","",""
"comp-q","35","151697","0.0-12.0-1.0","1913","2","""event"",""trial"",""time""
""fullscreenenter"",""1"",""3778""
","
","
","""event"",""trial"",""time""
""fullscreenenter"",""1"",""3778""
","
","","","","","","2127.600000023842","<p> <b> That's right! </b> You will see many different images <i> one time each </i> in this game. </p>","","0","comp_answer","","","","","","","","",""
"comp-q","36","159320","0.0-12.0-0.1","1913","2","""event"",""trial"",""time""
""fullscreenenter"",""1"",""3778""
","
","
","""event"",""trial"",""time""
""fullscreenenter"",""1"",""3778""
","
","","","","","","1821.0999999046326","<p> <b> True or False? </b> </p><p> You should use the mouse and click to make your response. </p>","","1","comp_question","","","true","","","","","",""
"comp-q","37","168259","0.0-12.0-1.1","1913","2","""event"",""trial"",""time""
""fullscreenenter"",""1"",""3778""
","
","
","""event"",""trial"",""time""
""fullscreenenter"",""1"",""3778""
","
","","","","","","1590.7000000476837","<p><b> That's right! </b> You should use the '1', '2', '3', and '4' keys to make your response. </p>","","0","comp_answer","","","","","","","","",""
"comp-q","38","174834","0.0-12.0-0.2","1913","2","""event"",""trial"",""time""
""fullscreenenter"",""1"",""3778""
","
","
","""event"",""trial"",""time""
""fullscreenenter"",""1"",""3778""
","
","","","","","","585.6999999284744","<p> <b> True or False? </b> </p><p> You will have as much time as you want to make each choice. </p>","","1","comp_question","","","true","","","","","",""
"comp-q","39","181905","0.0-12.0-1.2","1913","2","""event"",""trial"",""time""
""fullscreenenter"",""1"",""3778""
","
","
","""event"",""trial"",""time""
""fullscreenenter"",""1"",""3778""
","
","","","","","","1678.3000000715256","<p> <b> That's right! </b> You will only have 10 seconds to make each choice. </p>","","0","comp_answer","","","","","","","","",""
"learning-instructions","40","233357","0.0-13.0","1913","2","""event"",""trial"",""time""
""fullscreenenter"",""1"",""3778""
","
","
","""event"",""trial"",""time""
""fullscreenenter"",""1"",""3778""
","
","","","","","","42778.10000002384","<p> Great! You are now ready to begin the game. </p><p> Remember, use the 1, 2, 3, and 4 keys to make your responses. </p>","","0","instructions","","","","","","","","",""
"preload","41","235689","0.0-14.0","1913","2","""event"",""trial"",""time""
""fullscreenenter"",""1"",""3778""
","
","
","""event"",""trial"",""time""
""fullscreenenter"",""1"",""3778""
","
","true","false","[]","[]","[]","","","","","","","","","","","","","",""
"html-keyboard-response","42","236191","0.0-15.0-0.0","1913","2","""event"",""trial"",""time""
""fullscreenenter"",""1"",""3778""
","
","
","""event"",""trial"",""time""
""fullscreenenter"",""1"",""3778""
","
","","","","","","null","<div style=""font-size:60px;"">+</div>","null","","fixation","","","","","","","","",""
"memory-trial","43","238399","0.0-15.0-1.0","1913","2","""event"",""trial"",""time""
""fullscreenenter"",""1"",""3778""
","
","
","""event"",""trial"",""time""
""fullscreenenter"",""1"",""3778""
","
","","","","","","1200.6000000238419","images/flower1.png","","","memory_trial","2","maybe_old","","","","","","",""
"html-keyboard-response","44","238901","0.0-15.0-0.1","1913","2","""event"",""trial"",""time""
""fullscreenenter"",""1"",""3778""
","
","
","""event"",""trial"",""time""
""fullscreenenter"",""1"",""3778""
","
","","","","","","null","<div style=""font-size:60px;"">+</div>","null","","fixation","","","","","","","","",""
"memory-trial","45","241464","0.0-15.0-1.1","1913","2","""event"",""trial"",""time""
""fullscreenenter"",""1"",""3778""
","
","
","""event"",""trial"",""time""
""fullscreenenter"",""1"",""3778""
","
","","","","","","1557.1999999284744","images/feline2.png","","","memory_trial","4","definitely_new","","","","","","",""
"html-keyboard-response","46","241967","0.0-15.0-0.2","1913","2","""event"",""trial"",""time""
""fullscreenenter"",""1"",""3778""
","
","
","""event"",""trial"",""time""
""fullscreenenter"",""1"",""3778""
","
","","","","","","null","<div style=""font-size:60px;"">+</div>","null","","fixation","","","","","","","","",""
"memory-trial","47","244564","0.0-15.0-1.2","1913","2","""event"",""trial"",""time""
""fullscreenenter"",""1"",""3778""
","
","
","""event"",""trial"",""time""
""fullscreenenter"",""1"",""3778""
","
","","","","","","1592","images/rodent2.png","","","memory_trial","2","maybe_old","","","","","","",""
"html-keyboard-response","48","245068","0.0-15.0-0.3","1913","2","""event"",""trial"",""time""
""fullscreenenter"",""1"",""3778""
","
","
","""event"",""trial"",""time""
""fullscreenenter"",""1"",""3778""
","
","","","","","","null","<div style=""font-size:60px;"">+</div>","null","","fixation","","","","","","","","",""
"memory-trial","49","247865","0.0-15.0-1.3","1913","2","""event"",""trial"",""time""
""fullscreenenter"",""1"",""3778""
","
","
","""event"",""trial"",""time""
""fullscreenenter"",""1"",""3778""
","
","","","","","","1790.7000000476837","images/truck2.png","","","memory_trial","4","definitely_new","","","","","","",""
"html-keyboard-response","50","248368","0.0-15.0-0.4","1913","2","""event"",""trial"",""time""
""fullscreenenter"",""1"",""3778""
","
","
","""event"",""trial"",""time""
""fullscreenenter"",""1"",""3778""
","
","","","","","","null","<div style=""font-size:60px;"">+</div>","null","","fixation","","","","","","","","",""
"memory-trial","51","251299","0.0-15.0-1.4","1913","2","""event"",""trial"",""time""
""fullscreenenter"",""1"",""3778""
","
","
","""event"",""trial"",""time""
""fullscreenenter"",""1"",""3778""
","
","","","","","","1925","images/feline4.png","","","memory_trial","3","maybe_new","","","","","","",""
"html-keyboard-response","52","251802","0.0-15.0-0.5","1913","2","""event"",""trial"",""time""
""fullscreenenter"",""1"",""3778""
","
","
","""event"",""trial"",""time""
""fullscreenenter"",""1"",""3778""
","
","","","","","","null","<div style=""font-size:60px;"">+</div>","null","","fixation","","","","","","","","",""
"memory-trial","53","254611","0.0-15.0-1.5","1913","2","""event"",""trial"",""time""
""fullscreenenter"",""1"",""3778""
","
","
","""event"",""trial"",""time""
""fullscreenenter"",""1"",""3778""
","
","","","","","","1804.3999999761581","images/train5.png","","","memory_trial","1","definitely_old","","","","","","",""
"html-keyboard-response","54","255114","0.0-15.0-0.6","1913","2","""event"",""trial"",""time""
""fullscreenenter"",""1"",""3778""
","
","
","""event"",""trial"",""time""
""fullscreenenter"",""1"",""3778""
","
","","","","","","null","<div style=""font-size:60px;"">+</div>","null","","fixation","","","","","","","","",""
"memory-trial","55","257781","0.0-15.0-1.6","1913","2","""event"",""trial"",""time""
""fullscreenenter"",""1"",""3778""
","
","
","""event"",""trial"",""time""
""fullscreenenter"",""1"",""3778""
","
","","","","","","1661.1999999284744","images/table1.png","","","memory_trial","2","maybe_old","","","","","","",""
"html-keyboard-response","56","258284","0.0-15.0-0.7","1913","2","""event"",""trial"",""time""
""fullscreenenter"",""1"",""3778""
","
","
","""event"",""trial"",""time""
""fullscreenenter"",""1"",""3778""
","
","","","","","","null","<div style=""font-size:60px;"">+</div>","null","","fixation","","","","","","","","",""
"memory-trial","57","260697","0.0-15.0-1.7","1913","2","""event"",""trial"",""time""
""fullscreenenter"",""1"",""3778""
","
","
","""event"",""trial"",""time""
""fullscreenenter"",""1"",""3778""
","
","","","","","","1407.3999999761581","images/boat4.png","","","memory_trial","4","definitely_new","","","","","","",""
"html-keyboard-response","58","261200","0.0-15.0-0.8","1913","2","""event"",""trial"",""time""
""fullscreenenter"",""1"",""3778""
","
","
","""event"",""trial"",""time""
""fullscreenenter"",""1"",""3778""
","
","","","","","","null","<div style=""font-size:60px;"">+</div>","null","","fixation","","","","","","","","",""
"memory-trial","59","263209","0.0-15.0-1.8","1913","2","""event"",""trial"",""time""
""fullscreenenter"",""1"",""3778""
","
","
","""event"",""trial"",""time""
""fullscreenenter"",""1"",""3778""
","
","","","","","","1003.9000000953674","images/cactus1.png","","","memory_trial","3","maybe_new","","","","","","",""
"html-keyboard-response","60","263712","0.0-15.0-0.9","1913","2","""event"",""trial"",""time""
""fullscreenenter"",""1"",""3778""
","
","
","""event"",""trial"",""time""
""fullscreenenter"",""1"",""3778""
","
","","","","","","null","<div style=""font-size:60px;"">+</div>","null","","fixation","","","","","","","","",""
"memory-trial","61","266255","0.0-15.0-1.9","1913","2","""event"",""trial"",""time""
""fullscreenenter"",""1"",""3778""
","
","
","""event"",""trial"",""time""
""fullscreenenter"",""1"",""3778""
","
","","","","","","1536.7999999523163","images/banana2.png","","","memory_trial","2","maybe_old","","","","","","",""
"html-keyboard-response","62","266757","0.0-15.0-0.10","1913","2","""event"",""trial"",""time""
""fullscreenenter"",""1"",""3778""
","
","
","""event"",""trial"",""time""
""fullscreenenter"",""1"",""3778""
","
","","","","","","null","<div style=""font-size:60px;"">+</div>","null","","fixation","","","","","","","","",""
"memory-trial","63","269314","0.0-15.0-1.10","1913","2","""event"",""trial"",""time""
""fullscreenenter"",""1"",""3778""
","
","
","""event"",""trial"",""time""
""fullscreenenter"",""1"",""3778""
","
","","","","","","1550","images/cactus5.png","","","memory_trial","1","definitely_old","","","","","","",""
"html-keyboard-response","64","269816","0.0-15.0-0.11","1913","2","""event"",""trial"",""time""
""fullscreenenter"",""1"",""3778""
","
","
","""event"",""trial"",""time""
""fullscreenenter"",""1"",""3778""
","
","","","","","","null","<div style=""font-size:60px;"">+</div>","null","","fixation","","","","","","","","",""
"memory-trial","65","273205","0.0-15.0-1.11","1913","2","""event"",""trial"",""time""
""fullscreenenter"",""1"",""3778""
","
","
","""event"",""trial"",""time""
""fullscreenenter"",""1"",""3778""
","
","","","","","","2383.5","images/banana3.png","","","memory_trial","3","maybe_new","","","","","","",""
"html-keyboard-response","66","273708","0.0-15.0-0.12","1913","2","""event"",""trial"",""time""
""fullscreenenter"",""1"",""3778""
","
","
","""event"",""trial"",""time""
""fullscreenenter"",""1"",""3778""
","
","","","","","","null","<div style=""font-size:60px;"">+</div>","null","","fixation","","","","","","","","",""
"memory-trial","67","275817","0.0-15.0-1.12","1913","2","""event"",""trial"",""time""
""fullscreenenter"",""1"",""3778""
","
","
","""event"",""trial"",""time""
""fullscreenenter"",""1"",""3778""
","
","","","","","","1103.2000000476837","images/goat5.png","","","memory_trial","4","definitely_new","","","","","","",""
"html-keyboard-response","68","276320","0.0-15.0-0.13","1913","2","""event"",""trial"",""time""
""fullscreenenter"",""1"",""3778""
","
","
","""event"",""trial"",""time""
""fullscreenenter"",""1"",""3778""
","
","","","","","","null","<div style=""font-size:60px;"">+</div>","null","","fixation","","","","","","","","",""
"memory-trial","69","279155","0.0-15.0-1.13","1913","2","""event"",""trial"",""time""
""fullscreenenter"",""1"",""3778""
","
","
","""event"",""trial"",""time""
""fullscreenenter"",""1"",""3778""
","
","","","","","","1829.2000000476837","images/sheep2.png","","","memory_trial","2","maybe_old","","","","","","",""
"html-keyboard-response","70","279657","0.0-15.0-0.14","1913","2","""event"",""trial"",""time""
""fullscreenenter"",""1"",""3778""
","
","
","""event"",""trial"",""time""
""fullscreenenter"",""1"",""3778""
","
","","","","","","null","<div style=""font-size:60px;"">+</div>","null","","fixation","","","","","","","","",""
"memory-trial","71","282349","0.0-15.0-1.14","1913","2","""event"",""trial"",""time""
""fullscreenenter"",""1"",""3778""
","
","
","""event"",""trial"",""time""
""fullscreenenter"",""1"",""3778""
","
","","","","","","1685.3000000715256","images/bed4.png","","","memory_trial","4","definitely_new","","","","","","",""
"html-keyboard-response","72","282852","0.0-15.0-0.15","1913","2","""event"",""trial"",""time""
""fullscreenenter"",""1"",""3778""
","
","
","""event"",""trial"",""time""
""fullscreenenter"",""1"",""3778""
","
","","","","","","null","<div style=""font-size:60px;"">+</div>","null","","fixation","","","","","","","","",""
"memory-trial","73","285215","0.0-15.0-1.15","1913","2","""event"",""trial"",""time""
""fullscreenenter"",""1"",""3778""
","
","
","""event"",""trial"",""time""
""fullscreenenter"",""1"",""3778""
","
","","","","","","1357.3999999761581","images/horse5.png","","","memory_trial","4","definitely_new","","","","","","",""
"html-keyboard-response","74","285718","0.0-15.0-0.16","1913","2","""event"",""trial"",""time""
""fullscreenenter"",""1"",""3778""
","
","
","""event"",""trial"",""time""
""fullscreenenter"",""1"",""3778""
","
","","","","","","null","<div style=""font-size:60px;"">+</div>","null","","fixation","","","","","","","","",""
"memory-trial","75","288133","0.0-15.0-1.16","1913","2","""event"",""trial"",""time""
""fullscreenenter"",""1"",""3778""
","
","
","""event"",""trial"",""time""
""fullscreenenter"",""1"",""3778""
","
","","","","","","1410","images/plane4.png","","","memory_trial","3","maybe_new","","","","","","",""
"html-keyboard-response","76","288636","0.0-15.0-0.17","1913","2","""event"",""trial"",""time""
""fullscreenenter"",""1"",""3778""
","
","
","""event"",""trial"",""time""
""fullscreenenter"",""1"",""3778""
","
","","","","","","null","<div style=""font-size:60px;"">+</div>","null","","fixation","","","","","","","","",""
"memory-trial","77","290713","0.0-15.0-1.17","1913","2","""event"",""trial"",""time""
""fullscreenenter"",""1"",""3778""
","
","
","""event"",""trial"",""time""
""fullscreenenter"",""1"",""3778""
","
","","","","","","1070.5","images/chair5.png","","","memory_trial","4","definitely_new","","","","","","",""
"html-keyboard-response","78","291216","0.0-15.0-0.18","1913","2","""event"",""trial"",""time""
""fullscreenenter"",""1"",""3778""
","
","
","""event"",""trial"",""time""
""fullscreenenter"",""1"",""3778""
","
","","","","","","null","<div style=""font-size:60px;"">+</div>","null","","fixation","","","","","","","","",""
"memory-trial","79","293866","0.0-15.0-1.18","1913","2","""event"",""trial"",""time""
""fullscreenenter"",""1"",""3778""
","
","
","""event"",""trial"",""time""
""fullscreenenter"",""1"",""3778""
","
","","","","","","1645.1999999284744","images/straw1.png","","","memory_trial","3","maybe_new","","","","","","",""
"html-keyboard-response","80","294369","0.0-15.0-0.19","1913","2","""event"",""trial"",""time""
""fullscreenenter"",""1"",""3778""
","
","
","""event"",""trial"",""time""
""fullscreenenter"",""1"",""3778""
","
","","","","","","null","<div style=""font-size:60px;"">+</div>","null","","fixation","","","","","","","","",""
"memory-trial","81","296887","0.0-15.0-1.19","1913","2","""event"",""trial"",""time""
""fullscreenenter"",""1"",""3778""
","
","
","""event"",""trial"",""time""
""fullscreenenter"",""1"",""3778""
","
","","","","","","1512.2999999523163","images/truck4.png","","","memory_trial","2","maybe_old","","","","","","",""
"html-keyboard-response","82","297389","0.0-15.0-0.20","1913","2","""event"",""trial"",""time""
""fullscreenenter"",""1"",""3778""
","
","
","""event"",""trial"",""time""
""fullscreenenter"",""1"",""3778""
","
","","","","","","null","<div style=""font-size:60px;"">+</div>","null","","fixation","","","","","","","","",""
"memory-trial","83","300045","0.0-15.0-1.20","1913","2","""event"",""trial"",""time""
""fullscreenenter"",""1"",""3778""
","
","
","""event"",""trial"",""time""
""fullscreenenter"",""1"",""3778""
","
","","","","","","1650.1000000238419","images/orange3.png","","","memory_trial","2","maybe_old","","","","","","",""
"html-keyboard-response","84","300547","0.0-15.0-0.21","1913","2","""event"",""trial"",""time""
""fullscreenenter"",""1"",""3778""
","
","
","""event"",""trial"",""time""
""fullscreenenter"",""1"",""3778""
","
","","","","","","null","<div style=""font-size:60px;"">+</div>","null","","fixation","","","","","","","","",""
"memory-trial","85","302911","0.0-15.0-1.21","1913","2","""event"",""trial"",""time""
""fullscreenenter"",""1"",""3778""
","
","
","""event"",""trial"",""time""
""fullscreenenter"",""1"",""3778""
","
","","","","","","1356.8999999761581","images/sofa2.png","","","memory_trial","1","definitely_old","","","","","","",""
"html-keyboard-response","86","303413","0.0-15.0-0.22","1913","2","""event"",""trial"",""time""
""fullscreenenter"",""1"",""3778""
","
","
","""event"",""trial"",""time""
""fullscreenenter"",""1"",""3778""
","
","","","","","","null","<div style=""font-size:60px;"">+</div>","null","","fixation","","","","","","","","",""
"memory-trial","87","305727","0.0-15.0-1.22","1913","2","""event"",""trial"",""time""
""fullscreenenter"",""1"",""3778""
","
","
","""event"",""trial"",""time""
""fullscreenenter"",""1"",""3778""
","
","","","","","","1307.2999999523163","images/chair3.png","","","memory_trial","4","definitely_new","","","","","","",""
"html-keyboard-response","88","306231","0.0-15.0-0.23","1913","2","""event"",""trial"",""time""
""fullscreenenter"",""1"",""3778""
","
","
","""event"",""trial"",""time""
""fullscreenenter"",""1"",""3778""
","
","","","","","","null","<div style=""font-size:60px;"">+</div>","null","","fixation","","","","","","","","",""
"memory-trial","89","309110","0.0-15.0-1.23","1913","2","""event"",""trial"",""time""
""fullscreenenter"",""1"",""3778""
","
","
","""event"",""trial"",""time""
""fullscreenenter"",""1"",""3778""
","
","","","","","","1872.5","images/orange5.png","","","memory_trial","2","maybe_old","","","","","","",""
"html-keyboard-response","90","309613","0.0-15.0-0.24","1913","2","""event"",""trial"",""time""
""fullscreenenter"",""1"",""3778""
","
","
","""event"",""trial"",""time""
""fullscreenenter"",""1"",""3778""
","
","","","","","","null","<div style=""font-size:60px;"">+</div>","null","","fixation","","","","","","","","",""
"memory-trial","91","312157","0.0-15.0-1.24","1913","2","""event"",""trial"",""time""
""fullscreenenter"",""1"",""3778""
","
","
","""event"",""trial"",""time""
""fullscreenenter"",""1"",""3778""
","
","","","","","","1539.1999999284744","images/straw5.png","","","memory_trial","3","maybe_new","","","","","","",""
"html-keyboard-response","92","312660","0.0-15.0-0.25","1913","2","""event"",""trial"",""time""
""fullscreenenter"",""1"",""3778""
","
","
","""event"",""trial"",""time""
""fullscreenenter"",""1"",""3778""
","
","","","","","","null","<div style=""font-size:60px;"">+</div>","null","","fixation","","","","","","","","",""
"memory-trial","93","314619","0.0-15.0-1.25","1913","2","""event"",""trial"",""time""
""fullscreenenter"",""1"",""3778""
","
","
","""event"",""trial"",""time""
""fullscreenenter"",""1"",""3778""
","
","","","","","","953.1999999284744","images/tree5.png","","","memory_trial","4","definitely_new","","","","","","",""
"html-keyboard-response","94","315121","0.0-15.0-0.26","1913","2","""event"",""trial"",""time""
""fullscreenenter"",""1"",""3778""
","
","
","""event"",""trial"",""time""
""fullscreenenter"",""1"",""3778""
","
","","","","","","null","<div style=""font-size:60px;"">+</div>","null","","fixation","","","","","","","","",""
"memory-trial","95","317069","0.0-15.0-1.26","1913","2","""event"",""trial"",""time""
""fullscreenenter"",""1"",""3778""
","
","
","""event"",""trial"",""time""
""fullscreenenter"",""1"",""3778""
","
","","","","","","943.6000000238419","images/rodent1.png","","","memory_trial","2","maybe_old","","","","","","",""
"html-keyboard-response","96","317572","0.0-15.0-0.27","1913","2","""event"",""trial"",""time""
""fullscreenenter"",""1"",""3778""
","
","
","""event"",""trial"",""time""
""fullscreenenter"",""1"",""3778""
","
","","","","","","null","<div style=""font-size:60px;"">+</div>","null","","fixation","","","","","","","","",""
"memory-trial","97","322184","0.0-15.0-1.27","1913","2","""event"",""trial"",""time""
""fullscreenenter"",""1"",""3778""
","
","
","""event"",""trial"",""time""
""fullscreenenter"",""1"",""3778""
","
","","","","","","3607.399999976158","images/train3.png","","","memory_trial","2","maybe_old","","","","","","",""
"html-keyboard-response","98","322687","0.0-15.0-0.28","1913","2","""event"",""trial"",""time""
""fullscreenenter"",""1"",""3778""
","
","
","""event"",""trial"",""time""
""fullscreenenter"",""1"",""3778""
","
","","","","","","null","<div style=""font-size:60px;"">+</div>","null","","fixation","","","","","","","","",""
"memory-trial","99","327783","0.0-15.0-1.28","1913","2","""event"",""trial"",""time""
""fullscreenenter"",""1"",""3778""
","
","
","""event"",""trial"",""time""
""fullscreenenter"",""1"",""3778""
","
","","","","","","4088.8000000715256","images/cow4.png","","","memory_trial","3","maybe_new","","","","","","",""
"html-keyboard-response","100","328285","0.0-15.0-0.29","1913","2","""event"",""trial"",""time""
""fullscreenenter"",""1"",""3778""
","
","
","""event"",""trial"",""time""
""fullscreenenter"",""1"",""3778""
","
","","","","","","null","<div style=""font-size:60px;"">+</div>","null","","fixation","","","","","","","","",""
"memory-trial","101","332135","0.0-15.0-1.29","1913","2","""event"",""trial"",""time""
""fullscreenenter"",""1"",""3778""
","
","
","""event"",""trial"",""time""
""fullscreenenter"",""1"",""3778""
","
","","","","","","2843.2000000476837","images/cactus2.png","","","memory_trial","3","maybe_new","","","","","","",""
"html-keyboard-response","102","332637","0.0-15.0-0.30","1913","2","""event"",""trial"",""time""
""fullscreenenter"",""1"",""3778""
","
","
","""event"",""trial"",""time""
""fullscreenenter"",""1"",""3778""
","
","","","","","","null","<div style=""font-size:60px;"">+</div>","null","","fixation","","","","","","","","",""
"memory-trial","103","335041","0.0-15.0-1.30","1913","2","""event"",""trial"",""time""
""fullscreenenter"",""1"",""3778""
","
","
","""event"",""trial"",""time""
""fullscreenenter"",""1"",""3778""
","
","","","","","","1397.7000000476837","images/banana1.png","","","memory_trial","2","maybe_old","","","","","","",""
"html-keyboard-response","104","335543","0.0-15.0-0.31","1913","2","""event"",""trial"",""time""
""fullscreenenter"",""1"",""3778""
","
","
","""event"",""trial"",""time""
""fullscreenenter"",""1"",""3778""
","
","","","","","","null","<div style=""font-size:60px;"">+</div>","null","","fixation","","","","","","","","",""
"memory-trial","105","337849","0.0-15.0-1.31","1913","2","""event"",""trial"",""time""
""fullscreenenter"",""1"",""3778""
","
","
","""event"",""trial"",""time""
""fullscreenenter"",""1"",""3778""
","
","","","","","","1300.2999999523163","images/table3.png","","","memory_trial","4","definitely_new","","","","","","",""
"html-keyboard-response","106","338352","0.0-15.0-0.32","1913","2","""event"",""trial"",""time""
""fullscreenenter"",""1"",""3778""
","
","
","""event"",""trial"",""time""
""fullscreenenter"",""1"",""3778""
","
","","","","","","null","<div style=""font-size:60px;"">+</div>","null","","fixation","","","","","","","","",""
"memory-trial","107","340913","0.0-15.0-1.32","1913","2","""event"",""trial"",""time""
""fullscreenenter"",""1"",""3778""
","
","
","""event"",""trial"",""time""
""fullscreenenter"",""1"",""3778""
","
","","","","","","1554.1000000238419","images/bed3.png","","","memory_trial","1","definitely_old","","","","","","",""
"html-keyboard-response","108","341416","0.0-15.0-0.33","1913","2","""event"",""trial"",""time""
""fullscreenenter"",""1"",""3778""
","
","
","""event"",""trial"",""time""
""fullscreenenter"",""1"",""3778""
","
","","","","","","null","<div style=""font-size:60px;"">+</div>","null","","fixation","","","","","","","","",""
"memory-trial","109","343879","0.0-15.0-1.33","1913","2","""event"",""trial"",""time""
""fullscreenenter"",""1"",""3778""
","
","
","""event"",""trial"",""time""
""fullscreenenter"",""1"",""3778""
","
","","","","","","1459","images/feline5.png","","","memory_trial","3","maybe_new","","","","","","",""
"html-keyboard-response","110","344382","0.0-15.0-0.34","1913","2","""event"",""trial"",""time""
""fullscreenenter"",""1"",""3778""
","
","
","""event"",""trial"",""time""
""fullscreenenter"",""1"",""3778""
","
","","","","","","null","<div style=""font-size:60px;"">+</div>","null","","fixation","","","","","","","","",""
"memory-trial","111","346636","0.0-15.0-1.34","1913","2","""event"",""trial"",""time""
""fullscreenenter"",""1"",""3778""
","
","
","""event"",""trial"",""time""
""fullscreenenter"",""1"",""3778""
","
","","","","","","1247.6999999284744","images/plane1.png","","","memory_trial","4","definitely_new","","","","","","",""
"html-keyboard-response","112","347138","0.0-15.0-0.35","1913","2","""event"",""trial"",""time""
""fullscreenenter"",""1"",""3778""
","
","
","""event"",""trial"",""time""
""fullscreenenter"",""1"",""3778""
","
","","","","","","null","<div style=""font-size:60px;"">+</div>","null","","fixation","","","","","","","","",""
"memory-trial","113","349262","0.0-15.0-1.35","1913","2","""event"",""trial"",""time""
""fullscreenenter"",""1"",""3778""
","
","
","""event"",""trial"",""time""
""fullscreenenter"",""1"",""3778""
","
","","","","","","1117.6000000238419","images/feline1.png","","","memory_trial","3","maybe_new","","","","","","",""
"html-keyboard-response","114","349764","0.0-15.0-0.36","1913","2","""event"",""trial"",""time""
""fullscreenenter"",""1"",""3778""
","
","
","""event"",""trial"",""time""
""fullscreenenter"",""1"",""3778""
","
","","","","","","null","<div style=""font-size:60px;"">+</div>","null","","fixation","","","","","","","","",""
"memory-trial","115","351937","0.0-15.0-1.36","1913","2","""event"",""trial"",""time""
""fullscreenenter"",""1"",""3778""
","
","
","""event"",""trial"",""time""
""fullscreenenter"",""1"",""3778""
","
","","","","","","1167.1999999284744","images/boat1.png","","","memory_trial","2","maybe_old","","","","","","",""
"html-keyboard-response","116","352440","0.0-15.0-0.37","1913","2","""event"",""trial"",""time""
""fullscreenenter"",""1"",""3778""
","
","
","""event"",""trial"",""time""
""fullscreenenter"",""1"",""3778""
","
","","","","","","null","<div style=""font-size:60px;"">+</div>","null","","fixation","","","","","","","","",""
"memory-trial","117","354360","0.0-15.0-1.37","1913","2","""event"",""trial"",""time""
""fullscreenenter"",""1"",""3778""
","
","
","""event"",""trial"",""time""
""fullscreenenter"",""1"",""3778""
","
","","","","","","914","images/plane5.png","","","memory_trial","3","maybe_new","","","","","","",""
"html-keyboard-response","118","354863","0.0-15.0-0.38","1913","2","""event"",""trial"",""time""
""fullscreenenter"",""1"",""3778""
","
","
","""event"",""trial"",""time""
""fullscreenenter"",""1"",""3778""
","
","","","","","","null","<div style=""font-size:60px;"">+</div>","null","","fixation","","","","","","","","",""
"memory-trial","119","357903","0.0-15.0-1.38","1913","2","""event"",""trial"",""time""
""fullscreenenter"",""1"",""3778""
","
","
","""event"",""trial"",""time""
""fullscreenenter"",""1"",""3778""
","
","","","","","","2035","images/goat3.png","","","memory_trial","1","definitely_old","","","","","","",""
"html-keyboard-response","120","358405","0.0-15.0-0.39","1913","2","""event"",""trial"",""time""
""fullscreenenter"",""1"",""3778""
","
","
","""event"",""trial"",""time""
""fullscreenenter"",""1"",""3778""
","
","","","","","","null","<div style=""font-size:60px;"">+</div>","null","","fixation","","","","","","","","",""
"memory-trial","121","360457","0.0-15.0-1.39","1913","2","""event"",""trial"",""time""
""fullscreenenter"",""1"",""3778""
","
","
","""event"",""trial"",""time""
""fullscreenenter"",""1"",""3778""
","
","","","","","","1045.5","images/banana4.png","","","memory_trial","2","maybe_old","","","","","","",""
"html-keyboard-response","122","360962","0.0-15.0-0.40","1913","2","""event"",""trial"",""time""
""fullscreenenter"",""1"",""3778""
","
","
","""event"",""trial"",""time""
""fullscreenenter"",""1"",""3778""
","
","","","","","","null","<div style=""font-size:60px;"">+</div>","null","","fixation","","","","","","","","",""
"memory-trial","123","363026","0.0-15.0-1.40","1913","2","""event"",""trial"",""time""
""fullscreenenter"",""1"",""3778""
","
","
","""event"",""trial"",""time""
""fullscreenenter"",""1"",""3778""
","
","","","","","","1059.2000000476837","images/chair4.png","","","memory_trial","4","definitely_new","","","","","","",""
"html-keyboard-response","124","363529","0.0-15.0-0.41","1913","2","""event"",""trial"",""time""
""fullscreenenter"",""1"",""3778""
","
","
","""event"",""trial"",""time""
""fullscreenenter"",""1"",""3778""
","
","","","","","","null","<div style=""font-size:60px;"">+</div>","null","","fixation","","","","","","","","",""
"memory-trial","125","366200","0.0-15.0-1.41","1913","2","""event"",""trial"",""time""
""fullscreenenter"",""1"",""3778""
","
","
","""event"",""trial"",""time""
""fullscreenenter"",""1"",""3778""
","
","","","","","","1665.7999999523163","images/orange4.png","","","memory_trial","3","maybe_new","","","","","","",""
"html-keyboard-response","126","366703","0.0-15.0-0.42","1913","2","""event"",""trial"",""time""
""fullscreenenter"",""1"",""3778""
","
","
","""event"",""trial"",""time""
""fullscreenenter"",""1"",""3778""
","
","","","","","","null","<div style=""font-size:60px;"">+</div>","null","","fixation","","","","","","","","",""
"memory-trial","127","368632","0.0-15.0-1.42","1913","2","""event"",""trial"",""time""
""fullscreenenter"",""1"",""3778""
","
","
","""event"",""trial"",""time""
""fullscreenenter"",""1"",""3778""
","
","","","","","","922.7000000476837","images/truck1.png","","","memory_trial","2","maybe_old","","","","","","",""
"html-keyboard-response","128","369135","0.0-15.0-0.43","1913","2","""event"",""trial"",""time""
""fullscreenenter"",""1"",""3778""
","
","
","""event"",""trial"",""time""
""fullscreenenter"",""1"",""3778""
","
","","","","","","null","<div style=""font-size:60px;"">+</div>","null","","fixation","","","","","","","","",""
"memory-trial","129","371486","0.0-15.0-1.43","1913","2","""event"",""trial"",""time""
""fullscreenenter"",""1"",""3778""
","
","
","""event"",""trial"",""time""
""fullscreenenter"",""1"",""3778""
","
","","","","","","1346.7000000476837","images/rodent3.png","","","memory_trial","3","maybe_new","","","","","","",""
"html-keyboard-response","130","371989","0.0-15.0-0.44","1913","2","""event"",""trial"",""time""
""fullscreenenter"",""1"",""3778""
","
","
","""event"",""trial"",""time""
""fullscreenenter"",""1"",""3778""
","
","","","","","","null","<div style=""font-size:60px;"">+</div>","null","","fixation","","","","","","","","",""
"memory-trial","131","374183","0.0-15.0-1.44","1913","2","""event"",""trial"",""time""
""fullscreenenter"",""1"",""3778""
","
","
","""event"",""trial"",""time""
""fullscreenenter"",""1"",""3778""
","
","","","","","","1189.1000000238419","images/flower5.png","","","memory_trial","2","maybe_old","","","","","","",""
"html-keyboard-response","132","374686","0.0-15.0-0.45","1913","2","""event"",""trial"",""time""
""fullscreenenter"",""1"",""3778""
","
","
","""event"",""trial"",""time""
""fullscreenenter"",""1"",""3778""
","
","","","","","","null","<div style=""font-size:60px;"">+</div>","null","","fixation","","","","","","","","",""
"memory-trial","133","376968","0.0-15.0-1.45","1913","2","""event"",""trial"",""time""
""fullscreenenter"",""1"",""3778""
","
","
","""event"",""trial"",""time""
""fullscreenenter"",""1"",""3778""
","
","","","","","","1274.7000000476837","images/bush4.png","","","memory_trial","4","definitely_new","","","","","","",""
"html-keyboard-response","134","377470","0.0-15.0-0.46","1913","2","""event"",""trial"",""time""
""fullscreenenter"",""1"",""3778""
","
","
","""event"",""trial"",""time""
""fullscreenenter"",""1"",""3778""
","
","","","","","","null","<div style=""font-size:60px;"">+</div>","null","","fixation","","","","","","","","",""
"memory-trial","135","379743","0.0-15.0-1.46","1913","2","""event"",""trial"",""time""
""fullscreenenter"",""1"",""3778""
","
","
","""event"",""trial"",""time""
""fullscreenenter"",""1"",""3778""
","
","","","","","","1266.8999999761581","images/cow5.png","","","memory_trial","1","definitely_old","","","","","","",""
"html-button-response","136","398244","0.0-15.0-2.46-0.46","1913","2","""event"",""trial"",""time""
""fullscreenenter"",""1"",""3778""
","
","
","""event"",""trial"",""time""
""fullscreenenter"",""1"",""3778""
","
","","","","","","18497.300000071526","<p> Take a break! </p><p> Click the button to continue. </p>","0","","break","","","","","","","","",""
"html-keyboard-response","137","398747","0.0-15.0-0.47","1913","2","""event"",""trial"",""time""
""fullscreenenter"",""1"",""3778""
","
","
","""event"",""trial"",""time""
""fullscreenenter"",""1"",""3778""
","
","","","","","","null","<div style=""font-size:60px;"">+</div>","null","","fixation","","","","","","","","",""
"memory-trial","138","401842","0.0-15.0-1.47","1913","2","""event"",""trial"",""time""
""fullscreenenter"",""1"",""3778""
","
","
","""event"",""trial"",""time""
""fullscreenenter"",""1"",""3778""
","
","","","","","","2085.7000000476837","images/tree2.png","","","memory_trial","4","definitely_new","","","","","","",""
"html-keyboard-response","139","402345","0.0-15.0-0.48","1913","2","""event"",""trial"",""time""
""fullscreenenter"",""1"",""3778""
","
","
","""event"",""trial"",""time""
""fullscreenenter"",""1"",""3778""
","
","","","","","","null","<div style=""font-size:60px;"">+</div>","null","","fixation","","","","","","","","",""
"memory-trial","140","404644","0.0-15.0-1.48","1913","2","""event"",""trial"",""time""
""fullscreenenter"",""1"",""3778""
","
","
","""event"",""trial"",""time""
""fullscreenenter"",""1"",""3778""
","
","","","","","","1294.4000000953674","images/bush3.png","","","memory_trial","3","maybe_new","","","","","","",""
"html-keyboard-response","141","405147","0.0-15.0-0.49","1913","2","""event"",""trial"",""time""
""fullscreenenter"",""1"",""3778""
","
","
","""event"",""trial"",""time""
""fullscreenenter"",""1"",""3778""
","
","","","","","","null","<div style=""font-size:60px;"">+</div>","null","","fixation","","","","","","","","",""
"memory-trial","142","407639","0.0-15.0-1.49","1913","2","""event"",""trial"",""time""
""fullscreenenter"",""1"",""3778""
","
","
","""event"",""trial"",""time""
""fullscreenenter"",""1"",""3778""
","
","","","","","","1485.9000000953674","images/rodent5.png","","","memory_trial","2","maybe_old","","","","","","",""
"html-keyboard-response","143","408142","0.0-15.0-0.50","1913","2","""event"",""trial"",""time""
""fullscreenenter"",""1"",""3778""
","
","
","""event"",""trial"",""time""
""fullscreenenter"",""1"",""3778""
","
","","","","","","null","<div style=""font-size:60px;"">+</div>","null","","fixation","","","","","","","","",""
"memory-trial","144","410515","0.0-15.0-1.50","1913","2","""event"",""trial"",""time""
""fullscreenenter"",""1"",""3778""
","
","
","""event"",""trial"",""time""
""fullscreenenter"",""1"",""3778""
","
","","","","","","1368.2999999523163","images/straw4.png","","","memory_trial","4","definitely_new","","","","","","",""
"html-keyboard-response","145","411018","0.0-15.0-0.51","1913","2","""event"",""trial"",""time""
""fullscreenenter"",""1"",""3778""
","
","
","""event"",""trial"",""time""
""fullscreenenter"",""1"",""3778""
","
","","","","","","null","<div style=""font-size:60px;"">+</div>","null","","fixation","","","","","","","","",""
"memory-trial","146","413766","0.0-15.0-1.51","1913","2","""event"",""trial"",""time""
""fullscreenenter"",""1"",""3778""
","
","
","""event"",""trial"",""time""
""fullscreenenter"",""1"",""3778""
","
","","","","","","1740.3000000715256","images/chair1.png","","","memory_trial","4","definitely_new","","","","","","",""
"html-keyboard-response","147","414268","0.0-15.0-0.52","1913","2","""event"",""trial"",""time""
""fullscreenenter"",""1"",""3778""
","
","
","""event"",""trial"",""time""
""fullscreenenter"",""1"",""3778""
","
","","","","","","null","<div style=""font-size:60px;"">+</div>","null","","fixation","","","","","","","","",""
"memory-trial","148","417051","0.0-15.0-1.52","1913","2","""event"",""trial"",""time""
""fullscreenenter"",""1"",""3778""
","
","
","""event"",""trial"",""time""
""fullscreenenter"",""1"",""3778""
","
","","","","","","1778.6000000238419","images/train1.png","","","memory_trial","3","maybe_new","","","","","","",""
"html-keyboard-response","149","417554","0.0-15.0-0.53","1913","2","""event"",""trial"",""time""
""fullscreenenter"",""1"",""3778""
","
","
","""event"",""trial"",""time""
""fullscreenenter"",""1"",""3778""
","
","","","","","","null","<div style=""font-size:60px;"">+</div>","null","","fixation","","","","","","","","",""
"memory-trial","150","420026","0.0-15.0-1.53","1913","2","""event"",""trial"",""time""
""fullscreenenter"",""1"",""3778""
","
","
","""event"",""trial"",""time""
""fullscreenenter"",""1"",""3778""
","
","","","","","","1465.4000000953674","images/cactus4.png","","","memory_trial","3","maybe_new","","","","","","",""
"html-keyboard-response","151","420528","0.0-15.0-0.54","1913","2","""event"",""trial"",""time""
""fullscreenenter"",""1"",""3778""
","
","
","""event"",""trial"",""time""
""fullscreenenter"",""1"",""3778""
","
","","","","","","null","<div style=""font-size:60px;"">+</div>","null","","fixation","","","","","","","","",""
"memory-trial","152","423559","0.0-15.0-1.54","1913","2","""event"",""trial"",""time""
""fullscreenenter"",""1"",""3778""
","
","
","""event"",""trial"",""time""
""fullscreenenter"",""1"",""3778""
","
","","","","","","2024.7999999523163","images/train2.png","","","memory_trial","2","maybe_old","","","","","","",""
"html-keyboard-response","153","424061","0.0-15.0-0.55","1913","2","""event"",""trial"",""time""
""fullscreenenter"",""1"",""3778""
","
","
","""event"",""trial"",""time""
""fullscreenenter"",""1"",""3778""
","
","","","","","","null","<div style=""font-size:60px;"">+</div>","null","","fixation","","","","","","","","",""
"memory-trial","154","427365","0.0-15.0-1.55","1913","2","""event"",""trial"",""time""
""fullscreenenter"",""1"",""3778""
","
","
","""event"",""trial"",""time""
""fullscreenenter"",""1"",""3778""
","
","","","","","","2297","images/boat5.png","","","memory_trial","2","maybe_old","","","","","","",""
"html-keyboard-response","155","427867","0.0-15.0-0.56","1913","2","""event"",""trial"",""time""
""fullscreenenter"",""1"",""3778""
","
","
","""event"",""trial"",""time""
""fullscreenenter"",""1"",""3778""
","
","","","","","","null","<div style=""font-size:60px;"">+</div>","null","","fixation","","","","","","","","",""
"memory-trial","156","430699","0.0-15.0-1.56","1913","2","""event"",""trial"",""time""
""fullscreenenter"",""1"",""3778""
","
","
","""event"",""trial"",""time""
""fullscreenenter"",""1"",""3778""
","
","","","","","","1824.7999999523163","images/apple3.png","","","memory_trial","3","maybe_new","","","","","","",""
"html-keyboard-response","157","431202","0.0-15.0-0.57","1913","2","""event"",""trial"",""time""
""fullscreenenter"",""1"",""3778""
","
","
","""event"",""trial"",""time""
""fullscreenenter"",""1"",""3778""
","
","","","","","","null","<div style=""font-size:60px;"">+</div>","null","","fixation","","","","","","","","",""
"memory-trial","158","433840","0.0-15.0-1.57","1913","2","""event"",""trial"",""time""
""fullscreenenter"",""1"",""3778""
","
","
","""event"",""trial"",""time""
""fullscreenenter"",""1"",""3778""
","
","","","","","","1630.5999999046326","images/horse2.png","","","memory_trial","4","definitely_new","","","","","","",""
"html-keyboard-response","159","434343","0.0-15.0-0.58","1913","2","""event"",""trial"",""time""
""fullscreenenter"",""1"",""3778""
","
","
","""event"",""trial"",""time""
""fullscreenenter"",""1"",""3778""
","
","","","","","","null","<div style=""font-size:60px;"">+</div>","null","","fixation","","","","","","","","",""
"memory-trial","160","438624","0.0-15.0-1.58","1913","2","""event"",""trial"",""time""
""fullscreenenter"",""1"",""3778""
","
","
","""event"",""trial"",""time""
""fullscreenenter"",""1"",""3778""
","
","","","","","","3276","images/flower4.png","","","memory_trial","2","maybe_old","","","","","","",""
"html-keyboard-response","161","439127","0.0-15.0-0.59","1913","2","""event"",""trial"",""time""
""fullscreenenter"",""1"",""3778""
","
","
","""event"",""trial"",""time""
""fullscreenenter"",""1"",""3778""
","
","","","","","","null","<div style=""font-size:60px;"">+</div>","null","","fixation","","","","","","","","",""
"memory-trial","162","441507","0.0-15.0-1.59","1913","2","""event"",""trial"",""time""
""fullscreenenter"",""1"",""3778""
","
","
","""event"",""trial"",""time""
""fullscreenenter"",""1"",""3778""
","
","","","","","","1373.6000000238419","images/sofa3.png","","","memory_trial","4","definitely_new","","","","","","",""
"html-keyboard-response","163","442010","0.0-15.0-0.60","1913","2","""event"",""trial"",""time""
""fullscreenenter"",""1"",""3778""
","
","
","""event"",""trial"",""time""
""fullscreenenter"",""1"",""3778""
","
","","","","","","null","<div style=""font-size:60px;"">+</div>","null","","fixation","","","","","","","","",""
"memory-trial","164","444035","0.0-15.0-1.60","1913","2","""event"",""trial"",""time""
""fullscreenenter"",""1"",""3778""
","
","
","""event"",""trial"",""time""
""fullscreenenter"",""1"",""3778""
","
","","","","","","1020.1000000238419","images/chair2.png","","","memory_trial","3","maybe_new","","","","","","",""
"html-keyboard-response","165","444538","0.0-15.0-0.61","1913","2","""event"",""trial"",""time""
""fullscreenenter"",""1"",""3778""
","
","
","""event"",""trial"",""time""
""fullscreenenter"",""1"",""3778""
","
","","","","","","null","<div style=""font-size:60px;"">+</div>","null","","fixation","","","","","","","","",""
"memory-trial","166","447281","0.0-15.0-1.61","1913","2","""event"",""trial"",""time""
""fullscreenenter"",""1"",""3778""
","
","
","""event"",""trial"",""time""
""fullscreenenter"",""1"",""3778""
","
","","","","","","1738","images/rabbit3.png","","","memory_trial","2","maybe_old","","","","","","",""
"html-keyboard-response","167","447784","0.0-15.0-0.62","1913","2","""event"",""trial"",""time""
""fullscreenenter"",""1"",""3778""
","
","
","""event"",""trial"",""time""
""fullscreenenter"",""1"",""3778""
","
","","","","","","null","<div style=""font-size:60px;"">+</div>","null","","fixation","","","","","","","","",""
"memory-trial","168","450286","0.0-15.0-1.62","1913","2","""event"",""trial"",""time""
""fullscreenenter"",""1"",""3778""
","
","
","""event"",""trial"",""time""
""fullscreenenter"",""1"",""3778""
","
","","","","","","1494.1999999284744","images/straw3.png","","","memory_trial","3","maybe_new","","","","","","",""
"html-keyboard-response","169","450788","0.0-15.0-0.63","1913","2","""event"",""trial"",""time""
""fullscreenenter"",""1"",""3778""
","
","
","""event"",""trial"",""time""
""fullscreenenter"",""1"",""3778""
","
","","","","","","null","<div style=""font-size:60px;"">+</div>","null","","fixation","","","","","","","","",""
"memory-trial","170","453913","0.0-15.0-1.63","1913","2","""event"",""trial"",""time""
""fullscreenenter"",""1"",""3778""
","
","
","""event"",""trial"",""time""
""fullscreenenter"",""1"",""3778""
","
","","","","","","2117.5","images/boat2.png","","","memory_trial","4","definitely_new","","","","","","",""
"html-keyboard-response","171","454415","0.0-15.0-0.64","1913","2","""event"",""trial"",""time""
""fullscreenenter"",""1"",""3778""
","
","
","""event"",""trial"",""time""
""fullscreenenter"",""1"",""3778""
","
","","","","","","null","<div style=""font-size:60px;"">+</div>","null","","fixation","","","","","","","","",""
"memory-trial","172","456515","0.0-15.0-1.64","1913","2","""event"",""trial"",""time""
""fullscreenenter"",""1"",""3778""
","
","
","""event"",""trial"",""time""
""fullscreenenter"",""1"",""3778""
","
","","","","","","1094","images/plane3.png","","","memory_trial","3","maybe_new","","","","","","",""
"html-keyboard-response","173","457017","0.0-15.0-0.65","1913","2","""event"",""trial"",""time""
""fullscreenenter"",""1"",""3778""
","
","
","""event"",""trial"",""time""
""fullscreenenter"",""1"",""3778""
","
","","","","","","null","<div style=""font-size:60px;"">+</div>","null","","fixation","","","","","","","","",""
"memory-trial","174","459200","0.0-15.0-1.65","1913","2","""event"",""trial"",""time""
""fullscreenenter"",""1"",""3778""
","
","
","""event"",""trial"",""time""
""fullscreenenter"",""1"",""3778""
","
","","","","","","1175.8000000715256","images/apple1.png","","","memory_trial","2","maybe_old","","","","","","",""
"html-keyboard-response","175","459702","0.0-15.0-0.66","1913","2","""event"",""trial"",""time""
""fullscreenenter"",""1"",""3778""
","
","
","""event"",""trial"",""time""
""fullscreenenter"",""1"",""3778""
","
","","","","","","null","<div style=""font-size:60px;"">+</div>","null","","fixation","","","","","","","","",""
"memory-trial","176","461749","0.0-15.0-1.66","1913","2","""event"",""trial"",""time""
""fullscreenenter"",""1"",""3778""
","
","
","""event"",""trial"",""time""
""fullscreenenter"",""1"",""3778""
","
","","","","","","1040.3000000715256","images/rabbit1.png","","","memory_trial","2","maybe_old","","","","","","",""
"html-keyboard-response","177","462252","0.0-15.0-0.67","1913","2","""event"",""trial"",""time""
""fullscreenenter"",""1"",""3778""
","
","
","""event"",""trial"",""time""
""fullscreenenter"",""1"",""3778""
","
","","","","","","null","<div style=""font-size:60px;"">+</div>","null","","fixation","","","","","","","","",""
"memory-trial","178","464375","0.0-15.0-1.67","1913","2","""event"",""trial"",""time""
""fullscreenenter"",""1"",""3778""
","
","
","""event"",""trial"",""time""
""fullscreenenter"",""1"",""3778""
","
","","","","","","1117","images/dog4.png","","","memory_trial","4","definitely_new","","","","","","",""
"html-keyboard-response","179","464877","0.0-15.0-0.68","1913","2","""event"",""trial"",""time""
""fullscreenenter"",""1"",""3778""
","
","
","""event"",""trial"",""time""
""fullscreenenter"",""1"",""3778""
","
","","","","","","null","<div style=""font-size:60px;"">+</div>","null","","fixation","","","","","","","","",""
"memory-trial","180","467135","0.0-15.0-1.68","1913","2","""event"",""trial"",""time""
""fullscreenenter"",""1"",""3778""
","
","
","""event"",""trial"",""time""
""fullscreenenter"",""1"",""3778""
","
","","","","","","1252.1000000238419","images/dog3.png","","","memory_trial","2","maybe_old","","","","","","",""
"html-keyboard-response","181","467638","0.0-15.0-0.69","1913","2","""event"",""trial"",""time""
""fullscreenenter"",""1"",""3778""
","
","
","""event"",""trial"",""time""
""fullscreenenter"",""1"",""3778""
","
","","","","","","null","<div style=""font-size:60px;"">+</div>","null","","fixation","","","","","","","","",""
"memory-trial","182","470114","0.0-15.0-1.69","1913","2","""event"",""trial"",""time""
""fullscreenenter"",""1"",""3778""
","
","
","""event"",""trial"",""time""
""fullscreenenter"",""1"",""3778""
","
","","","","","","1471.8000000715256","images/table4.png","","","memory_trial","1","definitely_old","","","","","","",""
"html-keyboard-response","183","470616","0.0-15.0-0.70","1913","2","""event"",""trial"",""time""
""fullscreenenter"",""1"",""3778""
","
","
","""event"",""trial"",""time""
""fullscreenenter"",""1"",""3778""
","
","","","","","","null","<div style=""font-size:60px;"">+</div>","null","","fixation","","","","","","","","",""
"memory-trial","184","472810","0.0-15.0-1.70","1913","2","""event"",""trial"",""time""
""fullscreenenter"",""1"",""3778""
","
","
","""event"",""trial"",""time""
""fullscreenenter"",""1"",""3778""
","
","","","","","","1189","images/bed2.png","","","memory_trial","2","maybe_old","","","","","","",""
"html-keyboard-response","185","473312","0.0-15.0-0.71","1913","2","""event"",""trial"",""time""
""fullscreenenter"",""1"",""3778""
","
","
","""event"",""trial"",""time""
""fullscreenenter"",""1"",""3778""
","
","","","","","","null","<div style=""font-size:60px;"">+</div>","null","","fixation","","","","","","","","",""
"memory-trial","186","475213","0.0-15.0-1.71","1913","2","""event"",""trial"",""time""
""fullscreenenter"",""1"",""3778""
","
","
","""event"",""trial"",""time""
""fullscreenenter"",""1"",""3778""
","
","","","","","","894.2999999523163","images/orange2.png","","","memory_trial","3","maybe_new","","","","","","",""
"html-keyboard-response","187","475715","0.0-15.0-0.72","1913","2","""event"",""trial"",""time""
""fullscreenenter"",""1"",""3778""
","
","
","""event"",""trial"",""time""
""fullscreenenter"",""1"",""3778""
","
","","","","","","null","<div style=""font-size:60px;"">+</div>","null","","fixation","","","","","","","","",""
"memory-trial","188","478069","0.0-15.0-1.72","1913","2","""event"",""trial"",""time""
""fullscreenenter"",""1"",""3778""
","
","
","""event"",""trial"",""time""
""fullscreenenter"",""1"",""3778""
","
","","","","","","1348.2999999523163","images/goat4.png","","","memory_trial","4","definitely_new","","","","","","",""
"html-keyboard-response","189","478570","0.0-15.0-0.73","1913","2","""event"",""trial"",""time""
""fullscreenenter"",""1"",""3778""
","
","
","""event"",""trial"",""time""
""fullscreenenter"",""1"",""3778""
","
","","","","","","null","<div style=""font-size:60px;"">+</div>","null","","fixation","","","","","","","","",""
"memory-trial","190","483147","0.0-15.0-1.73","1913","2","""event"",""trial"",""time""
""fullscreenenter"",""1"",""3778""
","
","
","""event"",""trial"",""time""
""fullscreenenter"",""1"",""3778""
","
","","","","","","3571.5","images/goat2.png","","","memory_trial","3","maybe_new","","","","","","",""
"html-keyboard-response","191","483650","0.0-15.0-0.74","1913","2","""event"",""trial"",""time""
""fullscreenenter"",""1"",""3778""
","
","
","""event"",""trial"",""time""
""fullscreenenter"",""1"",""3778""
","
","","","","","","null","<div style=""font-size:60px;"">+</div>","null","","fixation","","","","","","","","",""
"memory-trial","192","486325","0.0-15.0-1.74","1913","2","""event"",""trial"",""time""
""fullscreenenter"",""1"",""3778""
","
","
","""event"",""trial"",""time""
""fullscreenenter"",""1"",""3778""
","
","","","","","","1668.7999999523163","images/sofa1.png","","","memory_trial","3","maybe_new","","","","","","",""
"html-keyboard-response","193","486827","0.0-15.0-0.75","1913","2","""event"",""trial"",""time""
""fullscreenenter"",""1"",""3778""
","
","
","""event"",""trial"",""time""
""fullscreenenter"",""1"",""3778""
","
","","","","","","null","<div style=""font-size:60px;"">+</div>","null","","fixation","","","","","","","","",""
"memory-trial","194","489763","0.0-15.0-1.75","1913","2","""event"",""trial"",""time""
""fullscreenenter"",""1"",""3778""
","
","
","""event"",""trial"",""time""
""fullscreenenter"",""1"",""3778""
","
","","","","","","1930.5999999046326","images/horse4.png","","","memory_trial","3","maybe_new","","","","","","",""
"html-keyboard-response","195","490266","0.0-15.0-0.76","1913","2","""event"",""trial"",""time""
""fullscreenenter"",""1"",""3778""
","
","
","""event"",""trial"",""time""
""fullscreenenter"",""1"",""3778""
","
","","","","","","null","<div style=""font-size:60px;"">+</div>","null","","fixation","","","","","","","","",""
"memory-trial","196","492283","0.0-15.0-1.76","1913","2","""event"",""trial"",""time""
""fullscreenenter"",""1"",""3778""
","
","
","""event"",""trial"",""time""
""fullscreenenter"",""1"",""3778""
","
","","","","","","1012.5","images/bed1.png","","","memory_trial","2","maybe_old","","","","","","",""
"html-keyboard-response","197","492786","0.0-15.0-0.77","1913","2","""event"",""trial"",""time""
""fullscreenenter"",""1"",""3778""
","
","
","""event"",""trial"",""time""
""fullscreenenter"",""1"",""3778""
","
","","","","","","null","<div style=""font-size:60px;"">+</div>","null","","fixation","","","","","","","","",""
"memory-trial","198","496619","0.0-15.0-1.77","1913","2","""event"",""trial"",""time""
""fullscreenenter"",""1"",""3778""
","
","
","""event"",""trial"",""time""
""fullscreenenter"",""1"",""3778""
","
","","","","","","2827","images/sheep4.png","","","memory_trial","2","maybe_old","","","","","","",""
"html-keyboard-response","199","497122","0.0-15.0-0.78","1913","2","""event"",""trial"",""time""
""fullscreenenter"",""1"",""3778""
","
","
","""event"",""trial"",""time""
""fullscreenenter"",""1"",""3778""
","
","","","","","","null","<div style=""font-size:60px;"">+</div>","null","","fixation","","","","","","","","",""
"memory-trial","200","500278","0.0-15.0-1.78","1913","2","""event"",""trial"",""time""
""fullscreenenter"",""1"",""3778""
","
","
","""event"",""trial"",""time""
""fullscreenenter"",""1"",""3778""
","
","","","","","","2148.899999976158","images/rabbit5.png","","","memory_trial","4","definitely_new","","","","","","",""
"html-keyboard-response","201","500779","0.0-15.0-0.79","1913","2","""event"",""trial"",""time""
""fullscreenenter"",""1"",""3778""
","
","
","""event"",""trial"",""time""
""fullscreenenter"",""1"",""3778""
","
","","","","","","null","<div style=""font-size:60px;"">+</div>","null","","fixation","","","","","","","","",""
"memory-trial","202","503745","0.0-15.0-1.79","1913","2","""event"",""trial"",""time""
""fullscreenenter"",""1"",""3778""
","
","
","""event"",""trial"",""time""
""fullscreenenter"",""1"",""3778""
","
","","","","","","1959.2999999523163","images/cow3.png","","","memory_trial","3","maybe_new","","","","","","",""
"html-keyboard-response","203","504247","0.0-15.0-0.80","1913","2","""event"",""trial"",""time""
""fullscreenenter"",""1"",""3778""
","
","
","""event"",""trial"",""time""
""fullscreenenter"",""1"",""3778""
","
","","","","","","null","<div style=""font-size:60px;"">+</div>","null","","fixation","","","","","","","","",""
"memory-trial","204","506884","0.0-15.0-1.80","1913","2","""event"",""trial"",""time""
""fullscreenenter"",""1"",""3778""
","
","
","""event"",""trial"",""time""
""fullscreenenter"",""1"",""3778""
","
","","","","","","1631.5","images/dog2.png","","","memory_trial","2","maybe_old","","","","","","",""
"html-keyboard-response","205","507386","0.0-15.0-0.81","1913","2","""event"",""trial"",""time""
""fullscreenenter"",""1"",""3778""
","
","
","""event"",""trial"",""time""
""fullscreenenter"",""1"",""3778""
","
","","","","","","null","<div style=""font-size:60px;"">+</div>","null","","fixation","","","","","","","","",""
"memory-trial","206","509589","0.0-15.0-1.81","1913","2","""event"",""trial"",""time""
""fullscreenenter"",""1"",""3778""
","
","
","""event"",""trial"",""time""
""fullscreenenter"",""1"",""3778""
","
","","","","","","1196.1000000238419","images/sofa4.png","","","memory_trial","3","maybe_new","","","","","","",""
"html-keyboard-response","207","510092","0.0-15.0-0.82","1913","2","""event"",""trial"",""time""
""fullscreenenter"",""1"",""3778""
","
","
","""event"",""trial"",""time""
""fullscreenenter"",""1"",""3778""
","
","","","","","","null","<div style=""font-size:60px;"">+</div>","null","","fixation","","","","","","","","",""
"memory-trial","208","512613","0.0-15.0-1.82","1913","2","""event"",""trial"",""time""
""fullscreenenter"",""1"",""3778""
","
","
","""event"",""trial"",""time""
""fullscreenenter"",""1"",""3778""
","
","","","","","","1516.2000000476837","images/truck3.png","","","memory_trial","1","definitely_old","","","","","","",""
"html-keyboard-response","209","513116","0.0-15.0-0.83","1913","2","""event"",""trial"",""time""
""fullscreenenter"",""1"",""3778""
","
","
","""event"",""trial"",""time""
""fullscreenenter"",""1"",""3778""
","
","","","","","","null","<div style=""font-size:60px;"">+</div>","null","","fixation","","","","","","","","",""
"memory-trial","210","515538","0.0-15.0-1.83","1913","2","""event"",""trial"",""time""
""fullscreenenter"",""1"",""3778""
","
","
","""event"",""trial"",""time""
""fullscreenenter"",""1"",""3778""
","
","","","","","","1415.8999999761581","images/sheep5.png","","","memory_trial","4","definitely_new","","","","","","",""
"html-keyboard-response","211","516040","0.0-15.0-0.84","1913","2","""event"",""trial"",""time""
""fullscreenenter"",""1"",""3778""
","
","
","""event"",""trial"",""time""
""fullscreenenter"",""1"",""3778""
","
","","","","","","null","<div style=""font-size:60px;"">+</div>","null","","fixation","","","","","","","","",""
"memory-trial","212","519137","0.0-15.0-1.84","1913","2","""event"",""trial"",""time""
""fullscreenenter"",""1"",""3778""
","
","
","""event"",""trial"",""time""
""fullscreenenter"",""1"",""3778""
","
","","","","","","2093","images/tree4.png","","","memory_trial","3","maybe_new","","","","","","",""
"html-keyboard-response","213","519640","0.0-15.0-0.85","1913","2","""event"",""trial"",""time""
""fullscreenenter"",""1"",""3778""
","
","
","""event"",""trial"",""time""
""fullscreenenter"",""1"",""3778""
","
","","","","","","null","<div style=""font-size:60px;"">+</div>","null","","fixation","","","","","","","","",""
"memory-trial","214","521968","0.0-15.0-1.85","1913","2","""event"",""trial"",""time""
""fullscreenenter"",""1"",""3778""
","
","
","""event"",""trial"",""time""
""fullscreenenter"",""1"",""3778""
","
","","","","","","1320.6000000238419","images/feline3.png","","","memory_trial","3","maybe_new","","","","","","",""
"html-keyboard-response","215","522470","0.0-15.0-0.86","1913","2","""event"",""trial"",""time""
""fullscreenenter"",""1"",""3778""
","
","
","""event"",""trial"",""time""
""fullscreenenter"",""1"",""3778""
","
","","","","","","null","<div style=""font-size:60px;"">+</div>","null","","fixation","","","","","","","","",""
"memory-trial","216","525352","0.0-15.0-1.86","1913","2","""event"",""trial"",""time""
""fullscreenenter"",""1"",""3778""
","
","
","""event"",""trial"",""time""
""fullscreenenter"",""1"",""3778""
","
","","","","","","1876.3999999761581","images/rabbit4.png","","","memory_trial","3","maybe_new","","","","","","",""
"html-keyboard-response","217","525855","0.0-15.0-0.87","1913","2","""event"",""trial"",""time""
""fullscreenenter"",""1"",""3778""
","
","
","""event"",""trial"",""time""
""fullscreenenter"",""1"",""3778""
","
","","","","","","null","<div style=""font-size:60px;"">+</div>","null","","fixation","","","","","","","","",""
"memory-trial","218","528089","0.0-15.0-1.87","1913","2","""event"",""trial"",""time""
""fullscreenenter"",""1"",""3778""
","
","
","""event"",""trial"",""time""
""fullscreenenter"",""1"",""3778""
","
","","","","","","1228.5","images/cow2.png","","","memory_trial","2","maybe_old","","","","","","",""
"html-keyboard-response","219","528592","0.0-15.0-0.88","1913","2","""event"",""trial"",""time""
""fullscreenenter"",""1"",""3778""
","
","
","""event"",""trial"",""time""
""fullscreenenter"",""1"",""3778""
","
","","","","","","null","<div style=""font-size:60px;"">+</div>","null","","fixation","","","","","","","","",""
"memory-trial","220","531247","0.0-15.0-1.88","1913","2","""event"",""trial"",""time""
""fullscreenenter"",""1"",""3778""
","
","
","""event"",""trial"",""time""
""fullscreenenter"",""1"",""3778""
","
","","","","","","1650.3999999761581","images/plane2.png","","","memory_trial","3","maybe_new","","","","","","",""
"html-keyboard-response","221","531750","0.0-15.0-0.89","1913","2","""event"",""trial"",""time""
""fullscreenenter"",""1"",""3778""
","
","
","""event"",""trial"",""time""
""fullscreenenter"",""1"",""3778""
","
","","","","","","null","<div style=""font-size:60px;"">+</div>","null","","fixation","","","","","","","","",""
"memory-trial","222","533738","0.0-15.0-1.89","1913","2","""event"",""trial"",""time""
""fullscreenenter"",""1"",""3778""
","
","
","""event"",""trial"",""time""
""fullscreenenter"",""1"",""3778""
","
","","","","","","982.7999999523163","images/bush1.png","","","memory_trial","3","maybe_new","","","","","","",""
"html-keyboard-response","223","534241","0.0-15.0-0.90","1913","2","""event"",""trial"",""time""
""fullscreenenter"",""1"",""3778""
","
","
","""event"",""trial"",""time""
""fullscreenenter"",""1"",""3778""
","
","","","","","","null","<div style=""font-size:60px;"">+</div>","null","","fixation","","","","","","","","",""
"memory-trial","224","536934","0.0-15.0-1.90","1913","2","""event"",""trial"",""time""
""fullscreenenter"",""1"",""3778""
","
","
","""event"",""trial"",""time""
""fullscreenenter"",""1"",""3778""
","
","","","","","","1687.8999999761581","images/bush5.png","","","memory_trial","3","maybe_new","","","","","","",""
"html-keyboard-response","225","537437","0.0-15.0-0.91","1913","2","""event"",""trial"",""time""
""fullscreenenter"",""1"",""3778""
","
","
","""event"",""trial"",""time""
""fullscreenenter"",""1"",""3778""
","
","","","","","","null","<div style=""font-size:60px;"">+</div>","null","","fixation","","","","","","","","",""
"memory-trial","226","539877","0.0-15.0-1.91","1913","2","""event"",""trial"",""time""
""fullscreenenter"",""1"",""3778""
","
","
","""event"",""trial"",""time""
""fullscreenenter"",""1"",""3778""
","
","","","","","","1434.3999999761581","images/boat3.png","","","memory_trial","4","definitely_new","","","","","","",""
"html-keyboard-response","227","540380","0.0-15.0-0.92","1913","2","""event"",""trial"",""time""
""fullscreenenter"",""1"",""3778""
","
","
","""event"",""trial"",""time""
""fullscreenenter"",""1"",""3778""
","
","","","","","","null","<div style=""font-size:60px;"">+</div>","null","","fixation","","","","","","","","",""
"memory-trial","228","543299","0.0-15.0-1.92","1913","2","""event"",""trial"",""time""
""fullscreenenter"",""1"",""3778""
","
","
","""event"",""trial"",""time""
""fullscreenenter"",""1"",""3778""
","
","","","","","","1914.2999999523163","images/rabbit2.png","","","memory_trial","2","maybe_old","","","","","","",""
"html-keyboard-response","229","543802","0.0-15.0-0.93","1913","2","""event"",""trial"",""time""
""fullscreenenter"",""1"",""3778""
","
","
","""event"",""trial"",""time""
""fullscreenenter"",""1"",""3778""
","
","","","","","","null","<div style=""font-size:60px;"">+</div>","null","","fixation","","","","","","","","",""
"memory-trial","230","546231","0.0-15.0-1.93","1913","2","""event"",""trial"",""time""
""fullscreenenter"",""1"",""3778""
","
","
","""event"",""trial"",""time""
""fullscreenenter"",""1"",""3778""
","
","","","","","","1422.7000000476837","images/bed5.png","","","memory_trial","1","definitely_old","","","","","","",""
"html-keyboard-response","231","546734","0.0-15.0-0.94","1913","2","""event"",""trial"",""time""
""fullscreenenter"",""1"",""3778""
","
","
","""event"",""trial"",""time""
""fullscreenenter"",""1"",""3778""
","
","","","","","","null","<div style=""font-size:60px;"">+</div>","null","","fixation","","","","","","","","",""
"memory-trial","232","549022","0.0-15.0-1.94","1913","2","""event"",""trial"",""time""
""fullscreenenter"",""1"",""3778""
","
","
","""event"",""trial"",""time""
""fullscreenenter"",""1"",""3778""
","
","","","","","","1282.4000000953674","images/truck5.png","","","memory_trial","4","definitely_new","","","","","","",""
"html-keyboard-response","233","549524","0.0-15.0-0.95","1913","2","""event"",""trial"",""time""
""fullscreenenter"",""1"",""3778""
","
","
","""event"",""trial"",""time""
""fullscreenenter"",""1"",""3778""
","
","","","","","","null","<div style=""font-size:60px;"">+</div>","null","","fixation","","","","","","","","",""
"memory-trial","234","551691","0.0-15.0-1.95","1913","2","""event"",""trial"",""time""
""fullscreenenter"",""1"",""3778""
","
","
","""event"",""trial"",""time""
""fullscreenenter"",""1"",""3778""
","
","","","","","","1160.2000000476837","images/cow1.png","","","memory_trial","3","maybe_new","","","","","","",""
"html-keyboard-response","235","552194","0.0-15.0-0.96","1913","2","""event"",""trial"",""time""
""fullscreenenter"",""1"",""3778""
","
","
","""event"",""trial"",""time""
""fullscreenenter"",""1"",""3778""
","
","","","","","","null","<div style=""font-size:60px;"">+</div>","null","","fixation","","","","","","","","",""
"memory-trial","236","556493","0.0-15.0-1.96","1913","2","""event"",""trial"",""time""
""fullscreenenter"",""1"",""3778""
","
","
","""event"",""trial"",""time""
""fullscreenenter"",""1"",""3778""
","
","","","","","","3293.8000000715256","images/tree1.png","","","memory_trial","3","maybe_new","","","","","","",""
"html-keyboard-response","237","556996","0.0-15.0-0.97","1913","2","""event"",""trial"",""time""
""fullscreenenter"",""1"",""3778""
","
","
","""event"",""trial"",""time""
""fullscreenenter"",""1"",""3778""
","
","","","","","","null","<div style=""font-size:60px;"">+</div>","null","","fixation","","","","","","","","",""
"memory-trial","238","560103","0.0-15.0-1.97","1913","2","""event"",""trial"",""time""
""fullscreenenter"",""1"",""3778""
","
","
","""event"",""trial"",""time""
""fullscreenenter"",""1"",""3778""
","
","","","","","","2100.7999999523163","images/table2.png","","","memory_trial","4","definitely_new","","","","","","",""
"html-keyboard-response","239","560607","0.0-15.0-0.98","1913","2","""event"",""trial"",""time""
""fullscreenenter"",""1"",""3778""
","
","
","""event"",""trial"",""time""
""fullscreenenter"",""1"",""3778""
","
","","","","","","null","<div style=""font-size:60px;"">+</div>","null","","fixation","","","","","","","","",""
"memory-trial","240","564267","0.0-15.0-1.98","1913","2","""event"",""trial"",""time""
""fullscreenenter"",""1"",""3778""
","
","
","""event"",""trial"",""time""
""fullscreenenter"",""1"",""3778""
","
","","","","","","2655.3000000715256","images/apple5.png","","","memory_trial","3","maybe_new","","","","","","",""
"html-keyboard-response","241","564772","0.0-15.0-0.99","1913","2","""event"",""trial"",""time""
""fullscreenenter"",""1"",""3778""
","
","
","""event"",""trial"",""time""
""fullscreenenter"",""1"",""3778""
","
","","","","","","null","<div style=""font-size:60px;"">+</div>","null","","fixation","","","","","","","","",""
"memory-trial","242","570012","0.0-15.0-1.99","1913","2","""event"",""trial"",""time""
""fullscreenenter"",""1"",""3778""
","
","
","""event"",""trial"",""time""
""fullscreenenter"",""1"",""3778""
","
","","","","","","4233.5","images/sheep1.png","","","memory_trial","2","maybe_old","","","","","","",""
"html-keyboard-response","243","570517","0.0-15.0-0.100","1913","2","""event"",""trial"",""time""
""fullscreenenter"",""1"",""3778""
","
","
","""event"",""trial"",""time""
""fullscreenenter"",""1"",""3778""
","
","","","","","","null","<div style=""font-size:60px;"">+</div>","null","","fixation","","","","","","","","",""
"memory-trial","244","572982","0.0-15.0-1.100","1913","2","""event"",""trial"",""time""
""fullscreenenter"",""1"",""3778""
","
","
","""event"",""trial"",""time""
""fullscreenenter"",""1"",""3778""
","
","","","","","","1457.3999999761581","images/banana5.png","","","memory_trial","2","maybe_old","","","","","","",""
"html-keyboard-response","245","573487","0.0-15.0-0.101","1913","2","""event"",""trial"",""time""
""fullscreenenter"",""1"",""3778""
","
","
","""event"",""trial"",""time""
""fullscreenenter"",""1"",""3778""
","
","","","","","","null","<div style=""font-size:60px;"">+</div>","null","","fixation","","","","","","","","",""
"memory-trial","246","575593","0.0-15.0-1.101","1913","2","""event"",""trial"",""time""
""fullscreenenter"",""1"",""3778""
","
","
","""event"",""trial"",""time""
""fullscreenenter"",""1"",""3778""
","
","","","","","","1100.3999999761581","images/goat1.png","","","memory_trial","4","definitely_new","","","","","","",""
"html-button-response","247","590947","0.0-15.0-2.101-0.101","1913","2","""event"",""trial"",""time""
""fullscreenenter"",""1"",""3778""
","
","
","""event"",""trial"",""time""
""fullscreenenter"",""1"",""3778""
","
","","","","","","15348.400000095367","<p> Take a break! </p><p> Click the button to continue. </p>","0","","break","","","","","","","","",""
"html-keyboard-response","248","591451","0.0-15.0-0.102","1913","2","""event"",""trial"",""time""
""fullscreenenter"",""1"",""3778""
","
","
","""event"",""trial"",""time""
""fullscreenenter"",""1"",""3778""
","
","","","","","","null","<div style=""font-size:60px;"">+</div>","null","","fixation","","","","","","","","",""
"memory-trial","249","595937","0.0-15.0-1.102","1913","2","""event"",""trial"",""time""
""fullscreenenter"",""1"",""3778""
","
","
","""event"",""trial"",""time""
""fullscreenenter"",""1"",""3778""
","
","","","","","","3477","images/flower3.png","","","memory_trial","2","maybe_old","","","","","","",""
"html-keyboard-response","250","596442","0.0-15.0-0.103","1913","2","""event"",""trial"",""time""
""fullscreenenter"",""1"",""3778""
","
","
","""event"",""trial"",""time""
""fullscreenenter"",""1"",""3778""
","
","","","","","","null","<div style=""font-size:60px;"">+</div>","null","","fixation","","","","","","","","",""
"memory-trial","251","598932","0.0-15.0-1.103","1913","2","""event"",""trial"",""time""
""fullscreenenter"",""1"",""3778""
","
","
","""event"",""trial"",""time""
""fullscreenenter"",""1"",""3778""
","
","","","","","","1480.9000000953674","images/cactus3.png","","","memory_trial","3","maybe_new","","","","","","",""
"html-keyboard-response","252","599437","0.0-15.0-0.104","1913","2","""event"",""trial"",""time""
""fullscreenenter"",""1"",""3778""
","
","
","""event"",""trial"",""time""
""fullscreenenter"",""1"",""3778""
","
","","","","","","null","<div style=""font-size:60px;"">+</div>","null","","fixation","","","","","","","","",""
"memory-trial","253","601607","0.0-15.0-1.104","1913","2","""event"",""trial"",""time""
""fullscreenenter"",""1"",""3778""
","
","
","""event"",""trial"",""time""
""fullscreenenter"",""1"",""3778""
","
","","","","","","1165.5","images/dog5.png","","","memory_trial","3","maybe_new","","","","","","",""
"html-keyboard-response","254","602112","0.0-15.0-0.105","1913","2","""event"",""trial"",""time""
""fullscreenenter"",""1"",""3778""
","
","
","""event"",""trial"",""time""
""fullscreenenter"",""1"",""3778""
","
","","","","","","null","<div style=""font-size:60px;"">+</div>","null","","fixation","","","","","","","","",""
"memory-trial","255","604228","0.0-15.0-1.105","1913","2","""event"",""trial"",""time""
""fullscreenenter"",""1"",""3778""
","
","
","""event"",""trial"",""time""
""fullscreenenter"",""1"",""3778""
","
","","","","","","1109.2999999523163","images/sofa5.png","","","memory_trial","1","definitely_old","","","","","","",""
"html-keyboard-response","256","604733","0.0-15.0-0.106","1913","2","""event"",""trial"",""time""
""fullscreenenter"",""1"",""3778""
","
","
","""event"",""trial"",""time""
""fullscreenenter"",""1"",""3778""
","
","","","","","","null","<div style=""font-size:60px;"">+</div>","null","","fixation","","","","","","","","",""
"memory-trial","257","606949","0.0-15.0-1.106","1913","2","""event"",""trial"",""time""
""fullscreenenter"",""1"",""3778""
","
","
","""event"",""trial"",""time""
""fullscreenenter"",""1"",""3778""
","
","","","","","","1208.5","images/table5.png","","","memory_trial","1","definitely_old","","","","","","",""
"html-keyboard-response","258","607454","0.0-15.0-0.107","1913","2","""event"",""trial"",""time""
""fullscreenenter"",""1"",""3778""
","
","
","""event"",""trial"",""time""
""fullscreenenter"",""1"",""3778""
","
","","","","","","null","<div style=""font-size:60px;"">+</div>","null","","fixation","","","","","","","","",""
"memory-trial","259","610144","0.0-15.0-1.107","1913","2","""event"",""trial"",""time""
""fullscreenenter"",""1"",""3778""
","
","
","""event"",""trial"",""time""
""fullscreenenter"",""1"",""3778""
","
","","","","","","1684.6999999284744","images/bush2.png","","","memory_trial","2","maybe_old","","","","","","",""
"html-keyboard-response","260","610649","0.0-15.0-0.108","1913","2","""event"",""trial"",""time""
""fullscreenenter"",""1"",""3778""
","
","
","""event"",""trial"",""time""
""fullscreenenter"",""1"",""3778""
","
","","","","","","null","<div style=""font-size:60px;"">+</div>","null","","fixation","","","","","","","","",""
"memory-trial","261","612709","0.0-15.0-1.108","1913","2","""event"",""trial"",""time""
""fullscreenenter"",""1"",""3778""
","
","
","""event"",""trial"",""time""
""fullscreenenter"",""1"",""3778""
","
","","","","","","1054.3999999761581","images/sheep3.png","","","memory_trial","3","maybe_new","","","","","","",""
"html-keyboard-response","262","613213","0.0-15.0-0.109","1913","2","""event"",""trial"",""time""
""fullscreenenter"",""1"",""3778""
","
","
","""event"",""trial"",""time""
""fullscreenenter"",""1"",""3778""
","
","","","","","","null","<div style=""font-size:60px;"">+</div>","null","","fixation","","","","","","","","",""
"memory-trial","263","615795","0.0-15.0-1.109","1913","2","""event"",""trial"",""time""
""fullscreenenter"",""1"",""3778""
","
","
","""event"",""trial"",""time""
""fullscreenenter"",""1"",""3778""
","
","","","","","","1575.5","images/apple2.png","","","memory_trial","2","maybe_old","","","","","","",""
"html-keyboard-response","264","616300","0.0-15.0-0.110","1913","2","""event"",""trial"",""time""
""fullscreenenter"",""1"",""3778""
","
","
","""event"",""trial"",""time""
""fullscreenenter"",""1"",""3778""
","
","","","","","","null","<div style=""font-size:60px;"">+</div>","null","","fixation","","","","","","","","",""
"memory-trial","265","618965","0.0-15.0-1.110","1913","2","""event"",""trial"",""time""
""fullscreenenter"",""1"",""3778""
","
","
","""event"",""trial"",""time""
""fullscreenenter"",""1"",""3778""
","
","","","","","","1655.1000000238419","images/horse3.png","","","memory_trial","2","maybe_old","","","","","","",""
"html-keyboard-response","266","619469","0.0-15.0-0.111","1913","2","""event"",""trial"",""time""
""fullscreenenter"",""1"",""3778""
","
","
","""event"",""trial"",""time""
""fullscreenenter"",""1"",""3778""
","
","","","","","","null","<div style=""font-size:60px;"">+</div>","null","","fixation","","","","","","","","",""
"memory-trial","267","621549","0.0-15.0-1.111","1913","2","""event"",""trial"",""time""
""fullscreenenter"",""1"",""3778""
","
","
","""event"",""trial"",""time""
""fullscreenenter"",""1"",""3778""
","
","","","","","","1075.3999999761581","images/train4.png","","","memory_trial","4","definitely_new","","","","","","",""
"html-keyboard-response","268","622055","0.0-15.0-0.112","1913","2","""event"",""trial"",""time""
""fullscreenenter"",""1"",""3778""
","
","
","""event"",""trial"",""time""
""fullscreenenter"",""1"",""3778""
","
","","","","","","null","<div style=""font-size:60px;"">+</div>","null","","fixation","","","","","","","","",""
"memory-trial","269","624870","0.0-15.0-1.112","1913","2","""event"",""trial"",""time""
""fullscreenenter"",""1"",""3778""
","
","
","""event"",""trial"",""time""
""fullscreenenter"",""1"",""3778""
","
","","","","","","1806","images/rodent4.png","","","memory_trial","3","maybe_new","","","","","","",""
"html-keyboard-response","270","625376","0.0-15.0-0.113","1913","2","""event"",""trial"",""time""
""fullscreenenter"",""1"",""3778""
","
","
","""event"",""trial"",""time""
""fullscreenenter"",""1"",""3778""
","
","","","","","","null","<div style=""font-size:60px;"">+</div>","null","","fixation","","","","","","","","",""
"memory-trial","271","628581","0.0-15.0-1.113","1913","2","""event"",""trial"",""time""
""fullscreenenter"",""1"",""3778""
","
","
","""event"",""trial"",""time""
""fullscreenenter"",""1"",""3778""
","
","","","","","","2197.2000000476837","images/apple4.png","","","memory_trial","2","maybe_old","","","","","","",""
"html-keyboard-response","272","629087","0.0-15.0-0.114","1913","2","""event"",""trial"",""time""
""fullscreenenter"",""1"",""3778""
","
","
","""event"",""trial"",""time""
""fullscreenenter"",""1"",""3778""
","
","","","","","","null","<div style=""font-size:60px;"">+</div>","null","","fixation","","","","","","","","",""
"memory-trial","273","631537","0.0-15.0-1.114","1913","2","""event"",""trial"",""time""
""fullscreenenter"",""1"",""3778""
","
","
","""event"",""trial"",""time""
""fullscreenenter"",""1"",""3778""
","
","","","","","","1442.9000000953674","images/dog1.png","","","memory_trial","3","maybe_new","","","","","","",""
"html-keyboard-response","274","632042","0.0-15.0-0.115","1913","2","""event"",""trial"",""time""
""fullscreenenter"",""1"",""3778""
","
","
","""event"",""trial"",""time""
""fullscreenenter"",""1"",""3778""
","
","","","","","","null","<div style=""font-size:60px;"">+</div>","null","","fixation","","","","","","","","",""
"memory-trial","275","634592","0.0-15.0-1.115","1913","2","""event"",""trial"",""time""
""fullscreenenter"",""1"",""3778""
","
","
","""event"",""trial"",""time""
""fullscreenenter"",""1"",""3778""
","
","","","","","","1539.3000000715256","images/orange1.png","","","memory_trial","2","maybe_old","","","","","","",""
"html-keyboard-response","276","635097","0.0-15.0-0.116","1913","2","""event"",""trial"",""time""
""fullscreenenter"",""1"",""3778""
","
","
","""event"",""trial"",""time""
""fullscreenenter"",""1"",""3778""
","
","","","","","","null","<div style=""font-size:60px;"">+</div>","null","","fixation","","","","","","","","",""
"memory-trial","277","637642","0.0-15.0-1.116","1913","2","""event"",""trial"",""time""
""fullscreenenter"",""1"",""3778""
","
","
","""event"",""trial"",""time""
""fullscreenenter"",""1"",""3778""
","
","","","","","","1539.6000000238419","images/flower2.png","","","memory_trial","3","maybe_new","","","","","","",""
"html-keyboard-response","278","638147","0.0-15.0-0.117","1913","2","""event"",""trial"",""time""
""fullscreenenter"",""1"",""3778""
","
","
","""event"",""trial"",""time""
""fullscreenenter"",""1"",""3778""
","
","","","","","","null","<div style=""font-size:60px;"">+</div>","null","","fixation","","","","","","","","",""
"memory-trial","279","640148","0.0-15.0-1.117","1913","2","""event"",""trial"",""time""
""fullscreenenter"",""1"",""3778""
","
","
","""event"",""trial"",""time""
""fullscreenenter"",""1"",""3778""
","
","","","","","","994.2000000476837","images/tree3.png","","","memory_trial","3","maybe_new","","","","","","",""
"html-keyboard-response","280","640652","0.0-15.0-0.118","1913","2","""event"",""trial"",""time""
""fullscreenenter"",""1"",""3778""
","
","
","""event"",""trial"",""time""
""fullscreenenter"",""1"",""3778""
","
","","","","","","null","<div style=""font-size:60px;"">+</div>","null","","fixation","","","","","","","","",""
"memory-trial","281","643517","0.0-15.0-1.118","1913","2","""event"",""trial"",""time""
""fullscreenenter"",""1"",""3778""
","
","
","""event"",""trial"",""time""
""fullscreenenter"",""1"",""3778""
","
","","","","","","1860.7999999523163","images/straw2.png","","","memory_trial","3","maybe_new","","","","","","",""
"html-keyboard-response","282","644020","0.0-15.0-0.119","1913","2","""event"",""trial"",""time""
""fullscreenenter"",""1"",""3778""
","
","
","""event"",""trial"",""time""
""fullscreenenter"",""1"",""3778""
","
","","","","","","null","<div style=""font-size:60px;"">+</div>","null","","fixation","","","","","","","","",""
"memory-trial","283","646423","0.0-15.0-1.119","1913","2","""event"",""trial"",""time""
""fullscreenenter"",""1"",""3778""
","
","
","""event"",""trial"",""time""
""fullscreenenter"",""1"",""3778""
","
","","","","","","1396.8000000715256","images/horse1.png","","","memory_trial","2","maybe_old","","","","","","",""
"preload","284","669137","0.0-16.0","1913","2","""event"",""trial"",""time""
""fullscreenenter"",""1"",""3778""
","
","
","""event"",""trial"",""time""
""fullscreenenter"",""1"",""3778""
","
","true","false","[]","[]","[]","","","","","","","","","","","","","",""
"learning-instructions","285","685127","0.0-17.0-0.0-0.0-0.0","1913","2","""event"",""trial"",""time""
""fullscreenenter"",""1"",""3778""
","
","
","""event"",""trial"",""time""
""fullscreenenter"",""1"",""3778""
","
","","","","","","12819.5","<p> We're now going to ask you to feed your pets again. </p>","","0","instructions","","","","","","","","",""
"learning-instructions","286","692683","0.0-17.0-0.0-0.0-0.1","1913","2","""event"",""trial"",""time""
""fullscreenenter"",""1"",""3778""
","
","
","""event"",""trial"",""time""
""fullscreenenter"",""1"",""3778""
","
","","","","","","1406.1000000238419","<p> On each trial, you will see a pet. Select the food that you think is most likely to make the pet happy. </p>","","0","instructions","","","","","","","","",""
"learning-instructions","287","701074","0.0-17.0-0.0-0.0-0.2","1913","2","""event"",""trial"",""time""
""fullscreenenter"",""1"",""3778""
","
","
","""event"",""trial"",""time""
""fullscreenenter"",""1"",""3778""
","
","","","","","","1325.7000000476837","<p> To make your selection, think about what you learned last week. You will NOT receive any feedback about your choice. </p>","","0","instructions","","","","","","","","",""
"learning-instructions","288","711309","0.0-17.0-0.0-0.0-0.3","1913","2","""event"",""trial"",""time""
""fullscreenenter"",""1"",""3778""
","
","
","""event"",""trial"",""time""
""fullscreenenter"",""1"",""3778""
","
","","","","","","2609.399999976158","<p> You should use the 1 key to select the food on the left, the 2 key to select the food in the middle, and the 3 key to select the food on the right. </p><br><div class=""choice-mem-instructions-grid""> <div class=""choice-mem-option""><img src=""images/pets_choice1.png"" class=""choice-mem-option-img"" stage=""instructions"" position=""0"" ><div class=""choice-mem-option-text""> Press ""1."" </div></div><div class=""choice-mem-option""><img src=""images/pets_choice2.png"" class=""choice-mem-option-img"" stage=""instructions"" position=""1"" ><div class=""choice-mem-option-text""> Press ""2."" </div></div><div class=""choice-mem-option""><img src=""images/pets_choice3.png"" class=""choice-mem-option-img"" stage=""instructions"" position=""2"" ><div class=""choice-mem-option-text""> Press ""3."" </div></div></div>","","0","instructions","","","","","","","","",""
"learning-instructions","289","718954","0.0-17.0-0.0-0.0-0.4","1913","2","""event"",""trial"",""time""
""fullscreenenter"",""1"",""3778""
","
","
","""event"",""trial"",""time""
""fullscreenenter"",""1"",""3778""
","
","","","","","","1375.9000000953674","<p> You will have 10 seconds to make each selection. Try to respond before time runs out! </p>","","0","instructions","","","","","","","","",""
"learning-instructions","290","722075","0.0-17.0-0.0-1.0","1913","2","""event"",""trial"",""time""
""fullscreenenter"",""1"",""3778""
","
","
","""event"",""trial"",""time""
""fullscreenenter"",""1"",""3778""
","
","","","","","","1058.3000000715256","<p> You are now ready to begin the game. </p>","","0","instructions","","","","","","","","",""
"html-keyboard-response","291","722680","0.0-17.0-0.0-2.0-0.0","1913","2","""event"",""trial"",""time""
""fullscreenenter"",""1"",""3778""
","
","
","""event"",""trial"",""time""
""fullscreenenter"",""1"",""3778""
","
","","","","","","null","<div style=""font-size:60px;"">+</div>","null","","fixation","","","","","","","","",""
"choice-memory-trial","292","725523","0.0-17.0-0.0-2.0-1.0","1913","2","""event"",""trial"",""time""
""fullscreenenter"",""1"",""3778""
","
","
","""event"",""trial"",""time""
""fullscreenenter"",""1"",""3778""
","
","","","","","","1836","images/rodent2.png","","","choice_memory_trial","1","","","images/pets_choice3.png","images/pets_choice2.png","images/pets_choice1.png","[2,1,0]","images/pets_choice3.png","pets"
"html-keyboard-response","293","726026","0.0-17.0-0.0-2.0-0.1","1913","2","""event"",""trial"",""time""
""fullscreenenter"",""1"",""3778""
","
","
